onset	duration	trial_type	event_type	time_until_response	response_time	trial_number	block_num_within_trial	image_seq_num_within_block	question_seq_num_within_block	image_seq_num	picture_number	condition	question_type	block_type	rating	rating_computed	onset_uncorrected	KDEV_imagefile
0.005	10.014	ITI	Fixation+	101.833	n/a	1	n/a	n/a	n/a	n/a	n/a	n/a	n/a	n/a	n/a	n/a	26.968	n/a
10.035	0.497	angry	Picture	101.319	n/a	1	1	1	n/a	1	108	3	n/a	n/a	n/a	n/a	36.999	AM09ANS.jpg
10.533	0.514	Blank	Blank	100.805	n/a	1	1	1	n/a	1	n/a	3	n/a	n/a	n/a	n/a	37.496	n/a
11.063	0.497	angry	Picture	100.291	n/a	1	1	2	n/a	2	99	3	n/a	n/a	n/a	n/a	38.026	AF31ANS.jpg
11.561	0.514	Blank	Blank	99.777	n/a	1	1	2	n/a	2	n/a	3	n/a	n/a	n/a	n/a	38.524	n/a
12.091	0.497	angry	Picture	99.264	n/a	1	1	3	n/a	3	98	3	n/a	n/a	n/a	n/a	39.054	BF29ANS.jpg
12.588	0.514	Blank	Blank	98.75	n/a	1	1	3	n/a	3	n/a	3	n/a	n/a	n/a	n/a	39.552	n/a
13.119	0.497	angry	Picture	98.236	n/a	1	1	4	n/a	4	107	3	n/a	n/a	n/a	n/a	40.082	BM08ANS.jpg
13.616	0.514	Blank	Blank	97.722	n/a	1	1	4	n/a	4	n/a	3	n/a	n/a	n/a	n/a	40.58	n/a
14.147	0.497	angry	Picture	97.208	n/a	1	1	5	n/a	5	104	3	n/a	n/a	n/a	n/a	41.11	BM05ANS.jpg
14.644	0.514	Blank	Blank	96.694	n/a	1	1	5	n/a	5	n/a	3	n/a	n/a	n/a	n/a	41.608	n/a
15.175	0.497	angry	Picture	96.18	n/a	1	1	6	n/a	6	101	3	n/a	n/a	n/a	n/a	42.138	AM01ANS.jpg
15.672	0.514	Blank	Blank	95.666	n/a	1	1	6	n/a	6	n/a	3	n/a	n/a	n/a	n/a	42.635	n/a
16.203	0.497	angry	Picture	95.152	n/a	1	1	7	n/a	7	103	3	n/a	n/a	n/a	n/a	43.166	AM04ANS.jpg
16.7	0.514	Blank	Blank	94.638	n/a	1	1	7	n/a	7	n/a	3	n/a	n/a	n/a	n/a	43.663	n/a
17.231	0.497	angry	Picture	94.124	n/a	1	1	8	n/a	8	111	3	n/a	n/a	n/a	n/a	44.194	BM12ANS.jpg
17.728	0.514	Blank	Blank	93.61	n/a	1	1	8	n/a	8	n/a	3	n/a	n/a	n/a	n/a	44.691	n/a
18.258	0.497	angry	Picture	93.096	n/a	1	1	9	n/a	9	110	3	n/a	n/a	n/a	n/a	45.222	AM11ANS.jpg
18.756	0.514	Blank	Blank	92.582	n/a	1	1	9	n/a	9	n/a	3	n/a	n/a	n/a	n/a	45.719	n/a
19.286	0.497	angry	Picture	92.068	n/a	1	1	10	n/a	10	85	3	n/a	n/a	n/a	n/a	46.249	BF07ANS.jpg
19.784	0.514	Blank	Blank	91.554	n/a	1	1	10	n/a	10	n/a	3	n/a	n/a	n/a	n/a	46.747	n/a
20.314	0.497	angry	Picture	91.04	n/a	1	1	11	n/a	11	87	3	n/a	n/a	n/a	n/a	47.277	BF11ANS.jpg
20.812	0.514	Blank	Blank	90.526	n/a	1	1	11	n/a	11	n/a	3	n/a	n/a	n/a	n/a	47.775	n/a
21.342	0.497	angry	Picture	90.013	n/a	1	1	12	n/a	12	91	3	n/a	n/a	n/a	n/a	48.305	AF20ANS.jpg
21.84	0.514	Blank	Blank	89.499	n/a	1	1	12	n/a	12	n/a	3	n/a	n/a	n/a	n/a	48.803	n/a
22.37	0.497	angry	Picture	88.985	n/a	1	1	13	n/a	13	115	3	n/a	n/a	n/a	n/a	49.333	AM23ANS.jpg
22.867	0.514	Blank	Blank	88.471	n/a	1	1	13	n/a	13	n/a	3	n/a	n/a	n/a	n/a	49.831	n/a
23.398	0.497	angry	Picture	87.957	n/a	1	1	14	n/a	14	97	3	n/a	n/a	n/a	n/a	50.361	BF28ANS.jpg
23.895	0.514	Blank	Blank	87.443	n/a	1	1	14	n/a	14	n/a	3	n/a	n/a	n/a	n/a	50.858	n/a
24.426	0.497	angry	Picture	86.929	n/a	1	1	15	n/a	15	82	3	n/a	n/a	n/a	n/a	51.389	AF03ANS.jpg
24.923	0.514	Blank	Blank	86.415	n/a	1	1	15	n/a	15	n/a	3	n/a	n/a	n/a	n/a	51.886	n/a
25.454	0.497	angry	Picture	85.901	n/a	1	1	16	n/a	16	96	3	n/a	n/a	n/a	n/a	52.417	AF26ANS.jpg
25.951	0.514	Blank	Blank	85.387	n/a	1	1	16	n/a	16	n/a	3	n/a	n/a	n/a	n/a	52.914	n/a
26.481	0.497	angry	Picture	84.873	n/a	1	1	17	n/a	17	109	3	n/a	n/a	n/a	n/a	53.445	AM10ANS.jpg
26.979	0.514	Blank	Blank	84.359	n/a	1	1	17	n/a	17	n/a	3	n/a	n/a	n/a	n/a	53.942	n/a
27.509	0.497	angry	Picture	83.845	n/a	1	1	18	n/a	18	114	3	n/a	n/a	n/a	n/a	54.473	AM22ANS.jpg
28.007	0.514	Blank	Blank	83.331	n/a	1	1	18	n/a	18	n/a	3	n/a	n/a	n/a	n/a	54.97	n/a
28.537	0.497	angry	Picture	82.817	n/a	1	1	19	n/a	19	120	3	n/a	n/a	n/a	n/a	55.501	AM35ANS.jpg
29.035	0.514	Blank	Blank	82.303	n/a	1	1	19	n/a	19	n/a	3	n/a	n/a	n/a	n/a	55.998	n/a
29.565	0.497	angry	Picture	81.789	n/a	1	1	20	n/a	20	81	3	n/a	n/a	n/a	n/a	56.528	AF01ANS.jpg
30.063	0.514	Blank	Blank	81.276	n/a	1	1	20	n/a	20	n/a	3	n/a	n/a	n/a	n/a	57.026	n/a
30.593	10.014	ITI	Fixation+	71.245	n/a	1	n/a	n/a	n/a	n/a	n/a	n/a	n/a	n/a	n/a	n/a	57.556	n/a
40.623	0.497	neutral	Picture	70.731	n/a	1	2	1	n/a	21	28	1	n/a	n/a	n/a	n/a	67.587	AM09NES.jpg
41.121	0.514	Blank	Blank	70.217	n/a	1	2	1	n/a	21	n/a	1	n/a	n/a	n/a	n/a	68.084	n/a
41.651	0.497	neutral	Picture	69.703	n/a	1	2	2	n/a	22	27	1	n/a	n/a	n/a	n/a	68.614	BM08NES.jpg
42.148	0.514	Blank	Blank	69.19	n/a	1	2	2	n/a	22	n/a	1	n/a	n/a	n/a	n/a	69.112	n/a
42.679	0.497	neutral	Picture	68.676	n/a	1	2	3	n/a	23	16	1	n/a	n/a	n/a	n/a	69.642	AF26NES.jpg
43.176	0.514	Blank	Blank	68.162	n/a	1	2	3	n/a	23	n/a	1	n/a	n/a	n/a	n/a	70.14	n/a
43.707	0.497	neutral	Picture	67.648	n/a	1	2	4	n/a	24	3	1	n/a	n/a	n/a	n/a	70.67	BF04NES.jpg
44.204	0.514	Blank	Blank	67.134	n/a	1	2	4	n/a	24	n/a	1	n/a	n/a	n/a	n/a	71.168	n/a
44.735	0.497	neutral	Picture	66.62	n/a	1	2	5	n/a	25	32	1	n/a	n/a	n/a	n/a	71.698	AM14NES.jpg
45.232	0.514	Blank	Blank	66.106	n/a	1	2	5	n/a	25	n/a	1	n/a	n/a	n/a	n/a	72.195	n/a
45.763	0.497	neutral	Picture	65.592	n/a	1	2	6	n/a	26	37	1	n/a	n/a	n/a	n/a	72.726	BM25NES.jpg
46.26	0.514	Blank	Blank	65.078	n/a	1	2	6	n/a	26	n/a	1	n/a	n/a	n/a	n/a	73.223	n/a
46.791	0.497	neutral	Picture	64.564	n/a	1	2	7	n/a	27	15	1	n/a	n/a	n/a	n/a	73.754	AF25NES.jpg
47.288	0.514	Blank	Blank	64.05	n/a	1	2	7	n/a	27	n/a	1	n/a	n/a	n/a	n/a	74.251	n/a
47.819	0.497	neutral	Picture	63.536	n/a	1	2	8	n/a	28	23	1	n/a	n/a	n/a	n/a	74.782	AM04NES.jpg
48.316	0.514	Blank	Blank	63.022	n/a	1	2	8	n/a	28	n/a	1	n/a	n/a	n/a	n/a	75.279	n/a
48.846	0.497	neutral	Picture	62.508	n/a	1	2	9	n/a	29	34	1	n/a	n/a	n/a	n/a	75.81	AM22NES.jpg
49.344	0.514	Blank	Blank	61.994	n/a	1	2	9	n/a	29	n/a	1	n/a	n/a	n/a	n/a	76.307	n/a
49.874	0.497	neutral	Picture	61.48	n/a	1	2	10	n/a	30	24	1	n/a	n/a	n/a	n/a	76.837	BM05NES.jpg
50.372	0.514	Blank	Blank	60.966	n/a	1	2	10	n/a	30	n/a	1	n/a	n/a	n/a	n/a	77.335	n/a
50.902	0.497	neutral	Picture	60.453	n/a	1	2	11	n/a	31	12	1	n/a	n/a	n/a	n/a	77.865	AF21NES.jpg
51.4	0.514	Blank	Blank	59.939	n/a	1	2	11	n/a	31	n/a	1	n/a	n/a	n/a	n/a	78.363	n/a
51.93	0.497	neutral	Picture	59.425	n/a	1	2	12	n/a	32	6	1	n/a	n/a	n/a	n/a	78.893	AF09NES.jpg
52.427	0.514	Blank	Blank	58.911	n/a	1	2	12	n/a	32	n/a	1	n/a	n/a	n/a	n/a	79.391	n/a
52.958	0.497	neutral	Picture	58.397	n/a	1	2	13	n/a	33	17	1	n/a	n/a	n/a	n/a	79.921	BF28NES.jpg
53.455	0.514	Blank	Blank	57.883	n/a	1	2	13	n/a	33	n/a	1	n/a	n/a	n/a	n/a	80.418	n/a
53.986	0.497	neutral	Picture	57.369	n/a	1	2	14	n/a	34	2	1	n/a	n/a	n/a	n/a	80.949	AF03NES.jpg
54.483	0.514	Blank	Blank	56.855	n/a	1	2	14	n/a	34	n/a	1	n/a	n/a	n/a	n/a	81.446	n/a
55.014	0.497	neutral	Picture	56.341	n/a	1	2	15	n/a	35	9	1	n/a	n/a	n/a	n/a	81.977	AF17NES.jpg
55.511	0.514	Blank	Blank	55.827	n/a	1	2	15	n/a	35	n/a	1	n/a	n/a	n/a	n/a	82.474	n/a
56.042	0.497	neutral	Picture	55.313	n/a	1	2	16	n/a	36	25	1	n/a	n/a	n/a	n/a	83.005	BM06NES.jpg
56.539	0.514	Blank	Blank	54.799	n/a	1	2	16	n/a	36	n/a	1	n/a	n/a	n/a	n/a	83.502	n/a
57.07	0.497	neutral	Picture	54.285	n/a	1	2	17	n/a	37	8	1	n/a	n/a	n/a	n/a	84.033	AF14NES.jpg
57.567	0.514	Blank	Blank	53.771	n/a	1	2	17	n/a	37	n/a	1	n/a	n/a	n/a	n/a	84.53	n/a
58.097	0.497	neutral	Picture	53.257	n/a	1	2	18	n/a	38	19	1	n/a	n/a	n/a	n/a	85.061	AF31NES.jpg
58.595	0.514	Blank	Blank	52.743	n/a	1	2	18	n/a	38	n/a	1	n/a	n/a	n/a	n/a	85.558	n/a
59.125	0.497	neutral	Picture	52.229	n/a	1	2	19	n/a	39	14	1	n/a	n/a	n/a	n/a	86.088	AF23NES.jpg
59.623	0.514	Blank	Blank	51.715	n/a	1	2	19	n/a	39	n/a	1	n/a	n/a	n/a	n/a	86.586	n/a
60.153	0.497	neutral	Picture	51.202	n/a	1	2	20	n/a	40	4	1	n/a	n/a	n/a	n/a	87.116	AF05NES.jpg
60.65	0.514	Blank	Blank	50.688	n/a	1	2	20	n/a	40	n/a	1	n/a	n/a	n/a	n/a	87.614	n/a
61.181	10.014	ITI	Fixation+	40.657	n/a	1	n/a	n/a	n/a	n/a	n/a	n/a	n/a	n/a	n/a	n/a	88.144	n/a
71.211	0.497	angry	Picture	40.144	n/a	1	3	1	n/a	41	84	3	n/a	n/a	n/a	n/a	98.174	AF05ANS.jpg
71.709	0.514	Blank	Blank	39.63	n/a	1	3	1	n/a	41	n/a	3	n/a	n/a	n/a	n/a	98.672	n/a
72.239	0.497	angry	Picture	39.116	n/a	1	3	2	n/a	42	92	3	n/a	n/a	n/a	n/a	99.202	AF21ANS.jpg
72.736	0.514	Blank	Blank	38.602	n/a	1	3	2	n/a	42	n/a	3	n/a	n/a	n/a	n/a	99.7	n/a
73.267	0.497	angry	Picture	38.088	n/a	1	3	3	n/a	43	86	3	n/a	n/a	n/a	n/a	100.23	AF09ANS.jpg
73.764	0.514	Blank	Blank	37.574	n/a	1	3	3	n/a	43	n/a	3	n/a	n/a	n/a	n/a	100.728	n/a
74.295	0.497	angry	Picture	37.06	n/a	1	3	4	n/a	44	93	3	n/a	n/a	n/a	n/a	101.258	BF22ANS.jpg
74.792	0.514	Blank	Blank	36.546	n/a	1	3	4	n/a	44	n/a	3	n/a	n/a	n/a	n/a	101.755	n/a
75.323	0.497	angry	Picture	36.032	n/a	1	3	5	n/a	45	88	3	n/a	n/a	n/a	n/a	102.286	AF14ANS.jpg
75.82	0.514	Blank	Blank	35.518	n/a	1	3	5	n/a	45	n/a	3	n/a	n/a	n/a	n/a	102.783	n/a
76.351	0.497	angry	Picture	35.004	n/a	1	3	6	n/a	46	113	3	n/a	n/a	n/a	n/a	103.314	AM21ANS.jpg
76.848	0.514	Blank	Blank	34.49	n/a	1	3	6	n/a	46	n/a	3	n/a	n/a	n/a	n/a	103.811	n/a
77.379	0.497	angry	Picture	33.976	n/a	1	3	7	n/a	47	95	3	n/a	n/a	n/a	n/a	104.342	AF25ANS.jpg
77.876	0.514	Blank	Blank	33.462	n/a	1	3	7	n/a	47	n/a	3	n/a	n/a	n/a	n/a	104.839	n/a
78.406	0.497	angry	Picture	32.948	n/a	1	3	8	n/a	48	102	3	n/a	n/a	n/a	n/a	105.37	BM03ANS.jpg
78.904	0.514	Blank	Blank	32.434	n/a	1	3	8	n/a	48	n/a	3	n/a	n/a	n/a	n/a	105.867	n/a
79.434	0.497	angry	Picture	31.92	n/a	1	3	9	n/a	49	112	3	n/a	n/a	n/a	n/a	106.397	AM14ANS.jpg
79.932	0.514	Blank	Blank	31.406	n/a	1	3	9	n/a	49	n/a	3	n/a	n/a	n/a	n/a	106.895	n/a
80.462	0.497	angry	Picture	30.893	n/a	1	3	10	n/a	50	83	3	n/a	n/a	n/a	n/a	107.425	BF04ANS.jpg
80.96	0.514	Blank	Blank	30.379	n/a	1	3	10	n/a	50	n/a	3	n/a	n/a	n/a	n/a	107.923	n/a
81.49	0.497	angry	Picture	29.865	n/a	1	3	11	n/a	51	90	3	n/a	n/a	n/a	n/a	108.453	AF18ANS.jpg
81.987	0.514	Blank	Blank	29.351	n/a	1	3	11	n/a	51	n/a	3	n/a	n/a	n/a	n/a	108.951	n/a
82.518	0.497	angry	Picture	28.837	n/a	1	3	12	n/a	52	117	3	n/a	n/a	n/a	n/a	109.481	BM25ANS.jpg
83.015	0.514	Blank	Blank	28.323	n/a	1	3	12	n/a	52	n/a	3	n/a	n/a	n/a	n/a	109.978	n/a
83.546	0.497	angry	Picture	27.809	n/a	1	3	13	n/a	53	94	3	n/a	n/a	n/a	n/a	110.509	AF23ANS.jpg
84.043	0.514	Blank	Blank	27.295	n/a	1	3	13	n/a	53	n/a	3	n/a	n/a	n/a	n/a	111.006	n/a
84.574	0.497	angry	Picture	26.781	n/a	1	3	14	n/a	54	106	3	n/a	n/a	n/a	n/a	111.537	AM07ANS.jpg
85.071	0.514	Blank	Blank	26.267	n/a	1	3	14	n/a	54	n/a	3	n/a	n/a	n/a	n/a	112.034	n/a
85.602	0.497	angry	Picture	25.753	n/a	1	3	15	n/a	55	105	3	n/a	n/a	n/a	n/a	112.565	BM06ANS.jpg
86.099	0.514	Blank	Blank	25.239	n/a	1	3	15	n/a	55	n/a	3	n/a	n/a	n/a	n/a	113.062	n/a
86.629	0.497	angry	Picture	24.725	n/a	1	3	16	n/a	56	116	3	n/a	n/a	n/a	n/a	113.593	BM24ANS.jpg
87.127	0.514	Blank	Blank	24.211	n/a	1	3	16	n/a	56	n/a	3	n/a	n/a	n/a	n/a	114.09	n/a
87.657	0.497	angry	Picture	23.697	n/a	1	3	17	n/a	57	89	3	n/a	n/a	n/a	n/a	114.621	AF17ANS.jpg
88.155	0.514	Blank	Blank	23.183	n/a	1	3	17	n/a	57	n/a	3	n/a	n/a	n/a	n/a	115.118	n/a
88.685	0.497	angry	Picture	22.669	n/a	1	3	18	n/a	58	118	3	n/a	n/a	n/a	n/a	115.648	BM26ANS.jpg
89.183	0.514	Blank	Blank	22.155	n/a	1	3	18	n/a	58	n/a	3	n/a	n/a	n/a	n/a	116.146	n/a
89.713	0.497	angry	Picture	21.642	n/a	1	3	19	n/a	59	100	3	n/a	n/a	n/a	n/a	116.676	AF32ANS.jpg
90.21	0.514	Blank	Blank	21.128	n/a	1	3	19	n/a	59	n/a	3	n/a	n/a	n/a	n/a	117.174	n/a
90.741	0.497	angry	Picture	20.614	n/a	1	3	20	n/a	60	119	3	n/a	n/a	n/a	n/a	117.704	BM28ANS.jpg
91.238	0.514	Blank	Blank	20.1	n/a	1	3	20	n/a	60	n/a	3	n/a	n/a	n/a	n/a	118.202	n/a
91.769	10.014	ITI	Fixation+	10.07	n/a	1	n/a	n/a	n/a	n/a	n/a	n/a	n/a	n/a	n/a	n/a	118.732	n/a
111.852	n/a	ConfirmRating	Rate	n/a	10.047	1	n/a	n/a	0	n/a	n/a	n/a	2	Angry	40	50	138.815	n/a
116.707	n/a	ConfirmRating	Rate	n/a	4.841	1	n/a	n/a	1	n/a	n/a	n/a	3	Angry	50	50	143.67	n/a
116.737	10.014	ITI	Fixation+	94.649	n/a	2	n/a	n/a	n/a	n/a	n/a	n/a	n/a	n/a	n/a	n/a	143.7	n/a
126.767	0.497	happy	Picture	94.135	n/a	2	4	1	n/a	61	79	2	n/a	n/a	n/a	n/a	153.73	BM28HAS.jpg
127.264	0.514	Blank	Blank	93.621	n/a	2	4	1	n/a	61	n/a	2	n/a	n/a	n/a	n/a	154.227	n/a
127.795	0.497	happy	Picture	93.107	n/a	2	4	2	n/a	62	61	2	n/a	n/a	n/a	n/a	154.758	AM01HAS.jpg
128.292	0.514	Blank	Blank	92.593	n/a	2	4	2	n/a	62	n/a	2	n/a	n/a	n/a	n/a	155.255	n/a
128.822	0.497	happy	Picture	92.079	n/a	2	4	3	n/a	63	57	2	n/a	n/a	n/a	n/a	155.786	BF28HAS.jpg
129.32	0.514	Blank	Blank	91.565	n/a	2	4	3	n/a	63	n/a	2	n/a	n/a	n/a	n/a	156.283	n/a
129.85	0.497	happy	Picture	91.052	n/a	2	4	4	n/a	64	77	2	n/a	n/a	n/a	n/a	156.814	BM25HAS.jpg
130.348	0.514	Blank	Blank	90.538	n/a	2	4	4	n/a	64	n/a	2	n/a	n/a	n/a	n/a	157.311	n/a
130.878	0.497	happy	Picture	90.024	n/a	2	4	5	n/a	65	47	2	n/a	n/a	n/a	n/a	157.841	BF11HAS.jpg
131.376	0.514	Blank	Blank	89.51	n/a	2	4	5	n/a	65	n/a	2	n/a	n/a	n/a	n/a	158.339	n/a
131.906	0.497	happy	Picture	88.996	n/a	2	4	6	n/a	66	50	2	n/a	n/a	n/a	n/a	158.869	AF18HAS.jpg
132.404	0.514	Blank	Blank	88.482	n/a	2	4	6	n/a	66	n/a	2	n/a	n/a	n/a	n/a	159.367	n/a
132.934	0.497	happy	Picture	87.968	n/a	2	4	7	n/a	67	78	2	n/a	n/a	n/a	n/a	159.897	BM26HAS.jpg
133.431	0.514	Blank	Blank	87.454	n/a	2	4	7	n/a	67	n/a	2	n/a	n/a	n/a	n/a	160.395	n/a
133.962	0.497	happy	Picture	86.94	n/a	2	4	8	n/a	68	45	2	n/a	n/a	n/a	n/a	160.925	BF07HAS.jpg
134.459	0.514	Blank	Blank	86.426	n/a	2	4	8	n/a	68	n/a	2	n/a	n/a	n/a	n/a	161.423	n/a
134.99	0.497	happy	Picture	85.912	n/a	2	4	9	n/a	69	56	2	n/a	n/a	n/a	n/a	161.953	AF26HAS.jpg
135.487	0.514	Blank	Blank	85.398	n/a	2	4	9	n/a	69	n/a	2	n/a	n/a	n/a	n/a	162.45	n/a
136.018	0.497	happy	Picture	84.884	n/a	2	4	10	n/a	70	65	2	n/a	n/a	n/a	n/a	162.981	BM06HAS.jpg
136.515	0.514	Blank	Blank	84.37	n/a	2	4	10	n/a	70	n/a	2	n/a	n/a	n/a	n/a	163.478	n/a
137.046	0.497	happy	Picture	83.856	n/a	2	4	11	n/a	71	73	2	n/a	n/a	n/a	n/a	164.009	AM21HAS.jpg
137.543	0.514	Blank	Blank	83.342	n/a	2	4	11	n/a	71	n/a	2	n/a	n/a	n/a	n/a	164.506	n/a
138.073	0.497	happy	Picture	82.828	n/a	2	4	12	n/a	72	41	2	n/a	n/a	n/a	n/a	165.037	AF01HAS.jpg
138.571	0.514	Blank	Blank	82.315	n/a	2	4	12	n/a	72	n/a	2	n/a	n/a	n/a	n/a	165.534	n/a
139.101	0.497	happy	Picture	81.801	n/a	2	4	13	n/a	73	59	2	n/a	n/a	n/a	n/a	166.065	AF31HAS.jpg
139.599	0.514	Blank	Blank	81.287	n/a	2	4	13	n/a	73	n/a	2	n/a	n/a	n/a	n/a	166.562	n/a
140.129	0.497	happy	Picture	80.773	n/a	2	4	14	n/a	74	64	2	n/a	n/a	n/a	n/a	167.093	BM05HAS.jpg
140.627	0.514	Blank	Blank	80.259	n/a	2	4	14	n/a	74	n/a	2	n/a	n/a	n/a	n/a	167.59	n/a
141.157	0.497	happy	Picture	79.745	n/a	2	4	15	n/a	75	68	2	n/a	n/a	n/a	n/a	168.12	AM09HAS.jpg
141.655	0.514	Blank	Blank	79.231	n/a	2	4	15	n/a	75	n/a	2	n/a	n/a	n/a	n/a	168.618	n/a
142.185	0.497	happy	Picture	78.717	n/a	2	4	16	n/a	76	54	2	n/a	n/a	n/a	n/a	169.148	AF23HAS.jpg
142.682	0.514	Blank	Blank	78.203	n/a	2	4	16	n/a	76	n/a	2	n/a	n/a	n/a	n/a	169.646	n/a
143.213	0.497	happy	Picture	77.689	n/a	2	4	17	n/a	77	53	2	n/a	n/a	n/a	n/a	170.176	BF22HAS.jpg
143.71	0.514	Blank	Blank	77.175	n/a	2	4	17	n/a	77	n/a	2	n/a	n/a	n/a	n/a	170.673	n/a
144.241	0.497	happy	Picture	76.661	n/a	2	4	18	n/a	78	44	2	n/a	n/a	n/a	n/a	171.204	AF05HAS.jpg
144.738	0.514	Blank	Blank	76.147	n/a	2	4	18	n/a	78	n/a	2	n/a	n/a	n/a	n/a	171.701	n/a
145.269	0.497	happy	Picture	75.633	n/a	2	4	19	n/a	79	52	2	n/a	n/a	n/a	n/a	172.232	AF21HAS.jpg
145.766	0.514	Blank	Blank	75.119	n/a	2	4	19	n/a	79	n/a	2	n/a	n/a	n/a	n/a	172.729	n/a
146.297	0.497	happy	Picture	74.605	n/a	2	4	20	n/a	80	62	2	n/a	n/a	n/a	n/a	173.26	BM03HAS.jpg
146.794	0.514	Blank	Blank	74.091	n/a	2	4	20	n/a	80	n/a	2	n/a	n/a	n/a	n/a	173.757	n/a
147.325	10.014	ITI	Fixation+	64.061	n/a	2	n/a	n/a	n/a	n/a	n/a	n/a	n/a	n/a	n/a	n/a	174.288	n/a
157.355	0.497	neutral	Picture	63.547	n/a	2	5	1	n/a	81	23	1	n/a	n/a	n/a	n/a	184.318	AM04NES.jpg
157.852	0.514	Blank	Blank	63.033	n/a	2	5	1	n/a	81	n/a	1	n/a	n/a	n/a	n/a	184.815	n/a
158.383	0.497	neutral	Picture	62.519	n/a	2	5	2	n/a	82	29	1	n/a	n/a	n/a	n/a	185.346	AM10NES.jpg
158.88	0.514	Blank	Blank	62.005	n/a	2	5	2	n/a	82	n/a	1	n/a	n/a	n/a	n/a	185.843	n/a
159.411	0.497	neutral	Picture	61.492	n/a	2	5	3	n/a	83	24	1	n/a	n/a	n/a	n/a	186.374	BM05NES.jpg
159.908	0.514	Blank	Blank	60.978	n/a	2	5	3	n/a	83	n/a	1	n/a	n/a	n/a	n/a	186.871	n/a
160.438	0.497	neutral	Picture	60.464	n/a	2	5	4	n/a	84	12	1	n/a	n/a	n/a	n/a	187.401	AF21NES.jpg
160.936	0.514	Blank	Blank	59.95	n/a	2	5	4	n/a	84	n/a	1	n/a	n/a	n/a	n/a	187.899	n/a
161.466	0.497	neutral	Picture	59.436	n/a	2	5	5	n/a	85	13	1	n/a	n/a	n/a	n/a	188.429	BF22NES.jpg
161.964	0.514	Blank	Blank	58.922	n/a	2	5	5	n/a	85	n/a	1	n/a	n/a	n/a	n/a	188.927	n/a
162.494	0.497	neutral	Picture	58.408	n/a	2	5	6	n/a	86	17	1	n/a	n/a	n/a	n/a	189.457	BF28NES.jpg
162.992	0.514	Blank	Blank	57.894	n/a	2	5	6	n/a	86	n/a	1	n/a	n/a	n/a	n/a	189.955	n/a
163.522	0.497	neutral	Picture	57.38	n/a	2	5	7	n/a	87	4	1	n/a	n/a	n/a	n/a	190.485	AF05NES.jpg
164.019	0.514	Blank	Blank	56.866	n/a	2	5	7	n/a	87	n/a	1	n/a	n/a	n/a	n/a	190.983	n/a
164.55	0.497	neutral	Picture	56.352	n/a	2	5	8	n/a	88	11	1	n/a	n/a	n/a	n/a	191.513	AF20NES.jpg
165.047	0.514	Blank	Blank	55.838	n/a	2	5	8	n/a	88	n/a	1	n/a	n/a	n/a	n/a	192.011	n/a
165.578	0.497	neutral	Picture	55.324	n/a	2	5	9	n/a	89	22	1	n/a	n/a	n/a	n/a	192.541	BM03NES.jpg
166.075	0.514	Blank	Blank	54.81	n/a	2	5	9	n/a	89	n/a	1	n/a	n/a	n/a	n/a	193.038	n/a
166.606	0.497	neutral	Picture	54.296	n/a	2	5	10	n/a	90	15	1	n/a	n/a	n/a	n/a	193.569	AF25NES.jpg
167.103	0.514	Blank	Blank	53.782	n/a	2	5	10	n/a	90	n/a	1	n/a	n/a	n/a	n/a	194.066	n/a
167.633	0.497	neutral	Picture	53.268	n/a	2	5	11	n/a	91	19	1	n/a	n/a	n/a	n/a	194.597	AF31NES.jpg
168.131	0.514	Blank	Blank	52.754	n/a	2	5	11	n/a	91	n/a	1	n/a	n/a	n/a	n/a	195.094	n/a
168.661	0.497	neutral	Picture	52.241	n/a	2	5	12	n/a	92	9	1	n/a	n/a	n/a	n/a	195.625	AF17NES.jpg
169.159	0.514	Blank	Blank	51.727	n/a	2	5	12	n/a	92	n/a	1	n/a	n/a	n/a	n/a	196.122	n/a
169.689	0.497	neutral	Picture	51.213	n/a	2	5	13	n/a	93	14	1	n/a	n/a	n/a	n/a	196.653	AF23NES.jpg
170.187	0.514	Blank	Blank	50.699	n/a	2	5	13	n/a	93	n/a	1	n/a	n/a	n/a	n/a	197.15	n/a
170.717	0.497	neutral	Picture	50.185	n/a	2	5	14	n/a	94	36	1	n/a	n/a	n/a	n/a	197.68	BM24NES.jpg
171.215	0.514	Blank	Blank	49.671	n/a	2	5	14	n/a	94	n/a	1	n/a	n/a	n/a	n/a	198.178	n/a
171.745	0.497	neutral	Picture	49.157	n/a	2	5	15	n/a	95	34	1	n/a	n/a	n/a	n/a	198.708	AM22NES.jpg
172.243	0.514	Blank	Blank	48.643	n/a	2	5	15	n/a	95	n/a	1	n/a	n/a	n/a	n/a	199.206	n/a
172.773	0.497	neutral	Picture	48.129	n/a	2	5	16	n/a	96	10	1	n/a	n/a	n/a	n/a	199.736	AF18NES.jpg
173.27	0.514	Blank	Blank	47.615	n/a	2	5	16	n/a	96	n/a	1	n/a	n/a	n/a	n/a	200.233	n/a
173.801	0.497	neutral	Picture	47.101	n/a	2	5	17	n/a	97	5	1	n/a	n/a	n/a	n/a	200.764	BF07NES.jpg
174.298	0.514	Blank	Blank	46.587	n/a	2	5	17	n/a	97	n/a	1	n/a	n/a	n/a	n/a	201.261	n/a
174.829	0.497	neutral	Picture	46.073	n/a	2	5	18	n/a	98	25	1	n/a	n/a	n/a	n/a	201.792	BM06NES.jpg
175.326	0.514	Blank	Blank	45.559	n/a	2	5	18	n/a	98	n/a	1	n/a	n/a	n/a	n/a	202.289	n/a
175.857	0.497	neutral	Picture	45.045	n/a	2	5	19	n/a	99	39	1	n/a	n/a	n/a	n/a	202.82	AM28NES.jpg
176.354	0.514	Blank	Blank	44.531	n/a	2	5	19	n/a	99	n/a	1	n/a	n/a	n/a	n/a	203.317	n/a
176.885	0.497	neutral	Picture	44.017	n/a	2	5	20	n/a	100	33	1	n/a	n/a	n/a	n/a	203.848	AM21NES.jpg
177.382	0.514	Blank	Blank	43.504	n/a	2	5	20	n/a	100	n/a	1	n/a	n/a	n/a	n/a	204.345	n/a
177.912	10.014	ITI	Fixation+	33.473	n/a	2	n/a	n/a	n/a	n/a	n/a	n/a	n/a	n/a	n/a	n/a	204.876	n/a
187.943	0.497	happy	Picture	32.959	n/a	2	6	1	n/a	101	74	2	n/a	n/a	n/a	n/a	214.906	AM22HAS.jpg
188.44	0.514	Blank	Blank	32.445	n/a	2	6	1	n/a	101	n/a	2	n/a	n/a	n/a	n/a	215.403	n/a
188.97	0.497	happy	Picture	31.932	n/a	2	6	2	n/a	102	76	2	n/a	n/a	n/a	n/a	215.934	BM24HAS.jpg
189.468	0.514	Blank	Blank	31.418	n/a	2	6	2	n/a	102	n/a	2	n/a	n/a	n/a	n/a	216.431	n/a
189.998	0.497	happy	Picture	30.904	n/a	2	6	3	n/a	103	80	2	n/a	n/a	n/a	n/a	216.962	BM35HAS.jpg
190.496	0.514	Blank	Blank	30.39	n/a	2	6	3	n/a	103	n/a	2	n/a	n/a	n/a	n/a	217.459	n/a
191.026	0.497	happy	Picture	29.876	n/a	2	6	4	n/a	104	75	2	n/a	n/a	n/a	n/a	217.989	AM23HAS.jpg
191.524	0.514	Blank	Blank	29.362	n/a	2	6	4	n/a	104	n/a	2	n/a	n/a	n/a	n/a	218.487	n/a
192.054	0.497	happy	Picture	28.848	n/a	2	6	5	n/a	105	49	2	n/a	n/a	n/a	n/a	219.017	AF17HAS.jpg
192.552	0.514	Blank	Blank	28.334	n/a	2	6	5	n/a	105	n/a	2	n/a	n/a	n/a	n/a	219.515	n/a
193.082	0.497	happy	Picture	27.82	n/a	2	6	6	n/a	106	43	2	n/a	n/a	n/a	n/a	220.045	BF04HAS.jpg
193.579	0.514	Blank	Blank	27.306	n/a	2	6	6	n/a	106	n/a	2	n/a	n/a	n/a	n/a	220.543	n/a
194.11	0.497	happy	Picture	26.792	n/a	2	6	7	n/a	107	70	2	n/a	n/a	n/a	n/a	221.073	BM11HAS.jpg
194.607	0.514	Blank	Blank	26.278	n/a	2	6	7	n/a	107	n/a	2	n/a	n/a	n/a	n/a	221.571	n/a
195.138	0.497	happy	Picture	25.764	n/a	2	6	8	n/a	108	66	2	n/a	n/a	n/a	n/a	222.101	BM07HAS.jpg
195.635	0.514	Blank	Blank	25.25	n/a	2	6	8	n/a	108	n/a	2	n/a	n/a	n/a	n/a	222.598	n/a
196.166	0.497	happy	Picture	24.736	n/a	2	6	9	n/a	109	48	2	n/a	n/a	n/a	n/a	223.129	AF14HAS.jpg
196.663	0.514	Blank	Blank	24.222	n/a	2	6	9	n/a	109	n/a	2	n/a	n/a	n/a	n/a	223.626	n/a
197.194	0.497	happy	Picture	23.708	n/a	2	6	10	n/a	110	58	2	n/a	n/a	n/a	n/a	224.157	BF29HAS.jpg
197.691	0.514	Blank	Blank	23.194	n/a	2	6	10	n/a	110	n/a	2	n/a	n/a	n/a	n/a	224.654	n/a
198.221	0.497	happy	Picture	22.681	n/a	2	6	11	n/a	111	63	2	n/a	n/a	n/a	n/a	225.185	AM04HAS.jpg
198.719	0.514	Blank	Blank	22.167	n/a	2	6	11	n/a	111	n/a	2	n/a	n/a	n/a	n/a	225.682	n/a
199.249	0.497	happy	Picture	21.653	n/a	2	6	12	n/a	112	72	2	n/a	n/a	n/a	n/a	226.213	AM14HAS.jpg
199.747	0.514	Blank	Blank	21.139	n/a	2	6	12	n/a	112	n/a	2	n/a	n/a	n/a	n/a	226.71	n/a
200.277	0.497	happy	Picture	20.625	n/a	2	6	13	n/a	113	55	2	n/a	n/a	n/a	n/a	227.24	AF25HAS.jpg
200.775	0.514	Blank	Blank	20.111	n/a	2	6	13	n/a	113	n/a	2	n/a	n/a	n/a	n/a	227.738	n/a
201.305	0.497	happy	Picture	19.597	n/a	2	6	14	n/a	114	42	2	n/a	n/a	n/a	n/a	228.268	AF03HAS.jpg
201.803	0.514	Blank	Blank	19.083	n/a	2	6	14	n/a	114	n/a	2	n/a	n/a	n/a	n/a	228.766	n/a
202.333	0.497	happy	Picture	18.569	n/a	2	6	15	n/a	115	60	2	n/a	n/a	n/a	n/a	229.296	AF32HAS.jpg
202.83	0.514	Blank	Blank	18.055	n/a	2	6	15	n/a	115	n/a	2	n/a	n/a	n/a	n/a	229.794	n/a
203.361	0.497	happy	Picture	17.541	n/a	2	6	16	n/a	116	67	2	n/a	n/a	n/a	n/a	230.324	BM08HAS.jpg
203.858	0.514	Blank	Blank	17.027	n/a	2	6	16	n/a	116	n/a	2	n/a	n/a	n/a	n/a	230.821	n/a
204.389	0.497	happy	Picture	16.513	n/a	2	6	17	n/a	117	51	2	n/a	n/a	n/a	n/a	231.352	AF20HAS.jpg
204.886	0.514	Blank	Blank	15.999	n/a	2	6	17	n/a	117	n/a	2	n/a	n/a	n/a	n/a	231.849	n/a
205.417	0.497	happy	Picture	15.485	n/a	2	6	18	n/a	118	71	2	n/a	n/a	n/a	n/a	232.38	BM12HAS.jpg
205.914	0.514	Blank	Blank	14.971	n/a	2	6	18	n/a	118	n/a	2	n/a	n/a	n/a	n/a	232.877	n/a
206.445	0.497	happy	Picture	14.457	n/a	2	6	19	n/a	119	69	2	n/a	n/a	n/a	n/a	233.408	AM10HAS.jpg
206.942	0.514	Blank	Blank	13.944	n/a	2	6	19	n/a	119	n/a	2	n/a	n/a	n/a	n/a	233.905	n/a
207.472	0.497	happy	Picture	13.43	n/a	2	6	20	n/a	120	46	2	n/a	n/a	n/a	n/a	234.436	AF09HAS.jpg
207.97	0.514	Blank	Blank	12.916	n/a	2	6	20	n/a	120	n/a	2	n/a	n/a	n/a	n/a	234.933	n/a
208.5	10.014	ITI	Fixation+	2.885	n/a	2	n/a	n/a	n/a	n/a	n/a	n/a	n/a	n/a	n/a	n/a	235.464	n/a
221.399	n/a	ConfirmRating	Rate	n/a	2.885	2	n/a	n/a	0	n/a	n/a	n/a	2	Happy	71	51	248.363	n/a
227.699	n/a	ConfirmRating	Rate	n/a	6.283	2	n/a	n/a	1	n/a	n/a	n/a	3	Happy	50	50	254.662	n/a
227.732	15.004	Rest	Picture	n/a	n/a	n/a	n/a	n/a	n/a	n/a	n/a	n/a	0	n/a	0	0	254.695	n/a
242.752	10.014	ITI	Fixation+	95.01	n/a	3	n/a	n/a	n/a	n/a	n/a	n/a	n/a	n/a	n/a	n/a	269.715	n/a
252.782	0.497	angry	Picture	94.496	n/a	3	7	1	n/a	1	108	3	n/a	n/a	n/a	n/a	279.745	AM09ANS.jpg
253.28	0.514	Blank	Blank	93.982	n/a	3	7	1	n/a	1	n/a	3	n/a	n/a	n/a	n/a	280.243	n/a
253.81	0.497	angry	Picture	93.468	n/a	3	7	2	n/a	2	99	3	n/a	n/a	n/a	n/a	280.773	AF31ANS.jpg
254.308	0.514	Blank	Blank	92.954	n/a	3	7	2	n/a	2	n/a	3	n/a	n/a	n/a	n/a	281.271	n/a
254.838	0.497	angry	Picture	92.44	n/a	3	7	3	n/a	3	98	3	n/a	n/a	n/a	n/a	281.801	BF29ANS.jpg
255.335	0.514	Blank	Blank	91.926	n/a	3	7	3	n/a	3	n/a	3	n/a	n/a	n/a	n/a	282.299	n/a
255.866	0.497	angry	Picture	91.412	n/a	3	7	4	n/a	4	107	3	n/a	n/a	n/a	n/a	282.829	BM08ANS.jpg
256.363	0.514	Blank	Blank	90.898	n/a	3	7	4	n/a	4	n/a	3	n/a	n/a	n/a	n/a	283.327	n/a
256.894	0.497	angry	Picture	90.384	n/a	3	7	5	n/a	5	104	3	n/a	n/a	n/a	n/a	283.857	BM05ANS.jpg
257.391	0.514	Blank	Blank	89.87	n/a	3	7	5	n/a	5	n/a	3	n/a	n/a	n/a	n/a	284.354	n/a
257.922	0.497	angry	Picture	89.356	n/a	3	7	6	n/a	6	101	3	n/a	n/a	n/a	n/a	284.885	AM01ANS.jpg
258.419	0.514	Blank	Blank	88.842	n/a	3	7	6	n/a	6	n/a	3	n/a	n/a	n/a	n/a	285.382	n/a
258.95	0.497	angry	Picture	88.328	n/a	3	7	7	n/a	7	103	3	n/a	n/a	n/a	n/a	285.913	AM04ANS.jpg
259.447	0.514	Blank	Blank	87.815	n/a	3	7	7	n/a	7	n/a	3	n/a	n/a	n/a	n/a	286.41	n/a
259.977	0.497	angry	Picture	87.301	n/a	3	7	8	n/a	8	111	3	n/a	n/a	n/a	n/a	286.941	BM12ANS.jpg
260.475	0.514	Blank	Blank	86.787	n/a	3	7	8	n/a	8	n/a	3	n/a	n/a	n/a	n/a	287.438	n/a
261.005	0.497	angry	Picture	86.273	n/a	3	7	9	n/a	9	110	3	n/a	n/a	n/a	n/a	287.969	AM11ANS.jpg
261.503	0.514	Blank	Blank	85.759	n/a	3	7	9	n/a	9	n/a	3	n/a	n/a	n/a	n/a	288.466	n/a
262.033	0.497	angry	Picture	85.245	n/a	3	7	10	n/a	10	85	3	n/a	n/a	n/a	n/a	288.997	BF07ANS.jpg
262.531	0.514	Blank	Blank	84.731	n/a	3	7	10	n/a	10	n/a	3	n/a	n/a	n/a	n/a	289.494	n/a
263.061	0.497	angry	Picture	84.217	n/a	3	7	11	n/a	11	87	3	n/a	n/a	n/a	n/a	290.024	BF11ANS.jpg
263.558	0.514	Blank	Blank	83.703	n/a	3	7	11	n/a	11	n/a	3	n/a	n/a	n/a	n/a	290.522	n/a
264.089	0.497	angry	Picture	83.189	n/a	3	7	12	n/a	12	91	3	n/a	n/a	n/a	n/a	291.052	AF20ANS.jpg
264.586	0.514	Blank	Blank	82.675	n/a	3	7	12	n/a	12	n/a	3	n/a	n/a	n/a	n/a	291.55	n/a
265.117	0.497	angry	Picture	82.161	n/a	3	7	13	n/a	13	115	3	n/a	n/a	n/a	n/a	292.08	AM23ANS.jpg
265.614	0.514	Blank	Blank	81.647	n/a	3	7	13	n/a	13	n/a	3	n/a	n/a	n/a	n/a	292.577	n/a
266.145	0.497	angry	Picture	81.133	n/a	3	7	14	n/a	14	97	3	n/a	n/a	n/a	n/a	293.108	BF28ANS.jpg
266.642	0.514	Blank	Blank	80.619	n/a	3	7	14	n/a	14	n/a	3	n/a	n/a	n/a	n/a	293.605	n/a
267.173	0.497	angry	Picture	80.105	n/a	3	7	15	n/a	15	82	3	n/a	n/a	n/a	n/a	294.136	AF03ANS.jpg
267.67	0.514	Blank	Blank	79.591	n/a	3	7	15	n/a	15	n/a	3	n/a	n/a	n/a	n/a	294.633	n/a
268.201	0.497	angry	Picture	79.077	n/a	3	7	16	n/a	16	96	3	n/a	n/a	n/a	n/a	295.164	AF26ANS.jpg
268.698	0.514	Blank	Blank	78.564	n/a	3	7	16	n/a	16	n/a	3	n/a	n/a	n/a	n/a	295.661	n/a
269.229	0.497	angry	Picture	78.05	n/a	3	7	17	n/a	17	109	3	n/a	n/a	n/a	n/a	296.192	AM10ANS.jpg
269.726	0.514	Blank	Blank	77.536	n/a	3	7	17	n/a	17	n/a	3	n/a	n/a	n/a	n/a	296.689	n/a
270.256	0.497	angry	Picture	77.022	n/a	3	7	18	n/a	18	114	3	n/a	n/a	n/a	n/a	297.22	AM22ANS.jpg
270.754	0.514	Blank	Blank	76.508	n/a	3	7	18	n/a	18	n/a	3	n/a	n/a	n/a	n/a	297.717	n/a
271.284	0.497	angry	Picture	75.994	n/a	3	7	19	n/a	19	120	3	n/a	n/a	n/a	n/a	298.248	AM35ANS.jpg
271.782	0.514	Blank	Blank	75.48	n/a	3	7	19	n/a	19	n/a	3	n/a	n/a	n/a	n/a	298.745	n/a
272.312	0.497	angry	Picture	74.966	n/a	3	7	20	n/a	20	81	3	n/a	n/a	n/a	n/a	299.275	AF01ANS.jpg
272.809	0.514	Blank	Blank	74.452	n/a	3	7	20	n/a	20	n/a	3	n/a	n/a	n/a	n/a	299.773	n/a
273.34	10.014	ITI	Fixation+	64.422	n/a	3	n/a	n/a	n/a	n/a	n/a	n/a	n/a	n/a	n/a	n/a	300.303	n/a
283.37	0.497	neutral	Picture	63.908	n/a	3	8	1	n/a	21	28	1	n/a	n/a	n/a	n/a	310.333	AM09NES.jpg
283.868	0.514	Blank	Blank	63.394	n/a	3	8	1	n/a	21	n/a	1	n/a	n/a	n/a	n/a	310.831	n/a
284.398	0.497	neutral	Picture	62.88	n/a	3	8	2	n/a	22	27	1	n/a	n/a	n/a	n/a	311.361	BM08NES.jpg
284.895	0.514	Blank	Blank	62.366	n/a	3	8	2	n/a	22	n/a	1	n/a	n/a	n/a	n/a	311.859	n/a
285.426	0.497	neutral	Picture	61.852	n/a	3	8	3	n/a	23	16	1	n/a	n/a	n/a	n/a	312.389	AF26NES.jpg
285.923	0.514	Blank	Blank	61.338	n/a	3	8	3	n/a	23	n/a	1	n/a	n/a	n/a	n/a	312.887	n/a
286.454	0.497	neutral	Picture	60.824	n/a	3	8	4	n/a	24	3	1	n/a	n/a	n/a	n/a	313.417	BF04NES.jpg
286.951	0.514	Blank	Blank	60.31	n/a	3	8	4	n/a	24	n/a	1	n/a	n/a	n/a	n/a	313.914	n/a
287.482	0.497	neutral	Picture	59.796	n/a	3	8	5	n/a	25	32	1	n/a	n/a	n/a	n/a	314.445	AM14NES.jpg
287.979	0.514	Blank	Blank	59.282	n/a	3	8	5	n/a	25	n/a	1	n/a	n/a	n/a	n/a	314.942	n/a
288.51	0.497	neutral	Picture	58.769	n/a	3	8	6	n/a	26	37	1	n/a	n/a	n/a	n/a	315.473	BM25NES.jpg
289.007	0.514	Blank	Blank	58.255	n/a	3	8	6	n/a	26	n/a	1	n/a	n/a	n/a	n/a	315.97	n/a
289.538	0.497	neutral	Picture	57.741	n/a	3	8	7	n/a	27	15	1	n/a	n/a	n/a	n/a	316.501	AF25NES.jpg
290.035	0.514	Blank	Blank	57.227	n/a	3	8	7	n/a	27	n/a	1	n/a	n/a	n/a	n/a	316.998	n/a
290.565	0.497	neutral	Picture	56.713	n/a	3	8	8	n/a	28	23	1	n/a	n/a	n/a	n/a	317.529	AM04NES.jpg
291.063	0.514	Blank	Blank	56.199	n/a	3	8	8	n/a	28	n/a	1	n/a	n/a	n/a	n/a	318.026	n/a
291.593	0.497	neutral	Picture	55.685	n/a	3	8	9	n/a	29	34	1	n/a	n/a	n/a	n/a	318.557	AM22NES.jpg
292.091	0.514	Blank	Blank	55.171	n/a	3	8	9	n/a	29	n/a	1	n/a	n/a	n/a	n/a	319.054	n/a
292.621	0.497	neutral	Picture	54.657	n/a	3	8	10	n/a	30	24	1	n/a	n/a	n/a	n/a	319.584	BM05NES.jpg
293.119	0.514	Blank	Blank	54.143	n/a	3	8	10	n/a	30	n/a	1	n/a	n/a	n/a	n/a	320.082	n/a
293.649	0.497	neutral	Picture	53.629	n/a	3	8	11	n/a	31	12	1	n/a	n/a	n/a	n/a	320.612	AF21NES.jpg
294.146	0.514	Blank	Blank	53.115	n/a	3	8	11	n/a	31	n/a	1	n/a	n/a	n/a	n/a	321.11	n/a
294.677	0.497	neutral	Picture	52.601	n/a	3	8	12	n/a	32	6	1	n/a	n/a	n/a	n/a	321.64	AF09NES.jpg
295.174	0.514	Blank	Blank	52.087	n/a	3	8	12	n/a	32	n/a	1	n/a	n/a	n/a	n/a	322.137	n/a
295.705	0.497	neutral	Picture	51.573	n/a	3	8	13	n/a	33	17	1	n/a	n/a	n/a	n/a	322.668	BF28NES.jpg
296.202	0.514	Blank	Blank	51.059	n/a	3	8	13	n/a	33	n/a	1	n/a	n/a	n/a	n/a	323.165	n/a
296.733	0.497	neutral	Picture	50.545	n/a	3	8	14	n/a	34	2	1	n/a	n/a	n/a	n/a	323.696	AF03NES.jpg
297.23	0.514	Blank	Blank	50.031	n/a	3	8	14	n/a	34	n/a	1	n/a	n/a	n/a	n/a	324.193	n/a
297.76	0.498	neutral	Picture	49.517	n/a	3	8	15	n/a	35	9	1	n/a	n/a	n/a	n/a	324.724	AF17NES.jpg
298.258	0.514	Blank	Blank	49.004	n/a	3	8	15	n/a	35	n/a	1	n/a	n/a	n/a	n/a	325.221	n/a
298.788	0.497	neutral	Picture	48.49	n/a	3	8	16	n/a	36	25	1	n/a	n/a	n/a	n/a	325.752	BM06NES.jpg
299.286	0.514	Blank	Blank	47.976	n/a	3	8	16	n/a	36	n/a	1	n/a	n/a	n/a	n/a	326.249	n/a
299.816	0.497	neutral	Picture	47.462	n/a	3	8	17	n/a	37	8	1	n/a	n/a	n/a	n/a	326.78	AF14NES.jpg
300.314	0.514	Blank	Blank	46.948	n/a	3	8	17	n/a	37	n/a	1	n/a	n/a	n/a	n/a	327.277	n/a
300.844	0.497	neutral	Picture	46.434	n/a	3	8	18	n/a	38	19	1	n/a	n/a	n/a	n/a	327.808	AF31NES.jpg
301.342	0.514	Blank	Blank	45.92	n/a	3	8	18	n/a	38	n/a	1	n/a	n/a	n/a	n/a	328.305	n/a
301.872	0.497	neutral	Picture	45.406	n/a	3	8	19	n/a	39	14	1	n/a	n/a	n/a	n/a	328.835	AF23NES.jpg
302.37	0.514	Blank	Blank	44.892	n/a	3	8	19	n/a	39	n/a	1	n/a	n/a	n/a	n/a	329.333	n/a
302.9	0.497	neutral	Picture	44.378	n/a	3	8	20	n/a	40	4	1	n/a	n/a	n/a	n/a	329.863	AF05NES.jpg
303.397	0.514	Blank	Blank	43.864	n/a	3	8	20	n/a	40	n/a	1	n/a	n/a	n/a	n/a	330.361	n/a
303.928	10.014	ITI	Fixation+	33.834	n/a	3	n/a	n/a	n/a	n/a	n/a	n/a	n/a	n/a	n/a	n/a	330.891	n/a
313.958	0.497	angry	Picture	33.32	n/a	3	9	1	n/a	41	84	3	n/a	n/a	n/a	n/a	340.921	AF05ANS.jpg
314.456	0.514	Blank	Blank	32.806	n/a	3	9	1	n/a	41	n/a	3	n/a	n/a	n/a	n/a	341.419	n/a
314.986	0.497	angry	Picture	32.292	n/a	3	9	2	n/a	42	92	3	n/a	n/a	n/a	n/a	341.949	AF21ANS.jpg
315.483	0.514	Blank	Blank	31.778	n/a	3	9	2	n/a	42	n/a	3	n/a	n/a	n/a	n/a	342.447	n/a
316.014	0.497	angry	Picture	31.264	n/a	3	9	3	n/a	43	86	3	n/a	n/a	n/a	n/a	342.977	AF09ANS.jpg
316.511	0.514	Blank	Blank	30.75	n/a	3	9	3	n/a	43	n/a	3	n/a	n/a	n/a	n/a	343.474	n/a
317.042	0.497	angry	Picture	30.236	n/a	3	9	4	n/a	44	93	3	n/a	n/a	n/a	n/a	344.005	BF22ANS.jpg
317.539	0.514	Blank	Blank	29.722	n/a	3	9	4	n/a	44	n/a	3	n/a	n/a	n/a	n/a	344.502	n/a
318.07	0.497	angry	Picture	29.208	n/a	3	9	5	n/a	45	88	3	n/a	n/a	n/a	n/a	345.033	AF14ANS.jpg
318.567	0.514	Blank	Blank	28.694	n/a	3	9	5	n/a	45	n/a	3	n/a	n/a	n/a	n/a	345.53	n/a
319.098	0.497	angry	Picture	28.181	n/a	3	9	6	n/a	46	113	3	n/a	n/a	n/a	n/a	346.061	AM21ANS.jpg
319.595	0.514	Blank	Blank	27.667	n/a	3	9	6	n/a	46	n/a	3	n/a	n/a	n/a	n/a	346.558	n/a
320.125	0.497	angry	Picture	27.153	n/a	3	9	7	n/a	47	95	3	n/a	n/a	n/a	n/a	347.089	AF25ANS.jpg
320.623	0.514	Blank	Blank	26.639	n/a	3	9	7	n/a	47	n/a	3	n/a	n/a	n/a	n/a	347.586	n/a
321.153	0.497	angry	Picture	26.125	n/a	3	9	8	n/a	48	102	3	n/a	n/a	n/a	n/a	348.116	BM03ANS.jpg
321.651	0.514	Blank	Blank	25.611	n/a	3	9	8	n/a	48	n/a	3	n/a	n/a	n/a	n/a	348.614	n/a
322.181	0.497	angry	Picture	25.097	n/a	3	9	9	n/a	49	112	3	n/a	n/a	n/a	n/a	349.144	AM14ANS.jpg
322.679	0.514	Blank	Blank	24.583	n/a	3	9	9	n/a	49	n/a	3	n/a	n/a	n/a	n/a	349.642	n/a
323.209	0.497	angry	Picture	24.069	n/a	3	9	10	n/a	50	83	3	n/a	n/a	n/a	n/a	350.172	BF04ANS.jpg
323.707	0.514	Blank	Blank	23.555	n/a	3	9	10	n/a	50	n/a	3	n/a	n/a	n/a	n/a	350.67	n/a
324.237	0.497	angry	Picture	23.041	n/a	3	9	11	n/a	51	90	3	n/a	n/a	n/a	n/a	351.2	AF18ANS.jpg
324.734	0.514	Blank	Blank	22.527	n/a	3	9	11	n/a	51	n/a	3	n/a	n/a	n/a	n/a	351.698	n/a
325.265	0.497	angry	Picture	22.013	n/a	3	9	12	n/a	52	117	3	n/a	n/a	n/a	n/a	352.228	BM25ANS.jpg
325.762	0.514	Blank	Blank	21.499	n/a	3	9	12	n/a	52	n/a	3	n/a	n/a	n/a	n/a	352.725	n/a
326.293	0.497	angry	Picture	20.985	n/a	3	9	13	n/a	53	94	3	n/a	n/a	n/a	n/a	353.256	AF23ANS.jpg
326.79	0.514	Blank	Blank	20.471	n/a	3	9	13	n/a	53	n/a	3	n/a	n/a	n/a	n/a	353.753	n/a
327.321	0.497	angry	Picture	19.957	n/a	3	9	14	n/a	54	106	3	n/a	n/a	n/a	n/a	354.284	AM07ANS.jpg
327.818	0.514	Blank	Blank	19.443	n/a	3	9	14	n/a	54	n/a	3	n/a	n/a	n/a	n/a	354.781	n/a
328.348	0.497	angry	Picture	18.93	n/a	3	9	15	n/a	55	105	3	n/a	n/a	n/a	n/a	355.312	BM06ANS.jpg
328.846	0.514	Blank	Blank	18.416	n/a	3	9	15	n/a	55	n/a	3	n/a	n/a	n/a	n/a	355.809	n/a
329.376	0.497	angry	Picture	17.902	n/a	3	9	16	n/a	56	116	3	n/a	n/a	n/a	n/a	356.34	BM24ANS.jpg
329.874	0.514	Blank	Blank	17.388	n/a	3	9	16	n/a	56	n/a	3	n/a	n/a	n/a	n/a	356.837	n/a
330.404	0.497	angry	Picture	16.874	n/a	3	9	17	n/a	57	89	3	n/a	n/a	n/a	n/a	357.368	AF17ANS.jpg
330.902	0.514	Blank	Blank	16.36	n/a	3	9	17	n/a	57	n/a	3	n/a	n/a	n/a	n/a	357.865	n/a
331.432	0.497	angry	Picture	15.846	n/a	3	9	18	n/a	58	118	3	n/a	n/a	n/a	n/a	358.395	BM26ANS.jpg
331.93	0.514	Blank	Blank	15.332	n/a	3	9	18	n/a	58	n/a	3	n/a	n/a	n/a	n/a	358.893	n/a
332.46	0.497	angry	Picture	14.818	n/a	3	9	19	n/a	59	100	3	n/a	n/a	n/a	n/a	359.423	AF32ANS.jpg
332.957	0.514	Blank	Blank	14.304	n/a	3	9	19	n/a	59	n/a	3	n/a	n/a	n/a	n/a	359.921	n/a
333.488	0.497	angry	Picture	13.79	n/a	3	9	20	n/a	60	119	3	n/a	n/a	n/a	n/a	360.451	BM28ANS.jpg
333.985	0.514	Blank	Blank	13.276	n/a	3	9	20	n/a	60	n/a	3	n/a	n/a	n/a	n/a	360.949	n/a
334.516	10.014	ITI	Fixation+	3.246	n/a	3	n/a	n/a	n/a	n/a	n/a	n/a	n/a	n/a	n/a	n/a	361.479	n/a
347.775	n/a	ConfirmRating	Rate	n/a	3.233	3	n/a	n/a	0	n/a	n/a	n/a	2	Angry	50	50	374.739	n/a
353.798	n/a	ConfirmRating	Rate	n/a	6.018	3	n/a	n/a	1	n/a	n/a	n/a	3	Angry	18	48	380.761	n/a
353.83	10.014	ITI	Fixation+	94.584	n/a	4	n/a	n/a	n/a	n/a	n/a	n/a	n/a	n/a	n/a	n/a	380.793	n/a
363.86	0.497	happy	Picture	94.07	n/a	4	10	1	n/a	61	79	2	n/a	n/a	n/a	n/a	390.824	BM28HAS.jpg
364.358	0.514	Blank	Blank	93.556	n/a	4	10	1	n/a	61	n/a	2	n/a	n/a	n/a	n/a	391.321	n/a
364.888	0.497	happy	Picture	93.042	n/a	4	10	2	n/a	62	61	2	n/a	n/a	n/a	n/a	391.851	AM01HAS.jpg
365.386	0.514	Blank	Blank	92.529	n/a	4	10	2	n/a	62	n/a	2	n/a	n/a	n/a	n/a	392.349	n/a
365.916	0.497	happy	Picture	92.014	n/a	4	10	3	n/a	63	57	2	n/a	n/a	n/a	n/a	392.879	BF28HAS.jpg
366.413	0.514	Blank	Blank	91.501	n/a	4	10	3	n/a	63	n/a	2	n/a	n/a	n/a	n/a	393.377	n/a
366.944	0.497	happy	Picture	90.987	n/a	4	10	4	n/a	64	77	2	n/a	n/a	n/a	n/a	393.907	BM25HAS.jpg
367.441	0.514	Blank	Blank	90.473	n/a	4	10	4	n/a	64	n/a	2	n/a	n/a	n/a	n/a	394.405	n/a
367.972	0.497	happy	Picture	89.959	n/a	4	10	5	n/a	65	47	2	n/a	n/a	n/a	n/a	394.935	BF11HAS.jpg
368.469	0.514	Blank	Blank	89.445	n/a	4	10	5	n/a	65	n/a	2	n/a	n/a	n/a	n/a	395.433	n/a
369.0	0.497	happy	Picture	88.931	n/a	4	10	6	n/a	66	50	2	n/a	n/a	n/a	n/a	395.963	AF18HAS.jpg
369.497	0.514	Blank	Blank	88.417	n/a	4	10	6	n/a	66	n/a	2	n/a	n/a	n/a	n/a	396.46	n/a
370.028	0.497	happy	Picture	87.903	n/a	4	10	7	n/a	67	78	2	n/a	n/a	n/a	n/a	396.991	BM26HAS.jpg
370.525	0.514	Blank	Blank	87.389	n/a	4	10	7	n/a	67	n/a	2	n/a	n/a	n/a	n/a	397.488	n/a
371.056	0.497	happy	Picture	86.875	n/a	4	10	8	n/a	68	45	2	n/a	n/a	n/a	n/a	398.019	BF07HAS.jpg
371.553	0.514	Blank	Blank	86.361	n/a	4	10	8	n/a	68	n/a	2	n/a	n/a	n/a	n/a	398.516	n/a
372.083	0.497	happy	Picture	85.847	n/a	4	10	9	n/a	69	56	2	n/a	n/a	n/a	n/a	399.047	AF26HAS.jpg
372.581	0.514	Blank	Blank	85.333	n/a	4	10	9	n/a	69	n/a	2	n/a	n/a	n/a	n/a	399.544	n/a
373.111	0.497	happy	Picture	84.819	n/a	4	10	10	n/a	70	65	2	n/a	n/a	n/a	n/a	400.075	BM06HAS.jpg
373.609	0.514	Blank	Blank	84.305	n/a	4	10	10	n/a	70	n/a	2	n/a	n/a	n/a	n/a	400.572	n/a
374.139	0.497	happy	Picture	83.791	n/a	4	10	11	n/a	71	73	2	n/a	n/a	n/a	n/a	401.102	AM21HAS.jpg
374.637	0.514	Blank	Blank	83.277	n/a	4	10	11	n/a	71	n/a	2	n/a	n/a	n/a	n/a	401.6	n/a
375.167	0.497	happy	Picture	82.763	n/a	4	10	12	n/a	72	41	2	n/a	n/a	n/a	n/a	402.13	AF01HAS.jpg
375.664	0.514	Blank	Blank	82.25	n/a	4	10	12	n/a	72	n/a	2	n/a	n/a	n/a	n/a	402.628	n/a
376.195	0.497	happy	Picture	81.736	n/a	4	10	13	n/a	73	59	2	n/a	n/a	n/a	n/a	403.158	AF31HAS.jpg
376.692	0.514	Blank	Blank	81.222	n/a	4	10	13	n/a	73	n/a	2	n/a	n/a	n/a	n/a	403.656	n/a
377.223	0.497	happy	Picture	80.708	n/a	4	10	14	n/a	74	64	2	n/a	n/a	n/a	n/a	404.186	BM05HAS.jpg
377.72	0.514	Blank	Blank	80.194	n/a	4	10	14	n/a	74	n/a	2	n/a	n/a	n/a	n/a	404.683	n/a
378.251	0.497	happy	Picture	79.68	n/a	4	10	15	n/a	75	68	2	n/a	n/a	n/a	n/a	405.214	AM09HAS.jpg
378.748	0.514	Blank	Blank	79.166	n/a	4	10	15	n/a	75	n/a	2	n/a	n/a	n/a	n/a	405.711	n/a
379.279	0.497	happy	Picture	78.652	n/a	4	10	16	n/a	76	54	2	n/a	n/a	n/a	n/a	406.242	AF23HAS.jpg
379.776	0.514	Blank	Blank	78.138	n/a	4	10	16	n/a	76	n/a	2	n/a	n/a	n/a	n/a	406.739	n/a
380.307	0.497	happy	Picture	77.624	n/a	4	10	17	n/a	77	53	2	n/a	n/a	n/a	n/a	407.27	BF22HAS.jpg
380.804	0.514	Blank	Blank	77.11	n/a	4	10	17	n/a	77	n/a	2	n/a	n/a	n/a	n/a	407.767	n/a
381.334	0.497	happy	Picture	76.596	n/a	4	10	18	n/a	78	44	2	n/a	n/a	n/a	n/a	408.298	AF05HAS.jpg
381.832	0.514	Blank	Blank	76.082	n/a	4	10	18	n/a	78	n/a	2	n/a	n/a	n/a	n/a	408.795	n/a
382.362	0.497	happy	Picture	75.568	n/a	4	10	19	n/a	79	52	2	n/a	n/a	n/a	n/a	409.325	AF21HAS.jpg
382.86	0.514	Blank	Blank	75.054	n/a	4	10	19	n/a	79	n/a	2	n/a	n/a	n/a	n/a	409.823	n/a
383.39	0.497	happy	Picture	74.54	n/a	4	10	20	n/a	80	62	2	n/a	n/a	n/a	n/a	410.353	BM03HAS.jpg
383.888	0.514	Blank	Blank	74.026	n/a	4	10	20	n/a	80	n/a	2	n/a	n/a	n/a	n/a	410.851	n/a
384.418	10.014	ITI	Fixation+	63.996	n/a	4	n/a	n/a	n/a	n/a	n/a	n/a	n/a	n/a	n/a	n/a	411.381	n/a
394.448	0.497	neutral	Picture	63.482	n/a	4	11	1	n/a	81	23	1	n/a	n/a	n/a	n/a	421.411	AM04NES.jpg
394.946	0.514	Blank	Blank	62.968	n/a	4	11	1	n/a	81	n/a	1	n/a	n/a	n/a	n/a	421.909	n/a
395.476	0.497	neutral	Picture	62.454	n/a	4	11	2	n/a	82	29	1	n/a	n/a	n/a	n/a	422.439	AM10NES.jpg
395.973	0.514	Blank	Blank	61.941	n/a	4	11	2	n/a	82	n/a	1	n/a	n/a	n/a	n/a	422.937	n/a
396.504	0.497	neutral	Picture	61.427	n/a	4	11	3	n/a	83	24	1	n/a	n/a	n/a	n/a	423.467	BM05NES.jpg
397.001	0.514	Blank	Blank	60.913	n/a	4	11	3	n/a	83	n/a	1	n/a	n/a	n/a	n/a	423.965	n/a
397.532	0.497	neutral	Picture	60.399	n/a	4	11	4	n/a	84	12	1	n/a	n/a	n/a	n/a	424.495	AF21NES.jpg
398.029	0.514	Blank	Blank	59.885	n/a	4	11	4	n/a	84	n/a	1	n/a	n/a	n/a	n/a	424.993	n/a
398.56	0.497	neutral	Picture	59.371	n/a	4	11	5	n/a	85	13	1	n/a	n/a	n/a	n/a	425.523	BF22NES.jpg
399.057	0.514	Blank	Blank	58.857	n/a	4	11	5	n/a	85	n/a	1	n/a	n/a	n/a	n/a	426.02	n/a
399.588	0.497	neutral	Picture	58.343	n/a	4	11	6	n/a	86	17	1	n/a	n/a	n/a	n/a	426.551	BF28NES.jpg
400.085	0.514	Blank	Blank	57.829	n/a	4	11	6	n/a	86	n/a	1	n/a	n/a	n/a	n/a	427.048	n/a
400.616	0.497	neutral	Picture	57.315	n/a	4	11	7	n/a	87	4	1	n/a	n/a	n/a	n/a	427.579	AF05NES.jpg
401.113	0.514	Blank	Blank	56.801	n/a	4	11	7	n/a	87	n/a	1	n/a	n/a	n/a	n/a	428.076	n/a
401.644	0.497	neutral	Picture	56.287	n/a	4	11	8	n/a	88	11	1	n/a	n/a	n/a	n/a	428.607	AF20NES.jpg
402.141	0.514	Blank	Blank	55.773	n/a	4	11	8	n/a	88	n/a	1	n/a	n/a	n/a	n/a	429.104	n/a
402.671	0.497	neutral	Picture	55.259	n/a	4	11	9	n/a	89	22	1	n/a	n/a	n/a	n/a	429.635	BM03NES.jpg
403.169	0.514	Blank	Blank	54.745	n/a	4	11	9	n/a	89	n/a	1	n/a	n/a	n/a	n/a	430.132	n/a
403.699	0.497	neutral	Picture	54.231	n/a	4	11	10	n/a	90	15	1	n/a	n/a	n/a	n/a	430.662	AF25NES.jpg
404.197	0.514	Blank	Blank	53.718	n/a	4	11	10	n/a	90	n/a	1	n/a	n/a	n/a	n/a	431.16	n/a
404.727	0.497	neutral	Picture	53.204	n/a	4	11	11	n/a	91	19	1	n/a	n/a	n/a	n/a	431.69	AF31NES.jpg
405.225	0.514	Blank	Blank	52.69	n/a	4	11	11	n/a	91	n/a	1	n/a	n/a	n/a	n/a	432.188	n/a
405.755	0.497	neutral	Picture	52.176	n/a	4	11	12	n/a	92	9	1	n/a	n/a	n/a	n/a	432.718	AF17NES.jpg
406.252	0.514	Blank	Blank	51.662	n/a	4	11	12	n/a	92	n/a	1	n/a	n/a	n/a	n/a	433.216	n/a
406.783	0.497	neutral	Picture	51.148	n/a	4	11	13	n/a	93	14	1	n/a	n/a	n/a	n/a	433.746	AF23NES.jpg
407.28	0.514	Blank	Blank	50.634	n/a	4	11	13	n/a	93	n/a	1	n/a	n/a	n/a	n/a	434.243	n/a
407.811	0.497	neutral	Picture	50.12	n/a	4	11	14	n/a	94	36	1	n/a	n/a	n/a	n/a	434.774	BM24NES.jpg
408.308	0.514	Blank	Blank	49.606	n/a	4	11	14	n/a	94	n/a	1	n/a	n/a	n/a	n/a	435.271	n/a
408.839	0.497	neutral	Picture	49.092	n/a	4	11	15	n/a	95	34	1	n/a	n/a	n/a	n/a	435.802	AM22NES.jpg
409.336	0.514	Blank	Blank	48.578	n/a	4	11	15	n/a	95	n/a	1	n/a	n/a	n/a	n/a	436.299	n/a
409.866	0.497	neutral	Picture	48.064	n/a	4	11	16	n/a	96	10	1	n/a	n/a	n/a	n/a	436.83	AF18NES.jpg
410.364	0.514	Blank	Blank	47.55	n/a	4	11	16	n/a	96	n/a	1	n/a	n/a	n/a	n/a	437.327	n/a
410.894	0.497	neutral	Picture	47.036	n/a	4	11	17	n/a	97	5	1	n/a	n/a	n/a	n/a	437.858	BF07NES.jpg
411.392	0.514	Blank	Blank	46.522	n/a	4	11	17	n/a	97	n/a	1	n/a	n/a	n/a	n/a	438.355	n/a
411.922	0.497	neutral	Picture	46.008	n/a	4	11	18	n/a	98	25	1	n/a	n/a	n/a	n/a	438.885	BM06NES.jpg
412.42	0.514	Blank	Blank	45.494	n/a	4	11	18	n/a	98	n/a	1	n/a	n/a	n/a	n/a	439.383	n/a
412.95	0.497	neutral	Picture	44.98	n/a	4	11	19	n/a	99	39	1	n/a	n/a	n/a	n/a	439.913	AM28NES.jpg
413.448	0.514	Blank	Blank	44.467	n/a	4	11	19	n/a	99	n/a	1	n/a	n/a	n/a	n/a	440.411	n/a
413.978	0.497	neutral	Picture	43.952	n/a	4	11	20	n/a	100	33	1	n/a	n/a	n/a	n/a	440.941	AM21NES.jpg
414.476	0.514	Blank	Blank	43.439	n/a	4	11	20	n/a	100	n/a	1	n/a	n/a	n/a	n/a	441.439	n/a
415.006	10.014	ITI	Fixation+	33.408	n/a	4	n/a	n/a	n/a	n/a	n/a	n/a	n/a	n/a	n/a	n/a	441.969	n/a
425.036	0.497	happy	Picture	32.894	n/a	4	12	1	n/a	101	74	2	n/a	n/a	n/a	n/a	451.999	AM22HAS.jpg
425.534	0.514	Blank	Blank	32.38	n/a	4	12	1	n/a	101	n/a	2	n/a	n/a	n/a	n/a	452.497	n/a
426.064	0.497	happy	Picture	31.867	n/a	4	12	2	n/a	102	76	2	n/a	n/a	n/a	n/a	453.027	BM24HAS.jpg
426.561	0.514	Blank	Blank	31.353	n/a	4	12	2	n/a	102	n/a	2	n/a	n/a	n/a	n/a	453.525	n/a
427.092	0.497	happy	Picture	30.839	n/a	4	12	3	n/a	103	80	2	n/a	n/a	n/a	n/a	454.055	BM35HAS.jpg
427.589	0.514	Blank	Blank	30.325	n/a	4	12	3	n/a	103	n/a	2	n/a	n/a	n/a	n/a	454.553	n/a
428.12	0.497	happy	Picture	29.811	n/a	4	12	4	n/a	104	75	2	n/a	n/a	n/a	n/a	455.083	AM23HAS.jpg
428.617	0.514	Blank	Blank	29.297	n/a	4	12	4	n/a	104	n/a	2	n/a	n/a	n/a	n/a	455.58	n/a
429.148	0.497	happy	Picture	28.783	n/a	4	12	5	n/a	105	49	2	n/a	n/a	n/a	n/a	456.111	AF17HAS.jpg
429.645	0.514	Blank	Blank	28.269	n/a	4	12	5	n/a	105	n/a	2	n/a	n/a	n/a	n/a	456.608	n/a
430.176	0.497	happy	Picture	27.755	n/a	4	12	6	n/a	106	43	2	n/a	n/a	n/a	n/a	457.139	BF04HAS.jpg
430.673	0.514	Blank	Blank	27.241	n/a	4	12	6	n/a	106	n/a	2	n/a	n/a	n/a	n/a	457.636	n/a
431.203	0.497	happy	Picture	26.727	n/a	4	12	7	n/a	107	70	2	n/a	n/a	n/a	n/a	458.167	BM11HAS.jpg
431.701	0.514	Blank	Blank	26.213	n/a	4	12	7	n/a	107	n/a	2	n/a	n/a	n/a	n/a	458.664	n/a
432.231	0.497	happy	Picture	25.699	n/a	4	12	8	n/a	108	66	2	n/a	n/a	n/a	n/a	459.195	BM07HAS.jpg
432.729	0.514	Blank	Blank	25.185	n/a	4	12	8	n/a	108	n/a	2	n/a	n/a	n/a	n/a	459.692	n/a
433.259	0.497	happy	Picture	24.671	n/a	4	12	9	n/a	109	48	2	n/a	n/a	n/a	n/a	460.222	AF14HAS.jpg
433.757	0.514	Blank	Blank	24.157	n/a	4	12	9	n/a	109	n/a	2	n/a	n/a	n/a	n/a	460.72	n/a
434.287	0.497	happy	Picture	23.643	n/a	4	12	10	n/a	110	58	2	n/a	n/a	n/a	n/a	461.25	BF29HAS.jpg
434.784	0.514	Blank	Blank	23.13	n/a	4	12	10	n/a	110	n/a	2	n/a	n/a	n/a	n/a	461.748	n/a
435.315	0.497	happy	Picture	22.616	n/a	4	12	11	n/a	111	63	2	n/a	n/a	n/a	n/a	462.278	AM04HAS.jpg
435.812	0.514	Blank	Blank	22.102	n/a	4	12	11	n/a	111	n/a	2	n/a	n/a	n/a	n/a	462.776	n/a
436.343	0.497	happy	Picture	21.588	n/a	4	12	12	n/a	112	72	2	n/a	n/a	n/a	n/a	463.306	AM14HAS.jpg
436.84	0.514	Blank	Blank	21.074	n/a	4	12	12	n/a	112	n/a	2	n/a	n/a	n/a	n/a	463.803	n/a
437.371	0.497	happy	Picture	20.56	n/a	4	12	13	n/a	113	55	2	n/a	n/a	n/a	n/a	464.334	AF25HAS.jpg
437.868	0.514	Blank	Blank	20.046	n/a	4	12	13	n/a	113	n/a	2	n/a	n/a	n/a	n/a	464.831	n/a
438.399	0.497	happy	Picture	19.532	n/a	4	12	14	n/a	114	42	2	n/a	n/a	n/a	n/a	465.362	AF03HAS.jpg
438.896	0.514	Blank	Blank	19.018	n/a	4	12	14	n/a	114	n/a	2	n/a	n/a	n/a	n/a	465.859	n/a
439.427	0.497	happy	Picture	18.504	n/a	4	12	15	n/a	115	60	2	n/a	n/a	n/a	n/a	466.39	AF32HAS.jpg
439.924	0.514	Blank	Blank	17.99	n/a	4	12	15	n/a	115	n/a	2	n/a	n/a	n/a	n/a	466.887	n/a
440.455	0.497	happy	Picture	17.476	n/a	4	12	16	n/a	116	67	2	n/a	n/a	n/a	n/a	467.418	BM08HAS.jpg
440.952	0.514	Blank	Blank	16.962	n/a	4	12	16	n/a	116	n/a	2	n/a	n/a	n/a	n/a	467.915	n/a
441.482	0.497	happy	Picture	16.448	n/a	4	12	17	n/a	117	51	2	n/a	n/a	n/a	n/a	468.445	AF20HAS.jpg
441.98	0.514	Blank	Blank	15.934	n/a	4	12	17	n/a	117	n/a	2	n/a	n/a	n/a	n/a	468.943	n/a
442.51	0.497	happy	Picture	15.42	n/a	4	12	18	n/a	118	71	2	n/a	n/a	n/a	n/a	469.473	BM12HAS.jpg
443.008	0.514	Blank	Blank	14.906	n/a	4	12	18	n/a	118	n/a	2	n/a	n/a	n/a	n/a	469.971	n/a
443.538	0.497	happy	Picture	14.392	n/a	4	12	19	n/a	119	69	2	n/a	n/a	n/a	n/a	470.501	AM10HAS.jpg
444.035	0.514	Blank	Blank	13.879	n/a	4	12	19	n/a	119	n/a	2	n/a	n/a	n/a	n/a	470.999	n/a
444.566	0.497	happy	Picture	13.365	n/a	4	12	20	n/a	120	46	2	n/a	n/a	n/a	n/a	471.529	AF09HAS.jpg
445.063	0.514	Blank	Blank	12.851	n/a	4	12	20	n/a	120	n/a	2	n/a	n/a	n/a	n/a	472.027	n/a
445.594	10.014	ITI	Fixation+	2.821	n/a	4	n/a	n/a	n/a	n/a	n/a	n/a	n/a	n/a	n/a	n/a	472.557	n/a
458.428	n/a	ConfirmRating	Rate	n/a	2.818	4	n/a	n/a	0	n/a	n/a	n/a	2	Happy	64	51	485.391	n/a
461.682	n/a	ConfirmRating	Rate	n/a	3.233	4	n/a	n/a	1	n/a	n/a	n/a	3	Happy	11	48	488.645	n/a
