onset	duration	trial_type	trial_number	event_type	cue_to_participant	stimulus_type	time_until_response	rated_success_of_regulation	onset_uncorrected
0.017	10.014	Instruction	-1	Picture	Instruction	n/a	n/a	n/a	33.169
10.047	5.007	ITI	0	Picture	Fixation+	1	11.486	n/a	43.199
15.071	2.006	Cue	0	Picture	Maintain	1	9.463	n/a	48.223
17.077	4.99	Pic	0	Picture	IAPS_26	1	4.473	n/a	50.229
22.067	2.006	Blank	0	Picture	BLANK	1	2.467	n/a	55.219
26.54	n/a	ConfirmRating	0	Response	n/a	1	n/a	6	59.692
26.56	6.002	ITI	1	Picture	Fixation+	2	18.621	n/a	59.712
32.578	2.006	Cue	1	Picture	Enhance	2	16.598	n/a	65.73
34.584	4.99	Pic	1	Picture	IAPS_36	2	11.608	n/a	67.736
39.574	2.006	Blank	1	Picture	BLANK	2	9.602	n/a	72.726
51.182	n/a	ConfirmRating	1	Response	n/a	2	n/a	5	84.334
51.212	4.012	ITI	2	Picture	Fixation+	3	10.84	n/a	84.365
55.241	2.006	Cue	2	Picture	Suppress	3	8.817	n/a	88.393
57.247	4.99	Pic	2	Picture	IAPS_01	3	3.827	n/a	90.399
62.237	2.006	Blank	2	Picture	BLANK	3	1.821	n/a	95.389
66.064	n/a	ConfirmRating	2	Response	n/a	3	n/a	3	99.216
66.084	5.007	ITI	3	Picture	Fixation+	4	18.009	n/a	99.236
71.107	2.006	Cue	3	Picture	Maintain	4	15.987	n/a	104.259
73.113	4.99	Pic	3	Picture	IAPS_46	4	10.996	n/a	106.265
78.103	2.006	Blank	3	Picture	BLANK	4	8.99	n/a	111.255
89.1	n/a	ConfirmRating	3	Response	n/a	4	n/a	2	122.252
89.128	5.007	ITI	4	Picture	Fixation+	4	12.116	n/a	122.28
94.152	2.006	Cue	4	Picture	Maintain	4	10.094	n/a	127.304
96.158	4.99	Pic	4	Picture	IAPS_49	4	5.104	n/a	129.31
101.148	2.006	Blank	4	Picture	BLANK	4	3.097	n/a	134.3
106.252	n/a	ConfirmRating	4	Response	n/a	4	n/a	5	139.404
106.271	6.002	ITI	5	Picture	Fixation+	2	13.053	n/a	139.423
112.289	2.006	Cue	5	Picture	Enhance	2	11.03	n/a	145.441
114.295	4.99	Pic	5	Picture	IAPS_37	2	6.04	n/a	147.447
119.285	2.006	Blank	5	Picture	BLANK	2	4.034	n/a	152.437
125.325	n/a	ConfirmRating	5	Response	n/a	2	n/a	4	158.477
125.353	4.012	ITI	6	Picture	Fixation+	1	12.894	n/a	158.505
129.382	2.006	Cue	6	Picture	Maintain	1	10.871	n/a	162.534
131.388	4.99	Pic	6	Picture	IAPS_27	1	5.881	n/a	164.54
136.378	2.006	Blank	6	Picture	BLANK	1	3.875	n/a	169.53
142.259	n/a	ConfirmRating	6	Response	n/a	1	n/a	0	175.411
142.28	6.002	ITI	7	Picture	Fixation+	3	16.765	n/a	175.432
148.298	2.006	Cue	7	Picture	Suppress	3	14.743	n/a	181.45
150.304	4.99	Pic	7	Picture	IAPS_02	3	9.752	n/a	183.457
155.295	2.006	Blank	7	Picture	BLANK	3	7.746	n/a	188.447
165.047	n/a	ConfirmRating	7	Response	n/a	3	n/a	3	198.199
165.076	5.007	ITI	8	Picture	Fixation+	4	10.631	n/a	198.228
170.1	2.006	Cue	8	Picture	Maintain	4	8.608	n/a	203.252
172.106	4.99	Pic	8	Picture	IAPS_52	4	3.618	n/a	205.258
177.096	2.006	Blank	8	Picture	BLANK	4	1.612	n/a	210.248
180.714	n/a	ConfirmRating	8	Response	n/a	4	n/a	0	213.866
180.743	6.002	ITI	9	Picture	Fixation+	1	16.582	n/a	213.895
186.761	2.006	Cue	9	Picture	Maintain	1	14.559	n/a	219.913
188.767	4.99	Pic	9	Picture	IAPS_28	1	9.569	n/a	221.919
193.758	2.006	Blank	9	Picture	BLANK	1	7.563	n/a	226.91
203.327	n/a	ConfirmRating	9	Response	n/a	1	n/a	4	236.479
203.357	5.007	ITI	10	Picture	Fixation+	2	17.191	n/a	236.509
208.38	2.006	Cue	10	Picture	Enhance	2	15.168	n/a	241.532
210.386	4.99	Pic	10	Picture	IAPS_38	2	10.178	n/a	243.538
215.377	2.006	Blank	10	Picture	BLANK	2	8.172	n/a	248.529
225.554	n/a	ConfirmRating	10	Response	n/a	2	n/a	0	258.707
225.573	4.012	ITI	11	Picture	Fixation+	3	22.718	n/a	258.725
229.601	2.006	Cue	11	Picture	Suppress	3	20.696	n/a	262.753
231.607	4.99	Pic	11	Picture	IAPS_03	3	15.706	n/a	264.759
236.597	2.006	Blank	11	Picture	BLANK	3	13.7	n/a	269.75
252.303	n/a	ConfirmRating	11	Response	n/a	3	n/a	3	285.455
252.331	6.002	ITI	12	Picture	Fixation+	2	14.608	n/a	285.483
258.349	2.006	Cue	12	Picture	Enhance	2	12.585	n/a	291.501
260.355	4.99	Pic	12	Picture	IAPS_39	2	7.595	n/a	293.507
265.345	2.006	Blank	12	Picture	BLANK	2	5.589	n/a	298.497
272.94	n/a	ConfirmRating	12	Response	n/a	2	n/a	0	306.092
272.971	5.007	ITI	13	Picture	Fixation+	1	121.256	n/a	306.124
277.995	2.006	Cue	13	Picture	Maintain	1	119.234	n/a	311.147
280.001	4.99	Pic	13	Picture	IAPS_29	1	114.243	n/a	313.153
284.991	2.006	Blank	13	Picture	BLANK	1	112.237	n/a	318.143
399.234	n/a	ConfirmRating	13	Response	n/a	1	n/a	1	432.387
399.253	4.012	ITI	14	Picture	Fixation+	4	11.989	n/a	432.405
403.281	2.006	Cue	14	Picture	Maintain	4	9.966	n/a	436.433
405.287	4.99	Pic	14	Picture	IAPS_55	4	4.976	n/a	438.44
410.278	2.006	Blank	14	Picture	BLANK	4	2.97	n/a	443.43
415.253	n/a	ConfirmRating	14	Response	n/a	4	n/a	5	448.406
415.284	5.007	ITI	15	Picture	Fixation+	3	10.141	n/a	448.437
420.308	2.006	Cue	15	Picture	Suppress	3	8.118	n/a	453.46
422.314	4.99	Pic	15	Picture	IAPS_04	3	3.128	n/a	455.466
427.304	2.006	Blank	15	Picture	BLANK	3	1.122	n/a	460.456
430.432	n/a	ConfirmRating	15	Response	n/a	3	n/a	0	463.584
430.454	6.002	ITI	16	Picture	Fixation+	2	13.354	n/a	463.606
436.472	2.006	Cue	16	Picture	Enhance	2	11.332	n/a	469.624
438.478	4.99	Pic	16	Picture	IAPS_40	2	6.341	n/a	471.63
443.469	2.006	Blank	16	Picture	BLANK	2	4.335	n/a	476.621
449.81	n/a	ConfirmRating	16	Response	n/a	2	n/a	4	482.962
449.835	6.002	ITI	17	Picture	Fixation+	1	9.923	n/a	482.987
455.853	2.006	Cue	17	Picture	Maintain	1	7.901	n/a	489.005
457.859	4.99	Pic	17	Picture	IAPS_30	1	2.911	n/a	491.011
462.849	2.006	Blank	17	Picture	BLANK	1	0.904	n/a	496.001
465.76	n/a	ConfirmRating	17	Response	n/a	1	n/a	5	498.912
465.784	4.012	ITI	18	Picture	Fixation+	3	11.065	n/a	498.936
469.813	2.006	Cue	18	Picture	Suppress	3	9.042	n/a	502.965
471.818	4.99	Pic	18	Picture	IAPS_05	3	4.052	n/a	504.971
476.809	2.006	Blank	18	Picture	BLANK	3	2.046	n/a	509.961
480.861	n/a	ConfirmRating	18	Response	n/a	3	n/a	3	514.013
480.887	5.007	ITI	19	Picture	Fixation+	4	10.438	n/a	514.039
485.91	2.006	Cue	19	Picture	Maintain	4	8.416	n/a	519.063
487.917	4.99	Pic	19	Picture	IAPS_58	4	3.426	n/a	521.069
492.907	2.006	Blank	19	Picture	BLANK	4	1.42	n/a	526.059
496.332	n/a	ConfirmRating	19	Response	n/a	4	n/a	6	529.485
496.355	6.002	ITI	20	Picture	Fixation+	4	10.775	n/a	529.507
502.373	2.006	Cue	20	Picture	Maintain	4	8.752	n/a	535.525
504.379	4.99	Pic	20	Picture	IAPS_47	4	3.762	n/a	537.532
509.37	2.006	Blank	20	Picture	BLANK	4	1.756	n/a	542.522
513.131	n/a	ConfirmRating	20	Response	n/a	4	n/a	6	546.284
513.15	5.007	ITI	21	Picture	Fixation+	3	11.051	n/a	546.302
518.173	2.006	Cue	21	Picture	Suppress	3	9.028	n/a	551.325
520.179	4.99	Pic	21	Picture	IAPS_06	3	4.038	n/a	553.331
525.169	2.006	Blank	21	Picture	BLANK	3	2.032	n/a	558.321
529.207	n/a	ConfirmRating	21	Response	n/a	3	n/a	2	562.359
529.231	4.012	ITI	22	Picture	Fixation+	1	10.561	n/a	562.383
533.26	2.006	Cue	22	Picture	Maintain	1	8.538	n/a	566.412
535.266	4.99	Pic	22	Picture	IAPS_16	1	3.548	n/a	568.418
540.256	2.006	Blank	22	Picture	BLANK	1	1.542	n/a	573.408
543.804	0.017	ConfirmRating	22	Response	n/a	1	-0.017	0	576.956
543.837	4.012	ITI	23	Picture	Fixation+	2	11.702	n/a	576.989
547.866	2.006	Cue	23	Picture	Enhance	2	9.679	n/a	581.018
549.872	4.99	Pic	23	Picture	IAPS_41	2	4.689	n/a	583.024
554.862	2.006	Blank	23	Picture	BLANK	2	2.683	n/a	588.014
559.551	n/a	ConfirmRating	23	Response	n/a	2	n/a	3	592.703
559.571	5.007	ITI	24	Picture	Fixation+	1	10.175	n/a	592.723
564.594	2.006	Cue	24	Picture	Maintain	1	8.153	n/a	597.746
566.6	4.99	Pic	24	Picture	IAPS_17	1	3.163	n/a	599.752
571.59	2.006	Blank	24	Picture	BLANK	1	1.157	n/a	604.742
574.753	n/a	ConfirmRating	24	Response	n/a	1	n/a	5	607.905
574.773	4.012	ITI	25	Picture	Fixation+	2	12.241	n/a	607.925
578.802	2.006	Cue	25	Picture	Enhance	2	10.218	n/a	611.954
580.808	4.99	Pic	25	Picture	IAPS_42	2	5.228	n/a	613.96
585.798	2.006	Blank	25	Picture	BLANK	2	3.222	n/a	618.95
591.026	n/a	ConfirmRating	25	Response	n/a	2	n/a	3	624.179
591.054	6.002	ITI	26	Picture	Fixation+	4	10.32	n/a	624.206
597.072	2.006	Cue	26	Picture	Maintain	4	8.298	n/a	630.224
599.078	4.99	Pic	26	Picture	IAPS_50	4	3.307	n/a	632.23
604.068	2.006	Blank	26	Picture	BLANK	4	1.301	n/a	637.22
607.375	n/a	ConfirmRating	26	Response	n/a	4	n/a	6	640.528
607.4	5.007	ITI	27	Picture	Fixation+	3	9.837	n/a	640.553
612.424	2.006	Cue	27	Picture	Suppress	3	7.814	n/a	645.576
614.43	4.99	Pic	27	Picture	IAPS_07	3	2.824	n/a	647.582
619.42	2.006	Blank	27	Picture	BLANK	3	0.818	n/a	652.572
622.244	n/a	ConfirmRating	27	Response	n/a	3	n/a	5	655.396
622.272	5.007	ITI	28	Picture	Fixation+	2	12.947	n/a	655.424
627.295	2.006	Cue	28	Picture	Enhance	2	10.925	n/a	660.447
629.301	4.99	Pic	28	Picture	IAPS_43	2	5.934	n/a	662.453
634.291	2.006	Blank	28	Picture	BLANK	2	3.929	n/a	667.444
640.226	n/a	ConfirmRating	28	Response	n/a	2	n/a	4	673.378
640.243	4.012	ITI	29	Picture	Fixation+	3	10.375	n/a	673.395
644.272	2.006	Cue	29	Picture	Suppress	3	8.353	n/a	677.424
646.278	4.99	Pic	29	Picture	IAPS_08	3	3.363	n/a	679.43
651.268	2.006	Blank	29	Picture	BLANK	3	1.357	n/a	684.42
654.631	n/a	ConfirmRating	29	Response	n/a	3	n/a	5	687.783
654.65	15.004	Rest	29	Picture	Rest	n/a	-15.023	n/a	687.802
669.671	5.007	ITI	30	Picture	Fixation+	4	11.834	n/a	702.823
674.694	2.006	Cue	30	Picture	Maintain	4	9.811	n/a	707.846
676.7	4.99	Pic	30	Picture	IAPS_53	4	4.821	n/a	709.852
681.69	2.006	Blank	30	Picture	BLANK	4	2.815	n/a	714.843
686.511	n/a	ConfirmRating	30	Response	n/a	4	n/a	6	719.664
686.531	6.002	ITI	31	Picture	Fixation+	1	10.173	n/a	719.684
692.55	2.006	Cue	31	Picture	Maintain	1	8.151	n/a	725.702
694.556	4.99	Pic	31	Picture	IAPS_18	1	3.16	n/a	727.708
699.546	2.006	Blank	31	Picture	BLANK	1	1.154	n/a	732.698
702.706	n/a	ConfirmRating	31	Response	n/a	1	n/a	5	735.858
702.729	4.012	ITI	32	Picture	Fixation+	3	11.166	n/a	735.881
706.758	2.006	Cue	32	Picture	Suppress	3	9.143	n/a	739.91
708.764	4.99	Pic	32	Picture	IAPS_09	3	4.153	n/a	741.916
713.754	2.006	Blank	32	Picture	BLANK	3	2.147	n/a	746.906
717.907	n/a	ConfirmRating	32	Response	n/a	3	n/a	5	751.059
717.932	5.007	ITI	33	Picture	Fixation+	1	10.082	n/a	751.084
722.955	2.006	Cue	33	Picture	Maintain	1	8.06	n/a	756.107
724.961	4.99	Pic	33	Picture	IAPS_19	1	3.069	n/a	758.113
729.952	2.006	Blank	33	Picture	BLANK	1	1.063	n/a	763.104
733.021	n/a	ConfirmRating	33	Response	n/a	1	n/a	5	766.173
733.052	4.012	ITI	34	Picture	Fixation+	2	11.196	n/a	766.204
737.081	2.006	Cue	34	Picture	Enhance	2	9.173	n/a	770.233
739.087	4.99	Pic	34	Picture	IAPS_44	2	4.183	n/a	772.239
744.077	2.006	Blank	34	Picture	BLANK	2	2.177	n/a	777.229
748.26	n/a	ConfirmRating	34	Response	n/a	2	n/a	3	781.412
748.288	6.002	ITI	35	Picture	Fixation+	4	10.101	n/a	781.44
754.306	2.006	Cue	35	Picture	Maintain	4	8.079	n/a	787.458
756.312	4.99	Pic	35	Picture	IAPS_56	4	3.089	n/a	789.464
761.302	2.006	Blank	35	Picture	BLANK	4	1.082	n/a	794.454
764.391	n/a	ConfirmRating	35	Response	n/a	4	n/a	5	797.543
764.419	5.007	ITI	36	Picture	Fixation+	3	10.985	n/a	797.571
769.442	2.006	Cue	36	Picture	Suppress	3	8.962	n/a	802.595
771.448	4.99	Pic	36	Picture	IAPS_10	3	3.972	n/a	804.601
776.439	2.006	Blank	36	Picture	BLANK	3	1.966	n/a	809.591
780.411	n/a	ConfirmRating	36	Response	n/a	3	n/a	0	813.563
780.434	6.002	ITI	37	Picture	Fixation+	4	9.773	n/a	813.586
786.452	2.006	Cue	37	Picture	Maintain	4	7.75	n/a	819.605
788.458	4.99	Pic	37	Picture	IAPS_59	4	2.76	n/a	821.611
793.449	2.006	Blank	37	Picture	BLANK	4	0.754	n/a	826.601
796.208	n/a	ConfirmRating	37	Response	n/a	4	n/a	5	829.361
796.234	5.007	ITI	38	Picture	Fixation+	2	10.484	n/a	829.386
801.257	2.006	Cue	38	Picture	Enhance	2	8.461	n/a	834.409
803.263	4.99	Pic	38	Picture	IAPS_45	2	3.471	n/a	836.415
808.254	2.006	Blank	38	Picture	BLANK	2	1.465	n/a	841.406
811.724	n/a	ConfirmRating	38	Response	n/a	2	n/a	0	844.876
811.752	4.012	ITI	39	Picture	Fixation+	1	10.383	n/a	844.904
815.78	2.006	Cue	39	Picture	Maintain	1	8.361	n/a	848.933
817.786	4.99	Pic	39	Picture	IAPS_20	1	3.37	n/a	850.938
822.777	2.006	Blank	39	Picture	BLANK	1	1.364	n/a	855.929
826.147	n/a	ConfirmRating	39	Response	n/a	1	n/a	5	859.299
826.175	6.002	ITI	40	Picture	Fixation+	4	11.38	n/a	859.327
832.193	2.006	Cue	40	Picture	Maintain	4	9.357	n/a	865.346
834.199	4.99	Pic	40	Picture	IAPS_48	4	4.367	n/a	867.352
839.19	2.006	Blank	40	Picture	BLANK	4	2.361	n/a	872.342
843.557	n/a	ConfirmRating	40	Response	n/a	4	n/a	6	876.709
843.583	5.007	ITI	41	Picture	Fixation+	3	11.24	n/a	876.735
848.607	2.006	Cue	41	Picture	Suppress	3	9.217	n/a	881.759
850.613	4.99	Pic	41	Picture	IAPS_11	3	4.227	n/a	883.765
855.603	2.006	Blank	41	Picture	BLANK	3	2.221	n/a	888.755
859.83	n/a	ConfirmRating	41	Response	n/a	3	n/a	3	892.982
859.847	6.002	ITI	42	Picture	Fixation+	2	10.0	n/a	892.999
865.865	2.006	Cue	42	Picture	Enhance	2	7.977	n/a	899.017
867.871	4.99	Pic	42	Picture	IAPS_31	2	2.987	n/a	901.023
872.861	2.006	Blank	42	Picture	BLANK	2	0.981	n/a	906.014
875.848	n/a	ConfirmRating	42	Response	n/a	2	n/a	3	909.001
875.879	4.012	ITI	43	Picture	Fixation+	1	10.126	n/a	909.031
879.908	2.006	Cue	43	Picture	Maintain	1	8.104	n/a	913.06
881.913	4.99	Pic	43	Picture	IAPS_21	1	3.114	n/a	915.066
886.904	2.006	Blank	43	Picture	BLANK	1	1.108	n/a	920.056
890.017	n/a	ConfirmRating	43	Response	n/a	1	n/a	5	923.169
890.037	5.007	ITI	44	Picture	Fixation+	2	11.067	n/a	923.189
895.061	2.006	Cue	44	Picture	Enhance	2	9.045	n/a	928.213
897.067	4.99	Pic	44	Picture	IAPS_32	2	4.054	n/a	930.219
902.057	2.006	Blank	44	Picture	BLANK	2	2.048	n/a	935.209
906.111	n/a	ConfirmRating	44	Response	n/a	2	n/a	0	939.263
906.135	5.007	ITI	45	Picture	Fixation+	4	10.459	n/a	939.287
911.159	2.006	Cue	45	Picture	Maintain	4	8.436	n/a	944.311
913.165	4.99	Pic	45	Picture	IAPS_51	4	3.446	n/a	946.317
918.155	2.006	Blank	45	Picture	BLANK	4	1.44	n/a	951.307
921.601	n/a	ConfirmRating	45	Response	n/a	4	n/a	5	954.753
921.62	4.012	ITI	46	Picture	Fixation+	3	10.827	n/a	954.772
925.649	2.006	Cue	46	Picture	Suppress	3	8.804	n/a	958.801
927.655	4.99	Pic	46	Picture	IAPS_12	3	3.814	n/a	960.807
932.645	2.006	Blank	46	Picture	BLANK	3	1.808	n/a	965.797
936.459	n/a	ConfirmRating	46	Response	n/a	3	n/a	5	969.611
936.491	5.007	ITI	47	Picture	Fixation+	1	11.351	n/a	969.643
941.515	2.006	Cue	47	Picture	Maintain	1	9.328	n/a	974.667
943.521	4.99	Pic	47	Picture	IAPS_22	1	4.338	n/a	976.673
948.511	2.006	Blank	47	Picture	BLANK	1	2.332	n/a	981.663
952.849	n/a	ConfirmRating	47	Response	n/a	1	n/a	3	986.001
952.871	4.012	ITI	48	Picture	Fixation+	3	10.501	n/a	986.023
956.9	2.006	Cue	48	Picture	Suppress	3	8.479	n/a	990.052
958.906	4.99	Pic	48	Picture	IAPS_13	3	3.489	n/a	992.058
963.896	2.006	Blank	48	Picture	BLANK	3	1.483	n/a	997.048
967.385	n/a	ConfirmRating	48	Response	n/a	3	n/a	6	1000.537
967.411	5.007	ITI	49	Picture	Fixation+	4	11.272	n/a	1000.563
972.434	2.006	Cue	49	Picture	Maintain	4	9.249	n/a	1005.586
974.44	4.99	Pic	49	Picture	IAPS_54	4	4.259	n/a	1007.592
979.43	2.006	Blank	49	Picture	BLANK	4	2.253	n/a	1012.582
983.689	n/a	ConfirmRating	49	Response	n/a	4	n/a	5	1016.841
983.708	5.007	ITI	50	Picture	Fixation+	1	11.454	n/a	1016.86
988.731	2.006	Cue	50	Picture	Maintain	1	9.431	n/a	1021.883
990.737	4.99	Pic	50	Picture	IAPS_23	1	4.441	n/a	1023.889
995.727	2.006	Blank	50	Picture	BLANK	1	2.435	n/a	1028.88
1000.168	n/a	ConfirmRating	50	Response	n/a	1	n/a	0	1033.32
1000.187	4.012	ITI	51	Picture	Fixation+	2	9.817	n/a	1033.339
1004.216	2.006	Cue	51	Picture	Enhance	2	7.794	n/a	1037.368
1006.222	4.99	Pic	51	Picture	IAPS_33	2	2.804	n/a	1039.374
1011.212	2.006	Blank	51	Picture	BLANK	2	0.798	n/a	1044.364
1014.016	n/a	ConfirmRating	51	Response	n/a	2	n/a	3	1047.168
1014.047	5.007	ITI	52	Picture	Fixation+	1	9.99	n/a	1047.199
1019.071	2.006	Cue	52	Picture	Maintain	1	7.967	n/a	1052.223
1021.077	4.99	Pic	52	Picture	IAPS_24	1	2.977	n/a	1054.229
1026.067	2.006	Blank	52	Picture	BLANK	1	0.971	n/a	1059.219
1029.044	n/a	ConfirmRating	52	Response	n/a	1	n/a	5	1062.196
1029.068	5.007	ITI	53	Picture	Fixation+	4	10.204	n/a	1062.22
1034.091	2.006	Cue	53	Picture	Maintain	4	8.182	n/a	1067.243
1036.097	4.99	Pic	53	Picture	IAPS_57	4	3.192	n/a	1069.249
1041.087	2.006	Blank	53	Picture	BLANK	4	1.186	n/a	1074.239
1044.279	n/a	ConfirmRating	53	Response	n/a	4	n/a	5	1077.431
1044.304	6.002	ITI	54	Picture	Fixation+	3	11.275	n/a	1077.456
1050.322	2.006	Cue	54	Picture	Suppress	3	9.253	n/a	1083.474
1052.328	4.99	Pic	54	Picture	IAPS_14	3	4.263	n/a	1085.48
1057.318	2.006	Blank	54	Picture	BLANK	3	2.257	n/a	1090.47
1061.581	n/a	ConfirmRating	54	Response	n/a	3	n/a	6	1094.733
1061.612	5.007	ITI	55	Picture	Fixation+	2	9.945	n/a	1094.764
1066.635	2.006	Cue	55	Picture	Enhance	2	7.922	n/a	1099.787
1068.641	4.99	Pic	55	Picture	IAPS_34	2	2.932	n/a	1101.793
1073.632	2.006	Blank	55	Picture	BLANK	2	0.926	n/a	1106.784
1076.563	n/a	ConfirmRating	55	Response	n/a	2	n/a	3	1109.716
1076.583	5.007	ITI	56	Picture	Fixation+	1	10.798	n/a	1109.735
1081.606	2.006	Cue	56	Picture	Maintain	1	8.775	n/a	1114.758
1083.612	4.99	Pic	56	Picture	IAPS_25	1	3.785	n/a	1116.764
1088.602	2.006	Blank	56	Picture	BLANK	1	1.779	n/a	1121.754
1092.387	n/a	ConfirmRating	56	Response	n/a	1	n/a	5	1125.539
1092.416	6.002	ITI	57	Picture	Fixation+	3	9.968	n/a	1125.568
1098.434	2.006	Cue	57	Picture	Suppress	3	7.945	n/a	1131.586
1100.44	4.99	Pic	57	Picture	IAPS_15	3	2.955	n/a	1133.592
1105.43	2.006	Blank	57	Picture	BLANK	3	0.949	n/a	1138.582
1108.385	n/a	ConfirmRating	57	Response	n/a	3	n/a	5	1141.537
1108.414	4.012	ITI	58	Picture	Fixation+	4	10.614	n/a	1141.566
1112.443	2.006	Cue	58	Picture	Maintain	4	8.591	n/a	1145.595
1114.449	4.99	Pic	58	Picture	IAPS_60	4	3.601	n/a	1147.601
1119.439	2.006	Blank	58	Picture	BLANK	4	1.595	n/a	1152.591
1123.04	n/a	ConfirmRating	58	Response	n/a	4	n/a	5	1156.192
1123.07	6.002	ITI	59	Picture	Fixation+	2	11.108	n/a	1156.222
1129.088	2.006	Cue	59	Picture	Enhance	2	9.086	n/a	1162.24
1131.094	4.99	Pic	59	Picture	IAPS_35	2	4.095	n/a	1164.246
1136.084	2.006	Blank	59	Picture	BLANK	2	2.089	n/a	1169.236
1140.18	n/a	ConfirmRating	59	Response	n/a	2	n/a	3	1173.332
