onset	duration	trial_type	event_type	time_until_response	response_time	trial_number	block_num_within_trial	image_seq_num_within_block	question_seq_num_within_block	image_seq_num	picture_number	condition	question_type	block_type	rating	rating_computed	onset_uncorrected	KDEV_imagefile
0.018	10.014	ITI	Fixation+	101.016	n/a	1	n/a	n/a	n/a	n/a	n/a	n/a	n/a	n/a	n/a	n/a	43.348	n/a
10.048	0.497	happy	Picture	100.502	n/a	1	1	1	n/a	1	46	2	n/a	n/a	n/a	n/a	53.379	AF09HAS.jpg
10.546	0.514	Blank	Blank	99.988	n/a	1	1	1	n/a	1	n/a	2	n/a	n/a	n/a	n/a	53.876	n/a
11.076	0.497	happy	Picture	99.474	n/a	1	1	2	n/a	2	69	2	n/a	n/a	n/a	n/a	54.406	AM10HAS.jpg
11.574	0.514	Blank	Blank	98.96	n/a	1	1	2	n/a	2	n/a	2	n/a	n/a	n/a	n/a	54.904	n/a
12.104	0.497	happy	Picture	98.446	n/a	1	1	3	n/a	3	71	2	n/a	n/a	n/a	n/a	55.434	BM12HAS.jpg
12.601	0.514	Blank	Blank	97.932	n/a	1	1	3	n/a	3	n/a	2	n/a	n/a	n/a	n/a	55.932	n/a
13.132	0.497	happy	Picture	97.418	n/a	1	1	4	n/a	4	51	2	n/a	n/a	n/a	n/a	56.462	AF20HAS.jpg
13.629	0.514	Blank	Blank	96.905	n/a	1	1	4	n/a	4	n/a	2	n/a	n/a	n/a	n/a	56.959	n/a
14.16	0.497	happy	Picture	96.391	n/a	1	1	5	n/a	5	67	2	n/a	n/a	n/a	n/a	57.49	BM08HAS.jpg
14.657	0.514	Blank	Blank	95.877	n/a	1	1	5	n/a	5	n/a	2	n/a	n/a	n/a	n/a	57.987	n/a
15.188	0.497	happy	Picture	95.363	n/a	1	1	6	n/a	6	60	2	n/a	n/a	n/a	n/a	58.518	AF32HAS.jpg
15.685	0.514	Blank	Blank	94.849	n/a	1	1	6	n/a	6	n/a	2	n/a	n/a	n/a	n/a	59.015	n/a
16.216	0.497	happy	Picture	94.335	n/a	1	1	7	n/a	7	42	2	n/a	n/a	n/a	n/a	59.546	AF03HAS.jpg
16.713	0.514	Blank	Blank	93.821	n/a	1	1	7	n/a	7	n/a	2	n/a	n/a	n/a	n/a	60.043	n/a
17.244	0.497	happy	Picture	93.307	n/a	1	1	8	n/a	8	55	2	n/a	n/a	n/a	n/a	60.574	AF25HAS.jpg
17.741	0.514	Blank	Blank	92.793	n/a	1	1	8	n/a	8	n/a	2	n/a	n/a	n/a	n/a	61.071	n/a
18.271	0.497	happy	Picture	92.279	n/a	1	1	9	n/a	9	72	2	n/a	n/a	n/a	n/a	61.602	AM14HAS.jpg
18.769	0.514	Blank	Blank	91.765	n/a	1	1	9	n/a	9	n/a	2	n/a	n/a	n/a	n/a	62.099	n/a
19.299	0.497	happy	Picture	91.251	n/a	1	1	10	n/a	10	63	2	n/a	n/a	n/a	n/a	62.63	AM04HAS.jpg
19.797	0.514	Blank	Blank	90.737	n/a	1	1	10	n/a	10	n/a	2	n/a	n/a	n/a	n/a	63.127	n/a
20.327	0.497	happy	Picture	90.223	n/a	1	1	11	n/a	11	58	2	n/a	n/a	n/a	n/a	63.657	BF29HAS.jpg
20.825	0.514	Blank	Blank	89.709	n/a	1	1	11	n/a	11	n/a	2	n/a	n/a	n/a	n/a	64.155	n/a
21.355	0.497	happy	Picture	89.195	n/a	1	1	12	n/a	12	48	2	n/a	n/a	n/a	n/a	64.685	AF14HAS.jpg
21.852	0.514	Blank	Blank	88.681	n/a	1	1	12	n/a	12	n/a	2	n/a	n/a	n/a	n/a	65.183	n/a
22.383	0.497	happy	Picture	88.167	n/a	1	1	13	n/a	13	66	2	n/a	n/a	n/a	n/a	65.713	BM07HAS.jpg
22.88	0.514	Blank	Blank	87.654	n/a	1	1	13	n/a	13	n/a	2	n/a	n/a	n/a	n/a	66.21	n/a
23.411	0.497	happy	Picture	87.14	n/a	1	1	14	n/a	14	70	2	n/a	n/a	n/a	n/a	66.741	BM11HAS.jpg
23.908	0.514	Blank	Blank	86.626	n/a	1	1	14	n/a	14	n/a	2	n/a	n/a	n/a	n/a	67.238	n/a
24.439	0.497	happy	Picture	86.112	n/a	1	1	15	n/a	15	43	2	n/a	n/a	n/a	n/a	67.769	BF04HAS.jpg
24.936	0.514	Blank	Blank	85.598	n/a	1	1	15	n/a	15	n/a	2	n/a	n/a	n/a	n/a	68.266	n/a
25.467	0.497	happy	Picture	85.084	n/a	1	1	16	n/a	16	49	2	n/a	n/a	n/a	n/a	68.797	AF17HAS.jpg
25.964	0.514	Blank	Blank	84.57	n/a	1	1	16	n/a	16	n/a	2	n/a	n/a	n/a	n/a	69.294	n/a
26.495	0.497	happy	Picture	84.056	n/a	1	1	17	n/a	17	75	2	n/a	n/a	n/a	n/a	69.825	AM23HAS.jpg
26.992	0.514	Blank	Blank	83.542	n/a	1	1	17	n/a	17	n/a	2	n/a	n/a	n/a	n/a	70.322	n/a
27.522	0.497	happy	Picture	83.028	n/a	1	1	18	n/a	18	80	2	n/a	n/a	n/a	n/a	70.853	BM35HAS.jpg
28.02	0.514	Blank	Blank	82.514	n/a	1	1	18	n/a	18	n/a	2	n/a	n/a	n/a	n/a	71.35	n/a
28.55	0.497	happy	Picture	82.0	n/a	1	1	19	n/a	19	76	2	n/a	n/a	n/a	n/a	71.88	BM24HAS.jpg
29.048	0.514	Blank	Blank	81.486	n/a	1	1	19	n/a	19	n/a	2	n/a	n/a	n/a	n/a	72.378	n/a
29.578	0.497	happy	Picture	80.972	n/a	1	1	20	n/a	20	74	2	n/a	n/a	n/a	n/a	72.908	AM22HAS.jpg
30.075	0.514	Blank	Blank	80.458	n/a	1	1	20	n/a	20	n/a	2	n/a	n/a	n/a	n/a	73.406	n/a
30.606	10.014	ITI	Fixation+	70.428	n/a	1	n/a	n/a	n/a	n/a	n/a	n/a	n/a	n/a	n/a	n/a	73.936	n/a
40.636	0.497	neutral	Picture	69.914	n/a	1	2	1	n/a	21	33	1	n/a	n/a	n/a	n/a	83.966	AM21NES.jpg
41.134	0.514	Blank	Blank	69.4	n/a	1	2	1	n/a	21	n/a	1	n/a	n/a	n/a	n/a	84.464	n/a
41.664	0.497	neutral	Picture	68.886	n/a	1	2	2	n/a	22	39	1	n/a	n/a	n/a	n/a	84.994	AM28NES.jpg
42.161	0.514	Blank	Blank	68.372	n/a	1	2	2	n/a	22	n/a	1	n/a	n/a	n/a	n/a	85.492	n/a
42.692	0.497	neutral	Picture	67.858	n/a	1	2	3	n/a	23	25	1	n/a	n/a	n/a	n/a	86.022	BM06NES.jpg
43.189	0.514	Blank	Blank	67.344	n/a	1	2	3	n/a	23	n/a	1	n/a	n/a	n/a	n/a	86.52	n/a
43.72	0.497	neutral	Picture	66.831	n/a	1	2	4	n/a	24	5	1	n/a	n/a	n/a	n/a	87.05	BF07NES.jpg
44.217	0.514	Blank	Blank	66.317	n/a	1	2	4	n/a	24	n/a	1	n/a	n/a	n/a	n/a	87.547	n/a
44.748	0.497	neutral	Picture	65.803	n/a	1	2	5	n/a	25	10	1	n/a	n/a	n/a	n/a	88.078	AF18NES.jpg
45.245	0.514	Blank	Blank	65.289	n/a	1	2	5	n/a	25	n/a	1	n/a	n/a	n/a	n/a	88.575	n/a
45.776	0.497	neutral	Picture	64.775	n/a	1	2	6	n/a	26	34	1	n/a	n/a	n/a	n/a	89.106	AM22NES.jpg
46.273	0.514	Blank	Blank	64.261	n/a	1	2	6	n/a	26	n/a	1	n/a	n/a	n/a	n/a	89.603	n/a
46.804	0.497	neutral	Picture	63.747	n/a	1	2	7	n/a	27	36	1	n/a	n/a	n/a	n/a	90.134	BM24NES.jpg
47.301	0.514	Blank	Blank	63.233	n/a	1	2	7	n/a	27	n/a	1	n/a	n/a	n/a	n/a	90.631	n/a
47.831	0.497	neutral	Picture	62.719	n/a	1	2	8	n/a	28	14	1	n/a	n/a	n/a	n/a	91.162	AF23NES.jpg
48.329	0.514	Blank	Blank	62.205	n/a	1	2	8	n/a	28	n/a	1	n/a	n/a	n/a	n/a	91.659	n/a
48.859	0.497	neutral	Picture	61.691	n/a	1	2	9	n/a	29	9	1	n/a	n/a	n/a	n/a	92.189	AF17NES.jpg
49.357	0.514	Blank	Blank	61.177	n/a	1	2	9	n/a	29	n/a	1	n/a	n/a	n/a	n/a	92.687	n/a
49.887	0.497	neutral	Picture	60.663	n/a	1	2	10	n/a	30	19	1	n/a	n/a	n/a	n/a	93.217	AF31NES.jpg
50.385	0.514	Blank	Blank	60.149	n/a	1	2	10	n/a	30	n/a	1	n/a	n/a	n/a	n/a	93.715	n/a
50.915	0.497	neutral	Picture	59.635	n/a	1	2	11	n/a	31	15	1	n/a	n/a	n/a	n/a	94.245	AF25NES.jpg
51.412	0.514	Blank	Blank	59.121	n/a	1	2	11	n/a	31	n/a	1	n/a	n/a	n/a	n/a	94.743	n/a
51.943	0.497	neutral	Picture	58.607	n/a	1	2	12	n/a	32	22	1	n/a	n/a	n/a	n/a	95.273	BM03NES.jpg
52.44	0.514	Blank	Blank	58.093	n/a	1	2	12	n/a	32	n/a	1	n/a	n/a	n/a	n/a	95.77	n/a
52.971	0.497	neutral	Picture	57.58	n/a	1	2	13	n/a	33	11	1	n/a	n/a	n/a	n/a	96.301	AF20NES.jpg
53.468	0.514	Blank	Blank	57.066	n/a	1	2	13	n/a	33	n/a	1	n/a	n/a	n/a	n/a	96.798	n/a
53.999	0.497	neutral	Picture	56.552	n/a	1	2	14	n/a	34	4	1	n/a	n/a	n/a	n/a	97.329	AF05NES.jpg
54.496	0.514	Blank	Blank	56.038	n/a	1	2	14	n/a	34	n/a	1	n/a	n/a	n/a	n/a	97.826	n/a
55.027	0.497	neutral	Picture	55.524	n/a	1	2	15	n/a	35	17	1	n/a	n/a	n/a	n/a	98.357	BF28NES.jpg
55.524	0.514	Blank	Blank	55.01	n/a	1	2	15	n/a	35	n/a	1	n/a	n/a	n/a	n/a	98.854	n/a
56.054	0.497	neutral	Picture	54.496	n/a	1	2	16	n/a	36	13	1	n/a	n/a	n/a	n/a	99.385	BF22NES.jpg
56.552	0.514	Blank	Blank	53.982	n/a	1	2	16	n/a	36	n/a	1	n/a	n/a	n/a	n/a	99.882	n/a
57.082	0.497	neutral	Picture	53.468	n/a	1	2	17	n/a	37	12	1	n/a	n/a	n/a	n/a	100.413	AF21NES.jpg
57.58	0.514	Blank	Blank	52.954	n/a	1	2	17	n/a	37	n/a	1	n/a	n/a	n/a	n/a	100.91	n/a
58.11	0.497	neutral	Picture	52.44	n/a	1	2	18	n/a	38	24	1	n/a	n/a	n/a	n/a	101.441	BM05NES.jpg
58.608	0.514	Blank	Blank	51.926	n/a	1	2	18	n/a	38	n/a	1	n/a	n/a	n/a	n/a	101.938	n/a
59.138	0.497	neutral	Picture	51.412	n/a	1	2	19	n/a	39	29	1	n/a	n/a	n/a	n/a	102.468	AM10NES.jpg
59.636	0.514	Blank	Blank	50.898	n/a	1	2	19	n/a	39	n/a	1	n/a	n/a	n/a	n/a	102.966	n/a
60.166	0.497	neutral	Picture	50.384	n/a	1	2	20	n/a	40	23	1	n/a	n/a	n/a	n/a	103.496	AM04NES.jpg
60.663	0.514	Blank	Blank	49.87	n/a	1	2	20	n/a	40	n/a	1	n/a	n/a	n/a	n/a	103.994	n/a
61.194	10.014	ITI	Fixation+	39.84	n/a	1	n/a	n/a	n/a	n/a	n/a	n/a	n/a	n/a	n/a	n/a	104.524	n/a
71.224	0.497	happy	Picture	39.326	n/a	1	3	1	n/a	41	62	2	n/a	n/a	n/a	n/a	114.554	BM03HAS.jpg
71.721	0.514	Blank	Blank	38.812	n/a	1	3	1	n/a	41	n/a	2	n/a	n/a	n/a	n/a	115.052	n/a
72.252	0.497	happy	Picture	38.298	n/a	1	3	2	n/a	42	52	2	n/a	n/a	n/a	n/a	115.582	AF21HAS.jpg
72.749	0.514	Blank	Blank	37.784	n/a	1	3	2	n/a	42	n/a	2	n/a	n/a	n/a	n/a	116.08	n/a
73.28	0.497	happy	Picture	37.27	n/a	1	3	3	n/a	43	44	2	n/a	n/a	n/a	n/a	116.61	AF05HAS.jpg
73.777	0.514	Blank	Blank	36.757	n/a	1	3	3	n/a	43	n/a	2	n/a	n/a	n/a	n/a	117.108	n/a
74.308	0.497	happy	Picture	36.243	n/a	1	3	4	n/a	44	53	2	n/a	n/a	n/a	n/a	117.638	BF22HAS.jpg
74.805	0.514	Blank	Blank	35.729	n/a	1	3	4	n/a	44	n/a	2	n/a	n/a	n/a	n/a	118.135	n/a
75.336	0.497	happy	Picture	35.215	n/a	1	3	5	n/a	45	54	2	n/a	n/a	n/a	n/a	118.666	AF23HAS.jpg
75.833	0.514	Blank	Blank	34.701	n/a	1	3	5	n/a	45	n/a	2	n/a	n/a	n/a	n/a	119.163	n/a
76.364	0.497	happy	Picture	34.187	n/a	1	3	6	n/a	46	68	2	n/a	n/a	n/a	n/a	119.694	AM09HAS.jpg
76.861	0.514	Blank	Blank	33.673	n/a	1	3	6	n/a	46	n/a	2	n/a	n/a	n/a	n/a	120.191	n/a
77.392	0.497	happy	Picture	33.159	n/a	1	3	7	n/a	47	64	2	n/a	n/a	n/a	n/a	120.722	BM05HAS.jpg
77.889	0.514	Blank	Blank	32.645	n/a	1	3	7	n/a	47	n/a	2	n/a	n/a	n/a	n/a	121.219	n/a
78.419	0.497	happy	Picture	32.131	n/a	1	3	8	n/a	48	59	2	n/a	n/a	n/a	n/a	121.75	AF31HAS.jpg
78.917	0.514	Blank	Blank	31.617	n/a	1	3	8	n/a	48	n/a	2	n/a	n/a	n/a	n/a	122.247	n/a
79.447	0.497	happy	Picture	31.103	n/a	1	3	9	n/a	49	41	2	n/a	n/a	n/a	n/a	122.777	AF01HAS.jpg
79.945	0.514	Blank	Blank	30.589	n/a	1	3	9	n/a	49	n/a	2	n/a	n/a	n/a	n/a	123.275	n/a
80.475	0.497	happy	Picture	30.075	n/a	1	3	10	n/a	50	73	2	n/a	n/a	n/a	n/a	123.805	AM21HAS.jpg
80.972	0.514	Blank	Blank	29.561	n/a	1	3	10	n/a	50	n/a	2	n/a	n/a	n/a	n/a	124.303	n/a
81.503	0.497	happy	Picture	29.047	n/a	1	3	11	n/a	51	65	2	n/a	n/a	n/a	n/a	124.833	BM06HAS.jpg
82.0	0.514	Blank	Blank	28.533	n/a	1	3	11	n/a	51	n/a	2	n/a	n/a	n/a	n/a	125.331	n/a
82.531	0.497	happy	Picture	28.019	n/a	1	3	12	n/a	52	56	2	n/a	n/a	n/a	n/a	125.861	AF26HAS.jpg
83.028	0.514	Blank	Blank	27.506	n/a	1	3	12	n/a	52	n/a	2	n/a	n/a	n/a	n/a	126.359	n/a
83.559	0.497	happy	Picture	26.992	n/a	1	3	13	n/a	53	45	2	n/a	n/a	n/a	n/a	126.889	BF07HAS.jpg
84.056	0.514	Blank	Blank	26.478	n/a	1	3	13	n/a	53	n/a	2	n/a	n/a	n/a	n/a	127.386	n/a
84.587	0.497	happy	Picture	25.964	n/a	1	3	14	n/a	54	78	2	n/a	n/a	n/a	n/a	127.917	BM26HAS.jpg
85.084	0.514	Blank	Blank	25.45	n/a	1	3	14	n/a	54	n/a	2	n/a	n/a	n/a	n/a	128.414	n/a
85.615	0.497	happy	Picture	24.936	n/a	1	3	15	n/a	55	50	2	n/a	n/a	n/a	n/a	128.945	AF18HAS.jpg
86.112	0.514	Blank	Blank	24.422	n/a	1	3	15	n/a	55	n/a	2	n/a	n/a	n/a	n/a	129.442	n/a
86.642	0.497	happy	Picture	23.908	n/a	1	3	16	n/a	56	47	2	n/a	n/a	n/a	n/a	129.973	BF11HAS.jpg
87.14	0.514	Blank	Blank	23.394	n/a	1	3	16	n/a	56	n/a	2	n/a	n/a	n/a	n/a	130.47	n/a
87.67	0.497	happy	Picture	22.88	n/a	1	3	17	n/a	57	77	2	n/a	n/a	n/a	n/a	131.0	BM25HAS.jpg
88.168	0.514	Blank	Blank	22.366	n/a	1	3	17	n/a	57	n/a	2	n/a	n/a	n/a	n/a	131.498	n/a
88.698	0.497	happy	Picture	21.852	n/a	1	3	18	n/a	58	57	2	n/a	n/a	n/a	n/a	132.028	BF28HAS.jpg
89.196	0.514	Blank	Blank	21.338	n/a	1	3	18	n/a	58	n/a	2	n/a	n/a	n/a	n/a	132.526	n/a
89.726	0.497	happy	Picture	20.824	n/a	1	3	19	n/a	59	61	2	n/a	n/a	n/a	n/a	133.056	AM01HAS.jpg
90.224	0.514	Blank	Blank	20.31	n/a	1	3	19	n/a	59	n/a	2	n/a	n/a	n/a	n/a	133.554	n/a
90.754	0.497	happy	Picture	19.796	n/a	1	3	20	n/a	60	79	2	n/a	n/a	n/a	n/a	134.084	BM28HAS.jpg
91.251	0.514	Blank	Blank	19.282	n/a	1	3	20	n/a	60	n/a	2	n/a	n/a	n/a	n/a	134.582	n/a
91.782	10.014	ITI	Fixation+	9.252	n/a	1	n/a	n/a	n/a	n/a	n/a	n/a	n/a	n/a	n/a	n/a	135.112	n/a
111.048	n/a	ConfirmRating	Rate	n/a	9.251	1	n/a	n/a	0	n/a	n/a	n/a	2	Happy	68	54	154.378	n/a
113.688	n/a	ConfirmRating	Rate	n/a	2.62	1	n/a	n/a	1	n/a	n/a	n/a	3	Happy	2	48	157.018	n/a
113.716	10.014	ITI	Fixation+	97.12	n/a	2	n/a	n/a	n/a	n/a	n/a	n/a	n/a	n/a	n/a	n/a	157.046	n/a
123.746	0.497	angry	Picture	96.606	n/a	2	4	1	n/a	61	119	3	n/a	n/a	n/a	n/a	167.076	BM28ANS.jpg
124.243	0.514	Blank	Blank	96.092	n/a	2	4	1	n/a	61	n/a	3	n/a	n/a	n/a	n/a	167.573	n/a
124.774	0.497	angry	Picture	95.578	n/a	2	4	2	n/a	62	100	3	n/a	n/a	n/a	n/a	168.104	AF32ANS.jpg
125.271	0.514	Blank	Blank	95.064	n/a	2	4	2	n/a	62	n/a	3	n/a	n/a	n/a	n/a	168.601	n/a
125.802	0.497	angry	Picture	94.551	n/a	2	4	3	n/a	63	118	3	n/a	n/a	n/a	n/a	169.132	BM26ANS.jpg
126.299	0.514	Blank	Blank	94.037	n/a	2	4	3	n/a	63	n/a	3	n/a	n/a	n/a	n/a	169.629	n/a
126.829	0.497	angry	Picture	93.523	n/a	2	4	4	n/a	64	89	3	n/a	n/a	n/a	n/a	170.16	AF17ANS.jpg
127.327	0.514	Blank	Blank	93.009	n/a	2	4	4	n/a	64	n/a	3	n/a	n/a	n/a	n/a	170.657	n/a
127.857	0.497	angry	Picture	92.495	n/a	2	4	5	n/a	65	116	3	n/a	n/a	n/a	n/a	171.188	BM24ANS.jpg
128.355	0.514	Blank	Blank	91.981	n/a	2	4	5	n/a	65	n/a	3	n/a	n/a	n/a	n/a	171.685	n/a
128.885	0.497	angry	Picture	91.467	n/a	2	4	6	n/a	66	105	3	n/a	n/a	n/a	n/a	172.215	BM06ANS.jpg
129.383	0.514	Blank	Blank	90.953	n/a	2	4	6	n/a	66	n/a	3	n/a	n/a	n/a	n/a	172.713	n/a
129.913	0.497	angry	Picture	90.439	n/a	2	4	7	n/a	67	106	3	n/a	n/a	n/a	n/a	173.243	AM07ANS.jpg
130.411	0.514	Blank	Blank	89.925	n/a	2	4	7	n/a	67	n/a	3	n/a	n/a	n/a	n/a	173.741	n/a
130.941	0.497	angry	Picture	89.411	n/a	2	4	8	n/a	68	94	3	n/a	n/a	n/a	n/a	174.271	AF23ANS.jpg
131.438	0.514	Blank	Blank	88.897	n/a	2	4	8	n/a	68	n/a	3	n/a	n/a	n/a	n/a	174.769	n/a
131.969	0.497	angry	Picture	88.383	n/a	2	4	9	n/a	69	117	3	n/a	n/a	n/a	n/a	175.299	BM25ANS.jpg
132.466	0.514	Blank	Blank	87.869	n/a	2	4	9	n/a	69	n/a	3	n/a	n/a	n/a	n/a	175.797	n/a
132.997	0.497	angry	Picture	87.355	n/a	2	4	10	n/a	70	90	3	n/a	n/a	n/a	n/a	176.327	AF18ANS.jpg
133.494	0.514	Blank	Blank	86.841	n/a	2	4	10	n/a	70	n/a	3	n/a	n/a	n/a	n/a	176.824	n/a
134.025	0.497	angry	Picture	86.328	n/a	2	4	11	n/a	71	83	3	n/a	n/a	n/a	n/a	177.355	BF04ANS.jpg
134.522	0.514	Blank	Blank	85.814	n/a	2	4	11	n/a	71	n/a	3	n/a	n/a	n/a	n/a	177.852	n/a
135.053	0.497	angry	Picture	85.3	n/a	2	4	12	n/a	72	112	3	n/a	n/a	n/a	n/a	178.383	AM14ANS.jpg
135.55	0.514	Blank	Blank	84.786	n/a	2	4	12	n/a	72	n/a	3	n/a	n/a	n/a	n/a	178.88	n/a
136.081	0.497	angry	Picture	84.272	n/a	2	4	13	n/a	73	102	3	n/a	n/a	n/a	n/a	179.411	BM03ANS.jpg
136.578	0.514	Blank	Blank	83.758	n/a	2	4	13	n/a	73	n/a	3	n/a	n/a	n/a	n/a	179.908	n/a
137.108	0.497	angry	Picture	83.244	n/a	2	4	14	n/a	74	95	3	n/a	n/a	n/a	n/a	180.439	AF25ANS.jpg
137.606	0.514	Blank	Blank	82.73	n/a	2	4	14	n/a	74	n/a	3	n/a	n/a	n/a	n/a	180.936	n/a
138.136	0.497	angry	Picture	82.216	n/a	2	4	15	n/a	75	113	3	n/a	n/a	n/a	n/a	181.466	AM21ANS.jpg
138.634	0.514	Blank	Blank	81.702	n/a	2	4	15	n/a	75	n/a	3	n/a	n/a	n/a	n/a	181.964	n/a
139.164	0.497	angry	Picture	81.188	n/a	2	4	16	n/a	76	88	3	n/a	n/a	n/a	n/a	182.494	AF14ANS.jpg
139.662	0.514	Blank	Blank	80.674	n/a	2	4	16	n/a	76	n/a	3	n/a	n/a	n/a	n/a	182.992	n/a
140.192	0.497	angry	Picture	80.16	n/a	2	4	17	n/a	77	93	3	n/a	n/a	n/a	n/a	183.522	BF22ANS.jpg
140.689	0.514	Blank	Blank	79.646	n/a	2	4	17	n/a	77	n/a	3	n/a	n/a	n/a	n/a	184.02	n/a
141.22	0.497	angry	Picture	79.132	n/a	2	4	18	n/a	78	86	3	n/a	n/a	n/a	n/a	184.55	AF09ANS.jpg
141.717	0.514	Blank	Blank	78.618	n/a	2	4	18	n/a	78	n/a	3	n/a	n/a	n/a	n/a	185.048	n/a
142.248	0.497	angry	Picture	78.104	n/a	2	4	19	n/a	79	92	3	n/a	n/a	n/a	n/a	185.578	AF21ANS.jpg
142.745	0.514	Blank	Blank	77.59	n/a	2	4	19	n/a	79	n/a	3	n/a	n/a	n/a	n/a	186.075	n/a
143.276	0.497	angry	Picture	77.077	n/a	2	4	20	n/a	80	84	3	n/a	n/a	n/a	n/a	186.606	AF05ANS.jpg
143.773	0.514	Blank	Blank	76.563	n/a	2	4	20	n/a	80	n/a	3	n/a	n/a	n/a	n/a	187.103	n/a
144.304	10.014	ITI	Fixation+	66.532	n/a	2	n/a	n/a	n/a	n/a	n/a	n/a	n/a	n/a	n/a	n/a	187.634	n/a
154.334	0.497	neutral	Picture	66.018	n/a	2	5	1	n/a	81	4	1	n/a	n/a	n/a	n/a	197.664	AF05NES.jpg
154.831	0.514	Blank	Blank	65.505	n/a	2	5	1	n/a	81	n/a	1	n/a	n/a	n/a	n/a	198.161	n/a
155.362	0.497	neutral	Picture	64.991	n/a	2	5	2	n/a	82	14	1	n/a	n/a	n/a	n/a	198.692	AF23NES.jpg
155.859	0.514	Blank	Blank	64.477	n/a	2	5	2	n/a	82	n/a	1	n/a	n/a	n/a	n/a	199.189	n/a
156.39	0.497	neutral	Picture	63.963	n/a	2	5	3	n/a	83	19	1	n/a	n/a	n/a	n/a	199.72	AF31NES.jpg
156.887	0.514	Blank	Blank	63.449	n/a	2	5	3	n/a	83	n/a	1	n/a	n/a	n/a	n/a	200.217	n/a
157.418	0.497	neutral	Picture	62.935	n/a	2	5	4	n/a	84	8	1	n/a	n/a	n/a	n/a	200.748	AF14NES.jpg
157.915	0.514	Blank	Blank	62.421	n/a	2	5	4	n/a	84	n/a	1	n/a	n/a	n/a	n/a	201.245	n/a
158.445	0.497	neutral	Picture	61.907	n/a	2	5	5	n/a	85	25	1	n/a	n/a	n/a	n/a	201.775	BM06NES.jpg
158.943	0.514	Blank	Blank	61.393	n/a	2	5	5	n/a	85	n/a	1	n/a	n/a	n/a	n/a	202.273	n/a
159.473	0.497	neutral	Picture	60.879	n/a	2	5	6	n/a	86	9	1	n/a	n/a	n/a	n/a	202.803	AF17NES.jpg
159.971	0.514	Blank	Blank	60.365	n/a	2	5	6	n/a	86	n/a	1	n/a	n/a	n/a	n/a	203.301	n/a
160.501	0.497	neutral	Picture	59.851	n/a	2	5	7	n/a	87	2	1	n/a	n/a	n/a	n/a	203.831	AF03NES.jpg
160.999	0.514	Blank	Blank	59.337	n/a	2	5	7	n/a	87	n/a	1	n/a	n/a	n/a	n/a	204.329	n/a
161.529	0.497	neutral	Picture	58.823	n/a	2	5	8	n/a	88	17	1	n/a	n/a	n/a	n/a	204.859	BF28NES.jpg
162.026	0.514	Blank	Blank	58.309	n/a	2	5	8	n/a	88	n/a	1	n/a	n/a	n/a	n/a	205.357	n/a
162.557	0.497	neutral	Picture	57.795	n/a	2	5	9	n/a	89	6	1	n/a	n/a	n/a	n/a	205.887	AF09NES.jpg
163.054	0.514	Blank	Blank	57.281	n/a	2	5	9	n/a	89	n/a	1	n/a	n/a	n/a	n/a	206.385	n/a
163.585	0.497	neutral	Picture	56.768	n/a	2	5	10	n/a	90	12	1	n/a	n/a	n/a	n/a	206.915	AF21NES.jpg
164.082	0.514	Blank	Blank	56.254	n/a	2	5	10	n/a	90	n/a	1	n/a	n/a	n/a	n/a	207.412	n/a
164.613	0.497	neutral	Picture	55.74	n/a	2	5	11	n/a	91	24	1	n/a	n/a	n/a	n/a	207.943	BM05NES.jpg
165.11	0.514	Blank	Blank	55.226	n/a	2	5	11	n/a	91	n/a	1	n/a	n/a	n/a	n/a	208.44	n/a
165.641	0.497	neutral	Picture	54.712	n/a	2	5	12	n/a	92	34	1	n/a	n/a	n/a	n/a	208.971	AM22NES.jpg
166.138	0.514	Blank	Blank	54.198	n/a	2	5	12	n/a	92	n/a	1	n/a	n/a	n/a	n/a	209.468	n/a
166.668	0.497	neutral	Picture	53.684	n/a	2	5	13	n/a	93	23	1	n/a	n/a	n/a	n/a	209.999	AM04NES.jpg
167.166	0.514	Blank	Blank	53.17	n/a	2	5	13	n/a	93	n/a	1	n/a	n/a	n/a	n/a	210.496	n/a
167.696	0.497	neutral	Picture	52.656	n/a	2	5	14	n/a	94	15	1	n/a	n/a	n/a	n/a	211.026	AF25NES.jpg
168.194	0.514	Blank	Blank	52.142	n/a	2	5	14	n/a	94	n/a	1	n/a	n/a	n/a	n/a	211.524	n/a
168.724	0.497	neutral	Picture	51.628	n/a	2	5	15	n/a	95	37	1	n/a	n/a	n/a	n/a	212.054	BM25NES.jpg
169.222	0.514	Blank	Blank	51.114	n/a	2	5	15	n/a	95	n/a	1	n/a	n/a	n/a	n/a	212.552	n/a
169.752	0.497	neutral	Picture	50.6	n/a	2	5	16	n/a	96	32	1	n/a	n/a	n/a	n/a	213.082	AM14NES.jpg
170.25	0.514	Blank	Blank	50.086	n/a	2	5	16	n/a	96	n/a	1	n/a	n/a	n/a	n/a	213.58	n/a
170.78	0.497	neutral	Picture	49.572	n/a	2	5	17	n/a	97	3	1	n/a	n/a	n/a	n/a	214.11	BF04NES.jpg
171.277	0.514	Blank	Blank	49.058	n/a	2	5	17	n/a	97	n/a	1	n/a	n/a	n/a	n/a	214.608	n/a
171.808	0.497	neutral	Picture	48.544	n/a	2	5	18	n/a	98	16	1	n/a	n/a	n/a	n/a	215.138	AF26NES.jpg
172.305	0.514	Blank	Blank	48.03	n/a	2	5	18	n/a	98	n/a	1	n/a	n/a	n/a	n/a	215.635	n/a
172.836	0.497	neutral	Picture	47.517	n/a	2	5	19	n/a	99	27	1	n/a	n/a	n/a	n/a	216.166	BM08NES.jpg
173.333	0.514	Blank	Blank	47.002	n/a	2	5	19	n/a	99	n/a	1	n/a	n/a	n/a	n/a	216.663	n/a
173.864	0.497	neutral	Picture	46.489	n/a	2	5	20	n/a	100	28	1	n/a	n/a	n/a	n/a	217.194	AM09NES.jpg
174.361	0.514	Blank	Blank	45.975	n/a	2	5	20	n/a	100	n/a	1	n/a	n/a	n/a	n/a	217.691	n/a
174.892	10.014	ITI	Fixation+	35.945	n/a	2	n/a	n/a	n/a	n/a	n/a	n/a	n/a	n/a	n/a	n/a	218.222	n/a
184.922	0.497	angry	Picture	35.43	n/a	2	6	1	n/a	101	81	3	n/a	n/a	n/a	n/a	228.252	AF01ANS.jpg
185.419	0.514	Blank	Blank	34.917	n/a	2	6	1	n/a	101	n/a	3	n/a	n/a	n/a	n/a	228.749	n/a
185.95	0.497	angry	Picture	34.403	n/a	2	6	2	n/a	102	120	3	n/a	n/a	n/a	n/a	229.28	AM35ANS.jpg
186.447	0.514	Blank	Blank	33.889	n/a	2	6	2	n/a	102	n/a	3	n/a	n/a	n/a	n/a	229.777	n/a
186.978	0.497	angry	Picture	33.375	n/a	2	6	3	n/a	103	114	3	n/a	n/a	n/a	n/a	230.308	AM22ANS.jpg
187.475	0.514	Blank	Blank	32.861	n/a	2	6	3	n/a	103	n/a	3	n/a	n/a	n/a	n/a	230.805	n/a
188.005	0.497	angry	Picture	32.347	n/a	2	6	4	n/a	104	109	3	n/a	n/a	n/a	n/a	231.336	AM10ANS.jpg
188.503	0.514	Blank	Blank	31.833	n/a	2	6	4	n/a	104	n/a	3	n/a	n/a	n/a	n/a	231.833	n/a
189.033	0.497	angry	Picture	31.319	n/a	2	6	5	n/a	105	96	3	n/a	n/a	n/a	n/a	232.363	AF26ANS.jpg
189.531	0.514	Blank	Blank	30.805	n/a	2	6	5	n/a	105	n/a	3	n/a	n/a	n/a	n/a	232.861	n/a
190.061	0.497	angry	Picture	30.291	n/a	2	6	6	n/a	106	82	3	n/a	n/a	n/a	n/a	233.391	AF03ANS.jpg
190.559	0.514	Blank	Blank	29.777	n/a	2	6	6	n/a	106	n/a	3	n/a	n/a	n/a	n/a	233.889	n/a
191.089	0.497	angry	Picture	29.263	n/a	2	6	7	n/a	107	97	3	n/a	n/a	n/a	n/a	234.419	BF28ANS.jpg
191.586	0.514	Blank	Blank	28.749	n/a	2	6	7	n/a	107	n/a	3	n/a	n/a	n/a	n/a	234.917	n/a
192.117	0.497	angry	Picture	28.235	n/a	2	6	8	n/a	108	115	3	n/a	n/a	n/a	n/a	235.447	AM23ANS.jpg
192.614	0.514	Blank	Blank	27.721	n/a	2	6	8	n/a	108	n/a	3	n/a	n/a	n/a	n/a	235.945	n/a
193.145	0.497	angry	Picture	27.207	n/a	2	6	9	n/a	109	91	3	n/a	n/a	n/a	n/a	236.475	AF20ANS.jpg
193.642	0.514	Blank	Blank	26.694	n/a	2	6	9	n/a	109	n/a	3	n/a	n/a	n/a	n/a	236.972	n/a
194.173	0.497	angry	Picture	26.179	n/a	2	6	10	n/a	110	87	3	n/a	n/a	n/a	n/a	237.503	BF11ANS.jpg
194.67	0.514	Blank	Blank	25.666	n/a	2	6	10	n/a	110	n/a	3	n/a	n/a	n/a	n/a	238.0	n/a
195.201	0.497	angry	Picture	25.152	n/a	2	6	11	n/a	111	85	3	n/a	n/a	n/a	n/a	238.531	BF07ANS.jpg
195.698	0.514	Blank	Blank	24.638	n/a	2	6	11	n/a	111	n/a	3	n/a	n/a	n/a	n/a	239.028	n/a
196.228	0.497	angry	Picture	24.124	n/a	2	6	12	n/a	112	110	3	n/a	n/a	n/a	n/a	239.559	AM11ANS.jpg
196.726	0.514	Blank	Blank	23.61	n/a	2	6	12	n/a	112	n/a	3	n/a	n/a	n/a	n/a	240.056	n/a
197.256	0.497	angry	Picture	23.096	n/a	2	6	13	n/a	113	111	3	n/a	n/a	n/a	n/a	240.587	BM12ANS.jpg
197.754	0.514	Blank	Blank	22.582	n/a	2	6	13	n/a	113	n/a	3	n/a	n/a	n/a	n/a	241.084	n/a
198.284	0.497	angry	Picture	22.068	n/a	2	6	14	n/a	114	103	3	n/a	n/a	n/a	n/a	241.614	AM04ANS.jpg
198.782	0.514	Blank	Blank	21.554	n/a	2	6	14	n/a	114	n/a	3	n/a	n/a	n/a	n/a	242.112	n/a
199.312	0.497	angry	Picture	21.04	n/a	2	6	15	n/a	115	101	3	n/a	n/a	n/a	n/a	242.642	AM01ANS.jpg
199.81	0.514	Blank	Blank	20.526	n/a	2	6	15	n/a	115	n/a	3	n/a	n/a	n/a	n/a	243.14	n/a
200.34	0.497	angry	Picture	20.012	n/a	2	6	16	n/a	116	104	3	n/a	n/a	n/a	n/a	243.67	BM05ANS.jpg
200.837	0.514	Blank	Blank	19.498	n/a	2	6	16	n/a	116	n/a	3	n/a	n/a	n/a	n/a	244.168	n/a
201.368	0.497	angry	Picture	18.984	n/a	2	6	17	n/a	117	107	3	n/a	n/a	n/a	n/a	244.698	BM08ANS.jpg
201.865	0.514	Blank	Blank	18.47	n/a	2	6	17	n/a	117	n/a	3	n/a	n/a	n/a	n/a	245.196	n/a
202.396	0.497	angry	Picture	17.956	n/a	2	6	18	n/a	118	98	3	n/a	n/a	n/a	n/a	245.726	BF29ANS.jpg
202.893	0.514	Blank	Blank	17.442	n/a	2	6	18	n/a	118	n/a	3	n/a	n/a	n/a	n/a	246.223	n/a
203.424	0.497	angry	Picture	16.929	n/a	2	6	19	n/a	119	99	3	n/a	n/a	n/a	n/a	246.754	AF31ANS.jpg
203.921	0.514	Blank	Blank	16.415	n/a	2	6	19	n/a	119	n/a	3	n/a	n/a	n/a	n/a	247.251	n/a
204.452	0.497	angry	Picture	15.901	n/a	2	6	20	n/a	120	108	3	n/a	n/a	n/a	n/a	247.782	AM09ANS.jpg
204.949	0.514	Blank	Blank	15.387	n/a	2	6	20	n/a	120	n/a	3	n/a	n/a	n/a	n/a	248.279	n/a
205.48	10.014	ITI	Fixation+	5.357	n/a	2	n/a	n/a	n/a	n/a	n/a	n/a	n/a	n/a	n/a	n/a	248.81	n/a
220.85	n/a	ConfirmRating	Rate	n/a	5.355	2	n/a	n/a	0	n/a	n/a	n/a	2	Angry	44	49	264.18	n/a
222.738	n/a	ConfirmRating	Rate	n/a	1.857	2	n/a	n/a	1	n/a	n/a	n/a	3	Angry	1	49	266.068	n/a
222.755	15.004	Rest	Picture	n/a	n/a	n/a	n/a	n/a	n/a	n/a	n/a	n/a	0	n/a	0	0	266.085	n/a
237.775	10.014	ITI	Fixation+	96.733	n/a	3	n/a	n/a	n/a	n/a	n/a	n/a	n/a	n/a	n/a	n/a	281.105	n/a
247.805	0.497	happy	Picture	96.219	n/a	3	7	1	n/a	1	46	2	n/a	n/a	n/a	n/a	291.135	AF09HAS.jpg
248.303	0.514	Blank	Blank	95.705	n/a	3	7	1	n/a	1	n/a	2	n/a	n/a	n/a	n/a	291.633	n/a
248.833	0.497	happy	Picture	95.191	n/a	3	7	2	n/a	2	69	2	n/a	n/a	n/a	n/a	292.163	AM10HAS.jpg
249.331	0.514	Blank	Blank	94.677	n/a	3	7	2	n/a	2	n/a	2	n/a	n/a	n/a	n/a	292.661	n/a
249.861	0.497	happy	Picture	94.163	n/a	3	7	3	n/a	3	71	2	n/a	n/a	n/a	n/a	293.191	BM12HAS.jpg
250.358	0.514	Blank	Blank	93.649	n/a	3	7	3	n/a	3	n/a	2	n/a	n/a	n/a	n/a	293.689	n/a
250.889	0.497	happy	Picture	93.135	n/a	3	7	4	n/a	4	51	2	n/a	n/a	n/a	n/a	294.219	AF20HAS.jpg
251.386	0.514	Blank	Blank	92.621	n/a	3	7	4	n/a	4	n/a	2	n/a	n/a	n/a	n/a	294.716	n/a
251.917	0.497	happy	Picture	92.107	n/a	3	7	5	n/a	5	67	2	n/a	n/a	n/a	n/a	295.247	BM08HAS.jpg
252.414	0.514	Blank	Blank	91.593	n/a	3	7	5	n/a	5	n/a	2	n/a	n/a	n/a	n/a	295.744	n/a
252.945	0.497	happy	Picture	91.079	n/a	3	7	6	n/a	6	60	2	n/a	n/a	n/a	n/a	296.275	AF32HAS.jpg
253.442	0.514	Blank	Blank	90.565	n/a	3	7	6	n/a	6	n/a	2	n/a	n/a	n/a	n/a	296.772	n/a
253.973	0.497	happy	Picture	90.052	n/a	3	7	7	n/a	7	42	2	n/a	n/a	n/a	n/a	297.303	AF03HAS.jpg
254.47	0.514	Blank	Blank	89.538	n/a	3	7	7	n/a	7	n/a	2	n/a	n/a	n/a	n/a	297.8	n/a
255.0	0.497	happy	Picture	89.024	n/a	3	7	8	n/a	8	55	2	n/a	n/a	n/a	n/a	298.331	AF25HAS.jpg
255.498	0.514	Blank	Blank	88.51	n/a	3	7	8	n/a	8	n/a	2	n/a	n/a	n/a	n/a	298.828	n/a
256.028	0.497	happy	Picture	87.996	n/a	3	7	9	n/a	9	72	2	n/a	n/a	n/a	n/a	299.358	AM14HAS.jpg
256.526	0.514	Blank	Blank	87.482	n/a	3	7	9	n/a	9	n/a	2	n/a	n/a	n/a	n/a	299.856	n/a
257.056	0.497	happy	Picture	86.968	n/a	3	7	10	n/a	10	63	2	n/a	n/a	n/a	n/a	300.386	AM04HAS.jpg
257.554	0.514	Blank	Blank	86.454	n/a	3	7	10	n/a	10	n/a	2	n/a	n/a	n/a	n/a	300.884	n/a
258.084	0.497	happy	Picture	85.94	n/a	3	7	11	n/a	11	58	2	n/a	n/a	n/a	n/a	301.414	BF29HAS.jpg
258.582	0.514	Blank	Blank	85.426	n/a	3	7	11	n/a	11	n/a	2	n/a	n/a	n/a	n/a	301.912	n/a
259.112	0.497	happy	Picture	84.912	n/a	3	7	12	n/a	12	48	2	n/a	n/a	n/a	n/a	302.442	AF14HAS.jpg
259.609	0.514	Blank	Blank	84.398	n/a	3	7	12	n/a	12	n/a	2	n/a	n/a	n/a	n/a	302.94	n/a
260.14	0.497	happy	Picture	83.884	n/a	3	7	13	n/a	13	66	2	n/a	n/a	n/a	n/a	303.47	BM07HAS.jpg
260.637	0.514	Blank	Blank	83.37	n/a	3	7	13	n/a	13	n/a	2	n/a	n/a	n/a	n/a	303.967	n/a
261.168	0.497	happy	Picture	82.856	n/a	3	7	14	n/a	14	70	2	n/a	n/a	n/a	n/a	304.498	BM11HAS.jpg
261.665	0.514	Blank	Blank	82.342	n/a	3	7	14	n/a	14	n/a	2	n/a	n/a	n/a	n/a	304.995	n/a
262.196	0.497	happy	Picture	81.828	n/a	3	7	15	n/a	15	43	2	n/a	n/a	n/a	n/a	305.526	BF04HAS.jpg
262.693	0.514	Blank	Blank	81.315	n/a	3	7	15	n/a	15	n/a	2	n/a	n/a	n/a	n/a	306.023	n/a
263.224	0.497	happy	Picture	80.8	n/a	3	7	16	n/a	16	49	2	n/a	n/a	n/a	n/a	306.554	AF17HAS.jpg
263.721	0.514	Blank	Blank	80.287	n/a	3	7	16	n/a	16	n/a	2	n/a	n/a	n/a	n/a	307.051	n/a
264.251	0.497	happy	Picture	79.773	n/a	3	7	17	n/a	17	75	2	n/a	n/a	n/a	n/a	307.582	AM23HAS.jpg
264.749	0.514	Blank	Blank	79.259	n/a	3	7	17	n/a	17	n/a	2	n/a	n/a	n/a	n/a	308.079	n/a
265.279	0.497	happy	Picture	78.745	n/a	3	7	18	n/a	18	80	2	n/a	n/a	n/a	n/a	308.61	BM35HAS.jpg
265.777	0.514	Blank	Blank	78.231	n/a	3	7	18	n/a	18	n/a	2	n/a	n/a	n/a	n/a	309.107	n/a
266.307	0.497	happy	Picture	77.717	n/a	3	7	19	n/a	19	76	2	n/a	n/a	n/a	n/a	309.637	BM24HAS.jpg
266.805	0.514	Blank	Blank	77.203	n/a	3	7	19	n/a	19	n/a	2	n/a	n/a	n/a	n/a	310.135	n/a
267.335	0.497	happy	Picture	76.689	n/a	3	7	20	n/a	20	74	2	n/a	n/a	n/a	n/a	310.665	AM22HAS.jpg
267.832	0.514	Blank	Blank	76.175	n/a	3	7	20	n/a	20	n/a	2	n/a	n/a	n/a	n/a	311.163	n/a
268.363	10.014	ITI	Fixation+	66.145	n/a	3	n/a	n/a	n/a	n/a	n/a	n/a	n/a	n/a	n/a	n/a	311.693	n/a
278.393	0.497	neutral	Picture	65.631	n/a	3	8	1	n/a	21	33	1	n/a	n/a	n/a	n/a	321.723	AM21NES.jpg
278.891	0.514	Blank	Blank	65.117	n/a	3	8	1	n/a	21	n/a	1	n/a	n/a	n/a	n/a	322.221	n/a
279.421	0.497	neutral	Picture	64.603	n/a	3	8	2	n/a	22	39	1	n/a	n/a	n/a	n/a	322.751	AM28NES.jpg
279.918	0.514	Blank	Blank	64.089	n/a	3	8	2	n/a	22	n/a	1	n/a	n/a	n/a	n/a	323.249	n/a
280.449	0.497	neutral	Picture	63.575	n/a	3	8	3	n/a	23	25	1	n/a	n/a	n/a	n/a	323.779	BM06NES.jpg
280.946	0.514	Blank	Blank	63.061	n/a	3	8	3	n/a	23	n/a	1	n/a	n/a	n/a	n/a	324.276	n/a
281.477	0.497	neutral	Picture	62.547	n/a	3	8	4	n/a	24	5	1	n/a	n/a	n/a	n/a	324.807	BF07NES.jpg
281.974	0.514	Blank	Blank	62.033	n/a	3	8	4	n/a	24	n/a	1	n/a	n/a	n/a	n/a	325.304	n/a
282.505	0.497	neutral	Picture	61.519	n/a	3	8	5	n/a	25	10	1	n/a	n/a	n/a	n/a	325.835	AF18NES.jpg
283.002	0.514	Blank	Blank	61.005	n/a	3	8	5	n/a	25	n/a	1	n/a	n/a	n/a	n/a	326.332	n/a
283.533	0.497	neutral	Picture	60.492	n/a	3	8	6	n/a	26	34	1	n/a	n/a	n/a	n/a	326.863	AM22NES.jpg
284.03	0.514	Blank	Blank	59.978	n/a	3	8	6	n/a	26	n/a	1	n/a	n/a	n/a	n/a	327.36	n/a
284.56	0.497	neutral	Picture	59.464	n/a	3	8	7	n/a	27	36	1	n/a	n/a	n/a	n/a	327.891	BM24NES.jpg
285.058	0.514	Blank	Blank	58.95	n/a	3	8	7	n/a	27	n/a	1	n/a	n/a	n/a	n/a	328.388	n/a
285.588	0.497	neutral	Picture	58.436	n/a	3	8	8	n/a	28	14	1	n/a	n/a	n/a	n/a	328.919	AF23NES.jpg
286.086	0.514	Blank	Blank	57.922	n/a	3	8	8	n/a	28	n/a	1	n/a	n/a	n/a	n/a	329.416	n/a
286.616	0.497	neutral	Picture	57.408	n/a	3	8	9	n/a	29	9	1	n/a	n/a	n/a	n/a	329.946	AF17NES.jpg
287.114	0.514	Blank	Blank	56.894	n/a	3	8	9	n/a	29	n/a	1	n/a	n/a	n/a	n/a	330.444	n/a
287.644	0.497	neutral	Picture	56.38	n/a	3	8	10	n/a	30	19	1	n/a	n/a	n/a	n/a	330.974	AF31NES.jpg
288.142	0.514	Blank	Blank	55.866	n/a	3	8	10	n/a	30	n/a	1	n/a	n/a	n/a	n/a	331.472	n/a
288.672	0.497	neutral	Picture	55.352	n/a	3	8	11	n/a	31	15	1	n/a	n/a	n/a	n/a	332.002	AF25NES.jpg
289.169	0.514	Blank	Blank	54.838	n/a	3	8	11	n/a	31	n/a	1	n/a	n/a	n/a	n/a	332.5	n/a
289.7	0.497	neutral	Picture	54.324	n/a	3	8	12	n/a	32	22	1	n/a	n/a	n/a	n/a	333.03	BM03NES.jpg
290.197	0.514	Blank	Blank	53.81	n/a	3	8	12	n/a	32	n/a	1	n/a	n/a	n/a	n/a	333.527	n/a
290.728	0.497	neutral	Picture	53.296	n/a	3	8	13	n/a	33	11	1	n/a	n/a	n/a	n/a	334.058	AF20NES.jpg
291.225	0.514	Blank	Blank	52.782	n/a	3	8	13	n/a	33	n/a	1	n/a	n/a	n/a	n/a	334.555	n/a
291.756	0.497	neutral	Picture	52.268	n/a	3	8	14	n/a	34	4	1	n/a	n/a	n/a	n/a	335.086	AF05NES.jpg
292.253	0.514	Blank	Blank	51.754	n/a	3	8	14	n/a	34	n/a	1	n/a	n/a	n/a	n/a	335.583	n/a
292.784	0.497	neutral	Picture	51.24	n/a	3	8	15	n/a	35	17	1	n/a	n/a	n/a	n/a	336.114	BF28NES.jpg
293.281	0.514	Blank	Blank	50.726	n/a	3	8	15	n/a	35	n/a	1	n/a	n/a	n/a	n/a	336.611	n/a
293.812	0.497	neutral	Picture	50.213	n/a	3	8	16	n/a	36	13	1	n/a	n/a	n/a	n/a	337.142	BF22NES.jpg
294.309	0.514	Blank	Blank	49.699	n/a	3	8	16	n/a	36	n/a	1	n/a	n/a	n/a	n/a	337.639	n/a
294.839	0.497	neutral	Picture	49.185	n/a	3	8	17	n/a	37	12	1	n/a	n/a	n/a	n/a	338.17	AF21NES.jpg
295.337	0.514	Blank	Blank	48.671	n/a	3	8	17	n/a	37	n/a	1	n/a	n/a	n/a	n/a	338.667	n/a
295.867	0.497	neutral	Picture	48.157	n/a	3	8	18	n/a	38	24	1	n/a	n/a	n/a	n/a	339.197	BM05NES.jpg
296.365	0.514	Blank	Blank	47.643	n/a	3	8	18	n/a	38	n/a	1	n/a	n/a	n/a	n/a	339.695	n/a
296.895	0.497	neutral	Picture	47.129	n/a	3	8	19	n/a	39	29	1	n/a	n/a	n/a	n/a	340.225	AM10NES.jpg
297.392	0.514	Blank	Blank	46.615	n/a	3	8	19	n/a	39	n/a	1	n/a	n/a	n/a	n/a	340.723	n/a
297.923	0.497	neutral	Picture	46.101	n/a	3	8	20	n/a	40	23	1	n/a	n/a	n/a	n/a	341.253	AM04NES.jpg
298.42	0.514	Blank	Blank	45.587	n/a	3	8	20	n/a	40	n/a	1	n/a	n/a	n/a	n/a	341.751	n/a
298.951	10.014	ITI	Fixation+	35.557	n/a	3	n/a	n/a	n/a	n/a	n/a	n/a	n/a	n/a	n/a	n/a	342.281	n/a
308.981	0.497	happy	Picture	35.043	n/a	3	9	1	n/a	41	62	2	n/a	n/a	n/a	n/a	352.311	BM03HAS.jpg
309.478	0.514	Blank	Blank	34.529	n/a	3	9	1	n/a	41	n/a	2	n/a	n/a	n/a	n/a	352.809	n/a
310.009	0.497	happy	Picture	34.015	n/a	3	9	2	n/a	42	52	2	n/a	n/a	n/a	n/a	353.339	AF21HAS.jpg
310.506	0.514	Blank	Blank	33.501	n/a	3	9	2	n/a	42	n/a	2	n/a	n/a	n/a	n/a	353.837	n/a
311.037	0.497	happy	Picture	32.987	n/a	3	9	3	n/a	43	44	2	n/a	n/a	n/a	n/a	354.367	AF05HAS.jpg
311.534	0.514	Blank	Blank	32.473	n/a	3	9	3	n/a	43	n/a	2	n/a	n/a	n/a	n/a	354.864	n/a
312.065	0.497	happy	Picture	31.959	n/a	3	9	4	n/a	44	53	2	n/a	n/a	n/a	n/a	355.395	BF22HAS.jpg
312.562	0.514	Blank	Blank	31.445	n/a	3	9	4	n/a	44	n/a	2	n/a	n/a	n/a	n/a	355.892	n/a
313.093	0.497	happy	Picture	30.931	n/a	3	9	5	n/a	45	54	2	n/a	n/a	n/a	n/a	356.423	AF23HAS.jpg
313.59	0.514	Blank	Blank	30.418	n/a	3	9	5	n/a	45	n/a	2	n/a	n/a	n/a	n/a	356.92	n/a
314.12	0.497	happy	Picture	29.904	n/a	3	9	6	n/a	46	68	2	n/a	n/a	n/a	n/a	357.451	AM09HAS.jpg
314.618	0.514	Blank	Blank	29.39	n/a	3	9	6	n/a	46	n/a	2	n/a	n/a	n/a	n/a	357.948	n/a
315.148	0.497	happy	Picture	28.876	n/a	3	9	7	n/a	47	64	2	n/a	n/a	n/a	n/a	358.479	BM05HAS.jpg
315.646	0.514	Blank	Blank	28.362	n/a	3	9	7	n/a	47	n/a	2	n/a	n/a	n/a	n/a	358.976	n/a
316.176	0.497	happy	Picture	27.848	n/a	3	9	8	n/a	48	59	2	n/a	n/a	n/a	n/a	359.507	AF31HAS.jpg
316.674	0.514	Blank	Blank	27.334	n/a	3	9	8	n/a	48	n/a	2	n/a	n/a	n/a	n/a	360.004	n/a
317.204	0.497	happy	Picture	26.82	n/a	3	9	9	n/a	49	41	2	n/a	n/a	n/a	n/a	360.534	AF01HAS.jpg
317.702	0.514	Blank	Blank	26.306	n/a	3	9	9	n/a	49	n/a	2	n/a	n/a	n/a	n/a	361.032	n/a
318.232	0.497	happy	Picture	25.792	n/a	3	9	10	n/a	50	73	2	n/a	n/a	n/a	n/a	361.562	AM21HAS.jpg
318.729	0.514	Blank	Blank	25.278	n/a	3	9	10	n/a	50	n/a	2	n/a	n/a	n/a	n/a	362.06	n/a
319.26	0.497	happy	Picture	24.764	n/a	3	9	11	n/a	51	65	2	n/a	n/a	n/a	n/a	362.59	BM06HAS.jpg
319.757	0.514	Blank	Blank	24.25	n/a	3	9	11	n/a	51	n/a	2	n/a	n/a	n/a	n/a	363.087	n/a
320.288	0.497	happy	Picture	23.736	n/a	3	9	12	n/a	52	56	2	n/a	n/a	n/a	n/a	363.618	AF26HAS.jpg
320.785	0.514	Blank	Blank	23.222	n/a	3	9	12	n/a	52	n/a	2	n/a	n/a	n/a	n/a	364.115	n/a
321.316	0.497	happy	Picture	22.708	n/a	3	9	13	n/a	53	45	2	n/a	n/a	n/a	n/a	364.646	BF07HAS.jpg
321.813	0.514	Blank	Blank	22.194	n/a	3	9	13	n/a	53	n/a	2	n/a	n/a	n/a	n/a	365.143	n/a
322.344	0.497	happy	Picture	21.68	n/a	3	9	14	n/a	54	78	2	n/a	n/a	n/a	n/a	365.674	BM26HAS.jpg
322.841	0.514	Blank	Blank	21.167	n/a	3	9	14	n/a	54	n/a	2	n/a	n/a	n/a	n/a	366.171	n/a
323.372	0.497	happy	Picture	20.652	n/a	3	9	15	n/a	55	50	2	n/a	n/a	n/a	n/a	366.702	AF18HAS.jpg
323.869	0.514	Blank	Blank	20.139	n/a	3	9	15	n/a	55	n/a	2	n/a	n/a	n/a	n/a	367.199	n/a
324.399	0.497	happy	Picture	19.625	n/a	3	9	16	n/a	56	47	2	n/a	n/a	n/a	n/a	367.73	BF11HAS.jpg
324.897	0.514	Blank	Blank	19.111	n/a	3	9	16	n/a	56	n/a	2	n/a	n/a	n/a	n/a	368.227	n/a
325.427	0.497	happy	Picture	18.597	n/a	3	9	17	n/a	57	77	2	n/a	n/a	n/a	n/a	368.757	BM25HAS.jpg
325.925	0.514	Blank	Blank	18.083	n/a	3	9	17	n/a	57	n/a	2	n/a	n/a	n/a	n/a	369.255	n/a
326.455	0.497	happy	Picture	17.569	n/a	3	9	18	n/a	58	57	2	n/a	n/a	n/a	n/a	369.785	BF28HAS.jpg
326.952	0.514	Blank	Blank	17.055	n/a	3	9	18	n/a	58	n/a	2	n/a	n/a	n/a	n/a	370.283	n/a
327.483	0.497	happy	Picture	16.541	n/a	3	9	19	n/a	59	61	2	n/a	n/a	n/a	n/a	370.813	AM01HAS.jpg
327.98	0.514	Blank	Blank	16.027	n/a	3	9	19	n/a	59	n/a	2	n/a	n/a	n/a	n/a	371.311	n/a
328.511	0.497	happy	Picture	15.513	n/a	3	9	20	n/a	60	79	2	n/a	n/a	n/a	n/a	371.841	BM28HAS.jpg
329.008	0.514	Blank	Blank	14.999	n/a	3	9	20	n/a	60	n/a	2	n/a	n/a	n/a	n/a	372.339	n/a
329.539	10.014	ITI	Fixation+	4.969	n/a	3	n/a	n/a	n/a	n/a	n/a	n/a	n/a	n/a	n/a	n/a	372.869	n/a
344.521	n/a	ConfirmRating	Rate	n/a	4.957	3	n/a	n/a	0	n/a	n/a	n/a	2	Happy	51	49	387.852	n/a
346.384	n/a	ConfirmRating	Rate	n/a	1.857	3	n/a	n/a	1	n/a	n/a	n/a	3	Happy	0	47	389.714	n/a
346.416	10.014	ITI	Fixation+	96.349	n/a	4	n/a	n/a	n/a	n/a	n/a	n/a	n/a	n/a	n/a	n/a	389.746	n/a
356.446	0.497	angry	Picture	95.836	n/a	4	10	1	n/a	61	119	3	n/a	n/a	n/a	n/a	399.776	BM28ANS.jpg
356.944	0.514	Blank	Blank	95.322	n/a	4	10	1	n/a	61	n/a	3	n/a	n/a	n/a	n/a	400.274	n/a
357.474	0.497	angry	Picture	94.808	n/a	4	10	2	n/a	62	100	3	n/a	n/a	n/a	n/a	400.804	AF32ANS.jpg
357.971	0.514	Blank	Blank	94.294	n/a	4	10	2	n/a	62	n/a	3	n/a	n/a	n/a	n/a	401.302	n/a
358.502	0.497	angry	Picture	93.78	n/a	4	10	3	n/a	63	118	3	n/a	n/a	n/a	n/a	401.832	BM26ANS.jpg
358.999	0.514	Blank	Blank	93.266	n/a	4	10	3	n/a	63	n/a	3	n/a	n/a	n/a	n/a	402.33	n/a
359.53	0.497	angry	Picture	92.752	n/a	4	10	4	n/a	64	89	3	n/a	n/a	n/a	n/a	402.86	AF17ANS.jpg
360.027	0.514	Blank	Blank	92.238	n/a	4	10	4	n/a	64	n/a	3	n/a	n/a	n/a	n/a	403.358	n/a
360.558	0.497	angry	Picture	91.724	n/a	4	10	5	n/a	65	116	3	n/a	n/a	n/a	n/a	403.888	BM24ANS.jpg
361.055	0.514	Blank	Blank	91.21	n/a	4	10	5	n/a	65	n/a	3	n/a	n/a	n/a	n/a	404.385	n/a
361.586	0.497	angry	Picture	90.696	n/a	4	10	6	n/a	66	105	3	n/a	n/a	n/a	n/a	404.916	BM06ANS.jpg
362.083	0.514	Blank	Blank	90.182	n/a	4	10	6	n/a	66	n/a	3	n/a	n/a	n/a	n/a	405.413	n/a
362.614	0.497	angry	Picture	89.668	n/a	4	10	7	n/a	67	106	3	n/a	n/a	n/a	n/a	405.944	AM07ANS.jpg
363.111	0.514	Blank	Blank	89.154	n/a	4	10	7	n/a	67	n/a	3	n/a	n/a	n/a	n/a	406.441	n/a
363.642	0.497	angry	Picture	88.64	n/a	4	10	8	n/a	68	94	3	n/a	n/a	n/a	n/a	406.972	AF23ANS.jpg
364.139	0.514	Blank	Blank	88.126	n/a	4	10	8	n/a	68	n/a	3	n/a	n/a	n/a	n/a	407.469	n/a
364.669	0.497	angry	Picture	87.613	n/a	4	10	9	n/a	69	117	3	n/a	n/a	n/a	n/a	408.0	BM25ANS.jpg
365.167	0.514	Blank	Blank	87.099	n/a	4	10	9	n/a	69	n/a	3	n/a	n/a	n/a	n/a	408.497	n/a
365.697	0.497	angry	Picture	86.585	n/a	4	10	10	n/a	70	90	3	n/a	n/a	n/a	n/a	409.027	AF18ANS.jpg
366.195	0.514	Blank	Blank	86.071	n/a	4	10	10	n/a	70	n/a	3	n/a	n/a	n/a	n/a	409.525	n/a
366.725	0.497	angry	Picture	85.557	n/a	4	10	11	n/a	71	83	3	n/a	n/a	n/a	n/a	410.055	BF04ANS.jpg
367.223	0.514	Blank	Blank	85.043	n/a	4	10	11	n/a	71	n/a	3	n/a	n/a	n/a	n/a	410.553	n/a
367.753	0.497	angry	Picture	84.529	n/a	4	10	12	n/a	72	112	3	n/a	n/a	n/a	n/a	411.083	AM14ANS.jpg
368.25	0.514	Blank	Blank	84.015	n/a	4	10	12	n/a	72	n/a	3	n/a	n/a	n/a	n/a	411.581	n/a
368.781	0.497	angry	Picture	83.501	n/a	4	10	13	n/a	73	102	3	n/a	n/a	n/a	n/a	412.111	BM03ANS.jpg
369.278	0.514	Blank	Blank	82.987	n/a	4	10	13	n/a	73	n/a	3	n/a	n/a	n/a	n/a	412.608	n/a
369.809	0.497	angry	Picture	82.473	n/a	4	10	14	n/a	74	95	3	n/a	n/a	n/a	n/a	413.139	AF25ANS.jpg
370.306	0.514	Blank	Blank	81.959	n/a	4	10	14	n/a	74	n/a	3	n/a	n/a	n/a	n/a	413.636	n/a
370.837	0.497	angry	Picture	81.445	n/a	4	10	15	n/a	75	113	3	n/a	n/a	n/a	n/a	414.167	AM21ANS.jpg
371.334	0.514	Blank	Blank	80.931	n/a	4	10	15	n/a	75	n/a	3	n/a	n/a	n/a	n/a	414.664	n/a
371.865	0.497	angry	Picture	80.417	n/a	4	10	16	n/a	76	88	3	n/a	n/a	n/a	n/a	415.195	AF14ANS.jpg
372.362	0.514	Blank	Blank	79.903	n/a	4	10	16	n/a	76	n/a	3	n/a	n/a	n/a	n/a	415.692	n/a
372.892	0.497	angry	Picture	79.389	n/a	4	10	17	n/a	77	93	3	n/a	n/a	n/a	n/a	416.223	BF22ANS.jpg
373.39	0.514	Blank	Blank	78.875	n/a	4	10	17	n/a	77	n/a	3	n/a	n/a	n/a	n/a	416.72	n/a
373.92	0.497	angry	Picture	78.361	n/a	4	10	18	n/a	78	86	3	n/a	n/a	n/a	n/a	417.25	AF09ANS.jpg
374.418	0.514	Blank	Blank	77.848	n/a	4	10	18	n/a	78	n/a	3	n/a	n/a	n/a	n/a	417.748	n/a
374.948	0.497	angry	Picture	77.334	n/a	4	10	19	n/a	79	92	3	n/a	n/a	n/a	n/a	418.278	AF21ANS.jpg
375.446	0.514	Blank	Blank	76.82	n/a	4	10	19	n/a	79	n/a	3	n/a	n/a	n/a	n/a	418.776	n/a
375.976	0.497	angry	Picture	76.306	n/a	4	10	20	n/a	80	84	3	n/a	n/a	n/a	n/a	419.306	AF05ANS.jpg
376.474	0.514	Blank	Blank	75.792	n/a	4	10	20	n/a	80	n/a	3	n/a	n/a	n/a	n/a	419.804	n/a
377.004	10.014	ITI	Fixation+	65.762	n/a	4	n/a	n/a	n/a	n/a	n/a	n/a	n/a	n/a	n/a	n/a	420.334	n/a
387.034	0.497	neutral	Picture	65.248	n/a	4	11	1	n/a	81	4	1	n/a	n/a	n/a	n/a	430.364	AF05NES.jpg
387.531	0.514	Blank	Blank	64.734	n/a	4	11	1	n/a	81	n/a	1	n/a	n/a	n/a	n/a	430.862	n/a
388.062	0.497	neutral	Picture	64.22	n/a	4	11	2	n/a	82	14	1	n/a	n/a	n/a	n/a	431.392	AF23NES.jpg
388.559	0.514	Blank	Blank	63.706	n/a	4	11	2	n/a	82	n/a	1	n/a	n/a	n/a	n/a	431.89	n/a
389.09	0.497	neutral	Picture	63.192	n/a	4	11	3	n/a	83	19	1	n/a	n/a	n/a	n/a	432.42	AF31NES.jpg
389.587	0.514	Blank	Blank	62.678	n/a	4	11	3	n/a	83	n/a	1	n/a	n/a	n/a	n/a	432.918	n/a
390.118	0.497	neutral	Picture	62.164	n/a	4	11	4	n/a	84	8	1	n/a	n/a	n/a	n/a	433.448	AF14NES.jpg
390.615	0.514	Blank	Blank	61.65	n/a	4	11	4	n/a	84	n/a	1	n/a	n/a	n/a	n/a	433.945	n/a
391.146	0.497	neutral	Picture	61.136	n/a	4	11	5	n/a	85	25	1	n/a	n/a	n/a	n/a	434.476	BM06NES.jpg
391.643	0.514	Blank	Blank	60.622	n/a	4	11	5	n/a	85	n/a	1	n/a	n/a	n/a	n/a	434.973	n/a
392.174	0.497	neutral	Picture	60.108	n/a	4	11	6	n/a	86	9	1	n/a	n/a	n/a	n/a	435.504	AF17NES.jpg
392.671	0.514	Blank	Blank	59.594	n/a	4	11	6	n/a	86	n/a	1	n/a	n/a	n/a	n/a	436.001	n/a
393.202	0.497	neutral	Picture	59.08	n/a	4	11	7	n/a	87	2	1	n/a	n/a	n/a	n/a	436.532	AF03NES.jpg
393.699	0.514	Blank	Blank	58.566	n/a	4	11	7	n/a	87	n/a	1	n/a	n/a	n/a	n/a	437.029	n/a
394.229	0.497	neutral	Picture	58.052	n/a	4	11	8	n/a	88	17	1	n/a	n/a	n/a	n/a	437.56	BF28NES.jpg
394.727	0.514	Blank	Blank	57.538	n/a	4	11	8	n/a	88	n/a	1	n/a	n/a	n/a	n/a	438.057	n/a
395.257	0.497	neutral	Picture	57.025	n/a	4	11	9	n/a	89	6	1	n/a	n/a	n/a	n/a	438.587	AF09NES.jpg
395.755	0.514	Blank	Blank	56.511	n/a	4	11	9	n/a	89	n/a	1	n/a	n/a	n/a	n/a	439.085	n/a
396.285	0.497	neutral	Picture	55.997	n/a	4	11	10	n/a	90	12	1	n/a	n/a	n/a	n/a	439.615	AF21NES.jpg
396.783	0.514	Blank	Blank	55.483	n/a	4	11	10	n/a	90	n/a	1	n/a	n/a	n/a	n/a	440.113	n/a
397.313	0.497	neutral	Picture	54.969	n/a	4	11	11	n/a	91	24	1	n/a	n/a	n/a	n/a	440.643	BM05NES.jpg
397.81	0.514	Blank	Blank	54.455	n/a	4	11	11	n/a	91	n/a	1	n/a	n/a	n/a	n/a	441.141	n/a
398.341	0.497	neutral	Picture	53.941	n/a	4	11	12	n/a	92	34	1	n/a	n/a	n/a	n/a	441.671	AM22NES.jpg
398.838	0.514	Blank	Blank	53.427	n/a	4	11	12	n/a	92	n/a	1	n/a	n/a	n/a	n/a	442.168	n/a
399.369	0.497	neutral	Picture	52.913	n/a	4	11	13	n/a	93	23	1	n/a	n/a	n/a	n/a	442.699	AM04NES.jpg
399.866	0.514	Blank	Blank	52.399	n/a	4	11	13	n/a	93	n/a	1	n/a	n/a	n/a	n/a	443.196	n/a
400.397	0.497	neutral	Picture	51.885	n/a	4	11	14	n/a	94	15	1	n/a	n/a	n/a	n/a	443.727	AF25NES.jpg
400.894	0.514	Blank	Blank	51.371	n/a	4	11	14	n/a	94	n/a	1	n/a	n/a	n/a	n/a	444.224	n/a
401.425	0.497	neutral	Picture	50.857	n/a	4	11	15	n/a	95	37	1	n/a	n/a	n/a	n/a	444.755	BM25NES.jpg
401.922	0.514	Blank	Blank	50.343	n/a	4	11	15	n/a	95	n/a	1	n/a	n/a	n/a	n/a	445.252	n/a
402.452	0.497	neutral	Picture	49.829	n/a	4	11	16	n/a	96	32	1	n/a	n/a	n/a	n/a	445.783	AM14NES.jpg
402.95	0.514	Blank	Blank	49.315	n/a	4	11	16	n/a	96	n/a	1	n/a	n/a	n/a	n/a	446.28	n/a
403.48	0.497	neutral	Picture	48.801	n/a	4	11	17	n/a	97	3	1	n/a	n/a	n/a	n/a	446.811	BF04NES.jpg
403.978	0.514	Blank	Blank	48.288	n/a	4	11	17	n/a	97	n/a	1	n/a	n/a	n/a	n/a	447.308	n/a
404.508	0.497	neutral	Picture	47.774	n/a	4	11	18	n/a	98	16	1	n/a	n/a	n/a	n/a	447.839	AF26NES.jpg
405.006	0.514	Blank	Blank	47.26	n/a	4	11	18	n/a	98	n/a	1	n/a	n/a	n/a	n/a	448.336	n/a
405.536	0.497	neutral	Picture	46.746	n/a	4	11	19	n/a	99	27	1	n/a	n/a	n/a	n/a	448.866	BM08NES.jpg
406.034	0.514	Blank	Blank	46.232	n/a	4	11	19	n/a	99	n/a	1	n/a	n/a	n/a	n/a	449.364	n/a
406.564	0.497	neutral	Picture	45.718	n/a	4	11	20	n/a	100	28	1	n/a	n/a	n/a	n/a	449.894	AM09NES.jpg
407.061	0.514	Blank	Blank	45.204	n/a	4	11	20	n/a	100	n/a	1	n/a	n/a	n/a	n/a	450.392	n/a
407.592	10.014	ITI	Fixation+	35.174	n/a	4	n/a	n/a	n/a	n/a	n/a	n/a	n/a	n/a	n/a	n/a	450.922	n/a
417.622	0.497	angry	Picture	34.66	n/a	4	12	1	n/a	101	81	3	n/a	n/a	n/a	n/a	460.952	AF01ANS.jpg
418.12	0.514	Blank	Blank	34.146	n/a	4	12	1	n/a	101	n/a	3	n/a	n/a	n/a	n/a	461.45	n/a
418.65	0.497	angry	Picture	33.632	n/a	4	12	2	n/a	102	120	3	n/a	n/a	n/a	n/a	461.98	AM35ANS.jpg
419.147	0.514	Blank	Blank	33.118	n/a	4	12	2	n/a	102	n/a	3	n/a	n/a	n/a	n/a	462.478	n/a
419.678	0.497	angry	Picture	32.604	n/a	4	12	3	n/a	103	114	3	n/a	n/a	n/a	n/a	463.008	AM22ANS.jpg
420.175	0.514	Blank	Blank	32.09	n/a	4	12	3	n/a	103	n/a	3	n/a	n/a	n/a	n/a	463.505	n/a
420.706	0.497	angry	Picture	31.576	n/a	4	12	4	n/a	104	109	3	n/a	n/a	n/a	n/a	464.036	AM10ANS.jpg
421.203	0.514	Blank	Blank	31.062	n/a	4	12	4	n/a	104	n/a	3	n/a	n/a	n/a	n/a	464.533	n/a
421.734	0.497	angry	Picture	30.548	n/a	4	12	5	n/a	105	96	3	n/a	n/a	n/a	n/a	465.064	AF26ANS.jpg
422.231	0.514	Blank	Blank	30.034	n/a	4	12	5	n/a	105	n/a	3	n/a	n/a	n/a	n/a	465.561	n/a
422.762	0.497	angry	Picture	29.52	n/a	4	12	6	n/a	106	82	3	n/a	n/a	n/a	n/a	466.092	AF03ANS.jpg
423.259	0.514	Blank	Blank	29.006	n/a	4	12	6	n/a	106	n/a	3	n/a	n/a	n/a	n/a	466.589	n/a
423.789	0.497	angry	Picture	28.492	n/a	4	12	7	n/a	107	97	3	n/a	n/a	n/a	n/a	467.12	BF28ANS.jpg
424.287	0.514	Blank	Blank	27.978	n/a	4	12	7	n/a	107	n/a	3	n/a	n/a	n/a	n/a	467.617	n/a
424.817	0.497	angry	Picture	27.464	n/a	4	12	8	n/a	108	115	3	n/a	n/a	n/a	n/a	468.147	AM23ANS.jpg
425.315	0.514	Blank	Blank	26.951	n/a	4	12	8	n/a	108	n/a	3	n/a	n/a	n/a	n/a	468.645	n/a
425.845	0.497	angry	Picture	26.437	n/a	4	12	9	n/a	109	91	3	n/a	n/a	n/a	n/a	469.175	AF20ANS.jpg
426.343	0.514	Blank	Blank	25.923	n/a	4	12	9	n/a	109	n/a	3	n/a	n/a	n/a	n/a	469.673	n/a
426.873	0.497	angry	Picture	25.409	n/a	4	12	10	n/a	110	87	3	n/a	n/a	n/a	n/a	470.203	BF11ANS.jpg
427.37	0.514	Blank	Blank	24.895	n/a	4	12	10	n/a	110	n/a	3	n/a	n/a	n/a	n/a	470.701	n/a
427.901	0.497	angry	Picture	24.381	n/a	4	12	11	n/a	111	85	3	n/a	n/a	n/a	n/a	471.231	BF07ANS.jpg
428.398	0.514	Blank	Blank	23.867	n/a	4	12	11	n/a	111	n/a	3	n/a	n/a	n/a	n/a	471.729	n/a
428.929	0.497	angry	Picture	23.353	n/a	4	12	12	n/a	112	110	3	n/a	n/a	n/a	n/a	472.259	AM11ANS.jpg
429.426	0.514	Blank	Blank	22.839	n/a	4	12	12	n/a	112	n/a	3	n/a	n/a	n/a	n/a	472.756	n/a
429.957	0.497	angry	Picture	22.325	n/a	4	12	13	n/a	113	111	3	n/a	n/a	n/a	n/a	473.287	BM12ANS.jpg
430.454	0.514	Blank	Blank	21.811	n/a	4	12	13	n/a	113	n/a	3	n/a	n/a	n/a	n/a	473.784	n/a
430.985	0.497	angry	Picture	21.297	n/a	4	12	14	n/a	114	103	3	n/a	n/a	n/a	n/a	474.315	AM04ANS.jpg
431.482	0.514	Blank	Blank	20.783	n/a	4	12	14	n/a	114	n/a	3	n/a	n/a	n/a	n/a	474.812	n/a
432.012	0.497	angry	Picture	20.269	n/a	4	12	15	n/a	115	101	3	n/a	n/a	n/a	n/a	475.343	AM01ANS.jpg
432.51	0.514	Blank	Blank	19.755	n/a	4	12	15	n/a	115	n/a	3	n/a	n/a	n/a	n/a	475.84	n/a
433.04	0.497	angry	Picture	19.241	n/a	4	12	16	n/a	116	104	3	n/a	n/a	n/a	n/a	476.371	BM05ANS.jpg
433.538	0.514	Blank	Blank	18.728	n/a	4	12	16	n/a	116	n/a	3	n/a	n/a	n/a	n/a	476.868	n/a
434.068	0.497	angry	Picture	18.213	n/a	4	12	17	n/a	117	107	3	n/a	n/a	n/a	n/a	477.399	BM08ANS.jpg
434.566	0.514	Blank	Blank	17.7	n/a	4	12	17	n/a	117	n/a	3	n/a	n/a	n/a	n/a	477.896	n/a
435.096	0.497	angry	Picture	17.186	n/a	4	12	18	n/a	118	98	3	n/a	n/a	n/a	n/a	478.426	BF29ANS.jpg
435.594	0.514	Blank	Blank	16.672	n/a	4	12	18	n/a	118	n/a	3	n/a	n/a	n/a	n/a	478.924	n/a
436.124	0.497	angry	Picture	16.158	n/a	4	12	19	n/a	119	99	3	n/a	n/a	n/a	n/a	479.454	AF31ANS.jpg
436.621	0.514	Blank	Blank	15.644	n/a	4	12	19	n/a	119	n/a	3	n/a	n/a	n/a	n/a	479.952	n/a
437.152	0.497	angry	Picture	15.13	n/a	4	12	20	n/a	120	108	3	n/a	n/a	n/a	n/a	480.482	AM09ANS.jpg
437.649	0.514	Blank	Blank	14.616	n/a	4	12	20	n/a	120	n/a	3	n/a	n/a	n/a	n/a	480.979	n/a
438.18	10.014	ITI	Fixation+	4.586	n/a	4	n/a	n/a	n/a	n/a	n/a	n/a	n/a	n/a	n/a	n/a	481.51	n/a
452.779	n/a	ConfirmRating	Rate	n/a	4.576	4	n/a	n/a	0	n/a	n/a	n/a	2	Angry	54	51	496.109	n/a
455.248	n/a	ConfirmRating	Rate	n/a	2.454	4	n/a	n/a	1	n/a	n/a	n/a	3	Angry	0	46	498.578	n/a
