onset	duration	trial_type	event_type	trial_number	condition	picture_number	time_until_response	response_time	unpleasantness_rating	onset_uncorrected
0.015	4.609	ITI	Fixation+	0	Pain	n/a	13.789	n/a	n/a	30.118
4.641	3.498	Pic2	Picture	0	Pain	7	10.274	n/a	n/a	34.744
8.139	2.006	Blank	Blank	0	Pain	n/a	8.268	n/a	n/a	38.242
18.413	n/a	ConfirmRating	Rate	0	Pain	7	n/a	7.751	52	48.516
18.434	5.952	ITI	Fixation+	1	Pain	n/a	9.05	n/a	n/a	48.537
24.402	3.498	Pic2	Picture	1	Pain	15	5.535	n/a	n/a	54.506
27.901	2.006	Blank	Blank	1	Pain	n/a	3.529	n/a	n/a	58.004
33.436	n/a	ConfirmRating	Rate	1	Pain	15	n/a	3.012	98	63.539
33.454	5.289	ITI	Fixation+	2	No_Pain	n/a	12.032	n/a	n/a	63.558
38.76	3.498	Pic2	Picture	2	No_Pain	34	8.517	n/a	n/a	68.863
42.258	2.006	Blank	Blank	2	No_Pain	n/a	6.511	n/a	n/a	72.361
50.775	n/a	ConfirmRating	Rate	2	No_Pain	34	n/a	5.995	0	80.878
50.796	5.968	ITI	Fixation+	3	No_Pain	n/a	9.632	n/a	n/a	80.899
56.781	3.498	Pic2	Picture	3	No_Pain	35	6.117	n/a	n/a	86.884
60.279	2.006	Blank	Blank	3	No_Pain	n/a	4.111	n/a	n/a	90.382
66.396	n/a	ConfirmRating	Rate	3	No_Pain	35	n/a	3.595	0	96.499
66.413	5.471	ITI	Fixation+	4	Pain	n/a	10.852	n/a	n/a	96.516
71.901	3.498	Pic2	Picture	4	Pain	6	7.337	n/a	n/a	102.004
75.399	2.006	Blank	Blank	4	Pain	n/a	5.331	n/a	n/a	105.502
82.736	n/a	ConfirmRating	Rate	4	Pain	6	n/a	4.814	44	112.839
82.76	4.045	ITI	Fixation+	5	No_Pain	n/a	7.859	n/a	n/a	112.863
86.822	3.498	Pic2	Picture	5	No_Pain	29	4.344	n/a	n/a	116.925
90.32	2.006	Blank	Blank	5	No_Pain	n/a	2.338	n/a	n/a	120.423
94.663	n/a	ConfirmRating	Rate	5	No_Pain	29	n/a	1.821	5	124.766
94.696	5.305	ITI	Fixation+	6	No_Pain	n/a	9.139	n/a	n/a	124.799
100.018	3.498	Pic2	Picture	6	No_Pain	39	5.624	n/a	n/a	130.121
103.516	2.006	Blank	Blank	6	No_Pain	n/a	3.618	n/a	n/a	133.619
109.14	n/a	ConfirmRating	Rate	6	No_Pain	39	n/a	3.101	10	139.243
109.17	4.211	ITI	Fixation+	7	Pain	n/a	9.021	n/a	n/a	139.273
113.397	3.498	Pic2	Picture	7	Pain	9	5.506	n/a	n/a	143.5
116.895	2.006	Blank	Blank	7	Pain	n/a	3.5	n/a	n/a	146.998
122.402	n/a	ConfirmRating	Rate	7	Pain	9	n/a	2.983	58	152.505
122.433	5.736	ITI	Fixation+	8	Pain	n/a	9.894	n/a	n/a	152.536
128.185	3.498	Pic2	Picture	8	Pain	14	6.379	n/a	n/a	158.288
131.684	2.006	Blank	Blank	8	Pain	n/a	4.373	n/a	n/a	161.787
138.063	n/a	ConfirmRating	Rate	8	Pain	14	n/a	3.856	57	168.166
138.083	4.957	ITI	Fixation+	9	No_Pain	n/a	9.505	n/a	n/a	168.186
143.057	3.498	Pic2	Picture	9	No_Pain	27	5.991	n/a	n/a	173.16
146.555	2.006	Blank	Blank	9	No_Pain	n/a	3.985	n/a	n/a	176.658
152.545	n/a	ConfirmRating	Rate	9	No_Pain	27	n/a	3.468	15	182.648
152.573	4.576	ITI	Fixation+	10	Pain	n/a	10.563	n/a	n/a	182.676
157.165	3.498	Pic2	Picture	10	Pain	20	7.048	n/a	n/a	187.268
160.663	2.006	Blank	Blank	10	Pain	n/a	5.042	n/a	n/a	190.766
167.711	n/a	ConfirmRating	Rate	10	Pain	20	n/a	4.526	82	197.814
167.742	5.388	ITI	Fixation+	11	No_Pain	n/a	10.576	n/a	n/a	197.845
173.147	3.498	Pic2	Picture	11	No_Pain	40	7.062	n/a	n/a	203.25
176.645	2.006	Blank	Blank	11	No_Pain	n/a	5.056	n/a	n/a	206.748
183.707	n/a	ConfirmRating	Rate	11	No_Pain	40	n/a	4.539	4	213.81
183.724	4.427	ITI	Fixation+	12	No_Pain	n/a	8.549	n/a	n/a	213.827
188.167	3.498	Pic2	Picture	12	No_Pain	33	5.034	n/a	n/a	218.27
191.665	2.006	Blank	Blank	12	No_Pain	n/a	3.028	n/a	n/a	221.769
196.7	n/a	ConfirmRating	Rate	12	No_Pain	33	n/a	2.511	6	226.803
196.722	5.056	ITI	Fixation+	13	Pain	n/a	8.017	n/a	n/a	226.825
201.795	3.498	Pic2	Picture	13	Pain	18	4.502	n/a	n/a	231.898
205.293	2.006	Blank	Blank	13	Pain	n/a	2.496	n/a	n/a	235.396
209.795	n/a	ConfirmRating	Rate	13	Pain	18	n/a	1.98	76	239.898
209.819	5.637	ITI	Fixation+	14	No_Pain	n/a	9.065	n/a	n/a	239.922
215.472	3.498	Pic2	Picture	14	No_Pain	31	5.55	n/a	n/a	245.576
218.971	2.006	Blank	Blank	14	No_Pain	n/a	3.544	n/a	n/a	249.074
224.521	n/a	ConfirmRating	Rate	14	No_Pain	31	n/a	3.028	7	254.624
224.541	5.703	ITI	Fixation+	15	Pain	n/a	10.702	n/a	n/a	254.644
230.261	3.498	Pic2	Picture	15	Pain	17	7.188	n/a	n/a	260.364
233.759	2.006	Blank	Blank	15	Pain	n/a	5.182	n/a	n/a	263.862
240.947	n/a	ConfirmRating	Rate	15	Pain	17	n/a	4.665	86	271.05
240.971	5.521	ITI	Fixation+	16	Pain	n/a	7.248	n/a	n/a	271.074
246.508	3.498	Pic2	Picture	16	Pain	11	3.733	n/a	n/a	276.611
250.006	2.006	Blank	Blank	16	Pain	n/a	1.727	n/a	n/a	280.109
253.739	n/a	ConfirmRating	Rate	16	Pain	11	n/a	1.211	80	283.843
253.769	4.51	ITI	Fixation+	17	No_Pain	n/a	9.252	n/a	n/a	283.873
258.295	3.498	Pic2	Picture	17	No_Pain	36	5.738	n/a	n/a	288.399
261.794	2.006	Blank	Blank	17	No_Pain	n/a	3.732	n/a	n/a	291.897
267.531	n/a	ConfirmRating	Rate	17	No_Pain	36	n/a	3.215	5	297.634
267.563	5.487	ITI	Fixation+	18	Pain	n/a	8.942	n/a	n/a	297.666
273.067	3.498	Pic2	Picture	18	Pain	10	5.428	n/a	n/a	303.17
276.565	2.006	Blank	Blank	18	Pain	n/a	3.422	n/a	n/a	306.668
281.993	n/a	ConfirmRating	Rate	18	Pain	10	n/a	2.906	81	312.096
282.02	4.742	ITI	Fixation+	19	No_Pain	n/a	7.736	n/a	n/a	312.123
286.778	3.498	Pic2	Picture	19	No_Pain	23	4.221	n/a	n/a	316.881
290.276	2.006	Blank	Blank	19	No_Pain	n/a	2.215	n/a	n/a	320.379
294.497	n/a	ConfirmRating	Rate	19	No_Pain	23	n/a	1.698	10	324.6
294.52	15.004	Rest	n/a	19	n/a	n/a	-15.027	n/a	n/a	324.623
309.54	5.338	ITI	Fixation+	20	Pain	n/a	8.581	n/a	n/a	339.643
314.895	3.498	Pic2	Picture	20	Pain	1	5.066	n/a	n/a	344.998
318.393	2.006	Blank	Blank	20	Pain	n/a	3.06	n/a	n/a	348.497
323.459	n/a	ConfirmRating	Rate	20	Pain	1	n/a	2.543	78	353.562
323.483	4.426	ITI	Fixation+	21	Pain	n/a	10.395	n/a	n/a	353.586
327.926	3.498	Pic2	Picture	21	Pain	8	6.881	n/a	n/a	358.029
331.424	2.006	Blank	Blank	21	Pain	n/a	4.875	n/a	n/a	361.527
338.305	n/a	ConfirmRating	Rate	21	Pain	8	n/a	4.358	91	368.408
338.338	4.51	ITI	Fixation+	22	No_Pain	n/a	7.923	n/a	n/a	368.441
342.864	3.498	Pic2	Picture	22	No_Pain	22	4.408	n/a	n/a	372.967
346.362	2.006	Blank	Blank	22	No_Pain	n/a	2.402	n/a	n/a	376.465
350.77	n/a	ConfirmRating	Rate	22	No_Pain	22	n/a	1.885	5	380.873
350.788	4.393	ITI	Fixation+	23	Pain	n/a	12.695	n/a	n/a	380.891
355.198	3.498	Pic2	Picture	23	Pain	16	9.18	n/a	n/a	385.301
358.696	2.006	Blank	Blank	23	Pain	n/a	7.174	n/a	n/a	388.799
367.876	n/a	ConfirmRating	Rate	23	Pain	16	n/a	6.657	87	397.979
367.898	4.128	ITI	Fixation+	24	No_Pain	n/a	9.03	n/a	n/a	398.001
372.042	3.498	Pic2	Picture	24	No_Pain	38	5.516	n/a	n/a	402.145
375.54	2.006	Blank	Blank	24	No_Pain	n/a	3.51	n/a	n/a	405.643
381.056	n/a	ConfirmRating	Rate	24	No_Pain	38	n/a	2.993	11	411.159
381.078	5.968	ITI	Fixation+	25	No_Pain	n/a	10.567	n/a	n/a	411.181
387.063	3.498	Pic2	Picture	25	No_Pain	21	7.052	n/a	n/a	417.166
390.561	2.006	Blank	Blank	25	No_Pain	n/a	5.046	n/a	n/a	420.664
397.613	n/a	ConfirmRating	Rate	25	No_Pain	21	n/a	4.529	0	427.716
397.64	4.178	ITI	Fixation+	26	Pain	n/a	11.432	n/a	n/a	427.743
401.834	3.498	Pic2	Picture	26	Pain	5	7.917	n/a	n/a	431.937
405.332	2.006	Blank	Blank	26	Pain	n/a	5.911	n/a	n/a	435.435
413.25	n/a	ConfirmRating	Rate	26	Pain	5	n/a	5.394	86	443.353
413.274	5.786	ITI	Fixation+	27	No_Pain	n/a	8.819	n/a	n/a	443.377
419.076	3.498	Pic2	Picture	27	No_Pain	32	5.304	n/a	n/a	449.179
422.574	2.006	Blank	Blank	27	No_Pain	n/a	3.298	n/a	n/a	452.677
427.878	n/a	ConfirmRating	Rate	27	No_Pain	32	n/a	2.781	4	457.981
427.896	5.073	ITI	Fixation+	28	Pain	n/a	11.215	n/a	n/a	457.999
432.986	3.498	Pic2	Picture	28	Pain	13	7.7	n/a	n/a	463.089
436.484	2.006	Blank	Blank	28	Pain	n/a	5.694	n/a	n/a	466.587
444.184	n/a	ConfirmRating	Rate	28	Pain	13	n/a	5.178	85	474.287
444.209	5.239	ITI	Fixation+	29	No_Pain	n/a	10.764	n/a	n/a	474.313
449.465	3.498	Pic2	Picture	29	No_Pain	28	7.25	n/a	n/a	479.568
452.963	2.006	Blank	Blank	29	No_Pain	n/a	5.244	n/a	n/a	483.066
460.213	n/a	ConfirmRating	Rate	29	No_Pain	28	n/a	4.727	22	490.316
460.241	6.002	ITI	Fixation+	30	Pain	n/a	7.05	n/a	n/a	490.344
466.259	3.498	Pic2	Picture	30	Pain	4	3.535	n/a	n/a	496.362
469.757	2.006	Blank	Blank	30	Pain	n/a	1.529	n/a	n/a	499.861
473.292	n/a	ConfirmRating	Rate	30	Pain	4	n/a	1.012	84	503.396
473.322	5.173	ITI	Fixation+	31	No_Pain	n/a	8.395	n/a	n/a	503.425
478.511	3.498	Pic2	Picture	31	No_Pain	30	4.88	n/a	n/a	508.614
482.009	2.006	Blank	Blank	31	No_Pain	n/a	2.874	n/a	n/a	512.112
486.889	n/a	ConfirmRating	Rate	31	No_Pain	30	n/a	2.358	12	516.992
486.916	5.421	ITI	Fixation+	32	Pain	n/a	10.075	n/a	n/a	517.019
492.354	3.498	Pic2	Picture	32	Pain	3	6.561	n/a	n/a	522.457
495.852	2.006	Blank	Blank	32	Pain	n/a	4.555	n/a	n/a	525.955
502.413	n/a	ConfirmRating	Rate	32	Pain	3	n/a	4.038	88	532.516
502.434	4.012	ITI	Fixation+	33	Pain	n/a	9.288	n/a	n/a	532.537
506.463	3.498	Pic2	Picture	33	Pain	12	5.773	n/a	n/a	536.566
509.961	2.006	Blank	Blank	33	Pain	n/a	3.767	n/a	n/a	540.064
515.734	n/a	ConfirmRating	Rate	33	Pain	12	n/a	3.25	92	545.837
515.763	5.736	ITI	Fixation+	34	No_Pain	n/a	9.047	n/a	n/a	545.866
521.516	3.498	Pic2	Picture	34	No_Pain	26	5.532	n/a	n/a	551.619
525.014	2.006	Blank	Blank	34	No_Pain	n/a	3.526	n/a	n/a	555.117
530.546	n/a	ConfirmRating	Rate	34	No_Pain	26	n/a	3.009	2	560.649
530.568	5.803	ITI	Fixation+	35	Pain	n/a	9.931	n/a	n/a	560.671
536.387	3.498	Pic2	Picture	35	Pain	2	6.417	n/a	n/a	566.49
539.885	2.006	Blank	Blank	35	Pain	n/a	4.411	n/a	n/a	569.989
546.302	n/a	ConfirmRating	Rate	35	Pain	2	n/a	3.894	88	576.405
546.335	4.659	ITI	Fixation+	36	No_Pain	n/a	7.069	n/a	n/a	576.438
551.01	3.498	Pic2	Picture	36	No_Pain	37	3.554	n/a	n/a	581.113
554.508	2.006	Blank	Blank	36	No_Pain	n/a	1.548	n/a	n/a	584.611
558.062	n/a	ConfirmRating	Rate	36	No_Pain	37	n/a	1.032	11	588.165
558.089	5.836	ITI	Fixation+	37	Pain	n/a	10.351	n/a	n/a	588.192
563.941	3.498	Pic2	Picture	37	Pain	19	6.836	n/a	n/a	594.044
567.439	2.006	Blank	Blank	37	Pain	n/a	4.83	n/a	n/a	597.542
574.276	n/a	ConfirmRating	Rate	37	Pain	19	n/a	4.313	83	604.379
574.303	4.99	ITI	Fixation+	38	No_Pain	n/a	8.178	n/a	n/a	604.406
579.31	3.498	Pic2	Picture	38	No_Pain	25	4.663	n/a	n/a	609.413
582.808	2.006	Blank	Blank	38	No_Pain	n/a	2.657	n/a	n/a	612.911
587.471	n/a	ConfirmRating	Rate	38	No_Pain	25	n/a	2.141	1	617.574
587.5	5.139	ITI	Fixation+	39	No_Pain	n/a	11.287	n/a	n/a	617.603
592.656	3.498	Pic2	Picture	39	No_Pain	24	7.772	n/a	n/a	622.759
596.154	2.006	Blank	Blank	39	No_Pain	n/a	5.766	n/a	n/a	626.257
603.926	n/a	ConfirmRating	Rate	39	No_Pain	24	n/a	5.25	0	634.029
