onset	duration	trial_type	event_type	time_until_response	response_time	trial_number	block_num_within_trial	image_seq_num_within_block	question_seq_num_within_block	image_seq_num	picture_number	condition	question_type	block_type	rating	rating_computed	onset_uncorrected	KDEV_imagefile
0.017	10.014	ITI	Fixation+	97.011	n/a	1	n/a	n/a	n/a	n/a	n/a	n/a	n/a	n/a	n/a	n/a	26.869	n/a
10.047	0.497	happy	Picture	96.497	n/a	1	1	1	n/a	1	46	2	n/a	n/a	n/a	n/a	36.899	AF09HAS.jpg
10.545	0.514	Blank	Blank	95.983	n/a	1	1	1	n/a	1	n/a	2	n/a	n/a	n/a	n/a	37.396	n/a
11.075	0.497	happy	Picture	95.469	n/a	1	1	2	n/a	2	69	2	n/a	n/a	n/a	n/a	37.927	AM10HAS.jpg
11.573	0.514	Blank	Blank	94.955	n/a	1	1	2	n/a	2	n/a	2	n/a	n/a	n/a	n/a	38.424	n/a
12.103	0.497	happy	Picture	94.441	n/a	1	1	3	n/a	3	71	2	n/a	n/a	n/a	n/a	38.955	BM12HAS.jpg
12.6	0.514	Blank	Blank	93.927	n/a	1	1	3	n/a	3	n/a	2	n/a	n/a	n/a	n/a	39.452	n/a
13.131	0.497	happy	Picture	93.413	n/a	1	1	4	n/a	4	51	2	n/a	n/a	n/a	n/a	39.983	AF20HAS.jpg
13.628	0.514	Blank	Blank	92.899	n/a	1	1	4	n/a	4	n/a	2	n/a	n/a	n/a	n/a	40.48	n/a
14.159	0.497	happy	Picture	92.385	n/a	1	1	5	n/a	5	67	2	n/a	n/a	n/a	n/a	41.011	BM08HAS.jpg
14.656	0.514	Blank	Blank	91.871	n/a	1	1	5	n/a	5	n/a	2	n/a	n/a	n/a	n/a	41.508	n/a
15.187	0.497	happy	Picture	91.357	n/a	1	1	6	n/a	6	60	2	n/a	n/a	n/a	n/a	42.038	AF32HAS.jpg
15.684	0.514	Blank	Blank	90.843	n/a	1	1	6	n/a	6	n/a	2	n/a	n/a	n/a	n/a	42.536	n/a
16.215	0.497	happy	Picture	90.329	n/a	1	1	7	n/a	7	42	2	n/a	n/a	n/a	n/a	43.066	AF03HAS.jpg
16.712	0.514	Blank	Blank	89.815	n/a	1	1	7	n/a	7	n/a	2	n/a	n/a	n/a	n/a	43.564	n/a
17.242	0.497	happy	Picture	89.301	n/a	1	1	8	n/a	8	55	2	n/a	n/a	n/a	n/a	44.094	AF25HAS.jpg
17.74	0.514	Blank	Blank	88.787	n/a	1	1	8	n/a	8	n/a	2	n/a	n/a	n/a	n/a	44.592	n/a
18.27	0.497	happy	Picture	88.274	n/a	1	1	9	n/a	9	72	2	n/a	n/a	n/a	n/a	45.122	AM14HAS.jpg
18.768	0.514	Blank	Blank	87.76	n/a	1	1	9	n/a	9	n/a	2	n/a	n/a	n/a	n/a	45.62	n/a
19.298	0.497	happy	Picture	87.246	n/a	1	1	10	n/a	10	63	2	n/a	n/a	n/a	n/a	46.15	AM04HAS.jpg
19.796	0.514	Blank	Blank	86.732	n/a	1	1	10	n/a	10	n/a	2	n/a	n/a	n/a	n/a	46.647	n/a
20.326	0.497	happy	Picture	86.218	n/a	1	1	11	n/a	11	58	2	n/a	n/a	n/a	n/a	47.178	BF29HAS.jpg
20.824	0.514	Blank	Blank	85.704	n/a	1	1	11	n/a	11	n/a	2	n/a	n/a	n/a	n/a	47.675	n/a
21.354	0.497	happy	Picture	85.19	n/a	1	1	12	n/a	12	48	2	n/a	n/a	n/a	n/a	48.206	AF14HAS.jpg
21.852	0.514	Blank	Blank	84.676	n/a	1	1	12	n/a	12	n/a	2	n/a	n/a	n/a	n/a	48.703	n/a
22.382	0.497	happy	Picture	84.162	n/a	1	1	13	n/a	13	66	2	n/a	n/a	n/a	n/a	49.234	BM07HAS.jpg
22.879	0.514	Blank	Blank	83.648	n/a	1	1	13	n/a	13	n/a	2	n/a	n/a	n/a	n/a	49.731	n/a
23.41	0.497	happy	Picture	83.134	n/a	1	1	14	n/a	14	70	2	n/a	n/a	n/a	n/a	50.262	BM11HAS.jpg
23.907	0.514	Blank	Blank	82.62	n/a	1	1	14	n/a	14	n/a	2	n/a	n/a	n/a	n/a	50.759	n/a
24.438	0.497	happy	Picture	82.106	n/a	1	1	15	n/a	15	43	2	n/a	n/a	n/a	n/a	51.289	BF04HAS.jpg
24.935	0.514	Blank	Blank	81.592	n/a	1	1	15	n/a	15	n/a	2	n/a	n/a	n/a	n/a	51.787	n/a
25.466	0.497	happy	Picture	81.078	n/a	1	1	16	n/a	16	49	2	n/a	n/a	n/a	n/a	52.317	AF17HAS.jpg
25.963	0.514	Blank	Blank	80.564	n/a	1	1	16	n/a	16	n/a	2	n/a	n/a	n/a	n/a	52.815	n/a
26.493	0.497	happy	Picture	80.05	n/a	1	1	17	n/a	17	75	2	n/a	n/a	n/a	n/a	53.345	AM23HAS.jpg
26.991	0.514	Blank	Blank	79.537	n/a	1	1	17	n/a	17	n/a	2	n/a	n/a	n/a	n/a	53.843	n/a
27.521	0.497	happy	Picture	79.023	n/a	1	1	18	n/a	18	80	2	n/a	n/a	n/a	n/a	54.373	BM35HAS.jpg
28.019	0.514	Blank	Blank	78.509	n/a	1	1	18	n/a	18	n/a	2	n/a	n/a	n/a	n/a	54.87	n/a
28.549	0.497	happy	Picture	77.995	n/a	1	1	19	n/a	19	76	2	n/a	n/a	n/a	n/a	55.401	BM24HAS.jpg
29.047	0.514	Blank	Blank	77.481	n/a	1	1	19	n/a	19	n/a	2	n/a	n/a	n/a	n/a	55.898	n/a
29.577	0.497	happy	Picture	76.967	n/a	1	1	20	n/a	20	74	2	n/a	n/a	n/a	n/a	56.429	AM22HAS.jpg
30.075	0.514	Blank	Blank	76.453	n/a	1	1	20	n/a	20	n/a	2	n/a	n/a	n/a	n/a	56.926	n/a
30.605	10.014	ITI	Fixation+	66.423	n/a	1	n/a	n/a	n/a	n/a	n/a	n/a	n/a	n/a	n/a	n/a	57.457	n/a
40.635	0.497	neutral	Picture	65.909	n/a	1	2	1	n/a	21	33	1	n/a	n/a	n/a	n/a	67.487	AM21NES.jpg
41.133	0.514	Blank	Blank	65.395	n/a	1	2	1	n/a	21	n/a	1	n/a	n/a	n/a	n/a	67.984	n/a
41.663	0.497	neutral	Picture	64.881	n/a	1	2	2	n/a	22	39	1	n/a	n/a	n/a	n/a	68.515	AM28NES.jpg
42.161	0.514	Blank	Blank	64.367	n/a	1	2	2	n/a	22	n/a	1	n/a	n/a	n/a	n/a	69.012	n/a
42.691	0.497	neutral	Picture	63.853	n/a	1	2	3	n/a	23	25	1	n/a	n/a	n/a	n/a	69.543	BM06NES.jpg
43.188	0.514	Blank	Blank	63.339	n/a	1	2	3	n/a	23	n/a	1	n/a	n/a	n/a	n/a	70.04	n/a
43.719	0.497	neutral	Picture	62.825	n/a	1	2	4	n/a	24	5	1	n/a	n/a	n/a	n/a	70.571	BF07NES.jpg
44.216	0.514	Blank	Blank	62.311	n/a	1	2	4	n/a	24	n/a	1	n/a	n/a	n/a	n/a	71.068	n/a
44.747	0.497	neutral	Picture	61.797	n/a	1	2	5	n/a	25	10	1	n/a	n/a	n/a	n/a	71.599	AF18NES.jpg
45.244	0.514	Blank	Blank	61.283	n/a	1	2	5	n/a	25	n/a	1	n/a	n/a	n/a	n/a	72.096	n/a
45.775	0.497	neutral	Picture	60.769	n/a	1	2	6	n/a	26	34	1	n/a	n/a	n/a	n/a	72.626	AM22NES.jpg
46.272	0.514	Blank	Blank	60.255	n/a	1	2	6	n/a	26	n/a	1	n/a	n/a	n/a	n/a	73.124	n/a
46.803	0.497	neutral	Picture	59.741	n/a	1	2	7	n/a	27	36	1	n/a	n/a	n/a	n/a	73.654	BM24NES.jpg
47.3	0.514	Blank	Blank	59.227	n/a	1	2	7	n/a	27	n/a	1	n/a	n/a	n/a	n/a	74.152	n/a
47.83	0.497	neutral	Picture	58.714	n/a	1	2	8	n/a	28	14	1	n/a	n/a	n/a	n/a	74.682	AF23NES.jpg
48.328	0.514	Blank	Blank	58.2	n/a	1	2	8	n/a	28	n/a	1	n/a	n/a	n/a	n/a	75.18	n/a
48.858	0.497	neutral	Picture	57.686	n/a	1	2	9	n/a	29	9	1	n/a	n/a	n/a	n/a	75.71	AF17NES.jpg
49.356	0.514	Blank	Blank	57.172	n/a	1	2	9	n/a	29	n/a	1	n/a	n/a	n/a	n/a	76.207	n/a
49.886	0.497	neutral	Picture	56.658	n/a	1	2	10	n/a	30	19	1	n/a	n/a	n/a	n/a	76.738	AF31NES.jpg
50.384	0.514	Blank	Blank	56.144	n/a	1	2	10	n/a	30	n/a	1	n/a	n/a	n/a	n/a	77.235	n/a
50.914	0.497	neutral	Picture	55.63	n/a	1	2	11	n/a	31	15	1	n/a	n/a	n/a	n/a	77.766	AF25NES.jpg
51.411	0.514	Blank	Blank	55.116	n/a	1	2	11	n/a	31	n/a	1	n/a	n/a	n/a	n/a	78.263	n/a
51.942	0.497	neutral	Picture	54.602	n/a	1	2	12	n/a	32	22	1	n/a	n/a	n/a	n/a	78.794	BM03NES.jpg
52.439	0.514	Blank	Blank	54.088	n/a	1	2	12	n/a	32	n/a	1	n/a	n/a	n/a	n/a	79.291	n/a
52.97	0.497	neutral	Picture	53.574	n/a	1	2	13	n/a	33	11	1	n/a	n/a	n/a	n/a	79.822	AF20NES.jpg
53.467	0.514	Blank	Blank	53.06	n/a	1	2	13	n/a	33	n/a	1	n/a	n/a	n/a	n/a	80.319	n/a
53.998	0.497	neutral	Picture	52.546	n/a	1	2	14	n/a	34	4	1	n/a	n/a	n/a	n/a	80.85	AF05NES.jpg
54.495	0.514	Blank	Blank	52.032	n/a	1	2	14	n/a	34	n/a	1	n/a	n/a	n/a	n/a	81.347	n/a
55.026	0.497	neutral	Picture	51.518	n/a	1	2	15	n/a	35	17	1	n/a	n/a	n/a	n/a	81.877	BF28NES.jpg
55.523	0.514	Blank	Blank	51.004	n/a	1	2	15	n/a	35	n/a	1	n/a	n/a	n/a	n/a	82.375	n/a
56.053	0.497	neutral	Picture	50.49	n/a	1	2	16	n/a	36	13	1	n/a	n/a	n/a	n/a	82.905	BF22NES.jpg
56.551	0.514	Blank	Blank	49.977	n/a	1	2	16	n/a	36	n/a	1	n/a	n/a	n/a	n/a	83.403	n/a
57.081	0.497	neutral	Picture	49.463	n/a	1	2	17	n/a	37	12	1	n/a	n/a	n/a	n/a	83.933	AF21NES.jpg
57.579	0.514	Blank	Blank	48.949	n/a	1	2	17	n/a	37	n/a	1	n/a	n/a	n/a	n/a	84.43	n/a
58.109	0.497	neutral	Picture	48.435	n/a	1	2	18	n/a	38	24	1	n/a	n/a	n/a	n/a	84.961	BM05NES.jpg
58.607	0.514	Blank	Blank	47.921	n/a	1	2	18	n/a	38	n/a	1	n/a	n/a	n/a	n/a	85.458	n/a
59.137	0.497	neutral	Picture	47.407	n/a	1	2	19	n/a	39	29	1	n/a	n/a	n/a	n/a	85.989	AM10NES.jpg
59.635	0.514	Blank	Blank	46.893	n/a	1	2	19	n/a	39	n/a	1	n/a	n/a	n/a	n/a	86.486	n/a
60.165	0.497	neutral	Picture	46.379	n/a	1	2	20	n/a	40	23	1	n/a	n/a	n/a	n/a	87.017	AM04NES.jpg
60.662	0.514	Blank	Blank	45.865	n/a	1	2	20	n/a	40	n/a	1	n/a	n/a	n/a	n/a	87.514	n/a
61.193	10.014	ITI	Fixation+	35.835	n/a	1	n/a	n/a	n/a	n/a	n/a	n/a	n/a	n/a	n/a	n/a	88.045	n/a
71.223	0.497	happy	Picture	35.321	n/a	1	3	1	n/a	41	62	2	n/a	n/a	n/a	n/a	98.075	BM03HAS.jpg
71.72	0.514	Blank	Blank	34.807	n/a	1	3	1	n/a	41	n/a	2	n/a	n/a	n/a	n/a	98.572	n/a
72.251	0.497	happy	Picture	34.293	n/a	1	3	2	n/a	42	52	2	n/a	n/a	n/a	n/a	99.103	AF21HAS.jpg
72.748	0.514	Blank	Blank	33.779	n/a	1	3	2	n/a	42	n/a	2	n/a	n/a	n/a	n/a	99.6	n/a
73.279	0.497	happy	Picture	33.265	n/a	1	3	3	n/a	43	44	2	n/a	n/a	n/a	n/a	100.131	AF05HAS.jpg
73.776	0.514	Blank	Blank	32.751	n/a	1	3	3	n/a	43	n/a	2	n/a	n/a	n/a	n/a	100.628	n/a
74.307	0.497	happy	Picture	32.237	n/a	1	3	4	n/a	44	53	2	n/a	n/a	n/a	n/a	101.159	BF22HAS.jpg
74.804	0.514	Blank	Blank	31.723	n/a	1	3	4	n/a	44	n/a	2	n/a	n/a	n/a	n/a	101.656	n/a
75.335	0.497	happy	Picture	31.209	n/a	1	3	5	n/a	45	54	2	n/a	n/a	n/a	n/a	102.186	AF23HAS.jpg
75.832	0.514	Blank	Blank	30.695	n/a	1	3	5	n/a	45	n/a	2	n/a	n/a	n/a	n/a	102.684	n/a
76.363	0.497	happy	Picture	30.181	n/a	1	3	6	n/a	46	68	2	n/a	n/a	n/a	n/a	103.214	AM09HAS.jpg
76.86	0.514	Blank	Blank	29.667	n/a	1	3	6	n/a	46	n/a	2	n/a	n/a	n/a	n/a	103.712	n/a
77.391	0.497	happy	Picture	29.154	n/a	1	3	7	n/a	47	64	2	n/a	n/a	n/a	n/a	104.242	BM05HAS.jpg
77.888	0.514	Blank	Blank	28.64	n/a	1	3	7	n/a	47	n/a	2	n/a	n/a	n/a	n/a	104.74	n/a
78.418	0.497	happy	Picture	28.126	n/a	1	3	8	n/a	48	59	2	n/a	n/a	n/a	n/a	105.27	AF31HAS.jpg
78.916	0.514	Blank	Blank	27.612	n/a	1	3	8	n/a	48	n/a	2	n/a	n/a	n/a	n/a	105.767	n/a
79.446	0.497	happy	Picture	27.098	n/a	1	3	9	n/a	49	41	2	n/a	n/a	n/a	n/a	106.298	AF01HAS.jpg
79.944	0.514	Blank	Blank	26.584	n/a	1	3	9	n/a	49	n/a	2	n/a	n/a	n/a	n/a	106.795	n/a
80.474	0.497	happy	Picture	26.07	n/a	1	3	10	n/a	50	73	2	n/a	n/a	n/a	n/a	107.326	AM21HAS.jpg
80.971	0.514	Blank	Blank	25.556	n/a	1	3	10	n/a	50	n/a	2	n/a	n/a	n/a	n/a	107.823	n/a
81.502	0.497	happy	Picture	25.042	n/a	1	3	11	n/a	51	65	2	n/a	n/a	n/a	n/a	108.354	BM06HAS.jpg
81.999	0.514	Blank	Blank	24.528	n/a	1	3	11	n/a	51	n/a	2	n/a	n/a	n/a	n/a	108.851	n/a
82.53	0.497	happy	Picture	24.014	n/a	1	3	12	n/a	52	56	2	n/a	n/a	n/a	n/a	109.382	AF26HAS.jpg
83.027	0.514	Blank	Blank	23.5	n/a	1	3	12	n/a	52	n/a	2	n/a	n/a	n/a	n/a	109.879	n/a
83.558	0.497	happy	Picture	22.986	n/a	1	3	13	n/a	53	45	2	n/a	n/a	n/a	n/a	110.409	BF07HAS.jpg
84.055	0.514	Blank	Blank	22.472	n/a	1	3	13	n/a	53	n/a	2	n/a	n/a	n/a	n/a	110.907	n/a
84.586	0.497	happy	Picture	21.958	n/a	1	3	14	n/a	54	78	2	n/a	n/a	n/a	n/a	111.437	BM26HAS.jpg
85.083	0.514	Blank	Blank	21.444	n/a	1	3	14	n/a	54	n/a	2	n/a	n/a	n/a	n/a	111.935	n/a
85.613	0.497	happy	Picture	20.93	n/a	1	3	15	n/a	55	50	2	n/a	n/a	n/a	n/a	112.465	AF18HAS.jpg
86.111	0.514	Blank	Blank	20.416	n/a	1	3	15	n/a	55	n/a	2	n/a	n/a	n/a	n/a	112.963	n/a
86.641	0.497	happy	Picture	19.903	n/a	1	3	16	n/a	56	47	2	n/a	n/a	n/a	n/a	113.493	BF11HAS.jpg
87.139	0.514	Blank	Blank	19.389	n/a	1	3	16	n/a	56	n/a	2	n/a	n/a	n/a	n/a	113.99	n/a
87.669	0.497	happy	Picture	18.875	n/a	1	3	17	n/a	57	77	2	n/a	n/a	n/a	n/a	114.521	BM25HAS.jpg
88.167	0.514	Blank	Blank	18.361	n/a	1	3	17	n/a	57	n/a	2	n/a	n/a	n/a	n/a	115.018	n/a
88.697	0.497	happy	Picture	17.847	n/a	1	3	18	n/a	58	57	2	n/a	n/a	n/a	n/a	115.549	BF28HAS.jpg
89.195	0.514	Blank	Blank	17.333	n/a	1	3	18	n/a	58	n/a	2	n/a	n/a	n/a	n/a	116.046	n/a
89.725	0.497	happy	Picture	16.819	n/a	1	3	19	n/a	59	61	2	n/a	n/a	n/a	n/a	116.577	AM01HAS.jpg
90.222	0.514	Blank	Blank	16.305	n/a	1	3	19	n/a	59	n/a	2	n/a	n/a	n/a	n/a	117.074	n/a
90.753	0.497	happy	Picture	15.791	n/a	1	3	20	n/a	60	79	2	n/a	n/a	n/a	n/a	117.605	BM28HAS.jpg
91.25	0.514	Blank	Blank	15.277	n/a	1	3	20	n/a	60	n/a	2	n/a	n/a	n/a	n/a	118.102	n/a
91.781	10.014	ITI	Fixation+	5.247	n/a	1	n/a	n/a	n/a	n/a	n/a	n/a	n/a	n/a	n/a	n/a	118.633	n/a
107.041	n/a	ConfirmRating	Rate	n/a	5.222	1	n/a	n/a	0	n/a	n/a	n/a	2	Happy	60	51	133.893	n/a
110.731	n/a	ConfirmRating	Rate	n/a	3.68	1	n/a	n/a	1	n/a	n/a	n/a	3	Happy	0	49	137.583	n/a
110.764	10.014	ITI	Fixation+	94.742	n/a	2	n/a	n/a	n/a	n/a	n/a	n/a	n/a	n/a	n/a	n/a	137.615	n/a
120.794	0.497	angry	Picture	94.228	n/a	2	4	1	n/a	61	119	3	n/a	n/a	n/a	n/a	147.645	BM28ANS.jpg
121.291	0.514	Blank	Blank	93.714	n/a	2	4	1	n/a	61	n/a	3	n/a	n/a	n/a	n/a	148.143	n/a
121.822	0.497	angry	Picture	93.2	n/a	2	4	2	n/a	62	100	3	n/a	n/a	n/a	n/a	148.673	AF32ANS.jpg
122.319	0.514	Blank	Blank	92.686	n/a	2	4	2	n/a	62	n/a	3	n/a	n/a	n/a	n/a	149.171	n/a
122.85	0.497	angry	Picture	92.172	n/a	2	4	3	n/a	63	118	3	n/a	n/a	n/a	n/a	149.701	BM26ANS.jpg
123.347	0.514	Blank	Blank	91.658	n/a	2	4	3	n/a	63	n/a	3	n/a	n/a	n/a	n/a	150.199	n/a
123.877	0.497	angry	Picture	91.144	n/a	2	4	4	n/a	64	89	3	n/a	n/a	n/a	n/a	150.729	AF17ANS.jpg
124.375	0.514	Blank	Blank	90.63	n/a	2	4	4	n/a	64	n/a	3	n/a	n/a	n/a	n/a	151.226	n/a
124.905	0.497	angry	Picture	90.116	n/a	2	4	5	n/a	65	116	3	n/a	n/a	n/a	n/a	151.757	BM24ANS.jpg
125.403	0.514	Blank	Blank	89.602	n/a	2	4	5	n/a	65	n/a	3	n/a	n/a	n/a	n/a	152.254	n/a
125.933	0.497	angry	Picture	89.088	n/a	2	4	6	n/a	66	105	3	n/a	n/a	n/a	n/a	152.785	BM06ANS.jpg
126.431	0.514	Blank	Blank	88.574	n/a	2	4	6	n/a	66	n/a	3	n/a	n/a	n/a	n/a	153.282	n/a
126.961	0.497	angry	Picture	88.06	n/a	2	4	7	n/a	67	106	3	n/a	n/a	n/a	n/a	153.813	AM07ANS.jpg
127.459	0.514	Blank	Blank	87.546	n/a	2	4	7	n/a	67	n/a	3	n/a	n/a	n/a	n/a	154.31	n/a
127.989	0.497	angry	Picture	87.032	n/a	2	4	8	n/a	68	94	3	n/a	n/a	n/a	n/a	154.841	AF23ANS.jpg
128.486	0.514	Blank	Blank	86.518	n/a	2	4	8	n/a	68	n/a	3	n/a	n/a	n/a	n/a	155.338	n/a
129.017	0.497	angry	Picture	86.005	n/a	2	4	9	n/a	69	117	3	n/a	n/a	n/a	n/a	155.869	BM25ANS.jpg
129.514	0.514	Blank	Blank	85.491	n/a	2	4	9	n/a	69	n/a	3	n/a	n/a	n/a	n/a	156.366	n/a
130.045	0.497	angry	Picture	84.977	n/a	2	4	10	n/a	70	90	3	n/a	n/a	n/a	n/a	156.896	AF18ANS.jpg
130.542	0.514	Blank	Blank	84.463	n/a	2	4	10	n/a	70	n/a	3	n/a	n/a	n/a	n/a	157.394	n/a
131.073	0.497	angry	Picture	83.949	n/a	2	4	11	n/a	71	83	3	n/a	n/a	n/a	n/a	157.924	BF04ANS.jpg
131.57	0.514	Blank	Blank	83.435	n/a	2	4	11	n/a	71	n/a	3	n/a	n/a	n/a	n/a	158.422	n/a
132.101	0.497	angry	Picture	82.921	n/a	2	4	12	n/a	72	112	3	n/a	n/a	n/a	n/a	158.952	AM14ANS.jpg
132.598	0.514	Blank	Blank	82.407	n/a	2	4	12	n/a	72	n/a	3	n/a	n/a	n/a	n/a	159.45	n/a
133.128	0.497	angry	Picture	81.893	n/a	2	4	13	n/a	73	102	3	n/a	n/a	n/a	n/a	159.98	BM03ANS.jpg
133.626	0.514	Blank	Blank	81.379	n/a	2	4	13	n/a	73	n/a	3	n/a	n/a	n/a	n/a	160.477	n/a
134.156	0.497	angry	Picture	80.865	n/a	2	4	14	n/a	74	95	3	n/a	n/a	n/a	n/a	161.008	AF25ANS.jpg
134.654	0.514	Blank	Blank	80.351	n/a	2	4	14	n/a	74	n/a	3	n/a	n/a	n/a	n/a	161.505	n/a
135.184	0.497	angry	Picture	79.837	n/a	2	4	15	n/a	75	113	3	n/a	n/a	n/a	n/a	162.036	AM21ANS.jpg
135.681	0.514	Blank	Blank	79.323	n/a	2	4	15	n/a	75	n/a	3	n/a	n/a	n/a	n/a	162.533	n/a
136.212	0.497	angry	Picture	78.809	n/a	2	4	16	n/a	76	88	3	n/a	n/a	n/a	n/a	163.064	AF14ANS.jpg
136.709	0.514	Blank	Blank	78.295	n/a	2	4	16	n/a	76	n/a	3	n/a	n/a	n/a	n/a	163.561	n/a
137.24	0.497	angry	Picture	77.781	n/a	2	4	17	n/a	77	93	3	n/a	n/a	n/a	n/a	164.092	BF22ANS.jpg
137.737	0.514	Blank	Blank	77.267	n/a	2	4	17	n/a	77	n/a	3	n/a	n/a	n/a	n/a	164.589	n/a
138.268	0.497	angry	Picture	76.754	n/a	2	4	18	n/a	78	86	3	n/a	n/a	n/a	n/a	165.119	AF09ANS.jpg
138.765	0.514	Blank	Blank	76.24	n/a	2	4	18	n/a	78	n/a	3	n/a	n/a	n/a	n/a	165.617	n/a
139.296	0.497	angry	Picture	75.726	n/a	2	4	19	n/a	79	92	3	n/a	n/a	n/a	n/a	166.147	AF21ANS.jpg
139.793	0.514	Blank	Blank	75.212	n/a	2	4	19	n/a	79	n/a	3	n/a	n/a	n/a	n/a	166.645	n/a
140.324	0.497	angry	Picture	74.698	n/a	2	4	20	n/a	80	84	3	n/a	n/a	n/a	n/a	167.175	AF05ANS.jpg
140.821	0.514	Blank	Blank	74.184	n/a	2	4	20	n/a	80	n/a	3	n/a	n/a	n/a	n/a	167.673	n/a
141.352	10.014	ITI	Fixation+	64.154	n/a	2	n/a	n/a	n/a	n/a	n/a	n/a	n/a	n/a	n/a	n/a	168.203	n/a
151.382	0.497	neutral	Picture	63.64	n/a	2	5	1	n/a	81	4	1	n/a	n/a	n/a	n/a	178.233	AF05NES.jpg
151.879	0.514	Blank	Blank	63.126	n/a	2	5	1	n/a	81	n/a	1	n/a	n/a	n/a	n/a	178.731	n/a
152.41	0.497	neutral	Picture	62.612	n/a	2	5	2	n/a	82	14	1	n/a	n/a	n/a	n/a	179.261	AF23NES.jpg
152.907	0.514	Blank	Blank	62.098	n/a	2	5	2	n/a	82	n/a	1	n/a	n/a	n/a	n/a	179.759	n/a
153.437	0.497	neutral	Picture	61.584	n/a	2	5	3	n/a	83	19	1	n/a	n/a	n/a	n/a	180.289	AF31NES.jpg
153.935	0.514	Blank	Blank	61.07	n/a	2	5	3	n/a	83	n/a	1	n/a	n/a	n/a	n/a	180.786	n/a
154.465	0.497	neutral	Picture	60.556	n/a	2	5	4	n/a	84	8	1	n/a	n/a	n/a	n/a	181.317	AF14NES.jpg
154.963	0.514	Blank	Blank	60.042	n/a	2	5	4	n/a	84	n/a	1	n/a	n/a	n/a	n/a	181.814	n/a
155.493	0.497	neutral	Picture	59.528	n/a	2	5	5	n/a	85	25	1	n/a	n/a	n/a	n/a	182.345	BM06NES.jpg
155.99	0.514	Blank	Blank	59.014	n/a	2	5	5	n/a	85	n/a	1	n/a	n/a	n/a	n/a	182.842	n/a
156.521	0.497	neutral	Picture	58.5	n/a	2	5	6	n/a	86	9	1	n/a	n/a	n/a	n/a	183.373	AF17NES.jpg
157.019	0.514	Blank	Blank	57.986	n/a	2	5	6	n/a	86	n/a	1	n/a	n/a	n/a	n/a	183.87	n/a
157.549	0.497	neutral	Picture	57.472	n/a	2	5	7	n/a	87	2	1	n/a	n/a	n/a	n/a	184.401	AF03NES.jpg
158.046	0.514	Blank	Blank	56.958	n/a	2	5	7	n/a	87	n/a	1	n/a	n/a	n/a	n/a	184.898	n/a
158.577	0.497	neutral	Picture	56.445	n/a	2	5	8	n/a	88	17	1	n/a	n/a	n/a	n/a	185.429	BF28NES.jpg
159.074	0.514	Blank	Blank	55.931	n/a	2	5	8	n/a	88	n/a	1	n/a	n/a	n/a	n/a	185.926	n/a
159.605	0.497	neutral	Picture	55.417	n/a	2	5	9	n/a	89	6	1	n/a	n/a	n/a	n/a	186.457	AF09NES.jpg
160.102	0.514	Blank	Blank	54.903	n/a	2	5	9	n/a	89	n/a	1	n/a	n/a	n/a	n/a	186.954	n/a
160.633	0.497	neutral	Picture	54.389	n/a	2	5	10	n/a	90	12	1	n/a	n/a	n/a	n/a	187.484	AF21NES.jpg
161.13	0.514	Blank	Blank	53.875	n/a	2	5	10	n/a	90	n/a	1	n/a	n/a	n/a	n/a	187.982	n/a
161.661	0.497	neutral	Picture	53.361	n/a	2	5	11	n/a	91	24	1	n/a	n/a	n/a	n/a	188.512	BM05NES.jpg
162.158	0.514	Blank	Blank	52.847	n/a	2	5	11	n/a	91	n/a	1	n/a	n/a	n/a	n/a	189.01	n/a
162.688	0.497	neutral	Picture	52.333	n/a	2	5	12	n/a	92	34	1	n/a	n/a	n/a	n/a	189.54	AM22NES.jpg
163.186	0.514	Blank	Blank	51.819	n/a	2	5	12	n/a	92	n/a	1	n/a	n/a	n/a	n/a	190.037	n/a
163.716	0.497	neutral	Picture	51.305	n/a	2	5	13	n/a	93	23	1	n/a	n/a	n/a	n/a	190.568	AM04NES.jpg
164.214	0.514	Blank	Blank	50.791	n/a	2	5	13	n/a	93	n/a	1	n/a	n/a	n/a	n/a	191.065	n/a
164.744	0.497	neutral	Picture	50.277	n/a	2	5	14	n/a	94	15	1	n/a	n/a	n/a	n/a	191.596	AF25NES.jpg
165.242	0.514	Blank	Blank	49.763	n/a	2	5	14	n/a	94	n/a	1	n/a	n/a	n/a	n/a	192.093	n/a
165.772	0.497	neutral	Picture	49.249	n/a	2	5	15	n/a	95	37	1	n/a	n/a	n/a	n/a	192.624	BM25NES.jpg
166.269	0.514	Blank	Blank	48.735	n/a	2	5	15	n/a	95	n/a	1	n/a	n/a	n/a	n/a	193.121	n/a
166.8	0.497	neutral	Picture	48.221	n/a	2	5	16	n/a	96	32	1	n/a	n/a	n/a	n/a	193.652	AM14NES.jpg
167.297	0.514	Blank	Blank	47.707	n/a	2	5	16	n/a	96	n/a	1	n/a	n/a	n/a	n/a	194.149	n/a
167.828	0.497	neutral	Picture	47.194	n/a	2	5	17	n/a	97	3	1	n/a	n/a	n/a	n/a	194.679	BF04NES.jpg
168.325	0.514	Blank	Blank	46.68	n/a	2	5	17	n/a	97	n/a	1	n/a	n/a	n/a	n/a	195.177	n/a
168.856	0.497	neutral	Picture	46.166	n/a	2	5	18	n/a	98	16	1	n/a	n/a	n/a	n/a	195.707	AF26NES.jpg
169.353	0.514	Blank	Blank	45.652	n/a	2	5	18	n/a	98	n/a	1	n/a	n/a	n/a	n/a	196.205	n/a
169.884	0.497	neutral	Picture	45.138	n/a	2	5	19	n/a	99	27	1	n/a	n/a	n/a	n/a	196.735	BM08NES.jpg
170.381	0.514	Blank	Blank	44.624	n/a	2	5	19	n/a	99	n/a	1	n/a	n/a	n/a	n/a	197.233	n/a
170.912	0.497	neutral	Picture	44.11	n/a	2	5	20	n/a	100	28	1	n/a	n/a	n/a	n/a	197.763	AM09NES.jpg
171.409	0.514	Blank	Blank	43.596	n/a	2	5	20	n/a	100	n/a	1	n/a	n/a	n/a	n/a	198.261	n/a
171.939	10.014	ITI	Fixation+	33.566	n/a	2	n/a	n/a	n/a	n/a	n/a	n/a	n/a	n/a	n/a	n/a	198.791	n/a
181.97	0.497	angry	Picture	33.052	n/a	2	6	1	n/a	101	81	3	n/a	n/a	n/a	n/a	208.821	AF01ANS.jpg
182.467	0.514	Blank	Blank	32.538	n/a	2	6	1	n/a	101	n/a	3	n/a	n/a	n/a	n/a	209.319	n/a
182.998	0.497	angry	Picture	32.024	n/a	2	6	2	n/a	102	120	3	n/a	n/a	n/a	n/a	209.849	AM35ANS.jpg
183.495	0.514	Blank	Blank	31.51	n/a	2	6	2	n/a	102	n/a	3	n/a	n/a	n/a	n/a	210.346	n/a
184.025	0.497	angry	Picture	30.996	n/a	2	6	3	n/a	103	114	3	n/a	n/a	n/a	n/a	210.877	AM22ANS.jpg
184.523	0.514	Blank	Blank	30.482	n/a	2	6	3	n/a	103	n/a	3	n/a	n/a	n/a	n/a	211.374	n/a
185.053	0.497	angry	Picture	29.968	n/a	2	6	4	n/a	104	109	3	n/a	n/a	n/a	n/a	211.905	AM10ANS.jpg
185.551	0.514	Blank	Blank	29.454	n/a	2	6	4	n/a	104	n/a	3	n/a	n/a	n/a	n/a	212.402	n/a
186.081	0.497	angry	Picture	28.94	n/a	2	6	5	n/a	105	96	3	n/a	n/a	n/a	n/a	212.933	AF26ANS.jpg
186.579	0.514	Blank	Blank	28.426	n/a	2	6	5	n/a	105	n/a	3	n/a	n/a	n/a	n/a	213.43	n/a
187.109	0.497	angry	Picture	27.912	n/a	2	6	6	n/a	106	82	3	n/a	n/a	n/a	n/a	213.961	AF03ANS.jpg
187.606	0.514	Blank	Blank	27.398	n/a	2	6	6	n/a	106	n/a	3	n/a	n/a	n/a	n/a	214.458	n/a
188.137	0.497	angry	Picture	26.885	n/a	2	6	7	n/a	107	97	3	n/a	n/a	n/a	n/a	214.989	BF28ANS.jpg
188.634	0.514	Blank	Blank	26.371	n/a	2	6	7	n/a	107	n/a	3	n/a	n/a	n/a	n/a	215.486	n/a
189.165	0.497	angry	Picture	25.857	n/a	2	6	8	n/a	108	115	3	n/a	n/a	n/a	n/a	216.017	AM23ANS.jpg
189.662	0.514	Blank	Blank	25.343	n/a	2	6	8	n/a	108	n/a	3	n/a	n/a	n/a	n/a	216.514	n/a
190.193	0.497	angry	Picture	24.829	n/a	2	6	9	n/a	109	91	3	n/a	n/a	n/a	n/a	217.044	AF20ANS.jpg
190.69	0.514	Blank	Blank	24.315	n/a	2	6	9	n/a	109	n/a	3	n/a	n/a	n/a	n/a	217.542	n/a
191.221	0.497	angry	Picture	23.801	n/a	2	6	10	n/a	110	87	3	n/a	n/a	n/a	n/a	218.072	BF11ANS.jpg
191.718	0.514	Blank	Blank	23.287	n/a	2	6	10	n/a	110	n/a	3	n/a	n/a	n/a	n/a	218.57	n/a
192.248	0.497	angry	Picture	22.773	n/a	2	6	11	n/a	111	85	3	n/a	n/a	n/a	n/a	219.1	BF07ANS.jpg
192.746	0.514	Blank	Blank	22.259	n/a	2	6	11	n/a	111	n/a	3	n/a	n/a	n/a	n/a	219.597	n/a
193.276	0.497	angry	Picture	21.745	n/a	2	6	12	n/a	112	110	3	n/a	n/a	n/a	n/a	220.128	AM11ANS.jpg
193.774	0.514	Blank	Blank	21.231	n/a	2	6	12	n/a	112	n/a	3	n/a	n/a	n/a	n/a	220.625	n/a
194.304	0.497	angry	Picture	20.717	n/a	2	6	13	n/a	113	111	3	n/a	n/a	n/a	n/a	221.156	BM12ANS.jpg
194.802	0.514	Blank	Blank	20.203	n/a	2	6	13	n/a	113	n/a	3	n/a	n/a	n/a	n/a	221.653	n/a
195.332	0.497	angry	Picture	19.689	n/a	2	6	14	n/a	114	103	3	n/a	n/a	n/a	n/a	222.184	AM04ANS.jpg
195.829	0.514	Blank	Blank	19.175	n/a	2	6	14	n/a	114	n/a	3	n/a	n/a	n/a	n/a	222.681	n/a
196.36	0.497	angry	Picture	18.661	n/a	2	6	15	n/a	115	101	3	n/a	n/a	n/a	n/a	223.212	AM01ANS.jpg
196.857	0.514	Blank	Blank	18.147	n/a	2	6	15	n/a	115	n/a	3	n/a	n/a	n/a	n/a	223.709	n/a
197.388	0.497	angry	Picture	17.634	n/a	2	6	16	n/a	116	104	3	n/a	n/a	n/a	n/a	224.24	BM05ANS.jpg
197.885	0.514	Blank	Blank	17.12	n/a	2	6	16	n/a	116	n/a	3	n/a	n/a	n/a	n/a	224.737	n/a
198.416	0.497	angry	Picture	16.606	n/a	2	6	17	n/a	117	107	3	n/a	n/a	n/a	n/a	225.267	BM08ANS.jpg
198.913	0.514	Blank	Blank	16.092	n/a	2	6	17	n/a	117	n/a	3	n/a	n/a	n/a	n/a	225.765	n/a
199.444	0.497	angry	Picture	15.578	n/a	2	6	18	n/a	118	98	3	n/a	n/a	n/a	n/a	226.295	BF29ANS.jpg
199.941	0.514	Blank	Blank	15.064	n/a	2	6	18	n/a	118	n/a	3	n/a	n/a	n/a	n/a	226.793	n/a
200.472	0.497	angry	Picture	14.55	n/a	2	6	19	n/a	119	99	3	n/a	n/a	n/a	n/a	227.323	AF31ANS.jpg
200.969	0.514	Blank	Blank	14.036	n/a	2	6	19	n/a	119	n/a	3	n/a	n/a	n/a	n/a	227.821	n/a
201.499	0.497	angry	Picture	13.522	n/a	2	6	20	n/a	120	108	3	n/a	n/a	n/a	n/a	228.351	AM09ANS.jpg
201.997	0.514	Blank	Blank	13.008	n/a	2	6	20	n/a	120	n/a	3	n/a	n/a	n/a	n/a	228.849	n/a
202.527	10.014	ITI	Fixation+	2.978	n/a	2	n/a	n/a	n/a	n/a	n/a	n/a	n/a	n/a	n/a	n/a	229.379	n/a
215.519	n/a	ConfirmRating	Rate	n/a	2.967	2	n/a	n/a	0	n/a	n/a	n/a	2	Angry	37	49	242.37	n/a
217.503	n/a	ConfirmRating	Rate	n/a	1.973	2	n/a	n/a	1	n/a	n/a	n/a	3	Angry	0	49	244.354	n/a
217.531	15.004	Rest	Picture	n/a	n/a	n/a	n/a	n/a	n/a	n/a	n/a	n/a	0	n/a	0	0	244.383	n/a
232.552	10.014	ITI	Fixation+	94.828	n/a	3	n/a	n/a	n/a	n/a	n/a	n/a	n/a	n/a	n/a	n/a	259.403	n/a
242.582	0.497	happy	Picture	94.314	n/a	3	7	1	n/a	1	46	2	n/a	n/a	n/a	n/a	269.433	AF09HAS.jpg
243.079	0.514	Blank	Blank	93.8	n/a	3	7	1	n/a	1	n/a	2	n/a	n/a	n/a	n/a	269.931	n/a
243.61	0.497	happy	Picture	93.286	n/a	3	7	2	n/a	2	69	2	n/a	n/a	n/a	n/a	270.461	AM10HAS.jpg
244.107	0.514	Blank	Blank	92.772	n/a	3	7	2	n/a	2	n/a	2	n/a	n/a	n/a	n/a	270.959	n/a
244.637	0.497	happy	Picture	92.258	n/a	3	7	3	n/a	3	71	2	n/a	n/a	n/a	n/a	271.489	BM12HAS.jpg
245.135	0.514	Blank	Blank	91.744	n/a	3	7	3	n/a	3	n/a	2	n/a	n/a	n/a	n/a	271.986	n/a
245.665	0.497	happy	Picture	91.23	n/a	3	7	4	n/a	4	51	2	n/a	n/a	n/a	n/a	272.517	AF20HAS.jpg
246.163	0.514	Blank	Blank	90.716	n/a	3	7	4	n/a	4	n/a	2	n/a	n/a	n/a	n/a	273.014	n/a
246.693	0.497	happy	Picture	90.202	n/a	3	7	5	n/a	5	67	2	n/a	n/a	n/a	n/a	273.545	BM08HAS.jpg
247.191	0.514	Blank	Blank	89.689	n/a	3	7	5	n/a	5	n/a	2	n/a	n/a	n/a	n/a	274.042	n/a
247.721	0.497	happy	Picture	89.175	n/a	3	7	6	n/a	6	60	2	n/a	n/a	n/a	n/a	274.573	AF32HAS.jpg
248.219	0.514	Blank	Blank	88.661	n/a	3	7	6	n/a	6	n/a	2	n/a	n/a	n/a	n/a	275.07	n/a
248.749	0.497	happy	Picture	88.147	n/a	3	7	7	n/a	7	42	2	n/a	n/a	n/a	n/a	275.601	AF03HAS.jpg
249.246	0.514	Blank	Blank	87.633	n/a	3	7	7	n/a	7	n/a	2	n/a	n/a	n/a	n/a	276.098	n/a
249.777	0.497	happy	Picture	87.119	n/a	3	7	8	n/a	8	55	2	n/a	n/a	n/a	n/a	276.629	AF25HAS.jpg
250.274	0.514	Blank	Blank	86.605	n/a	3	7	8	n/a	8	n/a	2	n/a	n/a	n/a	n/a	277.126	n/a
250.805	0.497	happy	Picture	86.091	n/a	3	7	9	n/a	9	72	2	n/a	n/a	n/a	n/a	277.656	AM14HAS.jpg
251.302	0.514	Blank	Blank	85.577	n/a	3	7	9	n/a	9	n/a	2	n/a	n/a	n/a	n/a	278.154	n/a
251.833	0.497	happy	Picture	85.063	n/a	3	7	10	n/a	10	63	2	n/a	n/a	n/a	n/a	278.684	AM04HAS.jpg
252.33	0.514	Blank	Blank	84.549	n/a	3	7	10	n/a	10	n/a	2	n/a	n/a	n/a	n/a	279.182	n/a
252.861	0.497	happy	Picture	84.035	n/a	3	7	11	n/a	11	58	2	n/a	n/a	n/a	n/a	279.712	BF29HAS.jpg
253.358	0.514	Blank	Blank	83.521	n/a	3	7	11	n/a	11	n/a	2	n/a	n/a	n/a	n/a	280.21	n/a
253.888	0.497	happy	Picture	83.007	n/a	3	7	12	n/a	12	48	2	n/a	n/a	n/a	n/a	280.74	AF14HAS.jpg
254.386	0.514	Blank	Blank	82.493	n/a	3	7	12	n/a	12	n/a	2	n/a	n/a	n/a	n/a	281.238	n/a
254.916	0.497	happy	Picture	81.979	n/a	3	7	13	n/a	13	66	2	n/a	n/a	n/a	n/a	281.768	BM07HAS.jpg
255.414	0.514	Blank	Blank	81.465	n/a	3	7	13	n/a	13	n/a	2	n/a	n/a	n/a	n/a	282.265	n/a
255.944	0.497	happy	Picture	80.951	n/a	3	7	14	n/a	14	70	2	n/a	n/a	n/a	n/a	282.796	BM11HAS.jpg
256.442	0.514	Blank	Blank	80.438	n/a	3	7	14	n/a	14	n/a	2	n/a	n/a	n/a	n/a	283.293	n/a
256.972	0.497	happy	Picture	79.923	n/a	3	7	15	n/a	15	43	2	n/a	n/a	n/a	n/a	283.824	BF04HAS.jpg
257.469	0.514	Blank	Blank	79.41	n/a	3	7	15	n/a	15	n/a	2	n/a	n/a	n/a	n/a	284.321	n/a
258.0	0.497	happy	Picture	78.896	n/a	3	7	16	n/a	16	49	2	n/a	n/a	n/a	n/a	284.852	AF17HAS.jpg
258.497	0.514	Blank	Blank	78.382	n/a	3	7	16	n/a	16	n/a	2	n/a	n/a	n/a	n/a	285.349	n/a
259.028	0.497	happy	Picture	77.868	n/a	3	7	17	n/a	17	75	2	n/a	n/a	n/a	n/a	285.88	AM23HAS.jpg
259.525	0.514	Blank	Blank	77.354	n/a	3	7	17	n/a	17	n/a	2	n/a	n/a	n/a	n/a	286.377	n/a
260.056	0.497	happy	Picture	76.84	n/a	3	7	18	n/a	18	80	2	n/a	n/a	n/a	n/a	286.907	BM35HAS.jpg
260.553	0.514	Blank	Blank	76.326	n/a	3	7	18	n/a	18	n/a	2	n/a	n/a	n/a	n/a	287.405	n/a
261.084	0.497	happy	Picture	75.812	n/a	3	7	19	n/a	19	76	2	n/a	n/a	n/a	n/a	287.935	BM24HAS.jpg
261.581	0.514	Blank	Blank	75.298	n/a	3	7	19	n/a	19	n/a	2	n/a	n/a	n/a	n/a	288.433	n/a
262.111	0.497	happy	Picture	74.784	n/a	3	7	20	n/a	20	74	2	n/a	n/a	n/a	n/a	288.963	AM22HAS.jpg
262.609	0.514	Blank	Blank	74.27	n/a	3	7	20	n/a	20	n/a	2	n/a	n/a	n/a	n/a	289.461	n/a
263.139	10.014	ITI	Fixation+	64.24	n/a	3	n/a	n/a	n/a	n/a	n/a	n/a	n/a	n/a	n/a	n/a	289.991	n/a
273.17	0.497	neutral	Picture	63.726	n/a	3	8	1	n/a	21	33	1	n/a	n/a	n/a	n/a	300.021	AM21NES.jpg
273.667	0.514	Blank	Blank	63.212	n/a	3	8	1	n/a	21	n/a	1	n/a	n/a	n/a	n/a	300.519	n/a
274.197	0.497	neutral	Picture	62.698	n/a	3	8	2	n/a	22	39	1	n/a	n/a	n/a	n/a	301.049	AM28NES.jpg
274.695	0.514	Blank	Blank	62.184	n/a	3	8	2	n/a	22	n/a	1	n/a	n/a	n/a	n/a	301.546	n/a
275.225	0.497	neutral	Picture	61.67	n/a	3	8	3	n/a	23	25	1	n/a	n/a	n/a	n/a	302.077	BM06NES.jpg
275.723	0.514	Blank	Blank	61.156	n/a	3	8	3	n/a	23	n/a	1	n/a	n/a	n/a	n/a	302.574	n/a
276.253	0.497	neutral	Picture	60.642	n/a	3	8	4	n/a	24	5	1	n/a	n/a	n/a	n/a	303.105	BF07NES.jpg
276.751	0.514	Blank	Blank	60.128	n/a	3	8	4	n/a	24	n/a	1	n/a	n/a	n/a	n/a	303.602	n/a
277.281	0.497	neutral	Picture	59.615	n/a	3	8	5	n/a	25	10	1	n/a	n/a	n/a	n/a	304.133	AF18NES.jpg
277.779	0.514	Blank	Blank	59.101	n/a	3	8	5	n/a	25	n/a	1	n/a	n/a	n/a	n/a	304.63	n/a
278.309	0.497	neutral	Picture	58.587	n/a	3	8	6	n/a	26	34	1	n/a	n/a	n/a	n/a	305.161	AM22NES.jpg
278.806	0.514	Blank	Blank	58.073	n/a	3	8	6	n/a	26	n/a	1	n/a	n/a	n/a	n/a	305.658	n/a
279.337	0.497	neutral	Picture	57.559	n/a	3	8	7	n/a	27	36	1	n/a	n/a	n/a	n/a	306.189	BM24NES.jpg
279.834	0.514	Blank	Blank	57.045	n/a	3	8	7	n/a	27	n/a	1	n/a	n/a	n/a	n/a	306.686	n/a
280.365	0.497	neutral	Picture	56.531	n/a	3	8	8	n/a	28	14	1	n/a	n/a	n/a	n/a	307.216	AF23NES.jpg
280.862	0.514	Blank	Blank	56.017	n/a	3	8	8	n/a	28	n/a	1	n/a	n/a	n/a	n/a	307.714	n/a
281.393	0.497	neutral	Picture	55.503	n/a	3	8	9	n/a	29	9	1	n/a	n/a	n/a	n/a	308.244	AF17NES.jpg
281.89	0.514	Blank	Blank	54.989	n/a	3	8	9	n/a	29	n/a	1	n/a	n/a	n/a	n/a	308.742	n/a
282.421	0.497	neutral	Picture	54.475	n/a	3	8	10	n/a	30	19	1	n/a	n/a	n/a	n/a	309.272	AF31NES.jpg
282.918	0.514	Blank	Blank	53.961	n/a	3	8	10	n/a	30	n/a	1	n/a	n/a	n/a	n/a	309.77	n/a
283.448	0.497	neutral	Picture	53.447	n/a	3	8	11	n/a	31	15	1	n/a	n/a	n/a	n/a	310.3	AF25NES.jpg
283.946	0.514	Blank	Blank	52.933	n/a	3	8	11	n/a	31	n/a	1	n/a	n/a	n/a	n/a	310.798	n/a
284.476	0.497	neutral	Picture	52.419	n/a	3	8	12	n/a	32	22	1	n/a	n/a	n/a	n/a	311.328	BM03NES.jpg
284.974	0.514	Blank	Blank	51.905	n/a	3	8	12	n/a	32	n/a	1	n/a	n/a	n/a	n/a	311.825	n/a
285.504	0.497	neutral	Picture	51.391	n/a	3	8	13	n/a	33	11	1	n/a	n/a	n/a	n/a	312.356	AF20NES.jpg
286.002	0.514	Blank	Blank	50.878	n/a	3	8	13	n/a	33	n/a	1	n/a	n/a	n/a	n/a	312.853	n/a
286.532	0.497	neutral	Picture	50.363	n/a	3	8	14	n/a	34	4	1	n/a	n/a	n/a	n/a	313.384	AF05NES.jpg
287.029	0.514	Blank	Blank	49.85	n/a	3	8	14	n/a	34	n/a	1	n/a	n/a	n/a	n/a	313.881	n/a
287.56	0.497	neutral	Picture	49.336	n/a	3	8	15	n/a	35	17	1	n/a	n/a	n/a	n/a	314.412	BF28NES.jpg
288.057	0.514	Blank	Blank	48.822	n/a	3	8	15	n/a	35	n/a	1	n/a	n/a	n/a	n/a	314.909	n/a
288.588	0.497	neutral	Picture	48.308	n/a	3	8	16	n/a	36	13	1	n/a	n/a	n/a	n/a	315.44	BF22NES.jpg
289.085	0.514	Blank	Blank	47.794	n/a	3	8	16	n/a	36	n/a	1	n/a	n/a	n/a	n/a	315.937	n/a
289.616	0.497	neutral	Picture	47.28	n/a	3	8	17	n/a	37	12	1	n/a	n/a	n/a	n/a	316.467	AF21NES.jpg
290.113	0.514	Blank	Blank	46.766	n/a	3	8	17	n/a	37	n/a	1	n/a	n/a	n/a	n/a	316.965	n/a
290.644	0.497	neutral	Picture	46.252	n/a	3	8	18	n/a	38	24	1	n/a	n/a	n/a	n/a	317.495	BM05NES.jpg
291.141	0.514	Blank	Blank	45.738	n/a	3	8	18	n/a	38	n/a	1	n/a	n/a	n/a	n/a	317.993	n/a
291.671	0.497	neutral	Picture	45.224	n/a	3	8	19	n/a	39	29	1	n/a	n/a	n/a	n/a	318.523	AM10NES.jpg
292.169	0.514	Blank	Blank	44.71	n/a	3	8	19	n/a	39	n/a	1	n/a	n/a	n/a	n/a	319.021	n/a
292.699	0.497	neutral	Picture	44.196	n/a	3	8	20	n/a	40	23	1	n/a	n/a	n/a	n/a	319.551	AM04NES.jpg
293.197	0.514	Blank	Blank	43.682	n/a	3	8	20	n/a	40	n/a	1	n/a	n/a	n/a	n/a	320.048	n/a
293.727	10.014	ITI	Fixation+	33.652	n/a	3	n/a	n/a	n/a	n/a	n/a	n/a	n/a	n/a	n/a	n/a	320.579	n/a
303.757	0.497	happy	Picture	33.138	n/a	3	9	1	n/a	41	62	2	n/a	n/a	n/a	n/a	330.609	BM03HAS.jpg
304.255	0.514	Blank	Blank	32.624	n/a	3	9	1	n/a	41	n/a	2	n/a	n/a	n/a	n/a	331.106	n/a
304.785	0.497	happy	Picture	32.11	n/a	3	9	2	n/a	42	52	2	n/a	n/a	n/a	n/a	331.637	AF21HAS.jpg
305.283	0.514	Blank	Blank	31.596	n/a	3	9	2	n/a	42	n/a	2	n/a	n/a	n/a	n/a	332.134	n/a
305.813	0.497	happy	Picture	31.082	n/a	3	9	3	n/a	43	44	2	n/a	n/a	n/a	n/a	332.665	AF05HAS.jpg
306.311	0.514	Blank	Blank	30.568	n/a	3	9	3	n/a	43	n/a	2	n/a	n/a	n/a	n/a	333.162	n/a
306.841	0.497	happy	Picture	30.055	n/a	3	9	4	n/a	44	53	2	n/a	n/a	n/a	n/a	333.693	BF22HAS.jpg
307.339	0.514	Blank	Blank	29.541	n/a	3	9	4	n/a	44	n/a	2	n/a	n/a	n/a	n/a	334.19	n/a
307.869	0.497	happy	Picture	29.027	n/a	3	9	5	n/a	45	54	2	n/a	n/a	n/a	n/a	334.721	AF23HAS.jpg
308.366	0.514	Blank	Blank	28.513	n/a	3	9	5	n/a	45	n/a	2	n/a	n/a	n/a	n/a	335.218	n/a
308.897	0.497	happy	Picture	27.999	n/a	3	9	6	n/a	46	68	2	n/a	n/a	n/a	n/a	335.749	AM09HAS.jpg
309.394	0.514	Blank	Blank	27.485	n/a	3	9	6	n/a	46	n/a	2	n/a	n/a	n/a	n/a	336.246	n/a
309.925	0.497	happy	Picture	26.971	n/a	3	9	7	n/a	47	64	2	n/a	n/a	n/a	n/a	336.776	BM05HAS.jpg
310.422	0.514	Blank	Blank	26.457	n/a	3	9	7	n/a	47	n/a	2	n/a	n/a	n/a	n/a	337.274	n/a
310.953	0.497	happy	Picture	25.943	n/a	3	9	8	n/a	48	59	2	n/a	n/a	n/a	n/a	337.804	AF31HAS.jpg
311.45	0.514	Blank	Blank	25.429	n/a	3	9	8	n/a	48	n/a	2	n/a	n/a	n/a	n/a	338.302	n/a
311.981	0.497	happy	Picture	24.915	n/a	3	9	9	n/a	49	41	2	n/a	n/a	n/a	n/a	338.832	AF01HAS.jpg
312.478	0.514	Blank	Blank	24.401	n/a	3	9	9	n/a	49	n/a	2	n/a	n/a	n/a	n/a	339.33	n/a
313.009	0.497	happy	Picture	23.887	n/a	3	9	10	n/a	50	73	2	n/a	n/a	n/a	n/a	339.86	AM21HAS.jpg
313.506	0.514	Blank	Blank	23.373	n/a	3	9	10	n/a	50	n/a	2	n/a	n/a	n/a	n/a	340.358	n/a
314.036	0.497	happy	Picture	22.859	n/a	3	9	11	n/a	51	65	2	n/a	n/a	n/a	n/a	340.888	BM06HAS.jpg
314.534	0.514	Blank	Blank	22.345	n/a	3	9	11	n/a	51	n/a	2	n/a	n/a	n/a	n/a	341.385	n/a
315.064	0.497	happy	Picture	21.831	n/a	3	9	12	n/a	52	56	2	n/a	n/a	n/a	n/a	341.916	AF26HAS.jpg
315.562	0.514	Blank	Blank	21.318	n/a	3	9	12	n/a	52	n/a	2	n/a	n/a	n/a	n/a	342.413	n/a
316.092	0.497	happy	Picture	20.803	n/a	3	9	13	n/a	53	45	2	n/a	n/a	n/a	n/a	342.944	BF07HAS.jpg
316.589	0.514	Blank	Blank	20.29	n/a	3	9	13	n/a	53	n/a	2	n/a	n/a	n/a	n/a	343.441	n/a
317.12	0.497	happy	Picture	19.776	n/a	3	9	14	n/a	54	78	2	n/a	n/a	n/a	n/a	343.972	BM26HAS.jpg
317.617	0.514	Blank	Blank	19.262	n/a	3	9	14	n/a	54	n/a	2	n/a	n/a	n/a	n/a	344.469	n/a
318.148	0.497	happy	Picture	18.748	n/a	3	9	15	n/a	55	50	2	n/a	n/a	n/a	n/a	345.0	AF18HAS.jpg
318.645	0.514	Blank	Blank	18.234	n/a	3	9	15	n/a	55	n/a	2	n/a	n/a	n/a	n/a	345.497	n/a
319.176	0.497	happy	Picture	17.72	n/a	3	9	16	n/a	56	47	2	n/a	n/a	n/a	n/a	346.027	BF11HAS.jpg
319.673	0.514	Blank	Blank	17.206	n/a	3	9	16	n/a	56	n/a	2	n/a	n/a	n/a	n/a	346.525	n/a
320.204	0.497	happy	Picture	16.692	n/a	3	9	17	n/a	57	77	2	n/a	n/a	n/a	n/a	347.055	BM25HAS.jpg
320.701	0.514	Blank	Blank	16.178	n/a	3	9	17	n/a	57	n/a	2	n/a	n/a	n/a	n/a	347.553	n/a
321.231	0.497	happy	Picture	15.664	n/a	3	9	18	n/a	58	57	2	n/a	n/a	n/a	n/a	348.083	BF28HAS.jpg
321.729	0.514	Blank	Blank	15.15	n/a	3	9	18	n/a	58	n/a	2	n/a	n/a	n/a	n/a	348.581	n/a
322.259	0.497	happy	Picture	14.636	n/a	3	9	19	n/a	59	61	2	n/a	n/a	n/a	n/a	349.111	AM01HAS.jpg
322.757	0.514	Blank	Blank	14.122	n/a	3	9	19	n/a	59	n/a	2	n/a	n/a	n/a	n/a	349.608	n/a
323.287	0.497	happy	Picture	13.608	n/a	3	9	20	n/a	60	79	2	n/a	n/a	n/a	n/a	350.139	BM28HAS.jpg
323.785	0.514	Blank	Blank	13.094	n/a	3	9	20	n/a	60	n/a	2	n/a	n/a	n/a	n/a	350.636	n/a
324.315	10.014	ITI	Fixation+	3.064	n/a	3	n/a	n/a	n/a	n/a	n/a	n/a	n/a	n/a	n/a	n/a	351.167	n/a
337.393	n/a	ConfirmRating	Rate	n/a	3.05	3	n/a	n/a	0	n/a	n/a	n/a	2	Happy	62	51	364.245	n/a
339.198	n/a	ConfirmRating	Rate	n/a	1.79	3	n/a	n/a	1	n/a	n/a	n/a	3	Happy	0	49	366.05	n/a
339.219	10.014	ITI	Fixation+	94.915	n/a	4	n/a	n/a	n/a	n/a	n/a	n/a	n/a	n/a	n/a	n/a	366.071	n/a
349.25	0.497	angry	Picture	94.401	n/a	4	10	1	n/a	61	119	3	n/a	n/a	n/a	n/a	376.101	BM28ANS.jpg
349.747	0.514	Blank	Blank	93.888	n/a	4	10	1	n/a	61	n/a	3	n/a	n/a	n/a	n/a	376.599	n/a
350.278	0.497	angry	Picture	93.373	n/a	4	10	2	n/a	62	100	3	n/a	n/a	n/a	n/a	377.129	AF32ANS.jpg
350.775	0.514	Blank	Blank	92.86	n/a	4	10	2	n/a	62	n/a	3	n/a	n/a	n/a	n/a	377.627	n/a
351.305	0.497	angry	Picture	92.346	n/a	4	10	3	n/a	63	118	3	n/a	n/a	n/a	n/a	378.157	BM26ANS.jpg
351.803	0.514	Blank	Blank	91.832	n/a	4	10	3	n/a	63	n/a	3	n/a	n/a	n/a	n/a	378.655	n/a
352.333	0.497	angry	Picture	91.318	n/a	4	10	4	n/a	64	89	3	n/a	n/a	n/a	n/a	379.185	AF17ANS.jpg
352.831	0.514	Blank	Blank	90.804	n/a	4	10	4	n/a	64	n/a	3	n/a	n/a	n/a	n/a	379.682	n/a
353.361	0.497	angry	Picture	90.29	n/a	4	10	5	n/a	65	116	3	n/a	n/a	n/a	n/a	380.213	BM24ANS.jpg
353.859	0.514	Blank	Blank	89.776	n/a	4	10	5	n/a	65	n/a	3	n/a	n/a	n/a	n/a	380.71	n/a
354.389	0.497	angry	Picture	89.262	n/a	4	10	6	n/a	66	105	3	n/a	n/a	n/a	n/a	381.241	BM06ANS.jpg
354.887	0.514	Blank	Blank	88.748	n/a	4	10	6	n/a	66	n/a	3	n/a	n/a	n/a	n/a	381.738	n/a
355.417	0.497	angry	Picture	88.234	n/a	4	10	7	n/a	67	106	3	n/a	n/a	n/a	n/a	382.269	AM07ANS.jpg
355.914	0.514	Blank	Blank	87.72	n/a	4	10	7	n/a	67	n/a	3	n/a	n/a	n/a	n/a	382.766	n/a
356.445	0.497	angry	Picture	87.206	n/a	4	10	8	n/a	68	94	3	n/a	n/a	n/a	n/a	383.297	AF23ANS.jpg
356.942	0.514	Blank	Blank	86.692	n/a	4	10	8	n/a	68	n/a	3	n/a	n/a	n/a	n/a	383.794	n/a
357.473	0.497	angry	Picture	86.178	n/a	4	10	9	n/a	69	117	3	n/a	n/a	n/a	n/a	384.325	BM25ANS.jpg
357.97	0.514	Blank	Blank	85.664	n/a	4	10	9	n/a	69	n/a	3	n/a	n/a	n/a	n/a	384.822	n/a
358.501	0.497	angry	Picture	85.15	n/a	4	10	10	n/a	70	90	3	n/a	n/a	n/a	n/a	385.352	AF18ANS.jpg
358.998	0.514	Blank	Blank	84.637	n/a	4	10	10	n/a	70	n/a	3	n/a	n/a	n/a	n/a	385.85	n/a
359.529	0.497	angry	Picture	84.123	n/a	4	10	11	n/a	71	83	3	n/a	n/a	n/a	n/a	386.38	BF04ANS.jpg
360.026	0.514	Blank	Blank	83.609	n/a	4	10	11	n/a	71	n/a	3	n/a	n/a	n/a	n/a	386.878	n/a
360.557	0.497	angry	Picture	83.095	n/a	4	10	12	n/a	72	112	3	n/a	n/a	n/a	n/a	387.408	AM14ANS.jpg
361.054	0.514	Blank	Blank	82.581	n/a	4	10	12	n/a	72	n/a	3	n/a	n/a	n/a	n/a	387.906	n/a
361.584	0.497	angry	Picture	82.067	n/a	4	10	13	n/a	73	102	3	n/a	n/a	n/a	n/a	388.436	BM03ANS.jpg
362.082	0.514	Blank	Blank	81.553	n/a	4	10	13	n/a	73	n/a	3	n/a	n/a	n/a	n/a	388.933	n/a
362.612	0.497	angry	Picture	81.039	n/a	4	10	14	n/a	74	95	3	n/a	n/a	n/a	n/a	389.464	AF25ANS.jpg
363.11	0.514	Blank	Blank	80.525	n/a	4	10	14	n/a	74	n/a	3	n/a	n/a	n/a	n/a	389.961	n/a
363.64	0.497	angry	Picture	80.011	n/a	4	10	15	n/a	75	113	3	n/a	n/a	n/a	n/a	390.492	AM21ANS.jpg
364.137	0.514	Blank	Blank	79.497	n/a	4	10	15	n/a	75	n/a	3	n/a	n/a	n/a	n/a	390.989	n/a
364.668	0.497	angry	Picture	78.983	n/a	4	10	16	n/a	76	88	3	n/a	n/a	n/a	n/a	391.52	AF14ANS.jpg
365.165	0.514	Blank	Blank	78.469	n/a	4	10	16	n/a	76	n/a	3	n/a	n/a	n/a	n/a	392.017	n/a
365.696	0.497	angry	Picture	77.955	n/a	4	10	17	n/a	77	93	3	n/a	n/a	n/a	n/a	392.548	BF22ANS.jpg
366.193	0.514	Blank	Blank	77.441	n/a	4	10	17	n/a	77	n/a	3	n/a	n/a	n/a	n/a	393.045	n/a
366.724	0.497	angry	Picture	76.927	n/a	4	10	18	n/a	78	86	3	n/a	n/a	n/a	n/a	393.575	AF09ANS.jpg
367.221	0.514	Blank	Blank	76.413	n/a	4	10	18	n/a	78	n/a	3	n/a	n/a	n/a	n/a	394.073	n/a
367.752	0.497	angry	Picture	75.899	n/a	4	10	19	n/a	79	92	3	n/a	n/a	n/a	n/a	394.603	AF21ANS.jpg
368.249	0.514	Blank	Blank	75.385	n/a	4	10	19	n/a	79	n/a	3	n/a	n/a	n/a	n/a	395.101	n/a
368.78	0.497	angry	Picture	74.872	n/a	4	10	20	n/a	80	84	3	n/a	n/a	n/a	n/a	395.631	AF05ANS.jpg
369.277	0.514	Blank	Blank	74.358	n/a	4	10	20	n/a	80	n/a	3	n/a	n/a	n/a	n/a	396.129	n/a
369.807	10.014	ITI	Fixation+	64.327	n/a	4	n/a	n/a	n/a	n/a	n/a	n/a	n/a	n/a	n/a	n/a	396.659	n/a
379.838	0.497	neutral	Picture	63.813	n/a	4	11	1	n/a	81	4	1	n/a	n/a	n/a	n/a	406.689	AF05NES.jpg
380.335	0.514	Blank	Blank	63.3	n/a	4	11	1	n/a	81	n/a	1	n/a	n/a	n/a	n/a	407.187	n/a
380.865	0.497	neutral	Picture	62.786	n/a	4	11	2	n/a	82	14	1	n/a	n/a	n/a	n/a	407.717	AF23NES.jpg
381.363	0.514	Blank	Blank	62.272	n/a	4	11	2	n/a	82	n/a	1	n/a	n/a	n/a	n/a	408.215	n/a
381.893	0.497	neutral	Picture	61.758	n/a	4	11	3	n/a	83	19	1	n/a	n/a	n/a	n/a	408.745	AF31NES.jpg
382.391	0.514	Blank	Blank	61.244	n/a	4	11	3	n/a	83	n/a	1	n/a	n/a	n/a	n/a	409.243	n/a
382.921	0.497	neutral	Picture	60.73	n/a	4	11	4	n/a	84	8	1	n/a	n/a	n/a	n/a	409.773	AF14NES.jpg
383.419	0.514	Blank	Blank	60.216	n/a	4	11	4	n/a	84	n/a	1	n/a	n/a	n/a	n/a	410.27	n/a
383.949	0.497	neutral	Picture	59.702	n/a	4	11	5	n/a	85	25	1	n/a	n/a	n/a	n/a	410.801	BM06NES.jpg
384.447	0.514	Blank	Blank	59.188	n/a	4	11	5	n/a	85	n/a	1	n/a	n/a	n/a	n/a	411.298	n/a
384.977	0.497	neutral	Picture	58.674	n/a	4	11	6	n/a	86	9	1	n/a	n/a	n/a	n/a	411.829	AF17NES.jpg
385.474	0.514	Blank	Blank	58.16	n/a	4	11	6	n/a	86	n/a	1	n/a	n/a	n/a	n/a	412.326	n/a
386.005	0.497	neutral	Picture	57.646	n/a	4	11	7	n/a	87	2	1	n/a	n/a	n/a	n/a	412.857	AF03NES.jpg
386.502	0.514	Blank	Blank	57.132	n/a	4	11	7	n/a	87	n/a	1	n/a	n/a	n/a	n/a	413.354	n/a
387.033	0.497	neutral	Picture	56.618	n/a	4	11	8	n/a	88	17	1	n/a	n/a	n/a	n/a	413.885	BF28NES.jpg
387.53	0.514	Blank	Blank	56.104	n/a	4	11	8	n/a	88	n/a	1	n/a	n/a	n/a	n/a	414.382	n/a
388.061	0.497	neutral	Picture	55.59	n/a	4	11	9	n/a	89	6	1	n/a	n/a	n/a	n/a	414.912	AF09NES.jpg
388.558	0.514	Blank	Blank	55.077	n/a	4	11	9	n/a	89	n/a	1	n/a	n/a	n/a	n/a	415.41	n/a
389.089	0.497	neutral	Picture	54.563	n/a	4	11	10	n/a	90	12	1	n/a	n/a	n/a	n/a	415.94	AF21NES.jpg
389.586	0.514	Blank	Blank	54.049	n/a	4	11	10	n/a	90	n/a	1	n/a	n/a	n/a	n/a	416.438	n/a
390.117	0.497	neutral	Picture	53.535	n/a	4	11	11	n/a	91	24	1	n/a	n/a	n/a	n/a	416.968	BM05NES.jpg
390.614	0.514	Blank	Blank	53.021	n/a	4	11	11	n/a	91	n/a	1	n/a	n/a	n/a	n/a	417.466	n/a
391.144	0.497	neutral	Picture	52.507	n/a	4	11	12	n/a	92	34	1	n/a	n/a	n/a	n/a	417.996	AM22NES.jpg
391.642	0.514	Blank	Blank	51.993	n/a	4	11	12	n/a	92	n/a	1	n/a	n/a	n/a	n/a	418.493	n/a
392.172	0.497	neutral	Picture	51.479	n/a	4	11	13	n/a	93	23	1	n/a	n/a	n/a	n/a	419.024	AM04NES.jpg
392.67	0.514	Blank	Blank	50.965	n/a	4	11	13	n/a	93	n/a	1	n/a	n/a	n/a	n/a	419.521	n/a
393.2	0.497	neutral	Picture	50.451	n/a	4	11	14	n/a	94	15	1	n/a	n/a	n/a	n/a	420.052	AF25NES.jpg
393.697	0.514	Blank	Blank	49.937	n/a	4	11	14	n/a	94	n/a	1	n/a	n/a	n/a	n/a	420.549	n/a
394.228	0.497	neutral	Picture	49.423	n/a	4	11	15	n/a	95	37	1	n/a	n/a	n/a	n/a	421.08	BM25NES.jpg
394.725	0.514	Blank	Blank	48.909	n/a	4	11	15	n/a	95	n/a	1	n/a	n/a	n/a	n/a	421.577	n/a
395.256	0.497	neutral	Picture	48.395	n/a	4	11	16	n/a	96	32	1	n/a	n/a	n/a	n/a	422.108	AM14NES.jpg
395.753	0.514	Blank	Blank	47.881	n/a	4	11	16	n/a	96	n/a	1	n/a	n/a	n/a	n/a	422.605	n/a
396.284	0.497	neutral	Picture	47.367	n/a	4	11	17	n/a	97	3	1	n/a	n/a	n/a	n/a	423.135	BF04NES.jpg
396.781	0.514	Blank	Blank	46.853	n/a	4	11	17	n/a	97	n/a	1	n/a	n/a	n/a	n/a	423.633	n/a
397.312	0.497	neutral	Picture	46.339	n/a	4	11	18	n/a	98	16	1	n/a	n/a	n/a	n/a	424.163	AF26NES.jpg
397.809	0.514	Blank	Blank	45.826	n/a	4	11	18	n/a	98	n/a	1	n/a	n/a	n/a	n/a	424.661	n/a
398.34	0.497	neutral	Picture	45.312	n/a	4	11	19	n/a	99	27	1	n/a	n/a	n/a	n/a	425.191	BM08NES.jpg
398.837	0.514	Blank	Blank	44.798	n/a	4	11	19	n/a	99	n/a	1	n/a	n/a	n/a	n/a	425.689	n/a
399.368	0.497	neutral	Picture	44.284	n/a	4	11	20	n/a	100	28	1	n/a	n/a	n/a	n/a	426.219	AM09NES.jpg
399.865	0.514	Blank	Blank	43.77	n/a	4	11	20	n/a	100	n/a	1	n/a	n/a	n/a	n/a	426.716	n/a
400.395	10.014	ITI	Fixation+	33.74	n/a	4	n/a	n/a	n/a	n/a	n/a	n/a	n/a	n/a	n/a	n/a	427.247	n/a
410.425	0.497	angry	Picture	33.226	n/a	4	12	1	n/a	101	81	3	n/a	n/a	n/a	n/a	437.277	AF01ANS.jpg
410.923	0.514	Blank	Blank	32.712	n/a	4	12	1	n/a	101	n/a	3	n/a	n/a	n/a	n/a	437.775	n/a
411.453	0.497	angry	Picture	32.198	n/a	4	12	2	n/a	102	120	3	n/a	n/a	n/a	n/a	438.305	AM35ANS.jpg
411.951	0.514	Blank	Blank	31.684	n/a	4	12	2	n/a	102	n/a	3	n/a	n/a	n/a	n/a	438.803	n/a
412.481	0.497	angry	Picture	31.17	n/a	4	12	3	n/a	103	114	3	n/a	n/a	n/a	n/a	439.333	AM22ANS.jpg
412.979	0.514	Blank	Blank	30.656	n/a	4	12	3	n/a	103	n/a	3	n/a	n/a	n/a	n/a	439.83	n/a
413.509	0.497	angry	Picture	30.142	n/a	4	12	4	n/a	104	109	3	n/a	n/a	n/a	n/a	440.361	AM10ANS.jpg
414.007	0.514	Blank	Blank	29.628	n/a	4	12	4	n/a	104	n/a	3	n/a	n/a	n/a	n/a	440.858	n/a
414.537	0.497	angry	Picture	29.114	n/a	4	12	5	n/a	105	96	3	n/a	n/a	n/a	n/a	441.389	AF26ANS.jpg
415.034	0.514	Blank	Blank	28.6	n/a	4	12	5	n/a	105	n/a	3	n/a	n/a	n/a	n/a	441.886	n/a
415.565	0.497	angry	Picture	28.086	n/a	4	12	6	n/a	106	82	3	n/a	n/a	n/a	n/a	442.417	AF03ANS.jpg
416.062	0.514	Blank	Blank	27.572	n/a	4	12	6	n/a	106	n/a	3	n/a	n/a	n/a	n/a	442.914	n/a
416.593	0.497	angry	Picture	27.058	n/a	4	12	7	n/a	107	97	3	n/a	n/a	n/a	n/a	443.445	BF28ANS.jpg
417.09	0.514	Blank	Blank	26.544	n/a	4	12	7	n/a	107	n/a	3	n/a	n/a	n/a	n/a	443.942	n/a
417.621	0.497	angry	Picture	26.03	n/a	4	12	8	n/a	108	115	3	n/a	n/a	n/a	n/a	444.472	AM23ANS.jpg
418.118	0.514	Blank	Blank	25.517	n/a	4	12	8	n/a	108	n/a	3	n/a	n/a	n/a	n/a	444.97	n/a
418.649	0.497	angry	Picture	25.002	n/a	4	12	9	n/a	109	91	3	n/a	n/a	n/a	n/a	445.5	AF20ANS.jpg
419.146	0.514	Blank	Blank	24.489	n/a	4	12	9	n/a	109	n/a	3	n/a	n/a	n/a	n/a	445.998	n/a
419.677	0.497	angry	Picture	23.975	n/a	4	12	10	n/a	110	87	3	n/a	n/a	n/a	n/a	446.528	BF11ANS.jpg
420.174	0.514	Blank	Blank	23.461	n/a	4	12	10	n/a	110	n/a	3	n/a	n/a	n/a	n/a	447.026	n/a
420.704	0.497	angry	Picture	22.947	n/a	4	12	11	n/a	111	85	3	n/a	n/a	n/a	n/a	447.556	BF07ANS.jpg
421.202	0.514	Blank	Blank	22.433	n/a	4	12	11	n/a	111	n/a	3	n/a	n/a	n/a	n/a	448.053	n/a
421.732	0.497	angry	Picture	21.919	n/a	4	12	12	n/a	112	110	3	n/a	n/a	n/a	n/a	448.584	AM11ANS.jpg
422.23	0.514	Blank	Blank	21.405	n/a	4	12	12	n/a	112	n/a	3	n/a	n/a	n/a	n/a	449.081	n/a
422.76	0.497	angry	Picture	20.891	n/a	4	12	13	n/a	113	111	3	n/a	n/a	n/a	n/a	449.612	BM12ANS.jpg
423.257	0.514	Blank	Blank	20.377	n/a	4	12	13	n/a	113	n/a	3	n/a	n/a	n/a	n/a	450.109	n/a
423.788	0.497	angry	Picture	19.863	n/a	4	12	14	n/a	114	103	3	n/a	n/a	n/a	n/a	450.64	AM04ANS.jpg
424.285	0.514	Blank	Blank	19.349	n/a	4	12	14	n/a	114	n/a	3	n/a	n/a	n/a	n/a	451.137	n/a
424.816	0.497	angry	Picture	18.835	n/a	4	12	15	n/a	115	101	3	n/a	n/a	n/a	n/a	451.668	AM01ANS.jpg
425.313	0.514	Blank	Blank	18.321	n/a	4	12	15	n/a	115	n/a	3	n/a	n/a	n/a	n/a	452.165	n/a
425.844	0.497	angry	Picture	17.807	n/a	4	12	16	n/a	116	104	3	n/a	n/a	n/a	n/a	452.695	BM05ANS.jpg
426.341	0.514	Blank	Blank	17.293	n/a	4	12	16	n/a	116	n/a	3	n/a	n/a	n/a	n/a	453.193	n/a
426.872	0.497	angry	Picture	16.779	n/a	4	12	17	n/a	117	107	3	n/a	n/a	n/a	n/a	453.723	BM08ANS.jpg
427.369	0.514	Blank	Blank	16.266	n/a	4	12	17	n/a	117	n/a	3	n/a	n/a	n/a	n/a	454.221	n/a
427.9	0.497	angry	Picture	15.752	n/a	4	12	18	n/a	118	98	3	n/a	n/a	n/a	n/a	454.751	BF29ANS.jpg
428.397	0.514	Blank	Blank	15.238	n/a	4	12	18	n/a	118	n/a	3	n/a	n/a	n/a	n/a	455.249	n/a
428.928	0.497	angry	Picture	14.724	n/a	4	12	19	n/a	119	99	3	n/a	n/a	n/a	n/a	455.779	AF31ANS.jpg
429.425	0.514	Blank	Blank	14.21	n/a	4	12	19	n/a	119	n/a	3	n/a	n/a	n/a	n/a	456.276	n/a
429.955	0.497	angry	Picture	13.696	n/a	4	12	20	n/a	120	108	3	n/a	n/a	n/a	n/a	456.807	AM09ANS.jpg
430.453	0.514	Blank	Blank	13.182	n/a	4	12	20	n/a	120	n/a	3	n/a	n/a	n/a	n/a	457.304	n/a
430.983	10.014	ITI	Fixation+	3.152	n/a	4	n/a	n/a	n/a	n/a	n/a	n/a	n/a	n/a	n/a	n/a	457.835	n/a
444.149	n/a	ConfirmRating	Rate	n/a	3.15	4	n/a	n/a	0	n/a	n/a	n/a	2	Angry	50	50	471.0	n/a
445.941	n/a	ConfirmRating	Rate	n/a	1.774	4	n/a	n/a	1	n/a	n/a	n/a	3	Angry	0	49	472.793	n/a
