onset	duration	trial_type	event_type	time_until_response	response_time	trial_number	block_num_within_trial	image_seq_num_within_block	question_seq_num_within_block	image_seq_num	picture_number	condition	question_type	block_type	rating	rating_computed	onset_uncorrected	KDEV_imagefile
0.005	10.014	ITI	Fixation+	98.874	n/a	1	n/a	n/a	n/a	n/a	n/a	n/a	n/a	n/a	n/a	n/a	29.638	n/a
10.035	0.497	angry	Picture	98.36	n/a	1	1	1	n/a	1	108	3	n/a	n/a	n/a	n/a	39.668	AM09ANS.jpg
10.532	0.514	Blank	Blank	97.846	n/a	1	1	1	n/a	1	n/a	3	n/a	n/a	n/a	n/a	40.165	n/a
11.063	0.497	angry	Picture	97.332	n/a	1	1	2	n/a	2	99	3	n/a	n/a	n/a	n/a	40.696	AF31ANS.jpg
11.56	0.514	Blank	Blank	96.819	n/a	1	1	2	n/a	2	n/a	3	n/a	n/a	n/a	n/a	41.193	n/a
12.09	0.497	angry	Picture	96.304	n/a	1	1	3	n/a	3	98	3	n/a	n/a	n/a	n/a	41.724	BF29ANS.jpg
12.588	0.514	Blank	Blank	95.791	n/a	1	1	3	n/a	3	n/a	3	n/a	n/a	n/a	n/a	42.221	n/a
13.118	0.497	angry	Picture	95.277	n/a	1	1	4	n/a	4	107	3	n/a	n/a	n/a	n/a	42.751	BM08ANS.jpg
13.616	0.514	Blank	Blank	94.763	n/a	1	1	4	n/a	4	n/a	3	n/a	n/a	n/a	n/a	43.249	n/a
14.146	0.497	angry	Picture	94.249	n/a	1	1	5	n/a	5	104	3	n/a	n/a	n/a	n/a	43.779	BM05ANS.jpg
14.644	0.514	Blank	Blank	93.735	n/a	1	1	5	n/a	5	n/a	3	n/a	n/a	n/a	n/a	44.277	n/a
15.174	0.497	angry	Picture	93.221	n/a	1	1	6	n/a	6	101	3	n/a	n/a	n/a	n/a	44.807	AM01ANS.jpg
15.671	0.514	Blank	Blank	92.707	n/a	1	1	6	n/a	6	n/a	3	n/a	n/a	n/a	n/a	45.304	n/a
16.202	0.497	angry	Picture	92.193	n/a	1	1	7	n/a	7	103	3	n/a	n/a	n/a	n/a	45.835	AM04ANS.jpg
16.699	0.514	Blank	Blank	91.679	n/a	1	1	7	n/a	7	n/a	3	n/a	n/a	n/a	n/a	46.332	n/a
17.23	0.497	angry	Picture	91.165	n/a	1	1	8	n/a	8	111	3	n/a	n/a	n/a	n/a	46.863	BM12ANS.jpg
17.727	0.514	Blank	Blank	90.651	n/a	1	1	8	n/a	8	n/a	3	n/a	n/a	n/a	n/a	47.36	n/a
18.258	0.497	angry	Picture	90.137	n/a	1	1	9	n/a	9	110	3	n/a	n/a	n/a	n/a	47.891	AM11ANS.jpg
18.755	0.514	Blank	Blank	89.623	n/a	1	1	9	n/a	9	n/a	3	n/a	n/a	n/a	n/a	48.388	n/a
19.286	0.497	angry	Picture	89.109	n/a	1	1	10	n/a	10	85	3	n/a	n/a	n/a	n/a	48.919	BF07ANS.jpg
19.783	0.514	Blank	Blank	88.595	n/a	1	1	10	n/a	10	n/a	3	n/a	n/a	n/a	n/a	49.416	n/a
20.313	0.497	angry	Picture	88.081	n/a	1	1	11	n/a	11	87	3	n/a	n/a	n/a	n/a	49.947	BF11ANS.jpg
20.811	0.514	Blank	Blank	87.567	n/a	1	1	11	n/a	11	n/a	3	n/a	n/a	n/a	n/a	50.444	n/a
21.341	0.497	angry	Picture	87.053	n/a	1	1	12	n/a	12	91	3	n/a	n/a	n/a	n/a	50.974	AF20ANS.jpg
21.839	0.514	Blank	Blank	86.54	n/a	1	1	12	n/a	12	n/a	3	n/a	n/a	n/a	n/a	51.472	n/a
22.369	0.497	angry	Picture	86.026	n/a	1	1	13	n/a	13	115	3	n/a	n/a	n/a	n/a	52.002	AM23ANS.jpg
22.867	0.514	Blank	Blank	85.512	n/a	1	1	13	n/a	13	n/a	3	n/a	n/a	n/a	n/a	52.5	n/a
23.397	0.497	angry	Picture	84.998	n/a	1	1	14	n/a	14	97	3	n/a	n/a	n/a	n/a	53.03	BF28ANS.jpg
23.895	0.514	Blank	Blank	84.484	n/a	1	1	14	n/a	14	n/a	3	n/a	n/a	n/a	n/a	53.528	n/a
24.425	0.497	angry	Picture	83.97	n/a	1	1	15	n/a	15	82	3	n/a	n/a	n/a	n/a	54.058	AF03ANS.jpg
24.922	0.514	Blank	Blank	83.456	n/a	1	1	15	n/a	15	n/a	3	n/a	n/a	n/a	n/a	54.556	n/a
25.453	0.497	angry	Picture	82.942	n/a	1	1	16	n/a	16	96	3	n/a	n/a	n/a	n/a	55.086	AF26ANS.jpg
25.95	0.514	Blank	Blank	82.428	n/a	1	1	16	n/a	16	n/a	3	n/a	n/a	n/a	n/a	55.583	n/a
26.481	0.497	angry	Picture	81.914	n/a	1	1	17	n/a	17	109	3	n/a	n/a	n/a	n/a	56.114	AM10ANS.jpg
26.978	0.514	Blank	Blank	81.4	n/a	1	1	17	n/a	17	n/a	3	n/a	n/a	n/a	n/a	56.611	n/a
27.509	0.497	angry	Picture	80.886	n/a	1	1	18	n/a	18	114	3	n/a	n/a	n/a	n/a	57.142	AM22ANS.jpg
28.006	0.514	Blank	Blank	80.372	n/a	1	1	18	n/a	18	n/a	3	n/a	n/a	n/a	n/a	57.639	n/a
28.537	0.497	angry	Picture	79.858	n/a	1	1	19	n/a	19	120	3	n/a	n/a	n/a	n/a	58.17	AM35ANS.jpg
29.034	0.514	Blank	Blank	79.344	n/a	1	1	19	n/a	19	n/a	3	n/a	n/a	n/a	n/a	58.667	n/a
29.565	0.497	angry	Picture	78.83	n/a	1	1	20	n/a	20	81	3	n/a	n/a	n/a	n/a	59.198	AF01ANS.jpg
30.062	0.514	Blank	Blank	78.316	n/a	1	1	20	n/a	20	n/a	3	n/a	n/a	n/a	n/a	59.695	n/a
30.592	10.014	ITI	Fixation+	68.286	n/a	1	n/a	n/a	n/a	n/a	n/a	n/a	n/a	n/a	n/a	n/a	60.225	n/a
40.623	0.497	neutral	Picture	67.772	n/a	1	2	1	n/a	21	28	1	n/a	n/a	n/a	n/a	70.256	AM09NES.jpg
41.12	0.514	Blank	Blank	67.258	n/a	1	2	1	n/a	21	n/a	1	n/a	n/a	n/a	n/a	70.753	n/a
41.65	0.497	neutral	Picture	66.744	n/a	1	2	2	n/a	22	27	1	n/a	n/a	n/a	n/a	71.284	BM08NES.jpg
42.148	0.514	Blank	Blank	66.231	n/a	1	2	2	n/a	22	n/a	1	n/a	n/a	n/a	n/a	71.781	n/a
42.678	0.497	neutral	Picture	65.717	n/a	1	2	3	n/a	23	16	1	n/a	n/a	n/a	n/a	72.311	AF26NES.jpg
43.176	0.514	Blank	Blank	65.203	n/a	1	2	3	n/a	23	n/a	1	n/a	n/a	n/a	n/a	72.809	n/a
43.706	0.497	neutral	Picture	64.689	n/a	1	2	4	n/a	24	3	1	n/a	n/a	n/a	n/a	73.339	BF04NES.jpg
44.204	0.514	Blank	Blank	64.175	n/a	1	2	4	n/a	24	n/a	1	n/a	n/a	n/a	n/a	73.837	n/a
44.734	0.497	neutral	Picture	63.661	n/a	1	2	5	n/a	25	32	1	n/a	n/a	n/a	n/a	74.367	AM14NES.jpg
45.231	0.514	Blank	Blank	63.147	n/a	1	2	5	n/a	25	n/a	1	n/a	n/a	n/a	n/a	74.865	n/a
45.762	0.497	neutral	Picture	62.633	n/a	1	2	6	n/a	26	37	1	n/a	n/a	n/a	n/a	75.395	BM25NES.jpg
46.259	0.514	Blank	Blank	62.119	n/a	1	2	6	n/a	26	n/a	1	n/a	n/a	n/a	n/a	75.892	n/a
46.79	0.497	neutral	Picture	61.605	n/a	1	2	7	n/a	27	15	1	n/a	n/a	n/a	n/a	76.423	AF25NES.jpg
47.287	0.514	Blank	Blank	61.091	n/a	1	2	7	n/a	27	n/a	1	n/a	n/a	n/a	n/a	76.92	n/a
47.818	0.497	neutral	Picture	60.577	n/a	1	2	8	n/a	28	23	1	n/a	n/a	n/a	n/a	77.451	AM04NES.jpg
48.315	0.514	Blank	Blank	60.063	n/a	1	2	8	n/a	28	n/a	1	n/a	n/a	n/a	n/a	77.948	n/a
48.846	0.497	neutral	Picture	59.549	n/a	1	2	9	n/a	29	34	1	n/a	n/a	n/a	n/a	78.479	AM22NES.jpg
49.343	0.514	Blank	Blank	59.035	n/a	1	2	9	n/a	29	n/a	1	n/a	n/a	n/a	n/a	78.976	n/a
49.874	0.497	neutral	Picture	58.521	n/a	1	2	10	n/a	30	24	1	n/a	n/a	n/a	n/a	79.507	BM05NES.jpg
50.371	0.514	Blank	Blank	58.007	n/a	1	2	10	n/a	30	n/a	1	n/a	n/a	n/a	n/a	80.004	n/a
50.901	0.497	neutral	Picture	57.493	n/a	1	2	11	n/a	31	12	1	n/a	n/a	n/a	n/a	80.534	AF21NES.jpg
51.399	0.514	Blank	Blank	56.98	n/a	1	2	11	n/a	31	n/a	1	n/a	n/a	n/a	n/a	81.032	n/a
51.929	0.497	neutral	Picture	56.466	n/a	1	2	12	n/a	32	6	1	n/a	n/a	n/a	n/a	81.562	AF09NES.jpg
52.427	0.514	Blank	Blank	55.952	n/a	1	2	12	n/a	32	n/a	1	n/a	n/a	n/a	n/a	82.06	n/a
52.957	0.497	neutral	Picture	55.438	n/a	1	2	13	n/a	33	17	1	n/a	n/a	n/a	n/a	82.59	BF28NES.jpg
53.454	0.514	Blank	Blank	54.924	n/a	1	2	13	n/a	33	n/a	1	n/a	n/a	n/a	n/a	83.088	n/a
53.985	0.497	neutral	Picture	54.41	n/a	1	2	14	n/a	34	2	1	n/a	n/a	n/a	n/a	83.618	AF03NES.jpg
54.482	0.514	Blank	Blank	53.896	n/a	1	2	14	n/a	34	n/a	1	n/a	n/a	n/a	n/a	84.115	n/a
55.013	0.497	neutral	Picture	53.382	n/a	1	2	15	n/a	35	9	1	n/a	n/a	n/a	n/a	84.646	AF17NES.jpg
55.51	0.514	Blank	Blank	52.868	n/a	1	2	15	n/a	35	n/a	1	n/a	n/a	n/a	n/a	85.143	n/a
56.041	0.497	neutral	Picture	52.354	n/a	1	2	16	n/a	36	25	1	n/a	n/a	n/a	n/a	85.674	BM06NES.jpg
56.538	0.514	Blank	Blank	51.84	n/a	1	2	16	n/a	36	n/a	1	n/a	n/a	n/a	n/a	86.171	n/a
57.069	0.497	neutral	Picture	51.326	n/a	1	2	17	n/a	37	8	1	n/a	n/a	n/a	n/a	86.702	AF14NES.jpg
57.566	0.514	Blank	Blank	50.812	n/a	1	2	17	n/a	37	n/a	1	n/a	n/a	n/a	n/a	87.199	n/a
58.097	0.497	neutral	Picture	50.298	n/a	1	2	18	n/a	38	19	1	n/a	n/a	n/a	n/a	87.73	AF31NES.jpg
58.594	0.514	Blank	Blank	49.784	n/a	1	2	18	n/a	38	n/a	1	n/a	n/a	n/a	n/a	88.227	n/a
59.124	0.497	neutral	Picture	49.27	n/a	1	2	19	n/a	39	14	1	n/a	n/a	n/a	n/a	88.758	AF23NES.jpg
59.622	0.514	Blank	Blank	48.756	n/a	1	2	19	n/a	39	n/a	1	n/a	n/a	n/a	n/a	89.255	n/a
60.152	0.497	neutral	Picture	48.242	n/a	1	2	20	n/a	40	4	1	n/a	n/a	n/a	n/a	89.785	AF05NES.jpg
60.65	0.514	Blank	Blank	47.729	n/a	1	2	20	n/a	40	n/a	1	n/a	n/a	n/a	n/a	90.283	n/a
61.18	10.014	ITI	Fixation+	37.698	n/a	1	n/a	n/a	n/a	n/a	n/a	n/a	n/a	n/a	n/a	n/a	90.813	n/a
71.21	0.497	angry	Picture	37.184	n/a	1	3	1	n/a	41	84	3	n/a	n/a	n/a	n/a	100.844	AF05ANS.jpg
71.708	0.514	Blank	Blank	36.67	n/a	1	3	1	n/a	41	n/a	3	n/a	n/a	n/a	n/a	101.341	n/a
72.238	0.497	angry	Picture	36.157	n/a	1	3	2	n/a	42	92	3	n/a	n/a	n/a	n/a	101.871	AF21ANS.jpg
72.736	0.514	Blank	Blank	35.643	n/a	1	3	2	n/a	42	n/a	3	n/a	n/a	n/a	n/a	102.369	n/a
73.266	0.497	angry	Picture	35.129	n/a	1	3	3	n/a	43	86	3	n/a	n/a	n/a	n/a	102.899	AF09ANS.jpg
73.764	0.514	Blank	Blank	34.615	n/a	1	3	3	n/a	43	n/a	3	n/a	n/a	n/a	n/a	103.397	n/a
74.294	0.497	angry	Picture	34.101	n/a	1	3	4	n/a	44	93	3	n/a	n/a	n/a	n/a	103.927	BF22ANS.jpg
74.791	0.514	Blank	Blank	33.587	n/a	1	3	4	n/a	44	n/a	3	n/a	n/a	n/a	n/a	104.425	n/a
75.322	0.497	angry	Picture	33.073	n/a	1	3	5	n/a	45	88	3	n/a	n/a	n/a	n/a	104.955	AF14ANS.jpg
75.819	0.514	Blank	Blank	32.559	n/a	1	3	5	n/a	45	n/a	3	n/a	n/a	n/a	n/a	105.453	n/a
76.35	0.497	angry	Picture	32.045	n/a	1	3	6	n/a	46	113	3	n/a	n/a	n/a	n/a	105.983	AM21ANS.jpg
76.847	0.514	Blank	Blank	31.531	n/a	1	3	6	n/a	46	n/a	3	n/a	n/a	n/a	n/a	106.48	n/a
77.378	0.497	angry	Picture	31.017	n/a	1	3	7	n/a	47	95	3	n/a	n/a	n/a	n/a	107.011	AF25ANS.jpg
77.875	0.514	Blank	Blank	30.503	n/a	1	3	7	n/a	47	n/a	3	n/a	n/a	n/a	n/a	107.508	n/a
78.406	0.497	angry	Picture	29.989	n/a	1	3	8	n/a	48	102	3	n/a	n/a	n/a	n/a	108.039	BM03ANS.jpg
78.903	0.514	Blank	Blank	29.475	n/a	1	3	8	n/a	48	n/a	3	n/a	n/a	n/a	n/a	108.536	n/a
79.433	0.497	angry	Picture	28.961	n/a	1	3	9	n/a	49	112	3	n/a	n/a	n/a	n/a	109.067	AM14ANS.jpg
79.931	0.514	Blank	Blank	28.447	n/a	1	3	9	n/a	49	n/a	3	n/a	n/a	n/a	n/a	109.564	n/a
80.461	0.497	angry	Picture	27.933	n/a	1	3	10	n/a	50	83	3	n/a	n/a	n/a	n/a	110.094	BF04ANS.jpg
80.959	0.514	Blank	Blank	27.42	n/a	1	3	10	n/a	50	n/a	3	n/a	n/a	n/a	n/a	110.592	n/a
81.489	0.497	angry	Picture	26.906	n/a	1	3	11	n/a	51	90	3	n/a	n/a	n/a	n/a	111.122	AF18ANS.jpg
81.987	0.514	Blank	Blank	26.392	n/a	1	3	11	n/a	51	n/a	3	n/a	n/a	n/a	n/a	111.62	n/a
82.517	0.497	angry	Picture	25.878	n/a	1	3	12	n/a	52	117	3	n/a	n/a	n/a	n/a	112.15	BM25ANS.jpg
83.015	0.514	Blank	Blank	25.364	n/a	1	3	12	n/a	52	n/a	3	n/a	n/a	n/a	n/a	112.648	n/a
83.545	0.497	angry	Picture	24.85	n/a	1	3	13	n/a	53	94	3	n/a	n/a	n/a	n/a	113.178	AF23ANS.jpg
84.043	0.514	Blank	Blank	24.336	n/a	1	3	13	n/a	53	n/a	3	n/a	n/a	n/a	n/a	113.676	n/a
84.573	0.497	angry	Picture	23.822	n/a	1	3	14	n/a	54	106	3	n/a	n/a	n/a	n/a	114.206	AM07ANS.jpg
85.07	0.514	Blank	Blank	23.308	n/a	1	3	14	n/a	54	n/a	3	n/a	n/a	n/a	n/a	114.703	n/a
85.601	0.497	angry	Picture	22.794	n/a	1	3	15	n/a	55	105	3	n/a	n/a	n/a	n/a	115.234	BM06ANS.jpg
86.098	0.514	Blank	Blank	22.28	n/a	1	3	15	n/a	55	n/a	3	n/a	n/a	n/a	n/a	115.731	n/a
86.629	0.497	angry	Picture	21.766	n/a	1	3	16	n/a	56	116	3	n/a	n/a	n/a	n/a	116.262	BM24ANS.jpg
87.126	0.514	Blank	Blank	21.252	n/a	1	3	16	n/a	56	n/a	3	n/a	n/a	n/a	n/a	116.759	n/a
87.657	0.497	angry	Picture	20.738	n/a	1	3	17	n/a	57	89	3	n/a	n/a	n/a	n/a	117.29	AF17ANS.jpg
88.154	0.514	Blank	Blank	20.224	n/a	1	3	17	n/a	57	n/a	3	n/a	n/a	n/a	n/a	117.787	n/a
88.684	0.497	angry	Picture	19.71	n/a	1	3	18	n/a	58	118	3	n/a	n/a	n/a	n/a	118.318	BM26ANS.jpg
89.182	0.514	Blank	Blank	19.196	n/a	1	3	18	n/a	58	n/a	3	n/a	n/a	n/a	n/a	118.815	n/a
89.712	0.497	angry	Picture	18.682	n/a	1	3	19	n/a	59	100	3	n/a	n/a	n/a	n/a	119.346	AF32ANS.jpg
90.21	0.514	Blank	Blank	18.169	n/a	1	3	19	n/a	59	n/a	3	n/a	n/a	n/a	n/a	119.843	n/a
90.74	0.497	angry	Picture	17.655	n/a	1	3	20	n/a	60	119	3	n/a	n/a	n/a	n/a	120.373	BM28ANS.jpg
91.238	0.514	Blank	Blank	17.141	n/a	1	3	20	n/a	60	n/a	3	n/a	n/a	n/a	n/a	120.871	n/a
91.768	10.014	ITI	Fixation+	7.11	n/a	1	n/a	n/a	n/a	n/a	n/a	n/a	n/a	n/a	n/a	n/a	121.401	n/a
108.892	n/a	ConfirmRating	Rate	n/a	7.096	1	n/a	n/a	0	n/a	n/a	n/a	2	Angry	19	49	138.525	n/a
117.68	n/a	ConfirmRating	Rate	n/a	8.771	1	n/a	n/a	1	n/a	n/a	n/a	3	Angry	0	47	147.313	n/a
117.697	10.014	ITI	Fixation+	109.107	n/a	2	n/a	n/a	n/a	n/a	n/a	n/a	n/a	n/a	n/a	n/a	147.331	n/a
127.728	0.497	happy	Picture	108.593	n/a	2	4	1	n/a	61	79	2	n/a	n/a	n/a	n/a	157.361	BM28HAS.jpg
128.225	0.514	Blank	Blank	108.079	n/a	2	4	1	n/a	61	n/a	2	n/a	n/a	n/a	n/a	157.858	n/a
128.755	0.497	happy	Picture	107.566	n/a	2	4	2	n/a	62	61	2	n/a	n/a	n/a	n/a	158.389	AM01HAS.jpg
129.253	0.514	Blank	Blank	107.052	n/a	2	4	2	n/a	62	n/a	2	n/a	n/a	n/a	n/a	158.886	n/a
129.783	0.497	happy	Picture	106.538	n/a	2	4	3	n/a	63	57	2	n/a	n/a	n/a	n/a	159.417	BF28HAS.jpg
130.281	0.514	Blank	Blank	106.024	n/a	2	4	3	n/a	63	n/a	2	n/a	n/a	n/a	n/a	159.914	n/a
130.811	0.497	happy	Picture	105.51	n/a	2	4	4	n/a	64	77	2	n/a	n/a	n/a	n/a	160.444	BM25HAS.jpg
131.309	0.514	Blank	Blank	104.996	n/a	2	4	4	n/a	64	n/a	2	n/a	n/a	n/a	n/a	160.942	n/a
131.839	0.497	happy	Picture	104.482	n/a	2	4	5	n/a	65	47	2	n/a	n/a	n/a	n/a	161.472	BF11HAS.jpg
132.337	0.514	Blank	Blank	103.968	n/a	2	4	5	n/a	65	n/a	2	n/a	n/a	n/a	n/a	161.97	n/a
132.867	0.497	happy	Picture	103.454	n/a	2	4	6	n/a	66	50	2	n/a	n/a	n/a	n/a	162.5	AF18HAS.jpg
133.364	0.514	Blank	Blank	102.94	n/a	2	4	6	n/a	66	n/a	2	n/a	n/a	n/a	n/a	162.998	n/a
133.895	0.497	happy	Picture	102.426	n/a	2	4	7	n/a	67	78	2	n/a	n/a	n/a	n/a	163.528	BM26HAS.jpg
134.392	0.514	Blank	Blank	101.912	n/a	2	4	7	n/a	67	n/a	2	n/a	n/a	n/a	n/a	164.025	n/a
134.923	0.497	happy	Picture	101.398	n/a	2	4	8	n/a	68	45	2	n/a	n/a	n/a	n/a	164.556	BF07HAS.jpg
135.42	0.514	Blank	Blank	100.884	n/a	2	4	8	n/a	68	n/a	2	n/a	n/a	n/a	n/a	165.053	n/a
135.951	0.497	happy	Picture	100.37	n/a	2	4	9	n/a	69	56	2	n/a	n/a	n/a	n/a	165.584	AF26HAS.jpg
136.448	0.514	Blank	Blank	99.856	n/a	2	4	9	n/a	69	n/a	2	n/a	n/a	n/a	n/a	166.081	n/a
136.979	0.497	happy	Picture	99.342	n/a	2	4	10	n/a	70	65	2	n/a	n/a	n/a	n/a	166.612	BM06HAS.jpg
137.476	0.514	Blank	Blank	98.828	n/a	2	4	10	n/a	70	n/a	2	n/a	n/a	n/a	n/a	167.109	n/a
138.007	0.497	happy	Picture	98.315	n/a	2	4	11	n/a	71	73	2	n/a	n/a	n/a	n/a	167.64	AM21HAS.jpg
138.504	0.514	Blank	Blank	97.801	n/a	2	4	11	n/a	71	n/a	2	n/a	n/a	n/a	n/a	168.137	n/a
139.034	0.497	happy	Picture	97.287	n/a	2	4	12	n/a	72	41	2	n/a	n/a	n/a	n/a	168.667	AF01HAS.jpg
139.532	0.514	Blank	Blank	96.773	n/a	2	4	12	n/a	72	n/a	2	n/a	n/a	n/a	n/a	169.165	n/a
140.062	0.497	happy	Picture	96.259	n/a	2	4	13	n/a	73	59	2	n/a	n/a	n/a	n/a	169.695	AF31HAS.jpg
140.56	0.514	Blank	Blank	95.745	n/a	2	4	13	n/a	73	n/a	2	n/a	n/a	n/a	n/a	170.193	n/a
141.09	0.497	happy	Picture	95.231	n/a	2	4	14	n/a	74	64	2	n/a	n/a	n/a	n/a	170.723	BM05HAS.jpg
141.587	0.514	Blank	Blank	94.717	n/a	2	4	14	n/a	74	n/a	2	n/a	n/a	n/a	n/a	171.221	n/a
142.118	0.497	happy	Picture	94.203	n/a	2	4	15	n/a	75	68	2	n/a	n/a	n/a	n/a	171.751	AM09HAS.jpg
142.615	0.514	Blank	Blank	93.689	n/a	2	4	15	n/a	75	n/a	2	n/a	n/a	n/a	n/a	172.249	n/a
143.146	0.497	happy	Picture	93.175	n/a	2	4	16	n/a	76	54	2	n/a	n/a	n/a	n/a	172.779	AF23HAS.jpg
143.643	0.514	Blank	Blank	92.661	n/a	2	4	16	n/a	76	n/a	2	n/a	n/a	n/a	n/a	173.276	n/a
144.174	0.497	happy	Picture	92.147	n/a	2	4	17	n/a	77	53	2	n/a	n/a	n/a	n/a	173.807	BF22HAS.jpg
144.671	0.514	Blank	Blank	91.633	n/a	2	4	17	n/a	77	n/a	2	n/a	n/a	n/a	n/a	174.304	n/a
145.202	0.497	happy	Picture	91.119	n/a	2	4	18	n/a	78	44	2	n/a	n/a	n/a	n/a	174.835	AF05HAS.jpg
145.699	0.514	Blank	Blank	90.605	n/a	2	4	18	n/a	78	n/a	2	n/a	n/a	n/a	n/a	175.332	n/a
146.23	0.497	happy	Picture	90.091	n/a	2	4	19	n/a	79	52	2	n/a	n/a	n/a	n/a	175.863	AF21HAS.jpg
146.727	0.514	Blank	Blank	89.577	n/a	2	4	19	n/a	79	n/a	2	n/a	n/a	n/a	n/a	176.36	n/a
147.257	0.497	happy	Picture	89.064	n/a	2	4	20	n/a	80	62	2	n/a	n/a	n/a	n/a	176.891	BM03HAS.jpg
147.755	0.514	Blank	Blank	88.55	n/a	2	4	20	n/a	80	n/a	2	n/a	n/a	n/a	n/a	177.388	n/a
148.285	10.014	ITI	Fixation+	78.519	n/a	2	n/a	n/a	n/a	n/a	n/a	n/a	n/a	n/a	n/a	n/a	177.918	n/a
158.315	0.497	neutral	Picture	78.006	n/a	2	5	1	n/a	81	23	1	n/a	n/a	n/a	n/a	187.949	AM04NES.jpg
158.813	0.514	Blank	Blank	77.492	n/a	2	5	1	n/a	81	n/a	1	n/a	n/a	n/a	n/a	188.446	n/a
159.343	0.497	neutral	Picture	76.978	n/a	2	5	2	n/a	82	29	1	n/a	n/a	n/a	n/a	188.976	AM10NES.jpg
159.841	0.514	Blank	Blank	76.464	n/a	2	5	2	n/a	82	n/a	1	n/a	n/a	n/a	n/a	189.474	n/a
160.371	0.497	neutral	Picture	75.95	n/a	2	5	3	n/a	83	24	1	n/a	n/a	n/a	n/a	190.004	BM05NES.jpg
160.869	0.514	Blank	Blank	75.436	n/a	2	5	3	n/a	83	n/a	1	n/a	n/a	n/a	n/a	190.502	n/a
161.399	0.497	neutral	Picture	74.922	n/a	2	5	4	n/a	84	12	1	n/a	n/a	n/a	n/a	191.032	AF21NES.jpg
161.897	0.514	Blank	Blank	74.408	n/a	2	5	4	n/a	84	n/a	1	n/a	n/a	n/a	n/a	191.53	n/a
162.427	0.497	neutral	Picture	73.894	n/a	2	5	5	n/a	85	13	1	n/a	n/a	n/a	n/a	192.06	BF22NES.jpg
162.924	0.514	Blank	Blank	73.38	n/a	2	5	5	n/a	85	n/a	1	n/a	n/a	n/a	n/a	192.558	n/a
163.455	0.497	neutral	Picture	72.866	n/a	2	5	6	n/a	86	17	1	n/a	n/a	n/a	n/a	193.088	BF28NES.jpg
163.952	0.514	Blank	Blank	72.352	n/a	2	5	6	n/a	86	n/a	1	n/a	n/a	n/a	n/a	193.585	n/a
164.483	0.497	neutral	Picture	71.838	n/a	2	5	7	n/a	87	4	1	n/a	n/a	n/a	n/a	194.116	AF05NES.jpg
164.98	0.514	Blank	Blank	71.324	n/a	2	5	7	n/a	87	n/a	1	n/a	n/a	n/a	n/a	194.613	n/a
165.511	0.497	neutral	Picture	70.81	n/a	2	5	8	n/a	88	11	1	n/a	n/a	n/a	n/a	195.144	AF20NES.jpg
166.008	0.514	Blank	Blank	70.296	n/a	2	5	8	n/a	88	n/a	1	n/a	n/a	n/a	n/a	195.641	n/a
166.539	0.497	neutral	Picture	69.782	n/a	2	5	9	n/a	89	22	1	n/a	n/a	n/a	n/a	196.172	BM03NES.jpg
167.036	0.514	Blank	Blank	69.268	n/a	2	5	9	n/a	89	n/a	1	n/a	n/a	n/a	n/a	196.669	n/a
167.567	0.497	neutral	Picture	68.754	n/a	2	5	10	n/a	90	15	1	n/a	n/a	n/a	n/a	197.2	AF25NES.jpg
168.064	0.514	Blank	Blank	68.241	n/a	2	5	10	n/a	90	n/a	1	n/a	n/a	n/a	n/a	197.697	n/a
168.594	0.497	neutral	Picture	67.727	n/a	2	5	11	n/a	91	19	1	n/a	n/a	n/a	n/a	198.227	AF31NES.jpg
169.092	0.514	Blank	Blank	67.213	n/a	2	5	11	n/a	91	n/a	1	n/a	n/a	n/a	n/a	198.725	n/a
169.622	0.497	neutral	Picture	66.699	n/a	2	5	12	n/a	92	9	1	n/a	n/a	n/a	n/a	199.255	AF17NES.jpg
170.12	0.514	Blank	Blank	66.185	n/a	2	5	12	n/a	92	n/a	1	n/a	n/a	n/a	n/a	199.753	n/a
170.65	0.497	neutral	Picture	65.671	n/a	2	5	13	n/a	93	14	1	n/a	n/a	n/a	n/a	200.283	AF23NES.jpg
171.147	0.514	Blank	Blank	65.157	n/a	2	5	13	n/a	93	n/a	1	n/a	n/a	n/a	n/a	200.781	n/a
171.678	0.497	neutral	Picture	64.643	n/a	2	5	14	n/a	94	36	1	n/a	n/a	n/a	n/a	201.311	BM24NES.jpg
172.175	0.514	Blank	Blank	64.129	n/a	2	5	14	n/a	94	n/a	1	n/a	n/a	n/a	n/a	201.809	n/a
172.706	0.497	neutral	Picture	63.615	n/a	2	5	15	n/a	95	34	1	n/a	n/a	n/a	n/a	202.339	AM22NES.jpg
173.203	0.514	Blank	Blank	63.101	n/a	2	5	15	n/a	95	n/a	1	n/a	n/a	n/a	n/a	202.836	n/a
173.734	0.497	neutral	Picture	62.587	n/a	2	5	16	n/a	96	10	1	n/a	n/a	n/a	n/a	203.367	AF18NES.jpg
174.231	0.514	Blank	Blank	62.073	n/a	2	5	16	n/a	96	n/a	1	n/a	n/a	n/a	n/a	203.864	n/a
174.762	0.497	neutral	Picture	61.559	n/a	2	5	17	n/a	97	5	1	n/a	n/a	n/a	n/a	204.395	BF07NES.jpg
175.259	0.514	Blank	Blank	61.045	n/a	2	5	17	n/a	97	n/a	1	n/a	n/a	n/a	n/a	204.892	n/a
175.79	0.497	neutral	Picture	60.531	n/a	2	5	18	n/a	98	25	1	n/a	n/a	n/a	n/a	205.423	BM06NES.jpg
176.287	0.514	Blank	Blank	60.017	n/a	2	5	18	n/a	98	n/a	1	n/a	n/a	n/a	n/a	205.92	n/a
176.817	0.497	neutral	Picture	59.504	n/a	2	5	19	n/a	99	39	1	n/a	n/a	n/a	n/a	206.451	AM28NES.jpg
177.315	0.514	Blank	Blank	58.99	n/a	2	5	19	n/a	99	n/a	1	n/a	n/a	n/a	n/a	206.948	n/a
177.845	0.497	neutral	Picture	58.476	n/a	2	5	20	n/a	100	33	1	n/a	n/a	n/a	n/a	207.478	AM21NES.jpg
178.343	0.514	Blank	Blank	57.962	n/a	2	5	20	n/a	100	n/a	1	n/a	n/a	n/a	n/a	207.976	n/a
178.873	10.014	ITI	Fixation+	47.932	n/a	2	n/a	n/a	n/a	n/a	n/a	n/a	n/a	n/a	n/a	n/a	208.506	n/a
188.903	0.497	happy	Picture	47.418	n/a	2	6	1	n/a	101	74	2	n/a	n/a	n/a	n/a	218.536	AM22HAS.jpg
189.401	0.514	Blank	Blank	46.904	n/a	2	6	1	n/a	101	n/a	2	n/a	n/a	n/a	n/a	219.034	n/a
189.931	0.497	happy	Picture	46.39	n/a	2	6	2	n/a	102	76	2	n/a	n/a	n/a	n/a	219.564	BM24HAS.jpg
190.429	0.514	Blank	Blank	45.876	n/a	2	6	2	n/a	102	n/a	2	n/a	n/a	n/a	n/a	220.062	n/a
190.959	0.497	happy	Picture	45.362	n/a	2	6	3	n/a	103	80	2	n/a	n/a	n/a	n/a	220.592	BM35HAS.jpg
191.457	0.514	Blank	Blank	44.848	n/a	2	6	3	n/a	103	n/a	2	n/a	n/a	n/a	n/a	221.09	n/a
191.987	0.497	happy	Picture	44.334	n/a	2	6	4	n/a	104	75	2	n/a	n/a	n/a	n/a	221.62	AM23HAS.jpg
192.484	0.514	Blank	Blank	43.82	n/a	2	6	4	n/a	104	n/a	2	n/a	n/a	n/a	n/a	222.118	n/a
193.015	0.497	happy	Picture	43.306	n/a	2	6	5	n/a	105	49	2	n/a	n/a	n/a	n/a	222.648	AF17HAS.jpg
193.512	0.514	Blank	Blank	42.792	n/a	2	6	5	n/a	105	n/a	2	n/a	n/a	n/a	n/a	223.145	n/a
194.043	0.497	happy	Picture	42.278	n/a	2	6	6	n/a	106	43	2	n/a	n/a	n/a	n/a	223.676	BF04HAS.jpg
194.54	0.514	Blank	Blank	41.764	n/a	2	6	6	n/a	106	n/a	2	n/a	n/a	n/a	n/a	224.173	n/a
195.071	0.497	happy	Picture	41.25	n/a	2	6	7	n/a	107	70	2	n/a	n/a	n/a	n/a	224.704	BM11HAS.jpg
195.568	0.514	Blank	Blank	40.736	n/a	2	6	7	n/a	107	n/a	2	n/a	n/a	n/a	n/a	225.201	n/a
196.099	0.497	happy	Picture	40.222	n/a	2	6	8	n/a	108	66	2	n/a	n/a	n/a	n/a	225.732	BM07HAS.jpg
196.596	0.514	Blank	Blank	39.708	n/a	2	6	8	n/a	108	n/a	2	n/a	n/a	n/a	n/a	226.229	n/a
197.127	0.497	happy	Picture	39.194	n/a	2	6	9	n/a	109	48	2	n/a	n/a	n/a	n/a	226.76	AF14HAS.jpg
197.624	0.514	Blank	Blank	38.681	n/a	2	6	9	n/a	109	n/a	2	n/a	n/a	n/a	n/a	227.257	n/a
198.154	0.497	happy	Picture	38.167	n/a	2	6	10	n/a	110	58	2	n/a	n/a	n/a	n/a	227.787	BF29HAS.jpg
198.652	0.514	Blank	Blank	37.653	n/a	2	6	10	n/a	110	n/a	2	n/a	n/a	n/a	n/a	228.285	n/a
199.182	0.497	happy	Picture	37.139	n/a	2	6	11	n/a	111	63	2	n/a	n/a	n/a	n/a	228.815	AM04HAS.jpg
199.68	0.514	Blank	Blank	36.625	n/a	2	6	11	n/a	111	n/a	2	n/a	n/a	n/a	n/a	229.313	n/a
200.21	0.497	happy	Picture	36.111	n/a	2	6	12	n/a	112	72	2	n/a	n/a	n/a	n/a	229.843	AM14HAS.jpg
200.707	0.514	Blank	Blank	35.597	n/a	2	6	12	n/a	112	n/a	2	n/a	n/a	n/a	n/a	230.341	n/a
201.238	0.497	happy	Picture	35.083	n/a	2	6	13	n/a	113	55	2	n/a	n/a	n/a	n/a	230.871	AF25HAS.jpg
201.735	0.514	Blank	Blank	34.569	n/a	2	6	13	n/a	113	n/a	2	n/a	n/a	n/a	n/a	231.369	n/a
202.266	0.497	happy	Picture	34.055	n/a	2	6	14	n/a	114	42	2	n/a	n/a	n/a	n/a	231.899	AF03HAS.jpg
202.763	0.514	Blank	Blank	33.541	n/a	2	6	14	n/a	114	n/a	2	n/a	n/a	n/a	n/a	232.396	n/a
203.294	0.497	happy	Picture	33.027	n/a	2	6	15	n/a	115	60	2	n/a	n/a	n/a	n/a	232.927	AF32HAS.jpg
203.791	0.514	Blank	Blank	32.513	n/a	2	6	15	n/a	115	n/a	2	n/a	n/a	n/a	n/a	233.424	n/a
204.322	0.497	happy	Picture	31.999	n/a	2	6	16	n/a	116	67	2	n/a	n/a	n/a	n/a	233.955	BM08HAS.jpg
204.819	0.514	Blank	Blank	31.485	n/a	2	6	16	n/a	116	n/a	2	n/a	n/a	n/a	n/a	234.452	n/a
205.35	0.497	happy	Picture	30.971	n/a	2	6	17	n/a	117	51	2	n/a	n/a	n/a	n/a	234.983	AF20HAS.jpg
205.847	0.514	Blank	Blank	30.458	n/a	2	6	17	n/a	117	n/a	2	n/a	n/a	n/a	n/a	235.48	n/a
206.377	0.497	happy	Picture	29.944	n/a	2	6	18	n/a	118	71	2	n/a	n/a	n/a	n/a	236.011	BM12HAS.jpg
206.875	0.514	Blank	Blank	29.43	n/a	2	6	18	n/a	118	n/a	2	n/a	n/a	n/a	n/a	236.508	n/a
207.405	0.497	happy	Picture	28.916	n/a	2	6	19	n/a	119	69	2	n/a	n/a	n/a	n/a	237.038	AM10HAS.jpg
207.903	0.514	Blank	Blank	28.402	n/a	2	6	19	n/a	119	n/a	2	n/a	n/a	n/a	n/a	237.536	n/a
208.433	0.497	happy	Picture	27.888	n/a	2	6	20	n/a	120	46	2	n/a	n/a	n/a	n/a	238.066	AF09HAS.jpg
208.931	0.514	Blank	Blank	27.374	n/a	2	6	20	n/a	120	n/a	2	n/a	n/a	n/a	n/a	238.564	n/a
209.461	10.014	ITI	Fixation+	17.344	n/a	2	n/a	n/a	n/a	n/a	n/a	n/a	n/a	n/a	n/a	n/a	239.094	n/a
236.818	n/a	ConfirmRating	Rate	n/a	17.341	2	n/a	n/a	0	n/a	n/a	n/a	2	Happy	50	50	266.452	n/a
243.998	n/a	ConfirmRating	Rate	n/a	7.162	2	n/a	n/a	1	n/a	n/a	n/a	3	Happy	5	47	273.631	n/a
244.028	15.004	Rest	Picture	n/a	n/a	n/a	n/a	n/a	n/a	n/a	n/a	n/a	0	n/a	0	0	273.661	n/a
259.048	10.014	ITI	Fixation+	98.302	n/a	3	n/a	n/a	n/a	n/a	n/a	n/a	n/a	n/a	n/a	n/a	288.682	n/a
269.078	0.497	angry	Picture	97.789	n/a	3	7	1	n/a	1	108	3	n/a	n/a	n/a	n/a	298.712	AM09ANS.jpg
269.576	0.514	Blank	Blank	97.275	n/a	3	7	1	n/a	1	n/a	3	n/a	n/a	n/a	n/a	299.209	n/a
270.106	0.497	angry	Picture	96.761	n/a	3	7	2	n/a	2	99	3	n/a	n/a	n/a	n/a	299.74	AF31ANS.jpg
270.604	0.514	Blank	Blank	96.247	n/a	3	7	2	n/a	2	n/a	3	n/a	n/a	n/a	n/a	300.237	n/a
271.134	0.497	angry	Picture	95.733	n/a	3	7	3	n/a	3	98	3	n/a	n/a	n/a	n/a	300.767	BF29ANS.jpg
271.632	0.514	Blank	Blank	95.219	n/a	3	7	3	n/a	3	n/a	3	n/a	n/a	n/a	n/a	301.265	n/a
272.162	0.497	angry	Picture	94.705	n/a	3	7	4	n/a	4	107	3	n/a	n/a	n/a	n/a	301.795	BM08ANS.jpg
272.66	0.514	Blank	Blank	94.191	n/a	3	7	4	n/a	4	n/a	3	n/a	n/a	n/a	n/a	302.293	n/a
273.19	0.497	angry	Picture	93.677	n/a	3	7	5	n/a	5	104	3	n/a	n/a	n/a	n/a	302.823	BM05ANS.jpg
273.687	0.514	Blank	Blank	93.163	n/a	3	7	5	n/a	5	n/a	3	n/a	n/a	n/a	n/a	303.32	n/a
274.218	0.497	angry	Picture	92.649	n/a	3	7	6	n/a	6	101	3	n/a	n/a	n/a	n/a	303.851	AM01ANS.jpg
274.715	0.514	Blank	Blank	92.135	n/a	3	7	6	n/a	6	n/a	3	n/a	n/a	n/a	n/a	304.348	n/a
275.246	0.497	angry	Picture	91.621	n/a	3	7	7	n/a	7	103	3	n/a	n/a	n/a	n/a	304.879	AM04ANS.jpg
275.743	0.514	Blank	Blank	91.107	n/a	3	7	7	n/a	7	n/a	3	n/a	n/a	n/a	n/a	305.376	n/a
276.274	0.497	angry	Picture	90.593	n/a	3	7	8	n/a	8	111	3	n/a	n/a	n/a	n/a	305.907	BM12ANS.jpg
276.771	0.514	Blank	Blank	90.079	n/a	3	7	8	n/a	8	n/a	3	n/a	n/a	n/a	n/a	306.404	n/a
277.302	0.497	angry	Picture	89.565	n/a	3	7	9	n/a	9	110	3	n/a	n/a	n/a	n/a	306.935	AM11ANS.jpg
277.799	0.514	Blank	Blank	89.052	n/a	3	7	9	n/a	9	n/a	3	n/a	n/a	n/a	n/a	307.432	n/a
278.329	0.497	angry	Picture	88.538	n/a	3	7	10	n/a	10	85	3	n/a	n/a	n/a	n/a	307.963	BF07ANS.jpg
278.827	0.514	Blank	Blank	88.024	n/a	3	7	10	n/a	10	n/a	3	n/a	n/a	n/a	n/a	308.46	n/a
279.357	0.497	angry	Picture	87.51	n/a	3	7	11	n/a	11	87	3	n/a	n/a	n/a	n/a	308.99	BF11ANS.jpg
279.855	0.514	Blank	Blank	86.996	n/a	3	7	11	n/a	11	n/a	3	n/a	n/a	n/a	n/a	309.488	n/a
280.385	0.497	angry	Picture	86.482	n/a	3	7	12	n/a	12	91	3	n/a	n/a	n/a	n/a	310.018	AF20ANS.jpg
280.883	0.514	Blank	Blank	85.968	n/a	3	7	12	n/a	12	n/a	3	n/a	n/a	n/a	n/a	310.516	n/a
281.413	0.497	angry	Picture	85.454	n/a	3	7	13	n/a	13	115	3	n/a	n/a	n/a	n/a	311.046	AM23ANS.jpg
281.911	0.514	Blank	Blank	84.94	n/a	3	7	13	n/a	13	n/a	3	n/a	n/a	n/a	n/a	311.544	n/a
282.441	0.497	angry	Picture	84.426	n/a	3	7	14	n/a	14	97	3	n/a	n/a	n/a	n/a	312.074	BF28ANS.jpg
282.938	0.514	Blank	Blank	83.912	n/a	3	7	14	n/a	14	n/a	3	n/a	n/a	n/a	n/a	312.572	n/a
283.469	0.497	angry	Picture	83.398	n/a	3	7	15	n/a	15	82	3	n/a	n/a	n/a	n/a	313.102	AF03ANS.jpg
283.966	0.514	Blank	Blank	82.884	n/a	3	7	15	n/a	15	n/a	3	n/a	n/a	n/a	n/a	313.599	n/a
284.497	0.497	angry	Picture	82.37	n/a	3	7	16	n/a	16	96	3	n/a	n/a	n/a	n/a	314.13	AF26ANS.jpg
284.994	0.514	Blank	Blank	81.856	n/a	3	7	16	n/a	16	n/a	3	n/a	n/a	n/a	n/a	314.627	n/a
285.525	0.497	angry	Picture	81.342	n/a	3	7	17	n/a	17	109	3	n/a	n/a	n/a	n/a	315.158	AM10ANS.jpg
286.022	0.514	Blank	Blank	80.829	n/a	3	7	17	n/a	17	n/a	3	n/a	n/a	n/a	n/a	315.655	n/a
286.553	0.497	angry	Picture	80.314	n/a	3	7	18	n/a	18	114	3	n/a	n/a	n/a	n/a	316.186	AM22ANS.jpg
287.05	0.514	Blank	Blank	79.801	n/a	3	7	18	n/a	18	n/a	3	n/a	n/a	n/a	n/a	316.683	n/a
287.58	0.497	angry	Picture	79.287	n/a	3	7	19	n/a	19	120	3	n/a	n/a	n/a	n/a	317.214	AM35ANS.jpg
288.078	0.514	Blank	Blank	78.773	n/a	3	7	19	n/a	19	n/a	3	n/a	n/a	n/a	n/a	317.711	n/a
288.608	0.497	angry	Picture	78.259	n/a	3	7	20	n/a	20	81	3	n/a	n/a	n/a	n/a	318.241	AF01ANS.jpg
289.106	0.514	Blank	Blank	77.745	n/a	3	7	20	n/a	20	n/a	3	n/a	n/a	n/a	n/a	318.739	n/a
289.636	10.014	ITI	Fixation+	67.715	n/a	3	n/a	n/a	n/a	n/a	n/a	n/a	n/a	n/a	n/a	n/a	319.269	n/a
299.666	0.497	neutral	Picture	67.201	n/a	3	8	1	n/a	21	28	1	n/a	n/a	n/a	n/a	329.3	AM09NES.jpg
300.164	0.514	Blank	Blank	66.687	n/a	3	8	1	n/a	21	n/a	1	n/a	n/a	n/a	n/a	329.797	n/a
300.694	0.497	neutral	Picture	66.173	n/a	3	8	2	n/a	22	27	1	n/a	n/a	n/a	n/a	330.327	BM08NES.jpg
301.192	0.514	Blank	Blank	65.659	n/a	3	8	2	n/a	22	n/a	1	n/a	n/a	n/a	n/a	330.825	n/a
301.722	0.497	neutral	Picture	65.145	n/a	3	8	3	n/a	23	16	1	n/a	n/a	n/a	n/a	331.355	AF26NES.jpg
302.22	0.514	Blank	Blank	64.631	n/a	3	8	3	n/a	23	n/a	1	n/a	n/a	n/a	n/a	331.853	n/a
302.75	0.497	neutral	Picture	64.117	n/a	3	8	4	n/a	24	3	1	n/a	n/a	n/a	n/a	332.383	BF04NES.jpg
303.248	0.514	Blank	Blank	63.603	n/a	3	8	4	n/a	24	n/a	1	n/a	n/a	n/a	n/a	332.881	n/a
303.778	0.497	neutral	Picture	63.089	n/a	3	8	5	n/a	25	32	1	n/a	n/a	n/a	n/a	333.411	AM14NES.jpg
304.275	0.514	Blank	Blank	62.575	n/a	3	8	5	n/a	25	n/a	1	n/a	n/a	n/a	n/a	333.909	n/a
304.806	0.497	neutral	Picture	62.061	n/a	3	8	6	n/a	26	37	1	n/a	n/a	n/a	n/a	334.439	BM25NES.jpg
305.303	0.514	Blank	Blank	61.547	n/a	3	8	6	n/a	26	n/a	1	n/a	n/a	n/a	n/a	334.936	n/a
305.834	0.497	neutral	Picture	61.033	n/a	3	8	7	n/a	27	15	1	n/a	n/a	n/a	n/a	335.467	AF25NES.jpg
306.331	0.514	Blank	Blank	60.519	n/a	3	8	7	n/a	27	n/a	1	n/a	n/a	n/a	n/a	335.964	n/a
306.862	0.497	neutral	Picture	60.005	n/a	3	8	8	n/a	28	23	1	n/a	n/a	n/a	n/a	336.495	AM04NES.jpg
307.359	0.514	Blank	Blank	59.491	n/a	3	8	8	n/a	28	n/a	1	n/a	n/a	n/a	n/a	336.992	n/a
307.889	0.497	neutral	Picture	58.978	n/a	3	8	9	n/a	29	34	1	n/a	n/a	n/a	n/a	337.523	AM22NES.jpg
308.387	0.514	Blank	Blank	58.464	n/a	3	8	9	n/a	29	n/a	1	n/a	n/a	n/a	n/a	338.02	n/a
308.917	0.497	neutral	Picture	57.95	n/a	3	8	10	n/a	30	24	1	n/a	n/a	n/a	n/a	338.55	BM05NES.jpg
309.415	0.514	Blank	Blank	57.436	n/a	3	8	10	n/a	30	n/a	1	n/a	n/a	n/a	n/a	339.048	n/a
309.945	0.497	neutral	Picture	56.922	n/a	3	8	11	n/a	31	12	1	n/a	n/a	n/a	n/a	339.578	AF21NES.jpg
310.443	0.514	Blank	Blank	56.408	n/a	3	8	11	n/a	31	n/a	1	n/a	n/a	n/a	n/a	340.076	n/a
310.973	0.497	neutral	Picture	55.894	n/a	3	8	12	n/a	32	6	1	n/a	n/a	n/a	n/a	340.606	AF09NES.jpg
311.471	0.514	Blank	Blank	55.38	n/a	3	8	12	n/a	32	n/a	1	n/a	n/a	n/a	n/a	341.104	n/a
312.001	0.497	neutral	Picture	54.866	n/a	3	8	13	n/a	33	17	1	n/a	n/a	n/a	n/a	341.634	BF28NES.jpg
312.498	0.514	Blank	Blank	54.352	n/a	3	8	13	n/a	33	n/a	1	n/a	n/a	n/a	n/a	342.132	n/a
313.029	0.497	neutral	Picture	53.838	n/a	3	8	14	n/a	34	2	1	n/a	n/a	n/a	n/a	342.662	AF03NES.jpg
313.526	0.514	Blank	Blank	53.324	n/a	3	8	14	n/a	34	n/a	1	n/a	n/a	n/a	n/a	343.159	n/a
314.057	0.497	neutral	Picture	52.81	n/a	3	8	15	n/a	35	9	1	n/a	n/a	n/a	n/a	343.69	AF17NES.jpg
314.554	0.514	Blank	Blank	52.296	n/a	3	8	15	n/a	35	n/a	1	n/a	n/a	n/a	n/a	344.187	n/a
315.085	0.497	neutral	Picture	51.782	n/a	3	8	16	n/a	36	25	1	n/a	n/a	n/a	n/a	344.718	BM06NES.jpg
315.582	0.514	Blank	Blank	51.269	n/a	3	8	16	n/a	36	n/a	1	n/a	n/a	n/a	n/a	345.215	n/a
316.113	0.497	neutral	Picture	50.754	n/a	3	8	17	n/a	37	8	1	n/a	n/a	n/a	n/a	345.746	AF14NES.jpg
316.61	0.514	Blank	Blank	50.241	n/a	3	8	17	n/a	37	n/a	1	n/a	n/a	n/a	n/a	346.243	n/a
317.14	0.497	neutral	Picture	49.727	n/a	3	8	18	n/a	38	19	1	n/a	n/a	n/a	n/a	346.774	AF31NES.jpg
317.638	0.514	Blank	Blank	49.213	n/a	3	8	18	n/a	38	n/a	1	n/a	n/a	n/a	n/a	347.271	n/a
318.168	0.497	neutral	Picture	48.699	n/a	3	8	19	n/a	39	14	1	n/a	n/a	n/a	n/a	347.801	AF23NES.jpg
318.666	0.514	Blank	Blank	48.185	n/a	3	8	19	n/a	39	n/a	1	n/a	n/a	n/a	n/a	348.299	n/a
319.196	0.497	neutral	Picture	47.671	n/a	3	8	20	n/a	40	4	1	n/a	n/a	n/a	n/a	348.829	AF05NES.jpg
319.694	0.514	Blank	Blank	47.157	n/a	3	8	20	n/a	40	n/a	1	n/a	n/a	n/a	n/a	349.327	n/a
320.224	10.014	ITI	Fixation+	37.127	n/a	3	n/a	n/a	n/a	n/a	n/a	n/a	n/a	n/a	n/a	n/a	349.857	n/a
330.254	0.497	angry	Picture	36.613	n/a	3	9	1	n/a	41	84	3	n/a	n/a	n/a	n/a	359.887	AF05ANS.jpg
330.752	0.514	Blank	Blank	36.099	n/a	3	9	1	n/a	41	n/a	3	n/a	n/a	n/a	n/a	360.385	n/a
331.282	0.497	angry	Picture	35.585	n/a	3	9	2	n/a	42	92	3	n/a	n/a	n/a	n/a	360.915	AF21ANS.jpg
331.78	0.514	Blank	Blank	35.071	n/a	3	9	2	n/a	42	n/a	3	n/a	n/a	n/a	n/a	361.413	n/a
332.31	0.497	angry	Picture	34.557	n/a	3	9	3	n/a	43	86	3	n/a	n/a	n/a	n/a	361.943	AF09ANS.jpg
332.808	0.514	Blank	Blank	34.043	n/a	3	9	3	n/a	43	n/a	3	n/a	n/a	n/a	n/a	362.441	n/a
333.338	0.497	angry	Picture	33.529	n/a	3	9	4	n/a	44	93	3	n/a	n/a	n/a	n/a	362.971	BF22ANS.jpg
333.835	0.514	Blank	Blank	33.015	n/a	3	9	4	n/a	44	n/a	3	n/a	n/a	n/a	n/a	363.469	n/a
334.366	0.497	angry	Picture	32.501	n/a	3	9	5	n/a	45	88	3	n/a	n/a	n/a	n/a	363.999	AF14ANS.jpg
334.863	0.514	Blank	Blank	31.987	n/a	3	9	5	n/a	45	n/a	3	n/a	n/a	n/a	n/a	364.496	n/a
335.394	0.497	angry	Picture	31.473	n/a	3	9	6	n/a	46	113	3	n/a	n/a	n/a	n/a	365.027	AM21ANS.jpg
335.891	0.514	Blank	Blank	30.959	n/a	3	9	6	n/a	46	n/a	3	n/a	n/a	n/a	n/a	365.524	n/a
336.422	0.497	angry	Picture	30.445	n/a	3	9	7	n/a	47	95	3	n/a	n/a	n/a	n/a	366.055	AF25ANS.jpg
336.919	0.514	Blank	Blank	29.931	n/a	3	9	7	n/a	47	n/a	3	n/a	n/a	n/a	n/a	366.552	n/a
337.45	0.497	angry	Picture	29.418	n/a	3	9	8	n/a	48	102	3	n/a	n/a	n/a	n/a	367.083	BM03ANS.jpg
337.947	0.514	Blank	Blank	28.904	n/a	3	9	8	n/a	48	n/a	3	n/a	n/a	n/a	n/a	367.58	n/a
338.477	0.497	angry	Picture	28.39	n/a	3	9	9	n/a	49	112	3	n/a	n/a	n/a	n/a	368.111	AM14ANS.jpg
338.975	0.514	Blank	Blank	27.876	n/a	3	9	9	n/a	49	n/a	3	n/a	n/a	n/a	n/a	368.608	n/a
339.505	0.497	angry	Picture	27.362	n/a	3	9	10	n/a	50	83	3	n/a	n/a	n/a	n/a	369.138	BF04ANS.jpg
340.003	0.514	Blank	Blank	26.848	n/a	3	9	10	n/a	50	n/a	3	n/a	n/a	n/a	n/a	369.636	n/a
340.533	0.497	angry	Picture	26.334	n/a	3	9	11	n/a	51	90	3	n/a	n/a	n/a	n/a	370.166	AF18ANS.jpg
341.031	0.514	Blank	Blank	25.82	n/a	3	9	11	n/a	51	n/a	3	n/a	n/a	n/a	n/a	370.664	n/a
341.561	0.497	angry	Picture	25.306	n/a	3	9	12	n/a	52	117	3	n/a	n/a	n/a	n/a	371.194	BM25ANS.jpg
342.058	0.514	Blank	Blank	24.792	n/a	3	9	12	n/a	52	n/a	3	n/a	n/a	n/a	n/a	371.692	n/a
342.589	0.497	angry	Picture	24.278	n/a	3	9	13	n/a	53	94	3	n/a	n/a	n/a	n/a	372.222	AF23ANS.jpg
343.086	0.514	Blank	Blank	23.764	n/a	3	9	13	n/a	53	n/a	3	n/a	n/a	n/a	n/a	372.719	n/a
343.617	0.497	angry	Picture	23.25	n/a	3	9	14	n/a	54	106	3	n/a	n/a	n/a	n/a	373.25	AM07ANS.jpg
344.114	0.514	Blank	Blank	22.736	n/a	3	9	14	n/a	54	n/a	3	n/a	n/a	n/a	n/a	373.747	n/a
344.645	0.497	angry	Picture	22.222	n/a	3	9	15	n/a	55	105	3	n/a	n/a	n/a	n/a	374.278	BM06ANS.jpg
345.142	0.514	Blank	Blank	21.708	n/a	3	9	15	n/a	55	n/a	3	n/a	n/a	n/a	n/a	374.775	n/a
345.673	0.497	angry	Picture	21.194	n/a	3	9	16	n/a	56	116	3	n/a	n/a	n/a	n/a	375.306	BM24ANS.jpg
346.17	0.514	Blank	Blank	20.681	n/a	3	9	16	n/a	56	n/a	3	n/a	n/a	n/a	n/a	375.803	n/a
346.7	0.497	angry	Picture	20.167	n/a	3	9	17	n/a	57	89	3	n/a	n/a	n/a	n/a	376.334	AF17ANS.jpg
347.198	0.514	Blank	Blank	19.653	n/a	3	9	17	n/a	57	n/a	3	n/a	n/a	n/a	n/a	376.831	n/a
347.728	0.497	angry	Picture	19.139	n/a	3	9	18	n/a	58	118	3	n/a	n/a	n/a	n/a	377.361	BM26ANS.jpg
348.226	0.514	Blank	Blank	18.625	n/a	3	9	18	n/a	58	n/a	3	n/a	n/a	n/a	n/a	377.859	n/a
348.756	0.497	angry	Picture	18.111	n/a	3	9	19	n/a	59	100	3	n/a	n/a	n/a	n/a	378.389	AF32ANS.jpg
349.254	0.514	Blank	Blank	17.597	n/a	3	9	19	n/a	59	n/a	3	n/a	n/a	n/a	n/a	378.887	n/a
349.784	0.497	angry	Picture	17.083	n/a	3	9	20	n/a	60	119	3	n/a	n/a	n/a	n/a	379.417	BM28ANS.jpg
350.281	0.514	Blank	Blank	16.569	n/a	3	9	20	n/a	60	n/a	3	n/a	n/a	n/a	n/a	379.915	n/a
350.812	10.014	ITI	Fixation+	6.539	n/a	3	n/a	n/a	n/a	n/a	n/a	n/a	n/a	n/a	n/a	n/a	380.445	n/a
367.364	n/a	ConfirmRating	Rate	n/a	6.532	3	n/a	n/a	0	n/a	n/a	n/a	2	Angry	89	54	396.998	n/a
373.697	n/a	ConfirmRating	Rate	n/a	6.316	3	n/a	n/a	1	n/a	n/a	n/a	3	Angry	2	48	403.33	n/a
373.724	10.014	ITI	Fixation+	97.4	n/a	4	n/a	n/a	n/a	n/a	n/a	n/a	n/a	n/a	n/a	n/a	403.357	n/a
383.754	0.497	happy	Picture	96.886	n/a	4	10	1	n/a	61	79	2	n/a	n/a	n/a	n/a	413.387	BM28HAS.jpg
384.251	0.514	Blank	Blank	96.372	n/a	4	10	1	n/a	61	n/a	2	n/a	n/a	n/a	n/a	413.885	n/a
384.782	0.497	happy	Picture	95.858	n/a	4	10	2	n/a	62	61	2	n/a	n/a	n/a	n/a	414.415	AM01HAS.jpg
385.279	0.514	Blank	Blank	95.344	n/a	4	10	2	n/a	62	n/a	2	n/a	n/a	n/a	n/a	414.913	n/a
385.81	0.497	happy	Picture	94.831	n/a	4	10	3	n/a	63	57	2	n/a	n/a	n/a	n/a	415.443	BF28HAS.jpg
386.307	0.514	Blank	Blank	94.317	n/a	4	10	3	n/a	63	n/a	2	n/a	n/a	n/a	n/a	415.94	n/a
386.838	0.497	happy	Picture	93.803	n/a	4	10	4	n/a	64	77	2	n/a	n/a	n/a	n/a	416.471	BM25HAS.jpg
387.335	0.514	Blank	Blank	93.289	n/a	4	10	4	n/a	64	n/a	2	n/a	n/a	n/a	n/a	416.968	n/a
387.866	0.497	happy	Picture	92.775	n/a	4	10	5	n/a	65	47	2	n/a	n/a	n/a	n/a	417.499	BF11HAS.jpg
388.363	0.514	Blank	Blank	92.261	n/a	4	10	5	n/a	65	n/a	2	n/a	n/a	n/a	n/a	417.996	n/a
388.894	0.497	happy	Picture	91.747	n/a	4	10	6	n/a	66	50	2	n/a	n/a	n/a	n/a	418.527	AF18HAS.jpg
389.391	0.514	Blank	Blank	91.233	n/a	4	10	6	n/a	66	n/a	2	n/a	n/a	n/a	n/a	419.024	n/a
389.921	0.497	happy	Picture	90.719	n/a	4	10	7	n/a	67	78	2	n/a	n/a	n/a	n/a	419.555	BM26HAS.jpg
390.419	0.514	Blank	Blank	90.205	n/a	4	10	7	n/a	67	n/a	2	n/a	n/a	n/a	n/a	420.052	n/a
390.949	0.497	happy	Picture	89.691	n/a	4	10	8	n/a	68	45	2	n/a	n/a	n/a	n/a	420.582	BF07HAS.jpg
391.447	0.514	Blank	Blank	89.177	n/a	4	10	8	n/a	68	n/a	2	n/a	n/a	n/a	n/a	421.08	n/a
391.977	0.497	happy	Picture	88.663	n/a	4	10	9	n/a	69	56	2	n/a	n/a	n/a	n/a	421.61	AF26HAS.jpg
392.475	0.514	Blank	Blank	88.149	n/a	4	10	9	n/a	69	n/a	2	n/a	n/a	n/a	n/a	422.108	n/a
393.005	0.497	happy	Picture	87.635	n/a	4	10	10	n/a	70	65	2	n/a	n/a	n/a	n/a	422.638	BM06HAS.jpg
393.502	0.514	Blank	Blank	87.122	n/a	4	10	10	n/a	70	n/a	2	n/a	n/a	n/a	n/a	423.136	n/a
394.033	0.497	happy	Picture	86.608	n/a	4	10	11	n/a	71	73	2	n/a	n/a	n/a	n/a	423.666	AM21HAS.jpg
394.53	0.514	Blank	Blank	86.094	n/a	4	10	11	n/a	71	n/a	2	n/a	n/a	n/a	n/a	424.163	n/a
395.061	0.497	happy	Picture	85.58	n/a	4	10	12	n/a	72	41	2	n/a	n/a	n/a	n/a	424.694	AF01HAS.jpg
395.558	0.514	Blank	Blank	85.066	n/a	4	10	12	n/a	72	n/a	2	n/a	n/a	n/a	n/a	425.191	n/a
396.089	0.497	happy	Picture	84.552	n/a	4	10	13	n/a	73	59	2	n/a	n/a	n/a	n/a	425.722	AF31HAS.jpg
396.586	0.514	Blank	Blank	84.038	n/a	4	10	13	n/a	73	n/a	2	n/a	n/a	n/a	n/a	426.219	n/a
397.117	0.497	happy	Picture	83.524	n/a	4	10	14	n/a	74	64	2	n/a	n/a	n/a	n/a	426.75	BM05HAS.jpg
397.614	0.514	Blank	Blank	83.01	n/a	4	10	14	n/a	74	n/a	2	n/a	n/a	n/a	n/a	427.247	n/a
398.145	0.497	happy	Picture	82.496	n/a	4	10	15	n/a	75	68	2	n/a	n/a	n/a	n/a	427.778	AM09HAS.jpg
398.642	0.514	Blank	Blank	81.982	n/a	4	10	15	n/a	75	n/a	2	n/a	n/a	n/a	n/a	428.275	n/a
399.173	0.497	happy	Picture	81.468	n/a	4	10	16	n/a	76	54	2	n/a	n/a	n/a	n/a	428.806	AF23HAS.jpg
399.67	0.514	Blank	Blank	80.954	n/a	4	10	16	n/a	76	n/a	2	n/a	n/a	n/a	n/a	429.303	n/a
400.2	0.497	happy	Picture	80.44	n/a	4	10	17	n/a	77	53	2	n/a	n/a	n/a	n/a	429.833	BF22HAS.jpg
400.698	0.514	Blank	Blank	79.926	n/a	4	10	17	n/a	77	n/a	2	n/a	n/a	n/a	n/a	430.331	n/a
401.228	0.497	happy	Picture	79.412	n/a	4	10	18	n/a	78	44	2	n/a	n/a	n/a	n/a	430.861	AF05HAS.jpg
401.726	0.514	Blank	Blank	78.898	n/a	4	10	18	n/a	78	n/a	2	n/a	n/a	n/a	n/a	431.359	n/a
402.256	0.497	happy	Picture	78.384	n/a	4	10	19	n/a	79	52	2	n/a	n/a	n/a	n/a	431.889	AF21HAS.jpg
402.753	0.514	Blank	Blank	77.871	n/a	4	10	19	n/a	79	n/a	2	n/a	n/a	n/a	n/a	432.387	n/a
403.284	0.497	happy	Picture	77.356	n/a	4	10	20	n/a	80	62	2	n/a	n/a	n/a	n/a	432.917	BM03HAS.jpg
403.781	0.514	Blank	Blank	76.843	n/a	4	10	20	n/a	80	n/a	2	n/a	n/a	n/a	n/a	433.414	n/a
404.312	10.014	ITI	Fixation+	66.812	n/a	4	n/a	n/a	n/a	n/a	n/a	n/a	n/a	n/a	n/a	n/a	433.945	n/a
414.342	0.497	neutral	Picture	66.299	n/a	4	11	1	n/a	81	23	1	n/a	n/a	n/a	n/a	443.975	AM04NES.jpg
414.839	0.514	Blank	Blank	65.784	n/a	4	11	1	n/a	81	n/a	1	n/a	n/a	n/a	n/a	444.473	n/a
415.37	0.497	neutral	Picture	65.271	n/a	4	11	2	n/a	82	29	1	n/a	n/a	n/a	n/a	445.003	AM10NES.jpg
415.867	0.514	Blank	Blank	64.757	n/a	4	11	2	n/a	82	n/a	1	n/a	n/a	n/a	n/a	445.5	n/a
416.398	0.497	neutral	Picture	64.243	n/a	4	11	3	n/a	83	24	1	n/a	n/a	n/a	n/a	446.031	BM05NES.jpg
416.895	0.514	Blank	Blank	63.729	n/a	4	11	3	n/a	83	n/a	1	n/a	n/a	n/a	n/a	446.528	n/a
417.426	0.497	neutral	Picture	63.215	n/a	4	11	4	n/a	84	12	1	n/a	n/a	n/a	n/a	447.059	AF21NES.jpg
417.923	0.514	Blank	Blank	62.701	n/a	4	11	4	n/a	84	n/a	1	n/a	n/a	n/a	n/a	447.556	n/a
418.454	0.497	neutral	Picture	62.187	n/a	4	11	5	n/a	85	13	1	n/a	n/a	n/a	n/a	448.087	BF22NES.jpg
418.951	0.514	Blank	Blank	61.673	n/a	4	11	5	n/a	85	n/a	1	n/a	n/a	n/a	n/a	448.584	n/a
419.481	0.497	neutral	Picture	61.159	n/a	4	11	6	n/a	86	17	1	n/a	n/a	n/a	n/a	449.115	BF28NES.jpg
419.979	0.514	Blank	Blank	60.645	n/a	4	11	6	n/a	86	n/a	1	n/a	n/a	n/a	n/a	449.612	n/a
420.509	0.497	neutral	Picture	60.131	n/a	4	11	7	n/a	87	4	1	n/a	n/a	n/a	n/a	450.142	AF05NES.jpg
421.007	0.514	Blank	Blank	59.617	n/a	4	11	7	n/a	87	n/a	1	n/a	n/a	n/a	n/a	450.64	n/a
421.537	0.497	neutral	Picture	59.103	n/a	4	11	8	n/a	88	11	1	n/a	n/a	n/a	n/a	451.17	AF20NES.jpg
422.035	0.514	Blank	Blank	58.589	n/a	4	11	8	n/a	88	n/a	1	n/a	n/a	n/a	n/a	451.668	n/a
422.565	0.497	neutral	Picture	58.075	n/a	4	11	9	n/a	89	22	1	n/a	n/a	n/a	n/a	452.198	BM03NES.jpg
423.063	0.514	Blank	Blank	57.561	n/a	4	11	9	n/a	89	n/a	1	n/a	n/a	n/a	n/a	452.696	n/a
423.593	0.497	neutral	Picture	57.048	n/a	4	11	10	n/a	90	15	1	n/a	n/a	n/a	n/a	453.226	AF25NES.jpg
424.09	0.514	Blank	Blank	56.534	n/a	4	11	10	n/a	90	n/a	1	n/a	n/a	n/a	n/a	453.724	n/a
424.621	0.497	neutral	Picture	56.02	n/a	4	11	11	n/a	91	19	1	n/a	n/a	n/a	n/a	454.254	AF31NES.jpg
425.118	0.514	Blank	Blank	55.506	n/a	4	11	11	n/a	91	n/a	1	n/a	n/a	n/a	n/a	454.751	n/a
425.649	0.497	neutral	Picture	54.992	n/a	4	11	12	n/a	92	9	1	n/a	n/a	n/a	n/a	455.282	AF17NES.jpg
426.146	0.514	Blank	Blank	54.478	n/a	4	11	12	n/a	92	n/a	1	n/a	n/a	n/a	n/a	455.779	n/a
426.677	0.497	neutral	Picture	53.964	n/a	4	11	13	n/a	93	14	1	n/a	n/a	n/a	n/a	456.31	AF23NES.jpg
427.174	0.514	Blank	Blank	53.45	n/a	4	11	13	n/a	93	n/a	1	n/a	n/a	n/a	n/a	456.807	n/a
427.705	0.497	neutral	Picture	52.936	n/a	4	11	14	n/a	94	36	1	n/a	n/a	n/a	n/a	457.338	BM24NES.jpg
428.202	0.514	Blank	Blank	52.422	n/a	4	11	14	n/a	94	n/a	1	n/a	n/a	n/a	n/a	457.835	n/a
428.732	0.497	neutral	Picture	51.908	n/a	4	11	15	n/a	95	34	1	n/a	n/a	n/a	n/a	458.366	AM22NES.jpg
429.23	0.514	Blank	Blank	51.394	n/a	4	11	15	n/a	95	n/a	1	n/a	n/a	n/a	n/a	458.863	n/a
429.76	0.497	neutral	Picture	50.88	n/a	4	11	16	n/a	96	10	1	n/a	n/a	n/a	n/a	459.394	AF18NES.jpg
430.258	0.514	Blank	Blank	50.366	n/a	4	11	16	n/a	96	n/a	1	n/a	n/a	n/a	n/a	459.891	n/a
430.788	0.497	neutral	Picture	49.852	n/a	4	11	17	n/a	97	5	1	n/a	n/a	n/a	n/a	460.421	BF07NES.jpg
431.286	0.514	Blank	Blank	49.338	n/a	4	11	17	n/a	97	n/a	1	n/a	n/a	n/a	n/a	460.919	n/a
431.816	0.497	neutral	Picture	48.824	n/a	4	11	18	n/a	98	25	1	n/a	n/a	n/a	n/a	461.449	BM06NES.jpg
432.313	0.514	Blank	Blank	48.311	n/a	4	11	18	n/a	98	n/a	1	n/a	n/a	n/a	n/a	461.947	n/a
432.844	0.497	neutral	Picture	47.796	n/a	4	11	19	n/a	99	39	1	n/a	n/a	n/a	n/a	462.477	AM28NES.jpg
433.341	0.514	Blank	Blank	47.283	n/a	4	11	19	n/a	99	n/a	1	n/a	n/a	n/a	n/a	462.974	n/a
433.872	0.497	neutral	Picture	46.769	n/a	4	11	20	n/a	100	33	1	n/a	n/a	n/a	n/a	463.505	AM21NES.jpg
434.369	0.514	Blank	Blank	46.255	n/a	4	11	20	n/a	100	n/a	1	n/a	n/a	n/a	n/a	464.002	n/a
434.9	10.014	ITI	Fixation+	36.225	n/a	4	n/a	n/a	n/a	n/a	n/a	n/a	n/a	n/a	n/a	n/a	464.533	n/a
444.93	0.497	happy	Picture	35.711	n/a	4	12	1	n/a	101	74	2	n/a	n/a	n/a	n/a	474.563	AM22HAS.jpg
445.427	0.514	Blank	Blank	35.197	n/a	4	12	1	n/a	101	n/a	2	n/a	n/a	n/a	n/a	475.06	n/a
445.958	0.497	happy	Picture	34.683	n/a	4	12	2	n/a	102	76	2	n/a	n/a	n/a	n/a	475.591	BM24HAS.jpg
446.455	0.514	Blank	Blank	34.169	n/a	4	12	2	n/a	102	n/a	2	n/a	n/a	n/a	n/a	476.088	n/a
446.986	0.497	happy	Picture	33.655	n/a	4	12	3	n/a	103	80	2	n/a	n/a	n/a	n/a	476.619	BM35HAS.jpg
447.483	0.514	Blank	Blank	33.141	n/a	4	12	3	n/a	103	n/a	2	n/a	n/a	n/a	n/a	477.116	n/a
448.014	0.497	happy	Picture	32.627	n/a	4	12	4	n/a	104	75	2	n/a	n/a	n/a	n/a	477.647	AM23HAS.jpg
448.511	0.514	Blank	Blank	32.113	n/a	4	12	4	n/a	104	n/a	2	n/a	n/a	n/a	n/a	478.144	n/a
449.041	0.497	happy	Picture	31.599	n/a	4	12	5	n/a	105	49	2	n/a	n/a	n/a	n/a	478.675	AF17HAS.jpg
449.539	0.514	Blank	Blank	31.085	n/a	4	12	5	n/a	105	n/a	2	n/a	n/a	n/a	n/a	479.172	n/a
450.069	0.497	happy	Picture	30.571	n/a	4	12	6	n/a	106	43	2	n/a	n/a	n/a	n/a	479.702	BF04HAS.jpg
450.567	0.514	Blank	Blank	30.057	n/a	4	12	6	n/a	106	n/a	2	n/a	n/a	n/a	n/a	480.2	n/a
451.097	0.497	happy	Picture	29.543	n/a	4	12	7	n/a	107	70	2	n/a	n/a	n/a	n/a	480.73	BM11HAS.jpg
451.595	0.514	Blank	Blank	29.029	n/a	4	12	7	n/a	107	n/a	2	n/a	n/a	n/a	n/a	481.228	n/a
452.125	0.497	happy	Picture	28.515	n/a	4	12	8	n/a	108	66	2	n/a	n/a	n/a	n/a	481.758	BM07HAS.jpg
452.623	0.514	Blank	Blank	28.001	n/a	4	12	8	n/a	108	n/a	2	n/a	n/a	n/a	n/a	482.256	n/a
453.153	0.497	happy	Picture	27.488	n/a	4	12	9	n/a	109	48	2	n/a	n/a	n/a	n/a	482.786	AF14HAS.jpg
453.65	0.514	Blank	Blank	26.974	n/a	4	12	9	n/a	109	n/a	2	n/a	n/a	n/a	n/a	483.284	n/a
454.181	0.497	happy	Picture	26.46	n/a	4	12	10	n/a	110	58	2	n/a	n/a	n/a	n/a	483.814	BF29HAS.jpg
454.678	0.514	Blank	Blank	25.946	n/a	4	12	10	n/a	110	n/a	2	n/a	n/a	n/a	n/a	484.311	n/a
455.209	0.497	happy	Picture	25.432	n/a	4	12	11	n/a	111	63	2	n/a	n/a	n/a	n/a	484.842	AM04HAS.jpg
455.706	0.514	Blank	Blank	24.918	n/a	4	12	11	n/a	111	n/a	2	n/a	n/a	n/a	n/a	485.339	n/a
456.237	0.497	happy	Picture	24.404	n/a	4	12	12	n/a	112	72	2	n/a	n/a	n/a	n/a	485.87	AM14HAS.jpg
456.734	0.514	Blank	Blank	23.89	n/a	4	12	12	n/a	112	n/a	2	n/a	n/a	n/a	n/a	486.367	n/a
457.265	0.497	happy	Picture	23.376	n/a	4	12	13	n/a	113	55	2	n/a	n/a	n/a	n/a	486.898	AF25HAS.jpg
457.762	0.514	Blank	Blank	22.862	n/a	4	12	13	n/a	113	n/a	2	n/a	n/a	n/a	n/a	487.395	n/a
458.292	0.497	happy	Picture	22.348	n/a	4	12	14	n/a	114	42	2	n/a	n/a	n/a	n/a	487.926	AF03HAS.jpg
458.79	0.514	Blank	Blank	21.834	n/a	4	12	14	n/a	114	n/a	2	n/a	n/a	n/a	n/a	488.423	n/a
459.32	0.497	happy	Picture	21.32	n/a	4	12	15	n/a	115	60	2	n/a	n/a	n/a	n/a	488.954	AF32HAS.jpg
459.818	0.514	Blank	Blank	20.806	n/a	4	12	15	n/a	115	n/a	2	n/a	n/a	n/a	n/a	489.451	n/a
460.348	0.497	happy	Picture	20.292	n/a	4	12	16	n/a	116	67	2	n/a	n/a	n/a	n/a	489.981	BM08HAS.jpg
460.846	0.514	Blank	Blank	19.778	n/a	4	12	16	n/a	116	n/a	2	n/a	n/a	n/a	n/a	490.479	n/a
461.376	0.497	happy	Picture	19.264	n/a	4	12	17	n/a	117	51	2	n/a	n/a	n/a	n/a	491.009	AF20HAS.jpg
461.873	0.514	Blank	Blank	18.75	n/a	4	12	17	n/a	117	n/a	2	n/a	n/a	n/a	n/a	491.507	n/a
462.404	0.497	happy	Picture	18.236	n/a	4	12	18	n/a	118	71	2	n/a	n/a	n/a	n/a	492.037	BM12HAS.jpg
462.901	0.514	Blank	Blank	17.723	n/a	4	12	18	n/a	118	n/a	2	n/a	n/a	n/a	n/a	492.534	n/a
463.432	0.497	happy	Picture	17.209	n/a	4	12	19	n/a	119	69	2	n/a	n/a	n/a	n/a	493.065	AM10HAS.jpg
463.929	0.514	Blank	Blank	16.695	n/a	4	12	19	n/a	119	n/a	2	n/a	n/a	n/a	n/a	493.562	n/a
464.46	0.497	happy	Picture	16.181	n/a	4	12	20	n/a	120	46	2	n/a	n/a	n/a	n/a	494.093	AF09HAS.jpg
464.957	0.514	Blank	Blank	15.667	n/a	4	12	20	n/a	120	n/a	2	n/a	n/a	n/a	n/a	494.59	n/a
465.488	10.014	ITI	Fixation+	5.637	n/a	4	n/a	n/a	n/a	n/a	n/a	n/a	n/a	n/a	n/a	n/a	495.121	n/a
481.138	n/a	ConfirmRating	Rate	n/a	5.62	4	n/a	n/a	0	n/a	n/a	n/a	2	Happy	100	52	510.771	n/a
487.951	n/a	ConfirmRating	Rate	n/a	6.798	4	n/a	n/a	1	n/a	n/a	n/a	3	Happy	2	49	517.584	n/a
