onset	duration	trial_type	event_type	time_until_response	response_time	trial_number	block_num_within_trial	image_seq_num_within_block	question_seq_num_within_block	image_seq_num	picture_number	condition	question_type	block_type	rating	rating_computed	onset_uncorrected	KDEV_imagefile
0.017	10.014	ITI	Fixation+	102.733	n/a	1	n/a	n/a	n/a	n/a	n/a	n/a	n/a	n/a	n/a	n/a	29.621	n/a
10.047	0.497	happy	Picture	102.219	n/a	1	1	1	n/a	1	108	3	n/a	n/a	n/a	n/a	39.651	AM09ANS.jpg
10.544	0.514	Blank	Blank	101.705	n/a	1	1	1	n/a	1	n/a	3	n/a	n/a	n/a	n/a	40.148	n/a
11.075	0.497	happy	Picture	101.191	n/a	1	1	2	n/a	2	99	3	n/a	n/a	n/a	n/a	40.679	AF31ANS.jpg
11.572	0.514	Blank	Blank	100.677	n/a	1	1	2	n/a	2	n/a	3	n/a	n/a	n/a	n/a	41.176	n/a
12.103	0.497	happy	Picture	100.163	n/a	1	1	3	n/a	3	98	3	n/a	n/a	n/a	n/a	41.707	BF29ANS.jpg
12.6	0.514	Blank	Blank	99.649	n/a	1	1	3	n/a	3	n/a	3	n/a	n/a	n/a	n/a	42.204	n/a
13.13	0.497	happy	Picture	99.136	n/a	1	1	4	n/a	4	107	3	n/a	n/a	n/a	n/a	42.735	BM08ANS.jpg
13.628	0.514	Blank	Blank	98.622	n/a	1	1	4	n/a	4	n/a	3	n/a	n/a	n/a	n/a	43.232	n/a
14.158	0.497	happy	Picture	98.108	n/a	1	1	5	n/a	5	104	3	n/a	n/a	n/a	n/a	43.763	BM05ANS.jpg
14.656	0.514	Blank	Blank	97.594	n/a	1	1	5	n/a	5	n/a	3	n/a	n/a	n/a	n/a	44.26	n/a
15.186	0.497	happy	Picture	97.08	n/a	1	1	6	n/a	6	101	3	n/a	n/a	n/a	n/a	44.79	AM01ANS.jpg
15.683	0.514	Blank	Blank	96.566	n/a	1	1	6	n/a	6	n/a	3	n/a	n/a	n/a	n/a	45.288	n/a
16.214	0.497	happy	Picture	96.052	n/a	1	1	7	n/a	7	103	3	n/a	n/a	n/a	n/a	45.818	AM04ANS.jpg
16.711	0.514	Blank	Blank	95.538	n/a	1	1	7	n/a	7	n/a	3	n/a	n/a	n/a	n/a	46.316	n/a
17.242	0.497	happy	Picture	95.024	n/a	1	1	8	n/a	8	111	3	n/a	n/a	n/a	n/a	46.846	BM12ANS.jpg
17.739	0.514	Blank	Blank	94.51	n/a	1	1	8	n/a	8	n/a	3	n/a	n/a	n/a	n/a	47.344	n/a
18.27	0.497	happy	Picture	93.996	n/a	1	1	9	n/a	9	110	3	n/a	n/a	n/a	n/a	47.874	AM11ANS.jpg
18.767	0.514	Blank	Blank	93.482	n/a	1	1	9	n/a	9	n/a	3	n/a	n/a	n/a	n/a	48.371	n/a
19.298	0.497	happy	Picture	92.968	n/a	1	1	10	n/a	10	85	3	n/a	n/a	n/a	n/a	48.902	BF07ANS.jpg
19.795	0.514	Blank	Blank	92.454	n/a	1	1	10	n/a	10	n/a	3	n/a	n/a	n/a	n/a	49.399	n/a
20.326	0.497	happy	Picture	91.94	n/a	1	1	11	n/a	11	87	3	n/a	n/a	n/a	n/a	49.93	BF11ANS.jpg
20.823	0.514	Blank	Blank	91.426	n/a	1	1	11	n/a	11	n/a	3	n/a	n/a	n/a	n/a	50.427	n/a
21.353	0.497	happy	Picture	90.912	n/a	1	1	12	n/a	12	91	3	n/a	n/a	n/a	n/a	50.958	AF20ANS.jpg
21.851	0.514	Blank	Blank	90.399	n/a	1	1	12	n/a	12	n/a	3	n/a	n/a	n/a	n/a	51.455	n/a
22.381	0.497	happy	Picture	89.885	n/a	1	1	13	n/a	13	115	3	n/a	n/a	n/a	n/a	51.986	AM23ANS.jpg
22.879	0.514	Blank	Blank	89.371	n/a	1	1	13	n/a	13	n/a	3	n/a	n/a	n/a	n/a	52.483	n/a
23.409	0.497	happy	Picture	88.857	n/a	1	1	14	n/a	14	97	3	n/a	n/a	n/a	n/a	53.014	BF28ANS.jpg
23.907	0.514	Blank	Blank	88.343	n/a	1	1	14	n/a	14	n/a	3	n/a	n/a	n/a	n/a	53.511	n/a
24.437	0.497	happy	Picture	87.829	n/a	1	1	15	n/a	15	82	3	n/a	n/a	n/a	n/a	54.041	AF03ANS.jpg
24.934	0.514	Blank	Blank	87.315	n/a	1	1	15	n/a	15	n/a	3	n/a	n/a	n/a	n/a	54.539	n/a
25.465	0.497	happy	Picture	86.801	n/a	1	1	16	n/a	16	96	3	n/a	n/a	n/a	n/a	55.069	AF26ANS.jpg
25.962	0.514	Blank	Blank	86.287	n/a	1	1	16	n/a	16	n/a	3	n/a	n/a	n/a	n/a	55.567	n/a
26.493	0.497	happy	Picture	85.773	n/a	1	1	17	n/a	17	109	3	n/a	n/a	n/a	n/a	56.097	AM10ANS.jpg
26.99	0.514	Blank	Blank	85.259	n/a	1	1	17	n/a	17	n/a	3	n/a	n/a	n/a	n/a	56.594	n/a
27.521	0.497	happy	Picture	84.745	n/a	1	1	18	n/a	18	114	3	n/a	n/a	n/a	n/a	57.125	AM22ANS.jpg
28.018	0.514	Blank	Blank	84.231	n/a	1	1	18	n/a	18	n/a	3	n/a	n/a	n/a	n/a	57.622	n/a
28.549	0.497	happy	Picture	83.717	n/a	1	1	19	n/a	19	120	3	n/a	n/a	n/a	n/a	58.153	AM35ANS.jpg
29.046	0.514	Blank	Blank	83.203	n/a	1	1	19	n/a	19	n/a	3	n/a	n/a	n/a	n/a	58.65	n/a
29.576	0.497	happy	Picture	82.689	n/a	1	1	20	n/a	20	81	3	n/a	n/a	n/a	n/a	59.181	AF01ANS.jpg
30.074	0.514	Blank	Blank	82.175	n/a	1	1	20	n/a	20	n/a	3	n/a	n/a	n/a	n/a	59.678	n/a
30.604	10.014	ITI	Fixation+	72.145	n/a	1	n/a	n/a	n/a	n/a	n/a	n/a	n/a	n/a	n/a	n/a	60.209	n/a
40.635	0.497	neutral	Picture	71.631	n/a	1	2	1	n/a	21	28	1	n/a	n/a	n/a	n/a	70.239	AM09NES.jpg
41.132	0.514	Blank	Blank	71.117	n/a	1	2	1	n/a	21	n/a	1	n/a	n/a	n/a	n/a	70.736	n/a
41.662	0.497	neutral	Picture	70.603	n/a	1	2	2	n/a	22	27	1	n/a	n/a	n/a	n/a	71.267	BM08NES.jpg
42.16	0.514	Blank	Blank	70.09	n/a	1	2	2	n/a	22	n/a	1	n/a	n/a	n/a	n/a	71.764	n/a
42.69	0.497	neutral	Picture	69.576	n/a	1	2	3	n/a	23	16	1	n/a	n/a	n/a	n/a	72.295	AF26NES.jpg
43.188	0.514	Blank	Blank	69.062	n/a	1	2	3	n/a	23	n/a	1	n/a	n/a	n/a	n/a	72.792	n/a
43.718	0.497	neutral	Picture	68.548	n/a	1	2	4	n/a	24	3	1	n/a	n/a	n/a	n/a	73.323	BF04NES.jpg
44.216	0.514	Blank	Blank	68.034	n/a	1	2	4	n/a	24	n/a	1	n/a	n/a	n/a	n/a	73.82	n/a
44.746	0.497	neutral	Picture	67.52	n/a	1	2	5	n/a	25	32	1	n/a	n/a	n/a	n/a	74.35	AM14NES.jpg
45.243	0.514	Blank	Blank	67.006	n/a	1	2	5	n/a	25	n/a	1	n/a	n/a	n/a	n/a	74.848	n/a
45.774	0.497	neutral	Picture	66.492	n/a	1	2	6	n/a	26	37	1	n/a	n/a	n/a	n/a	75.378	BM25NES.jpg
46.271	0.514	Blank	Blank	65.978	n/a	1	2	6	n/a	26	n/a	1	n/a	n/a	n/a	n/a	75.876	n/a
46.802	0.497	neutral	Picture	65.464	n/a	1	2	7	n/a	27	15	1	n/a	n/a	n/a	n/a	76.406	AF25NES.jpg
47.299	0.514	Blank	Blank	64.95	n/a	1	2	7	n/a	27	n/a	1	n/a	n/a	n/a	n/a	76.903	n/a
47.83	0.497	neutral	Picture	64.436	n/a	1	2	8	n/a	28	23	1	n/a	n/a	n/a	n/a	77.434	AM04NES.jpg
48.327	0.514	Blank	Blank	63.922	n/a	1	2	8	n/a	28	n/a	1	n/a	n/a	n/a	n/a	77.931	n/a
48.858	0.497	neutral	Picture	63.408	n/a	1	2	9	n/a	29	34	1	n/a	n/a	n/a	n/a	78.462	AM22NES.jpg
49.355	0.514	Blank	Blank	62.894	n/a	1	2	9	n/a	29	n/a	1	n/a	n/a	n/a	n/a	78.959	n/a
49.885	0.497	neutral	Picture	62.38	n/a	1	2	10	n/a	30	24	1	n/a	n/a	n/a	n/a	79.49	BM05NES.jpg
50.383	0.514	Blank	Blank	61.866	n/a	1	2	10	n/a	30	n/a	1	n/a	n/a	n/a	n/a	79.987	n/a
50.913	0.497	neutral	Picture	61.353	n/a	1	2	11	n/a	31	12	1	n/a	n/a	n/a	n/a	80.518	AF21NES.jpg
51.411	0.514	Blank	Blank	60.839	n/a	1	2	11	n/a	31	n/a	1	n/a	n/a	n/a	n/a	81.015	n/a
51.941	0.497	neutral	Picture	60.325	n/a	1	2	12	n/a	32	6	1	n/a	n/a	n/a	n/a	81.546	AF09NES.jpg
52.439	0.514	Blank	Blank	59.811	n/a	1	2	12	n/a	32	n/a	1	n/a	n/a	n/a	n/a	82.043	n/a
52.969	0.497	neutral	Picture	59.297	n/a	1	2	13	n/a	33	17	1	n/a	n/a	n/a	n/a	82.573	BF28NES.jpg
53.467	0.514	Blank	Blank	58.783	n/a	1	2	13	n/a	33	n/a	1	n/a	n/a	n/a	n/a	83.071	n/a
53.997	0.497	neutral	Picture	58.269	n/a	1	2	14	n/a	34	2	1	n/a	n/a	n/a	n/a	83.601	AF03NES.jpg
54.494	0.514	Blank	Blank	57.755	n/a	1	2	14	n/a	34	n/a	1	n/a	n/a	n/a	n/a	84.099	n/a
55.025	0.497	neutral	Picture	57.241	n/a	1	2	15	n/a	35	9	1	n/a	n/a	n/a	n/a	84.629	AF17NES.jpg
55.522	0.514	Blank	Blank	56.727	n/a	1	2	15	n/a	35	n/a	1	n/a	n/a	n/a	n/a	85.126	n/a
56.053	0.497	neutral	Picture	56.213	n/a	1	2	16	n/a	36	25	1	n/a	n/a	n/a	n/a	85.657	BM06NES.jpg
56.55	0.514	Blank	Blank	55.699	n/a	1	2	16	n/a	36	n/a	1	n/a	n/a	n/a	n/a	86.154	n/a
57.081	0.497	neutral	Picture	55.185	n/a	1	2	17	n/a	37	8	1	n/a	n/a	n/a	n/a	86.685	AF14NES.jpg
57.578	0.514	Blank	Blank	54.671	n/a	1	2	17	n/a	37	n/a	1	n/a	n/a	n/a	n/a	87.182	n/a
58.109	0.497	neutral	Picture	54.157	n/a	1	2	18	n/a	38	19	1	n/a	n/a	n/a	n/a	87.713	AF31NES.jpg
58.606	0.514	Blank	Blank	53.643	n/a	1	2	18	n/a	38	n/a	1	n/a	n/a	n/a	n/a	88.21	n/a
59.136	0.497	neutral	Picture	53.129	n/a	1	2	19	n/a	39	14	1	n/a	n/a	n/a	n/a	88.741	AF23NES.jpg
59.634	0.514	Blank	Blank	52.616	n/a	1	2	19	n/a	39	n/a	1	n/a	n/a	n/a	n/a	89.238	n/a
60.164	0.497	neutral	Picture	52.102	n/a	1	2	20	n/a	40	4	1	n/a	n/a	n/a	n/a	89.769	AF05NES.jpg
60.662	0.514	Blank	Blank	51.588	n/a	1	2	20	n/a	40	n/a	1	n/a	n/a	n/a	n/a	90.266	n/a
61.192	10.014	ITI	Fixation+	41.558	n/a	1	n/a	n/a	n/a	n/a	n/a	n/a	n/a	n/a	n/a	n/a	90.796	n/a
71.222	0.497	happy	Picture	41.044	n/a	1	3	1	n/a	41	84	3	n/a	n/a	n/a	n/a	100.827	AF05ANS.jpg
71.72	0.514	Blank	Blank	40.53	n/a	1	3	1	n/a	41	n/a	3	n/a	n/a	n/a	n/a	101.324	n/a
72.25	0.497	happy	Picture	40.016	n/a	1	3	2	n/a	42	92	3	n/a	n/a	n/a	n/a	101.855	AF21ANS.jpg
72.748	0.514	Blank	Blank	39.502	n/a	1	3	2	n/a	42	n/a	3	n/a	n/a	n/a	n/a	102.352	n/a
73.278	0.497	happy	Picture	38.988	n/a	1	3	3	n/a	43	86	3	n/a	n/a	n/a	n/a	102.882	AF09ANS.jpg
73.775	0.514	Blank	Blank	38.474	n/a	1	3	3	n/a	43	n/a	3	n/a	n/a	n/a	n/a	103.38	n/a
74.306	0.497	happy	Picture	37.96	n/a	1	3	4	n/a	44	93	3	n/a	n/a	n/a	n/a	103.91	BF22ANS.jpg
74.803	0.514	Blank	Blank	37.446	n/a	1	3	4	n/a	44	n/a	3	n/a	n/a	n/a	n/a	104.408	n/a
75.334	0.497	happy	Picture	36.932	n/a	1	3	5	n/a	45	88	3	n/a	n/a	n/a	n/a	104.938	AF14ANS.jpg
75.831	0.514	Blank	Blank	36.418	n/a	1	3	5	n/a	45	n/a	3	n/a	n/a	n/a	n/a	105.436	n/a
76.362	0.497	happy	Picture	35.904	n/a	1	3	6	n/a	46	113	3	n/a	n/a	n/a	n/a	105.966	AM21ANS.jpg
76.859	0.514	Blank	Blank	35.39	n/a	1	3	6	n/a	46	n/a	3	n/a	n/a	n/a	n/a	106.463	n/a
77.39	0.497	happy	Picture	34.876	n/a	1	3	7	n/a	47	95	3	n/a	n/a	n/a	n/a	106.994	AF25ANS.jpg
77.887	0.514	Blank	Blank	34.362	n/a	1	3	7	n/a	47	n/a	3	n/a	n/a	n/a	n/a	107.491	n/a
78.418	0.497	happy	Picture	33.848	n/a	1	3	8	n/a	48	102	3	n/a	n/a	n/a	n/a	108.022	BM03ANS.jpg
78.915	0.514	Blank	Blank	33.334	n/a	1	3	8	n/a	48	n/a	3	n/a	n/a	n/a	n/a	108.519	n/a
79.445	0.497	happy	Picture	32.821	n/a	1	3	9	n/a	49	112	3	n/a	n/a	n/a	n/a	109.05	AM14ANS.jpg
79.943	0.514	Blank	Blank	32.307	n/a	1	3	9	n/a	49	n/a	3	n/a	n/a	n/a	n/a	109.547	n/a
80.473	0.497	happy	Picture	31.793	n/a	1	3	10	n/a	50	83	3	n/a	n/a	n/a	n/a	110.078	BF04ANS.jpg
80.971	0.514	Blank	Blank	31.279	n/a	1	3	10	n/a	50	n/a	3	n/a	n/a	n/a	n/a	110.575	n/a
81.501	0.497	happy	Picture	30.765	n/a	1	3	11	n/a	51	90	3	n/a	n/a	n/a	n/a	111.105	AF18ANS.jpg
81.999	0.514	Blank	Blank	30.251	n/a	1	3	11	n/a	51	n/a	3	n/a	n/a	n/a	n/a	111.603	n/a
82.529	0.497	happy	Picture	29.737	n/a	1	3	12	n/a	52	117	3	n/a	n/a	n/a	n/a	112.133	BM25ANS.jpg
83.026	0.514	Blank	Blank	29.223	n/a	1	3	12	n/a	52	n/a	3	n/a	n/a	n/a	n/a	112.631	n/a
83.557	0.497	happy	Picture	28.709	n/a	1	3	13	n/a	53	94	3	n/a	n/a	n/a	n/a	113.161	AF23ANS.jpg
84.054	0.514	Blank	Blank	28.195	n/a	1	3	13	n/a	53	n/a	3	n/a	n/a	n/a	n/a	113.659	n/a
84.585	0.497	happy	Picture	27.681	n/a	1	3	14	n/a	54	106	3	n/a	n/a	n/a	n/a	114.189	AM07ANS.jpg
85.082	0.514	Blank	Blank	27.167	n/a	1	3	14	n/a	54	n/a	3	n/a	n/a	n/a	n/a	114.686	n/a
85.613	0.497	happy	Picture	26.653	n/a	1	3	15	n/a	55	105	3	n/a	n/a	n/a	n/a	115.217	BM06ANS.jpg
86.11	0.514	Blank	Blank	26.139	n/a	1	3	15	n/a	55	n/a	3	n/a	n/a	n/a	n/a	115.714	n/a
86.641	0.497	happy	Picture	25.625	n/a	1	3	16	n/a	56	116	3	n/a	n/a	n/a	n/a	116.245	BM24ANS.jpg
87.138	0.514	Blank	Blank	25.111	n/a	1	3	16	n/a	56	n/a	3	n/a	n/a	n/a	n/a	116.742	n/a
87.668	0.497	happy	Picture	24.597	n/a	1	3	17	n/a	57	89	3	n/a	n/a	n/a	n/a	117.273	AF17ANS.jpg
88.166	0.514	Blank	Blank	24.084	n/a	1	3	17	n/a	57	n/a	3	n/a	n/a	n/a	n/a	117.77	n/a
88.696	0.497	happy	Picture	23.57	n/a	1	3	18	n/a	58	118	3	n/a	n/a	n/a	n/a	118.301	BM26ANS.jpg
89.194	0.514	Blank	Blank	23.056	n/a	1	3	18	n/a	58	n/a	3	n/a	n/a	n/a	n/a	118.798	n/a
89.724	0.497	happy	Picture	22.542	n/a	1	3	19	n/a	59	100	3	n/a	n/a	n/a	n/a	119.329	AF32ANS.jpg
90.222	0.514	Blank	Blank	22.028	n/a	1	3	19	n/a	59	n/a	3	n/a	n/a	n/a	n/a	119.826	n/a
90.752	0.497	happy	Picture	21.514	n/a	1	3	20	n/a	60	119	3	n/a	n/a	n/a	n/a	120.356	BM28ANS.jpg
91.249	0.514	Blank	Blank	21.0	n/a	1	3	20	n/a	60	n/a	3	n/a	n/a	n/a	n/a	120.854	n/a
91.78	10.014	ITI	Fixation+	10.97	n/a	1	n/a	n/a	n/a	n/a	n/a	n/a	n/a	n/a	n/a	n/a	121.384	n/a
112.763	n/a	ConfirmRating	Rate	n/a	10.942	1	n/a	n/a	0	n/a	n/a	n/a	2	Happy	56	49	142.368	n/a
118.871	n/a	ConfirmRating	Rate	n/a	6.101	1	n/a	n/a	1	n/a	n/a	n/a	3	Happy	0	49	148.475	n/a
118.903	10.014	ITI	Fixation+	97.783	n/a	2	n/a	n/a	n/a	n/a	n/a	n/a	n/a	n/a	n/a	n/a	148.507	n/a
128.933	0.497	angry	Picture	97.269	n/a	2	4	1	n/a	61	79	2	n/a	n/a	n/a	n/a	158.537	BM28HAS.jpg
129.43	0.514	Blank	Blank	96.755	n/a	2	4	1	n/a	61	n/a	2	n/a	n/a	n/a	n/a	159.035	n/a
129.961	0.497	angry	Picture	96.241	n/a	2	4	2	n/a	62	61	2	n/a	n/a	n/a	n/a	159.565	AM01HAS.jpg
130.458	0.514	Blank	Blank	95.727	n/a	2	4	2	n/a	62	n/a	2	n/a	n/a	n/a	n/a	160.063	n/a
130.989	0.497	angry	Picture	95.213	n/a	2	4	3	n/a	63	57	2	n/a	n/a	n/a	n/a	160.593	BF28HAS.jpg
131.486	0.514	Blank	Blank	94.699	n/a	2	4	3	n/a	63	n/a	2	n/a	n/a	n/a	n/a	161.09	n/a
132.017	0.497	angry	Picture	94.185	n/a	2	4	4	n/a	64	77	2	n/a	n/a	n/a	n/a	161.621	BM25HAS.jpg
132.514	0.514	Blank	Blank	93.671	n/a	2	4	4	n/a	64	n/a	2	n/a	n/a	n/a	n/a	162.118	n/a
133.044	0.497	angry	Picture	93.157	n/a	2	4	5	n/a	65	47	2	n/a	n/a	n/a	n/a	162.649	BF11HAS.jpg
133.542	0.514	Blank	Blank	92.643	n/a	2	4	5	n/a	65	n/a	2	n/a	n/a	n/a	n/a	163.146	n/a
134.072	0.497	angry	Picture	92.129	n/a	2	4	6	n/a	66	50	2	n/a	n/a	n/a	n/a	163.677	AF18HAS.jpg
134.57	0.514	Blank	Blank	91.615	n/a	2	4	6	n/a	66	n/a	2	n/a	n/a	n/a	n/a	164.174	n/a
135.1	0.497	angry	Picture	91.102	n/a	2	4	7	n/a	67	78	2	n/a	n/a	n/a	n/a	164.704	BM26HAS.jpg
135.598	0.514	Blank	Blank	90.588	n/a	2	4	7	n/a	67	n/a	2	n/a	n/a	n/a	n/a	165.202	n/a
136.128	0.497	angry	Picture	90.074	n/a	2	4	8	n/a	68	45	2	n/a	n/a	n/a	n/a	165.732	BF07HAS.jpg
136.626	0.514	Blank	Blank	89.56	n/a	2	4	8	n/a	68	n/a	2	n/a	n/a	n/a	n/a	166.23	n/a
137.156	0.497	angry	Picture	89.046	n/a	2	4	9	n/a	69	56	2	n/a	n/a	n/a	n/a	166.76	AF26HAS.jpg
137.653	0.514	Blank	Blank	88.532	n/a	2	4	9	n/a	69	n/a	2	n/a	n/a	n/a	n/a	167.258	n/a
138.184	0.497	angry	Picture	88.018	n/a	2	4	10	n/a	70	65	2	n/a	n/a	n/a	n/a	167.788	BM06HAS.jpg
138.681	0.514	Blank	Blank	87.504	n/a	2	4	10	n/a	70	n/a	2	n/a	n/a	n/a	n/a	168.286	n/a
139.212	0.497	angry	Picture	86.99	n/a	2	4	11	n/a	71	73	2	n/a	n/a	n/a	n/a	168.816	AM21HAS.jpg
139.709	0.514	Blank	Blank	86.476	n/a	2	4	11	n/a	71	n/a	2	n/a	n/a	n/a	n/a	169.313	n/a
140.24	0.497	angry	Picture	85.962	n/a	2	4	12	n/a	72	41	2	n/a	n/a	n/a	n/a	169.844	AF01HAS.jpg
140.737	0.514	Blank	Blank	85.448	n/a	2	4	12	n/a	72	n/a	2	n/a	n/a	n/a	n/a	170.341	n/a
141.268	0.497	angry	Picture	84.934	n/a	2	4	13	n/a	73	59	2	n/a	n/a	n/a	n/a	170.872	AF31HAS.jpg
141.765	0.514	Blank	Blank	84.42	n/a	2	4	13	n/a	73	n/a	2	n/a	n/a	n/a	n/a	171.369	n/a
142.295	0.497	angry	Picture	83.906	n/a	2	4	14	n/a	74	64	2	n/a	n/a	n/a	n/a	171.9	BM05HAS.jpg
142.793	0.514	Blank	Blank	83.392	n/a	2	4	14	n/a	74	n/a	2	n/a	n/a	n/a	n/a	172.397	n/a
143.323	0.497	angry	Picture	82.879	n/a	2	4	15	n/a	75	68	2	n/a	n/a	n/a	n/a	172.928	AM09HAS.jpg
143.821	0.514	Blank	Blank	82.364	n/a	2	4	15	n/a	75	n/a	2	n/a	n/a	n/a	n/a	173.425	n/a
144.351	0.497	angry	Picture	81.851	n/a	2	4	16	n/a	76	54	2	n/a	n/a	n/a	n/a	173.956	AF23HAS.jpg
144.849	0.514	Blank	Blank	81.337	n/a	2	4	16	n/a	76	n/a	2	n/a	n/a	n/a	n/a	174.453	n/a
145.379	0.497	angry	Picture	80.823	n/a	2	4	17	n/a	77	53	2	n/a	n/a	n/a	n/a	174.983	BF22HAS.jpg
145.876	0.514	Blank	Blank	80.309	n/a	2	4	17	n/a	77	n/a	2	n/a	n/a	n/a	n/a	175.481	n/a
146.407	0.497	angry	Picture	79.795	n/a	2	4	18	n/a	78	44	2	n/a	n/a	n/a	n/a	176.011	AF05HAS.jpg
146.904	0.514	Blank	Blank	79.281	n/a	2	4	18	n/a	78	n/a	2	n/a	n/a	n/a	n/a	176.509	n/a
147.435	0.497	angry	Picture	78.767	n/a	2	4	19	n/a	79	52	2	n/a	n/a	n/a	n/a	177.039	AF21HAS.jpg
147.932	0.514	Blank	Blank	78.253	n/a	2	4	19	n/a	79	n/a	2	n/a	n/a	n/a	n/a	177.536	n/a
148.463	0.497	angry	Picture	77.739	n/a	2	4	20	n/a	80	62	2	n/a	n/a	n/a	n/a	178.067	BM03HAS.jpg
148.96	0.514	Blank	Blank	77.225	n/a	2	4	20	n/a	80	n/a	2	n/a	n/a	n/a	n/a	178.564	n/a
149.491	10.014	ITI	Fixation+	67.195	n/a	2	n/a	n/a	n/a	n/a	n/a	n/a	n/a	n/a	n/a	n/a	179.095	n/a
159.521	0.497	neutral	Picture	66.681	n/a	2	5	1	n/a	81	23	1	n/a	n/a	n/a	n/a	189.125	AM04NES.jpg
160.018	0.514	Blank	Blank	66.167	n/a	2	5	1	n/a	81	n/a	1	n/a	n/a	n/a	n/a	189.622	n/a
160.549	0.497	neutral	Picture	65.653	n/a	2	5	2	n/a	82	29	1	n/a	n/a	n/a	n/a	190.153	AM10NES.jpg
161.046	0.514	Blank	Blank	65.139	n/a	2	5	2	n/a	82	n/a	1	n/a	n/a	n/a	n/a	190.65	n/a
161.577	0.497	neutral	Picture	64.625	n/a	2	5	3	n/a	83	24	1	n/a	n/a	n/a	n/a	191.181	BM05NES.jpg
162.074	0.514	Blank	Blank	64.111	n/a	2	5	3	n/a	83	n/a	1	n/a	n/a	n/a	n/a	191.678	n/a
162.604	0.497	neutral	Picture	63.597	n/a	2	5	4	n/a	84	12	1	n/a	n/a	n/a	n/a	192.209	AF21NES.jpg
163.102	0.514	Blank	Blank	63.083	n/a	2	5	4	n/a	84	n/a	1	n/a	n/a	n/a	n/a	192.706	n/a
163.632	0.497	neutral	Picture	62.57	n/a	2	5	5	n/a	85	13	1	n/a	n/a	n/a	n/a	193.237	BF22NES.jpg
164.13	0.514	Blank	Blank	62.056	n/a	2	5	5	n/a	85	n/a	1	n/a	n/a	n/a	n/a	193.734	n/a
164.66	0.497	neutral	Picture	61.542	n/a	2	5	6	n/a	86	17	1	n/a	n/a	n/a	n/a	194.264	BF28NES.jpg
165.157	0.514	Blank	Blank	61.028	n/a	2	5	6	n/a	86	n/a	1	n/a	n/a	n/a	n/a	194.762	n/a
165.688	0.497	neutral	Picture	60.514	n/a	2	5	7	n/a	87	4	1	n/a	n/a	n/a	n/a	195.292	AF05NES.jpg
166.185	0.514	Blank	Blank	60.0	n/a	2	5	7	n/a	87	n/a	1	n/a	n/a	n/a	n/a	195.79	n/a
166.716	0.497	neutral	Picture	59.486	n/a	2	5	8	n/a	88	11	1	n/a	n/a	n/a	n/a	196.32	AF20NES.jpg
167.213	0.514	Blank	Blank	58.972	n/a	2	5	8	n/a	88	n/a	1	n/a	n/a	n/a	n/a	196.817	n/a
167.744	0.497	neutral	Picture	58.458	n/a	2	5	9	n/a	89	22	1	n/a	n/a	n/a	n/a	197.348	BM03NES.jpg
168.241	0.514	Blank	Blank	57.944	n/a	2	5	9	n/a	89	n/a	1	n/a	n/a	n/a	n/a	197.845	n/a
168.772	0.497	neutral	Picture	57.43	n/a	2	5	10	n/a	90	15	1	n/a	n/a	n/a	n/a	198.376	AF25NES.jpg
169.269	0.514	Blank	Blank	56.916	n/a	2	5	10	n/a	90	n/a	1	n/a	n/a	n/a	n/a	198.873	n/a
169.799	0.497	neutral	Picture	56.402	n/a	2	5	11	n/a	91	19	1	n/a	n/a	n/a	n/a	199.404	AF31NES.jpg
170.297	0.514	Blank	Blank	55.888	n/a	2	5	11	n/a	91	n/a	1	n/a	n/a	n/a	n/a	199.901	n/a
170.827	0.497	neutral	Picture	55.374	n/a	2	5	12	n/a	92	9	1	n/a	n/a	n/a	n/a	200.432	AF17NES.jpg
171.325	0.514	Blank	Blank	54.86	n/a	2	5	12	n/a	92	n/a	1	n/a	n/a	n/a	n/a	200.929	n/a
171.855	0.497	neutral	Picture	54.346	n/a	2	5	13	n/a	93	14	1	n/a	n/a	n/a	n/a	201.46	AF23NES.jpg
172.353	0.514	Blank	Blank	53.833	n/a	2	5	13	n/a	93	n/a	1	n/a	n/a	n/a	n/a	201.957	n/a
172.883	0.497	neutral	Picture	53.319	n/a	2	5	14	n/a	94	36	1	n/a	n/a	n/a	n/a	202.488	BM24NES.jpg
173.381	0.514	Blank	Blank	52.805	n/a	2	5	14	n/a	94	n/a	1	n/a	n/a	n/a	n/a	202.985	n/a
173.911	0.497	neutral	Picture	52.291	n/a	2	5	15	n/a	95	34	1	n/a	n/a	n/a	n/a	203.515	AM22NES.jpg
174.408	0.514	Blank	Blank	51.777	n/a	2	5	15	n/a	95	n/a	1	n/a	n/a	n/a	n/a	204.013	n/a
174.939	0.497	neutral	Picture	51.263	n/a	2	5	16	n/a	96	10	1	n/a	n/a	n/a	n/a	204.543	AF18NES.jpg
175.436	0.514	Blank	Blank	50.749	n/a	2	5	16	n/a	96	n/a	1	n/a	n/a	n/a	n/a	205.041	n/a
175.967	0.497	neutral	Picture	50.235	n/a	2	5	17	n/a	97	5	1	n/a	n/a	n/a	n/a	205.571	BF07NES.jpg
176.464	0.514	Blank	Blank	49.721	n/a	2	5	17	n/a	97	n/a	1	n/a	n/a	n/a	n/a	206.069	n/a
176.995	0.497	neutral	Picture	49.207	n/a	2	5	18	n/a	98	25	1	n/a	n/a	n/a	n/a	206.599	BM06NES.jpg
177.492	0.514	Blank	Blank	48.693	n/a	2	5	18	n/a	98	n/a	1	n/a	n/a	n/a	n/a	207.096	n/a
178.023	0.497	neutral	Picture	48.179	n/a	2	5	19	n/a	99	39	1	n/a	n/a	n/a	n/a	207.627	AM28NES.jpg
178.52	0.514	Blank	Blank	47.665	n/a	2	5	19	n/a	99	n/a	1	n/a	n/a	n/a	n/a	208.124	n/a
179.05	0.497	neutral	Picture	47.151	n/a	2	5	20	n/a	100	33	1	n/a	n/a	n/a	n/a	208.655	AM21NES.jpg
179.548	0.514	Blank	Blank	46.637	n/a	2	5	20	n/a	100	n/a	1	n/a	n/a	n/a	n/a	209.152	n/a
180.078	10.014	ITI	Fixation+	36.607	n/a	2	n/a	n/a	n/a	n/a	n/a	n/a	n/a	n/a	n/a	n/a	209.683	n/a
190.108	0.497	angry	Picture	36.093	n/a	2	6	1	n/a	101	74	2	n/a	n/a	n/a	n/a	219.713	AM22HAS.jpg
190.606	0.514	Blank	Blank	35.579	n/a	2	6	1	n/a	101	n/a	2	n/a	n/a	n/a	n/a	220.21	n/a
191.136	0.497	angry	Picture	35.065	n/a	2	6	2	n/a	102	76	2	n/a	n/a	n/a	n/a	220.741	BM24HAS.jpg
191.634	0.514	Blank	Blank	34.551	n/a	2	6	2	n/a	102	n/a	2	n/a	n/a	n/a	n/a	221.238	n/a
192.164	0.497	angry	Picture	34.038	n/a	2	6	3	n/a	103	80	2	n/a	n/a	n/a	n/a	221.769	BM35HAS.jpg
192.662	0.514	Blank	Blank	33.524	n/a	2	6	3	n/a	103	n/a	2	n/a	n/a	n/a	n/a	222.266	n/a
193.192	0.497	angry	Picture	33.01	n/a	2	6	4	n/a	104	75	2	n/a	n/a	n/a	n/a	222.796	AM23HAS.jpg
193.69	0.514	Blank	Blank	32.496	n/a	2	6	4	n/a	104	n/a	2	n/a	n/a	n/a	n/a	223.294	n/a
194.22	0.497	angry	Picture	31.982	n/a	2	6	5	n/a	105	49	2	n/a	n/a	n/a	n/a	223.824	AF17HAS.jpg
194.717	0.514	Blank	Blank	31.468	n/a	2	6	5	n/a	105	n/a	2	n/a	n/a	n/a	n/a	224.322	n/a
195.248	0.497	angry	Picture	30.954	n/a	2	6	6	n/a	106	43	2	n/a	n/a	n/a	n/a	224.852	BF04HAS.jpg
195.745	0.514	Blank	Blank	30.44	n/a	2	6	6	n/a	106	n/a	2	n/a	n/a	n/a	n/a	225.35	n/a
196.276	0.497	angry	Picture	29.926	n/a	2	6	7	n/a	107	70	2	n/a	n/a	n/a	n/a	225.88	BM11HAS.jpg
196.773	0.514	Blank	Blank	29.412	n/a	2	6	7	n/a	107	n/a	2	n/a	n/a	n/a	n/a	226.377	n/a
197.304	0.497	angry	Picture	28.898	n/a	2	6	8	n/a	108	66	2	n/a	n/a	n/a	n/a	226.908	BM07HAS.jpg
197.801	0.514	Blank	Blank	28.384	n/a	2	6	8	n/a	108	n/a	2	n/a	n/a	n/a	n/a	227.405	n/a
198.332	0.497	angry	Picture	27.87	n/a	2	6	9	n/a	109	48	2	n/a	n/a	n/a	n/a	227.936	AF14HAS.jpg
198.829	0.514	Blank	Blank	27.356	n/a	2	6	9	n/a	109	n/a	2	n/a	n/a	n/a	n/a	228.433	n/a
199.359	0.497	angry	Picture	26.842	n/a	2	6	10	n/a	110	58	2	n/a	n/a	n/a	n/a	228.964	BF29HAS.jpg
199.857	0.514	Blank	Blank	26.328	n/a	2	6	10	n/a	110	n/a	2	n/a	n/a	n/a	n/a	229.461	n/a
200.387	0.497	angry	Picture	25.814	n/a	2	6	11	n/a	111	63	2	n/a	n/a	n/a	n/a	229.992	AM04HAS.jpg
200.885	0.514	Blank	Blank	25.3	n/a	2	6	11	n/a	111	n/a	2	n/a	n/a	n/a	n/a	230.489	n/a
201.415	0.497	angry	Picture	24.787	n/a	2	6	12	n/a	112	72	2	n/a	n/a	n/a	n/a	231.019	AM14HAS.jpg
201.913	0.514	Blank	Blank	24.273	n/a	2	6	12	n/a	112	n/a	2	n/a	n/a	n/a	n/a	231.517	n/a
202.443	0.497	angry	Picture	23.759	n/a	2	6	13	n/a	113	55	2	n/a	n/a	n/a	n/a	232.047	AF25HAS.jpg
202.94	0.514	Blank	Blank	23.245	n/a	2	6	13	n/a	113	n/a	2	n/a	n/a	n/a	n/a	232.545	n/a
203.471	0.497	angry	Picture	22.731	n/a	2	6	14	n/a	114	42	2	n/a	n/a	n/a	n/a	233.075	AF03HAS.jpg
203.968	0.514	Blank	Blank	22.217	n/a	2	6	14	n/a	114	n/a	2	n/a	n/a	n/a	n/a	233.573	n/a
204.499	0.497	angry	Picture	21.703	n/a	2	6	15	n/a	115	60	2	n/a	n/a	n/a	n/a	234.103	AF32HAS.jpg
204.996	0.514	Blank	Blank	21.189	n/a	2	6	15	n/a	115	n/a	2	n/a	n/a	n/a	n/a	234.601	n/a
205.527	0.497	angry	Picture	20.675	n/a	2	6	16	n/a	116	67	2	n/a	n/a	n/a	n/a	235.131	BM08HAS.jpg
206.024	0.514	Blank	Blank	20.161	n/a	2	6	16	n/a	116	n/a	2	n/a	n/a	n/a	n/a	235.628	n/a
206.555	0.497	angry	Picture	19.647	n/a	2	6	17	n/a	117	51	2	n/a	n/a	n/a	n/a	236.159	AF20HAS.jpg
207.052	0.514	Blank	Blank	19.133	n/a	2	6	17	n/a	117	n/a	2	n/a	n/a	n/a	n/a	236.656	n/a
207.583	0.497	angry	Picture	18.619	n/a	2	6	18	n/a	118	71	2	n/a	n/a	n/a	n/a	237.187	BM12HAS.jpg
208.08	0.514	Blank	Blank	18.105	n/a	2	6	18	n/a	118	n/a	2	n/a	n/a	n/a	n/a	237.684	n/a
208.61	0.497	angry	Picture	17.591	n/a	2	6	19	n/a	119	69	2	n/a	n/a	n/a	n/a	238.215	AM10HAS.jpg
209.108	0.514	Blank	Blank	17.077	n/a	2	6	19	n/a	119	n/a	2	n/a	n/a	n/a	n/a	238.712	n/a
209.638	0.497	angry	Picture	16.564	n/a	2	6	20	n/a	120	46	2	n/a	n/a	n/a	n/a	239.243	AF09HAS.jpg
210.136	0.514	Blank	Blank	16.049	n/a	2	6	20	n/a	120	n/a	2	n/a	n/a	n/a	n/a	239.74	n/a
210.666	10.014	ITI	Fixation+	6.019	n/a	2	n/a	n/a	n/a	n/a	n/a	n/a	n/a	n/a	n/a	n/a	240.27	n/a
226.699	n/a	ConfirmRating	Rate	n/a	6.018	2	n/a	n/a	0	n/a	n/a	n/a	2	Angry	80	54	256.303	n/a
230.476	n/a	ConfirmRating	Rate	n/a	3.747	2	n/a	n/a	1	n/a	n/a	n/a	3	Angry	0	49	260.08	n/a
230.494	15.004	Rest	Picture	n/a	n/a	n/a	n/a	n/a	n/a	n/a	n/a	n/a	0	n/a	0	0	260.099	n/a
245.515	10.014	ITI	Fixation+	102.211	n/a	3	n/a	n/a	n/a	n/a	n/a	n/a	n/a	n/a	n/a	n/a	275.119	n/a
255.545	0.497	happy	Picture	101.697	n/a	3	7	1	n/a	1	108	3	n/a	n/a	n/a	n/a	285.149	AM09ANS.jpg
256.042	0.514	Blank	Blank	101.184	n/a	3	7	1	n/a	1	n/a	3	n/a	n/a	n/a	n/a	285.647	n/a
256.573	0.497	happy	Picture	100.67	n/a	3	7	2	n/a	2	99	3	n/a	n/a	n/a	n/a	286.177	AF31ANS.jpg
257.07	0.514	Blank	Blank	100.156	n/a	3	7	2	n/a	2	n/a	3	n/a	n/a	n/a	n/a	286.674	n/a
257.601	0.497	happy	Picture	99.642	n/a	3	7	3	n/a	3	98	3	n/a	n/a	n/a	n/a	287.205	BF29ANS.jpg
258.098	0.514	Blank	Blank	99.128	n/a	3	7	3	n/a	3	n/a	3	n/a	n/a	n/a	n/a	287.702	n/a
258.628	0.497	happy	Picture	98.614	n/a	3	7	4	n/a	4	107	3	n/a	n/a	n/a	n/a	288.233	BM08ANS.jpg
259.126	0.514	Blank	Blank	98.1	n/a	3	7	4	n/a	4	n/a	3	n/a	n/a	n/a	n/a	288.73	n/a
259.656	0.497	happy	Picture	97.586	n/a	3	7	5	n/a	5	104	3	n/a	n/a	n/a	n/a	289.261	BM05ANS.jpg
260.154	0.514	Blank	Blank	97.072	n/a	3	7	5	n/a	5	n/a	3	n/a	n/a	n/a	n/a	289.758	n/a
260.684	0.497	happy	Picture	96.558	n/a	3	7	6	n/a	6	101	3	n/a	n/a	n/a	n/a	290.288	AM01ANS.jpg
261.182	0.514	Blank	Blank	96.044	n/a	3	7	6	n/a	6	n/a	3	n/a	n/a	n/a	n/a	290.786	n/a
261.712	0.497	happy	Picture	95.53	n/a	3	7	7	n/a	7	103	3	n/a	n/a	n/a	n/a	291.316	AM04ANS.jpg
262.209	0.514	Blank	Blank	95.016	n/a	3	7	7	n/a	7	n/a	3	n/a	n/a	n/a	n/a	291.814	n/a
262.74	0.497	happy	Picture	94.502	n/a	3	7	8	n/a	8	111	3	n/a	n/a	n/a	n/a	292.344	BM12ANS.jpg
263.237	0.514	Blank	Blank	93.988	n/a	3	7	8	n/a	8	n/a	3	n/a	n/a	n/a	n/a	292.842	n/a
263.768	0.497	happy	Picture	93.474	n/a	3	7	9	n/a	9	110	3	n/a	n/a	n/a	n/a	293.372	AM11ANS.jpg
264.265	0.514	Blank	Blank	92.96	n/a	3	7	9	n/a	9	n/a	3	n/a	n/a	n/a	n/a	293.87	n/a
264.796	0.497	happy	Picture	92.447	n/a	3	7	10	n/a	10	85	3	n/a	n/a	n/a	n/a	294.4	BF07ANS.jpg
265.293	0.514	Blank	Blank	91.933	n/a	3	7	10	n/a	10	n/a	3	n/a	n/a	n/a	n/a	294.897	n/a
265.824	0.497	happy	Picture	91.419	n/a	3	7	11	n/a	11	87	3	n/a	n/a	n/a	n/a	295.428	BF11ANS.jpg
266.321	0.514	Blank	Blank	90.905	n/a	3	7	11	n/a	11	n/a	3	n/a	n/a	n/a	n/a	295.925	n/a
266.851	0.497	happy	Picture	90.391	n/a	3	7	12	n/a	12	91	3	n/a	n/a	n/a	n/a	296.456	AF20ANS.jpg
267.349	0.514	Blank	Blank	89.877	n/a	3	7	12	n/a	12	n/a	3	n/a	n/a	n/a	n/a	296.953	n/a
267.879	0.497	happy	Picture	89.363	n/a	3	7	13	n/a	13	115	3	n/a	n/a	n/a	n/a	297.484	AM23ANS.jpg
268.377	0.514	Blank	Blank	88.849	n/a	3	7	13	n/a	13	n/a	3	n/a	n/a	n/a	n/a	297.981	n/a
268.907	0.497	happy	Picture	88.335	n/a	3	7	14	n/a	14	97	3	n/a	n/a	n/a	n/a	298.512	BF28ANS.jpg
269.405	0.514	Blank	Blank	87.821	n/a	3	7	14	n/a	14	n/a	3	n/a	n/a	n/a	n/a	299.009	n/a
269.935	0.497	happy	Picture	87.307	n/a	3	7	15	n/a	15	82	3	n/a	n/a	n/a	n/a	299.539	AF03ANS.jpg
270.433	0.514	Blank	Blank	86.793	n/a	3	7	15	n/a	15	n/a	3	n/a	n/a	n/a	n/a	300.037	n/a
270.963	0.497	happy	Picture	86.279	n/a	3	7	16	n/a	16	96	3	n/a	n/a	n/a	n/a	300.567	AF26ANS.jpg
271.46	0.514	Blank	Blank	85.765	n/a	3	7	16	n/a	16	n/a	3	n/a	n/a	n/a	n/a	301.065	n/a
271.991	0.497	happy	Picture	85.251	n/a	3	7	17	n/a	17	109	3	n/a	n/a	n/a	n/a	301.595	AM10ANS.jpg
272.488	0.514	Blank	Blank	84.738	n/a	3	7	17	n/a	17	n/a	3	n/a	n/a	n/a	n/a	302.093	n/a
273.019	0.497	happy	Picture	84.223	n/a	3	7	18	n/a	18	114	3	n/a	n/a	n/a	n/a	302.623	AM22ANS.jpg
273.516	0.514	Blank	Blank	83.71	n/a	3	7	18	n/a	18	n/a	3	n/a	n/a	n/a	n/a	303.12	n/a
274.047	0.497	happy	Picture	83.196	n/a	3	7	19	n/a	19	120	3	n/a	n/a	n/a	n/a	303.651	AM35ANS.jpg
274.544	0.514	Blank	Blank	82.682	n/a	3	7	19	n/a	19	n/a	3	n/a	n/a	n/a	n/a	304.148	n/a
275.075	0.497	happy	Picture	82.168	n/a	3	7	20	n/a	20	81	3	n/a	n/a	n/a	n/a	304.679	AF01ANS.jpg
275.572	0.514	Blank	Blank	81.654	n/a	3	7	20	n/a	20	n/a	3	n/a	n/a	n/a	n/a	305.176	n/a
276.102	10.014	ITI	Fixation+	71.624	n/a	3	n/a	n/a	n/a	n/a	n/a	n/a	n/a	n/a	n/a	n/a	305.707	n/a
286.133	0.497	neutral	Picture	71.11	n/a	3	8	1	n/a	21	28	1	n/a	n/a	n/a	n/a	315.737	AM09NES.jpg
286.63	0.514	Blank	Blank	70.596	n/a	3	8	1	n/a	21	n/a	1	n/a	n/a	n/a	n/a	316.234	n/a
287.16	0.497	neutral	Picture	70.082	n/a	3	8	2	n/a	22	27	1	n/a	n/a	n/a	n/a	316.765	BM08NES.jpg
287.658	0.514	Blank	Blank	69.568	n/a	3	8	2	n/a	22	n/a	1	n/a	n/a	n/a	n/a	317.262	n/a
288.188	0.497	neutral	Picture	69.054	n/a	3	8	3	n/a	23	16	1	n/a	n/a	n/a	n/a	317.793	AF26NES.jpg
288.686	0.514	Blank	Blank	68.54	n/a	3	8	3	n/a	23	n/a	1	n/a	n/a	n/a	n/a	318.29	n/a
289.216	0.497	neutral	Picture	68.026	n/a	3	8	4	n/a	24	3	1	n/a	n/a	n/a	n/a	318.82	BF04NES.jpg
289.714	0.514	Blank	Blank	67.512	n/a	3	8	4	n/a	24	n/a	1	n/a	n/a	n/a	n/a	319.318	n/a
290.244	0.497	neutral	Picture	66.998	n/a	3	8	5	n/a	25	32	1	n/a	n/a	n/a	n/a	319.848	AM14NES.jpg
290.741	0.514	Blank	Blank	66.484	n/a	3	8	5	n/a	25	n/a	1	n/a	n/a	n/a	n/a	320.346	n/a
291.272	0.497	neutral	Picture	65.97	n/a	3	8	6	n/a	26	37	1	n/a	n/a	n/a	n/a	320.876	BM25NES.jpg
291.769	0.514	Blank	Blank	65.456	n/a	3	8	6	n/a	26	n/a	1	n/a	n/a	n/a	n/a	321.374	n/a
292.3	0.497	neutral	Picture	64.942	n/a	3	8	7	n/a	27	15	1	n/a	n/a	n/a	n/a	321.904	AF25NES.jpg
292.797	0.514	Blank	Blank	64.429	n/a	3	8	7	n/a	27	n/a	1	n/a	n/a	n/a	n/a	322.402	n/a
293.328	0.497	neutral	Picture	63.915	n/a	3	8	8	n/a	28	23	1	n/a	n/a	n/a	n/a	322.932	AM04NES.jpg
293.825	0.514	Blank	Blank	63.401	n/a	3	8	8	n/a	28	n/a	1	n/a	n/a	n/a	n/a	323.429	n/a
294.356	0.497	neutral	Picture	62.887	n/a	3	8	9	n/a	29	34	1	n/a	n/a	n/a	n/a	323.96	AM22NES.jpg
294.853	0.514	Blank	Blank	62.373	n/a	3	8	9	n/a	29	n/a	1	n/a	n/a	n/a	n/a	324.457	n/a
295.383	0.497	neutral	Picture	61.859	n/a	3	8	10	n/a	30	24	1	n/a	n/a	n/a	n/a	324.988	BM05NES.jpg
295.881	0.514	Blank	Blank	61.345	n/a	3	8	10	n/a	30	n/a	1	n/a	n/a	n/a	n/a	325.485	n/a
296.411	0.497	neutral	Picture	60.831	n/a	3	8	11	n/a	31	12	1	n/a	n/a	n/a	n/a	326.016	AF21NES.jpg
296.909	0.514	Blank	Blank	60.317	n/a	3	8	11	n/a	31	n/a	1	n/a	n/a	n/a	n/a	326.513	n/a
297.439	0.497	neutral	Picture	59.803	n/a	3	8	12	n/a	32	6	1	n/a	n/a	n/a	n/a	327.044	AF09NES.jpg
297.937	0.514	Blank	Blank	59.289	n/a	3	8	12	n/a	32	n/a	1	n/a	n/a	n/a	n/a	327.541	n/a
298.467	0.497	neutral	Picture	58.775	n/a	3	8	13	n/a	33	17	1	n/a	n/a	n/a	n/a	328.072	BF28NES.jpg
298.964	0.514	Blank	Blank	58.261	n/a	3	8	13	n/a	33	n/a	1	n/a	n/a	n/a	n/a	328.569	n/a
299.495	0.497	neutral	Picture	57.747	n/a	3	8	14	n/a	34	2	1	n/a	n/a	n/a	n/a	329.099	AF03NES.jpg
299.992	0.514	Blank	Blank	57.233	n/a	3	8	14	n/a	34	n/a	1	n/a	n/a	n/a	n/a	329.597	n/a
300.523	0.497	neutral	Picture	56.719	n/a	3	8	15	n/a	35	9	1	n/a	n/a	n/a	n/a	330.127	AF17NES.jpg
301.02	0.514	Blank	Blank	56.205	n/a	3	8	15	n/a	35	n/a	1	n/a	n/a	n/a	n/a	330.625	n/a
301.551	0.497	neutral	Picture	55.691	n/a	3	8	16	n/a	36	25	1	n/a	n/a	n/a	n/a	331.155	BM06NES.jpg
302.048	0.514	Blank	Blank	55.178	n/a	3	8	16	n/a	36	n/a	1	n/a	n/a	n/a	n/a	331.652	n/a
302.579	0.497	neutral	Picture	54.664	n/a	3	8	17	n/a	37	8	1	n/a	n/a	n/a	n/a	332.183	AF14NES.jpg
303.076	0.514	Blank	Blank	54.15	n/a	3	8	17	n/a	37	n/a	1	n/a	n/a	n/a	n/a	332.68	n/a
303.607	0.497	neutral	Picture	53.636	n/a	3	8	18	n/a	38	19	1	n/a	n/a	n/a	n/a	333.211	AF31NES.jpg
304.104	0.514	Blank	Blank	53.122	n/a	3	8	18	n/a	38	n/a	1	n/a	n/a	n/a	n/a	333.708	n/a
304.635	0.497	neutral	Picture	52.608	n/a	3	8	19	n/a	39	14	1	n/a	n/a	n/a	n/a	334.239	AF23NES.jpg
305.132	0.514	Blank	Blank	52.094	n/a	3	8	19	n/a	39	n/a	1	n/a	n/a	n/a	n/a	334.736	n/a
305.662	0.497	neutral	Picture	51.58	n/a	3	8	20	n/a	40	4	1	n/a	n/a	n/a	n/a	335.267	AF05NES.jpg
306.16	0.514	Blank	Blank	51.066	n/a	3	8	20	n/a	40	n/a	1	n/a	n/a	n/a	n/a	335.764	n/a
306.69	10.014	ITI	Fixation+	41.036	n/a	3	n/a	n/a	n/a	n/a	n/a	n/a	n/a	n/a	n/a	n/a	336.295	n/a
316.72	0.497	happy	Picture	40.522	n/a	3	9	1	n/a	41	84	3	n/a	n/a	n/a	n/a	346.325	AF05ANS.jpg
317.218	0.514	Blank	Blank	40.008	n/a	3	9	1	n/a	41	n/a	3	n/a	n/a	n/a	n/a	346.822	n/a
317.748	0.497	happy	Picture	39.494	n/a	3	9	2	n/a	42	92	3	n/a	n/a	n/a	n/a	347.353	AF21ANS.jpg
318.246	0.514	Blank	Blank	38.98	n/a	3	9	2	n/a	42	n/a	3	n/a	n/a	n/a	n/a	347.85	n/a
318.776	0.497	happy	Picture	38.466	n/a	3	9	3	n/a	43	86	3	n/a	n/a	n/a	n/a	348.38	AF09ANS.jpg
319.273	0.514	Blank	Blank	37.952	n/a	3	9	3	n/a	43	n/a	3	n/a	n/a	n/a	n/a	348.878	n/a
319.804	0.497	happy	Picture	37.438	n/a	3	9	4	n/a	44	93	3	n/a	n/a	n/a	n/a	349.408	BF22ANS.jpg
320.301	0.514	Blank	Blank	36.924	n/a	3	9	4	n/a	44	n/a	3	n/a	n/a	n/a	n/a	349.906	n/a
320.832	0.497	happy	Picture	36.41	n/a	3	9	5	n/a	45	88	3	n/a	n/a	n/a	n/a	350.436	AF14ANS.jpg
321.329	0.514	Blank	Blank	35.897	n/a	3	9	5	n/a	45	n/a	3	n/a	n/a	n/a	n/a	350.934	n/a
321.86	0.497	happy	Picture	35.382	n/a	3	9	6	n/a	46	113	3	n/a	n/a	n/a	n/a	351.464	AM21ANS.jpg
322.357	0.514	Blank	Blank	34.869	n/a	3	9	6	n/a	46	n/a	3	n/a	n/a	n/a	n/a	351.962	n/a
322.888	0.497	happy	Picture	34.355	n/a	3	9	7	n/a	47	95	3	n/a	n/a	n/a	n/a	352.492	AF25ANS.jpg
323.385	0.514	Blank	Blank	33.841	n/a	3	9	7	n/a	47	n/a	3	n/a	n/a	n/a	n/a	352.989	n/a
323.916	0.497	happy	Picture	33.327	n/a	3	9	8	n/a	48	102	3	n/a	n/a	n/a	n/a	353.52	BM03ANS.jpg
324.413	0.514	Blank	Blank	32.813	n/a	3	9	8	n/a	48	n/a	3	n/a	n/a	n/a	n/a	354.017	n/a
324.943	0.497	happy	Picture	32.299	n/a	3	9	9	n/a	49	112	3	n/a	n/a	n/a	n/a	354.548	AM14ANS.jpg
325.441	0.514	Blank	Blank	31.785	n/a	3	9	9	n/a	49	n/a	3	n/a	n/a	n/a	n/a	355.045	n/a
325.971	0.497	happy	Picture	31.271	n/a	3	9	10	n/a	50	83	3	n/a	n/a	n/a	n/a	355.576	BF04ANS.jpg
326.469	0.514	Blank	Blank	30.757	n/a	3	9	10	n/a	50	n/a	3	n/a	n/a	n/a	n/a	356.073	n/a
326.999	0.497	happy	Picture	30.243	n/a	3	9	11	n/a	51	90	3	n/a	n/a	n/a	n/a	356.603	AF18ANS.jpg
327.497	0.514	Blank	Blank	29.729	n/a	3	9	11	n/a	51	n/a	3	n/a	n/a	n/a	n/a	357.101	n/a
328.027	0.497	happy	Picture	29.215	n/a	3	9	12	n/a	52	117	3	n/a	n/a	n/a	n/a	357.631	BM25ANS.jpg
328.524	0.514	Blank	Blank	28.701	n/a	3	9	12	n/a	52	n/a	3	n/a	n/a	n/a	n/a	358.129	n/a
329.055	0.497	happy	Picture	28.187	n/a	3	9	13	n/a	53	94	3	n/a	n/a	n/a	n/a	358.659	AF23ANS.jpg
329.552	0.514	Blank	Blank	27.673	n/a	3	9	13	n/a	53	n/a	3	n/a	n/a	n/a	n/a	359.157	n/a
330.083	0.497	happy	Picture	27.159	n/a	3	9	14	n/a	54	106	3	n/a	n/a	n/a	n/a	359.687	AM07ANS.jpg
330.58	0.514	Blank	Blank	26.645	n/a	3	9	14	n/a	54	n/a	3	n/a	n/a	n/a	n/a	360.185	n/a
331.111	0.497	happy	Picture	26.132	n/a	3	9	15	n/a	55	105	3	n/a	n/a	n/a	n/a	360.715	BM06ANS.jpg
331.608	0.514	Blank	Blank	25.618	n/a	3	9	15	n/a	55	n/a	3	n/a	n/a	n/a	n/a	361.212	n/a
332.139	0.497	happy	Picture	25.104	n/a	3	9	16	n/a	56	116	3	n/a	n/a	n/a	n/a	361.743	BM24ANS.jpg
332.636	0.514	Blank	Blank	24.59	n/a	3	9	16	n/a	56	n/a	3	n/a	n/a	n/a	n/a	362.24	n/a
333.166	0.497	happy	Picture	24.076	n/a	3	9	17	n/a	57	89	3	n/a	n/a	n/a	n/a	362.771	AF17ANS.jpg
333.664	0.514	Blank	Blank	23.562	n/a	3	9	17	n/a	57	n/a	3	n/a	n/a	n/a	n/a	363.268	n/a
334.194	0.497	happy	Picture	23.048	n/a	3	9	18	n/a	58	118	3	n/a	n/a	n/a	n/a	363.799	BM26ANS.jpg
334.692	0.514	Blank	Blank	22.534	n/a	3	9	18	n/a	58	n/a	3	n/a	n/a	n/a	n/a	364.296	n/a
335.222	0.497	happy	Picture	22.02	n/a	3	9	19	n/a	59	100	3	n/a	n/a	n/a	n/a	364.827	AF32ANS.jpg
335.72	0.514	Blank	Blank	21.506	n/a	3	9	19	n/a	59	n/a	3	n/a	n/a	n/a	n/a	365.324	n/a
336.25	0.497	happy	Picture	20.992	n/a	3	9	20	n/a	60	119	3	n/a	n/a	n/a	n/a	365.854	BM28ANS.jpg
336.748	0.514	Blank	Blank	20.478	n/a	3	9	20	n/a	60	n/a	3	n/a	n/a	n/a	n/a	366.352	n/a
337.278	10.014	ITI	Fixation+	10.448	n/a	3	n/a	n/a	n/a	n/a	n/a	n/a	n/a	n/a	n/a	n/a	366.882	n/a
357.74	n/a	ConfirmRating	Rate	n/a	10.445	3	n/a	n/a	0	n/a	n/a	n/a	2	Happy	57	49	387.344	n/a
362.033	n/a	ConfirmRating	Rate	n/a	4.278	3	n/a	n/a	1	n/a	n/a	n/a	3	Happy	0	49	391.637	n/a
362.063	10.014	ITI	Fixation+	105.516	n/a	4	n/a	n/a	n/a	n/a	n/a	n/a	n/a	n/a	n/a	n/a	391.668	n/a
372.093	0.497	angry	Picture	105.002	n/a	4	10	1	n/a	61	79	2	n/a	n/a	n/a	n/a	401.698	BM28HAS.jpg
372.591	0.514	Blank	Blank	104.488	n/a	4	10	1	n/a	61	n/a	2	n/a	n/a	n/a	n/a	402.195	n/a
373.121	0.497	angry	Picture	103.974	n/a	4	10	2	n/a	62	61	2	n/a	n/a	n/a	n/a	402.726	AM01HAS.jpg
373.619	0.514	Blank	Blank	103.46	n/a	4	10	2	n/a	62	n/a	2	n/a	n/a	n/a	n/a	403.223	n/a
374.149	0.497	angry	Picture	102.946	n/a	4	10	3	n/a	63	57	2	n/a	n/a	n/a	n/a	403.753	BF28HAS.jpg
374.647	0.514	Blank	Blank	102.432	n/a	4	10	3	n/a	63	n/a	2	n/a	n/a	n/a	n/a	404.251	n/a
375.177	0.497	angry	Picture	101.918	n/a	4	10	4	n/a	64	77	2	n/a	n/a	n/a	n/a	404.781	BM25HAS.jpg
375.674	0.514	Blank	Blank	101.404	n/a	4	10	4	n/a	64	n/a	2	n/a	n/a	n/a	n/a	405.279	n/a
376.205	0.497	angry	Picture	100.89	n/a	4	10	5	n/a	65	47	2	n/a	n/a	n/a	n/a	405.809	BF11HAS.jpg
376.702	0.514	Blank	Blank	100.376	n/a	4	10	5	n/a	65	n/a	2	n/a	n/a	n/a	n/a	406.307	n/a
377.233	0.497	angry	Picture	99.862	n/a	4	10	6	n/a	66	50	2	n/a	n/a	n/a	n/a	406.837	AF18HAS.jpg
377.73	0.514	Blank	Blank	99.348	n/a	4	10	6	n/a	66	n/a	2	n/a	n/a	n/a	n/a	407.334	n/a
378.261	0.497	angry	Picture	98.834	n/a	4	10	7	n/a	67	78	2	n/a	n/a	n/a	n/a	407.865	BM26HAS.jpg
378.758	0.514	Blank	Blank	98.32	n/a	4	10	7	n/a	67	n/a	2	n/a	n/a	n/a	n/a	408.362	n/a
379.289	0.497	angry	Picture	97.807	n/a	4	10	8	n/a	68	45	2	n/a	n/a	n/a	n/a	408.893	BF07HAS.jpg
379.786	0.514	Blank	Blank	97.293	n/a	4	10	8	n/a	68	n/a	2	n/a	n/a	n/a	n/a	409.39	n/a
380.316	0.497	angry	Picture	96.779	n/a	4	10	9	n/a	69	56	2	n/a	n/a	n/a	n/a	409.921	AF26HAS.jpg
380.814	0.514	Blank	Blank	96.265	n/a	4	10	9	n/a	69	n/a	2	n/a	n/a	n/a	n/a	410.418	n/a
381.344	0.497	angry	Picture	95.751	n/a	4	10	10	n/a	70	65	2	n/a	n/a	n/a	n/a	410.949	BM06HAS.jpg
381.842	0.514	Blank	Blank	95.237	n/a	4	10	10	n/a	70	n/a	2	n/a	n/a	n/a	n/a	411.446	n/a
382.372	0.497	angry	Picture	94.723	n/a	4	10	11	n/a	71	73	2	n/a	n/a	n/a	n/a	411.976	AM21HAS.jpg
382.87	0.514	Blank	Blank	94.209	n/a	4	10	11	n/a	71	n/a	2	n/a	n/a	n/a	n/a	412.474	n/a
383.4	0.497	angry	Picture	93.695	n/a	4	10	12	n/a	72	41	2	n/a	n/a	n/a	n/a	413.004	AF01HAS.jpg
383.897	0.514	Blank	Blank	93.181	n/a	4	10	12	n/a	72	n/a	2	n/a	n/a	n/a	n/a	413.502	n/a
384.428	0.497	angry	Picture	92.667	n/a	4	10	13	n/a	73	59	2	n/a	n/a	n/a	n/a	414.032	AF31HAS.jpg
384.925	0.514	Blank	Blank	92.153	n/a	4	10	13	n/a	73	n/a	2	n/a	n/a	n/a	n/a	414.53	n/a
385.456	0.497	angry	Picture	91.639	n/a	4	10	14	n/a	74	64	2	n/a	n/a	n/a	n/a	415.06	BM05HAS.jpg
385.953	0.514	Blank	Blank	91.125	n/a	4	10	14	n/a	74	n/a	2	n/a	n/a	n/a	n/a	415.558	n/a
386.484	0.497	angry	Picture	90.611	n/a	4	10	15	n/a	75	68	2	n/a	n/a	n/a	n/a	416.088	AM09HAS.jpg
386.981	0.514	Blank	Blank	90.097	n/a	4	10	15	n/a	75	n/a	2	n/a	n/a	n/a	n/a	416.585	n/a
387.512	0.497	angry	Picture	89.583	n/a	4	10	16	n/a	76	54	2	n/a	n/a	n/a	n/a	417.116	AF23HAS.jpg
388.009	0.514	Blank	Blank	89.07	n/a	4	10	16	n/a	76	n/a	2	n/a	n/a	n/a	n/a	417.613	n/a
388.539	0.497	angry	Picture	88.556	n/a	4	10	17	n/a	77	53	2	n/a	n/a	n/a	n/a	418.144	BF22HAS.jpg
389.037	0.514	Blank	Blank	88.042	n/a	4	10	17	n/a	77	n/a	2	n/a	n/a	n/a	n/a	418.641	n/a
389.567	0.497	angry	Picture	87.528	n/a	4	10	18	n/a	78	44	2	n/a	n/a	n/a	n/a	419.172	AF05HAS.jpg
390.065	0.514	Blank	Blank	87.014	n/a	4	10	18	n/a	78	n/a	2	n/a	n/a	n/a	n/a	419.669	n/a
390.595	0.497	angry	Picture	86.5	n/a	4	10	19	n/a	79	52	2	n/a	n/a	n/a	n/a	420.2	AF21HAS.jpg
391.093	0.514	Blank	Blank	85.986	n/a	4	10	19	n/a	79	n/a	2	n/a	n/a	n/a	n/a	420.697	n/a
391.623	0.497	angry	Picture	85.472	n/a	4	10	20	n/a	80	62	2	n/a	n/a	n/a	n/a	421.228	BM03HAS.jpg
392.12	0.514	Blank	Blank	84.958	n/a	4	10	20	n/a	80	n/a	2	n/a	n/a	n/a	n/a	421.725	n/a
392.651	10.014	ITI	Fixation+	74.928	n/a	4	n/a	n/a	n/a	n/a	n/a	n/a	n/a	n/a	n/a	n/a	422.255	n/a
402.681	0.497	neutral	Picture	74.414	n/a	4	11	1	n/a	81	23	1	n/a	n/a	n/a	n/a	432.286	AM04NES.jpg
403.179	0.514	Blank	Blank	73.9	n/a	4	11	1	n/a	81	n/a	1	n/a	n/a	n/a	n/a	432.783	n/a
403.709	0.497	neutral	Picture	73.386	n/a	4	11	2	n/a	82	29	1	n/a	n/a	n/a	n/a	433.313	AM10NES.jpg
404.206	0.514	Blank	Blank	72.872	n/a	4	11	2	n/a	82	n/a	1	n/a	n/a	n/a	n/a	433.811	n/a
404.737	0.497	neutral	Picture	72.358	n/a	4	11	3	n/a	83	24	1	n/a	n/a	n/a	n/a	434.341	BM05NES.jpg
405.234	0.514	Blank	Blank	71.844	n/a	4	11	3	n/a	83	n/a	1	n/a	n/a	n/a	n/a	434.839	n/a
405.765	0.497	neutral	Picture	71.33	n/a	4	11	4	n/a	84	12	1	n/a	n/a	n/a	n/a	435.369	AF21NES.jpg
406.262	0.514	Blank	Blank	70.816	n/a	4	11	4	n/a	84	n/a	1	n/a	n/a	n/a	n/a	435.866	n/a
406.793	0.497	neutral	Picture	70.302	n/a	4	11	5	n/a	85	13	1	n/a	n/a	n/a	n/a	436.397	BF22NES.jpg
407.29	0.514	Blank	Blank	69.788	n/a	4	11	5	n/a	85	n/a	1	n/a	n/a	n/a	n/a	436.894	n/a
407.821	0.497	neutral	Picture	69.274	n/a	4	11	6	n/a	86	17	1	n/a	n/a	n/a	n/a	437.425	BF28NES.jpg
408.318	0.514	Blank	Blank	68.761	n/a	4	11	6	n/a	86	n/a	1	n/a	n/a	n/a	n/a	437.922	n/a
408.849	0.497	neutral	Picture	68.247	n/a	4	11	7	n/a	87	4	1	n/a	n/a	n/a	n/a	438.453	AF05NES.jpg
409.346	0.514	Blank	Blank	67.733	n/a	4	11	7	n/a	87	n/a	1	n/a	n/a	n/a	n/a	438.95	n/a
409.876	0.497	neutral	Picture	67.219	n/a	4	11	8	n/a	88	11	1	n/a	n/a	n/a	n/a	439.481	AF20NES.jpg
410.374	0.514	Blank	Blank	66.705	n/a	4	11	8	n/a	88	n/a	1	n/a	n/a	n/a	n/a	439.978	n/a
410.904	0.497	neutral	Picture	66.191	n/a	4	11	9	n/a	89	22	1	n/a	n/a	n/a	n/a	440.509	BM03NES.jpg
411.402	0.514	Blank	Blank	65.677	n/a	4	11	9	n/a	89	n/a	1	n/a	n/a	n/a	n/a	441.006	n/a
411.932	0.497	neutral	Picture	65.163	n/a	4	11	10	n/a	90	15	1	n/a	n/a	n/a	n/a	441.536	AF25NES.jpg
412.429	0.514	Blank	Blank	64.649	n/a	4	11	10	n/a	90	n/a	1	n/a	n/a	n/a	n/a	442.034	n/a
412.96	0.497	neutral	Picture	64.135	n/a	4	11	11	n/a	91	19	1	n/a	n/a	n/a	n/a	442.564	AF31NES.jpg
413.457	0.514	Blank	Blank	63.621	n/a	4	11	11	n/a	91	n/a	1	n/a	n/a	n/a	n/a	443.062	n/a
413.988	0.497	neutral	Picture	63.107	n/a	4	11	12	n/a	92	9	1	n/a	n/a	n/a	n/a	443.592	AF17NES.jpg
414.485	0.514	Blank	Blank	62.593	n/a	4	11	12	n/a	92	n/a	1	n/a	n/a	n/a	n/a	444.09	n/a
415.016	0.497	neutral	Picture	62.079	n/a	4	11	13	n/a	93	14	1	n/a	n/a	n/a	n/a	444.62	AF23NES.jpg
415.513	0.514	Blank	Blank	61.565	n/a	4	11	13	n/a	93	n/a	1	n/a	n/a	n/a	n/a	445.117	n/a
416.044	0.497	neutral	Picture	61.051	n/a	4	11	14	n/a	94	36	1	n/a	n/a	n/a	n/a	445.648	BM24NES.jpg
416.541	0.514	Blank	Blank	60.537	n/a	4	11	14	n/a	94	n/a	1	n/a	n/a	n/a	n/a	446.145	n/a
417.071	0.497	neutral	Picture	60.024	n/a	4	11	15	n/a	95	34	1	n/a	n/a	n/a	n/a	446.676	AM22NES.jpg
417.569	0.514	Blank	Blank	59.51	n/a	4	11	15	n/a	95	n/a	1	n/a	n/a	n/a	n/a	447.173	n/a
418.099	0.497	neutral	Picture	58.996	n/a	4	11	16	n/a	96	10	1	n/a	n/a	n/a	n/a	447.704	AF18NES.jpg
418.597	0.514	Blank	Blank	58.482	n/a	4	11	16	n/a	96	n/a	1	n/a	n/a	n/a	n/a	448.201	n/a
419.127	0.497	neutral	Picture	57.968	n/a	4	11	17	n/a	97	5	1	n/a	n/a	n/a	n/a	448.732	BF07NES.jpg
419.625	0.514	Blank	Blank	57.454	n/a	4	11	17	n/a	97	n/a	1	n/a	n/a	n/a	n/a	449.229	n/a
420.155	0.497	neutral	Picture	56.94	n/a	4	11	18	n/a	98	25	1	n/a	n/a	n/a	n/a	449.76	BM06NES.jpg
420.653	0.514	Blank	Blank	56.426	n/a	4	11	18	n/a	98	n/a	1	n/a	n/a	n/a	n/a	450.257	n/a
421.183	0.497	neutral	Picture	55.912	n/a	4	11	19	n/a	99	39	1	n/a	n/a	n/a	n/a	450.787	AM28NES.jpg
421.68	0.514	Blank	Blank	55.398	n/a	4	11	19	n/a	99	n/a	1	n/a	n/a	n/a	n/a	451.285	n/a
422.211	0.497	neutral	Picture	54.884	n/a	4	11	20	n/a	100	33	1	n/a	n/a	n/a	n/a	451.815	AM21NES.jpg
422.708	0.514	Blank	Blank	54.37	n/a	4	11	20	n/a	100	n/a	1	n/a	n/a	n/a	n/a	452.313	n/a
423.239	10.014	ITI	Fixation+	44.34	n/a	4	n/a	n/a	n/a	n/a	n/a	n/a	n/a	n/a	n/a	n/a	452.843	n/a
433.269	0.497	angry	Picture	43.826	n/a	4	12	1	n/a	101	74	2	n/a	n/a	n/a	n/a	462.873	AM22HAS.jpg
433.766	0.514	Blank	Blank	43.312	n/a	4	12	1	n/a	101	n/a	2	n/a	n/a	n/a	n/a	463.371	n/a
434.297	0.497	angry	Picture	42.798	n/a	4	12	2	n/a	102	76	2	n/a	n/a	n/a	n/a	463.901	BM24HAS.jpg
434.794	0.514	Blank	Blank	42.284	n/a	4	12	2	n/a	102	n/a	2	n/a	n/a	n/a	n/a	464.399	n/a
435.325	0.497	angry	Picture	41.77	n/a	4	12	3	n/a	103	80	2	n/a	n/a	n/a	n/a	464.929	BM35HAS.jpg
435.822	0.514	Blank	Blank	41.257	n/a	4	12	3	n/a	103	n/a	2	n/a	n/a	n/a	n/a	465.426	n/a
436.353	0.497	angry	Picture	40.742	n/a	4	12	4	n/a	104	75	2	n/a	n/a	n/a	n/a	465.957	AM23HAS.jpg
436.85	0.514	Blank	Blank	40.229	n/a	4	12	4	n/a	104	n/a	2	n/a	n/a	n/a	n/a	466.454	n/a
437.38	0.497	angry	Picture	39.715	n/a	4	12	5	n/a	105	49	2	n/a	n/a	n/a	n/a	466.985	AF17HAS.jpg
437.878	0.514	Blank	Blank	39.201	n/a	4	12	5	n/a	105	n/a	2	n/a	n/a	n/a	n/a	467.482	n/a
438.408	0.497	angry	Picture	38.687	n/a	4	12	6	n/a	106	43	2	n/a	n/a	n/a	n/a	468.013	BF04HAS.jpg
438.906	0.514	Blank	Blank	38.173	n/a	4	12	6	n/a	106	n/a	2	n/a	n/a	n/a	n/a	468.51	n/a
439.436	0.497	angry	Picture	37.659	n/a	4	12	7	n/a	107	70	2	n/a	n/a	n/a	n/a	469.041	BM11HAS.jpg
439.934	0.514	Blank	Blank	37.145	n/a	4	12	7	n/a	107	n/a	2	n/a	n/a	n/a	n/a	469.538	n/a
440.464	0.497	angry	Picture	36.631	n/a	4	12	8	n/a	108	66	2	n/a	n/a	n/a	n/a	470.068	BM07HAS.jpg
440.962	0.514	Blank	Blank	36.117	n/a	4	12	8	n/a	108	n/a	2	n/a	n/a	n/a	n/a	470.566	n/a
441.492	0.497	angry	Picture	35.603	n/a	4	12	9	n/a	109	48	2	n/a	n/a	n/a	n/a	471.096	AF14HAS.jpg
441.989	0.514	Blank	Blank	35.089	n/a	4	12	9	n/a	109	n/a	2	n/a	n/a	n/a	n/a	471.594	n/a
442.52	0.497	angry	Picture	34.575	n/a	4	12	10	n/a	110	58	2	n/a	n/a	n/a	n/a	472.124	BF29HAS.jpg
443.017	0.514	Blank	Blank	34.061	n/a	4	12	10	n/a	110	n/a	2	n/a	n/a	n/a	n/a	472.622	n/a
443.548	0.497	angry	Picture	33.547	n/a	4	12	11	n/a	111	63	2	n/a	n/a	n/a	n/a	473.152	AM04HAS.jpg
444.045	0.514	Blank	Blank	33.033	n/a	4	12	11	n/a	111	n/a	2	n/a	n/a	n/a	n/a	473.649	n/a
444.576	0.497	angry	Picture	32.519	n/a	4	12	12	n/a	112	72	2	n/a	n/a	n/a	n/a	474.18	AM14HAS.jpg
445.073	0.514	Blank	Blank	32.005	n/a	4	12	12	n/a	112	n/a	2	n/a	n/a	n/a	n/a	474.677	n/a
445.604	0.497	angry	Picture	31.492	n/a	4	12	13	n/a	113	55	2	n/a	n/a	n/a	n/a	475.208	AF25HAS.jpg
446.101	0.514	Blank	Blank	30.978	n/a	4	12	13	n/a	113	n/a	2	n/a	n/a	n/a	n/a	475.705	n/a
446.631	0.497	angry	Picture	30.464	n/a	4	12	14	n/a	114	42	2	n/a	n/a	n/a	n/a	476.236	AF03HAS.jpg
447.129	0.514	Blank	Blank	29.95	n/a	4	12	14	n/a	114	n/a	2	n/a	n/a	n/a	n/a	476.733	n/a
447.659	0.497	angry	Picture	29.436	n/a	4	12	15	n/a	115	60	2	n/a	n/a	n/a	n/a	477.264	AF32HAS.jpg
448.157	0.514	Blank	Blank	28.922	n/a	4	12	15	n/a	115	n/a	2	n/a	n/a	n/a	n/a	477.761	n/a
448.687	0.497	angry	Picture	28.408	n/a	4	12	16	n/a	116	67	2	n/a	n/a	n/a	n/a	478.291	BM08HAS.jpg
449.185	0.514	Blank	Blank	27.894	n/a	4	12	16	n/a	116	n/a	2	n/a	n/a	n/a	n/a	478.789	n/a
449.715	0.497	angry	Picture	27.38	n/a	4	12	17	n/a	117	51	2	n/a	n/a	n/a	n/a	479.319	AF20HAS.jpg
450.212	0.514	Blank	Blank	26.866	n/a	4	12	17	n/a	117	n/a	2	n/a	n/a	n/a	n/a	479.817	n/a
450.743	0.497	angry	Picture	26.352	n/a	4	12	18	n/a	118	71	2	n/a	n/a	n/a	n/a	480.347	BM12HAS.jpg
451.24	0.514	Blank	Blank	25.838	n/a	4	12	18	n/a	118	n/a	2	n/a	n/a	n/a	n/a	480.845	n/a
451.771	0.497	angry	Picture	25.324	n/a	4	12	19	n/a	119	69	2	n/a	n/a	n/a	n/a	481.375	AM10HAS.jpg
452.268	0.514	Blank	Blank	24.81	n/a	4	12	19	n/a	119	n/a	2	n/a	n/a	n/a	n/a	481.873	n/a
452.799	0.497	angry	Picture	24.296	n/a	4	12	20	n/a	120	46	2	n/a	n/a	n/a	n/a	482.403	AF09HAS.jpg
453.296	0.514	Blank	Blank	23.783	n/a	4	12	20	n/a	120	n/a	2	n/a	n/a	n/a	n/a	482.9	n/a
453.827	10.014	ITI	Fixation+	13.752	n/a	4	n/a	n/a	n/a	n/a	n/a	n/a	n/a	n/a	n/a	n/a	483.431	n/a
477.592	n/a	ConfirmRating	Rate	n/a	13.743	4	n/a	n/a	0	n/a	n/a	n/a	2	Angry	61	51	507.197	n/a
482.556	n/a	ConfirmRating	Rate	n/a	4.94	4	n/a	n/a	1	n/a	n/a	n/a	3	Angry	0	49	512.161	n/a
