onset	duration	trial_type	event_type	time_until_response	response_time	trial_number	block_num_within_trial	image_seq_num_within_block	question_seq_num_within_block	image_seq_num	picture_number	condition	question_type	block_type	rating	rating_computed	onset_uncorrected	KDEV_imagefile
0.005	10.014	ITI	Fixation+	95.802	n/a	1	n/a	n/a	n/a	n/a	n/a	n/a	n/a	n/a	n/a	n/a	31.693	n/a
10.035	0.497	angry	Picture	95.288	n/a	1	1	1	n/a	1	108	3	n/a	n/a	n/a	n/a	41.724	AM09ANS.jpg
10.532	0.514	Blank	Blank	94.774	n/a	1	1	1	n/a	1	n/a	3	n/a	n/a	n/a	n/a	42.221	n/a
11.063	0.497	angry	Picture	94.26	n/a	1	1	2	n/a	2	99	3	n/a	n/a	n/a	n/a	42.751	AF31ANS.jpg
11.56	0.514	Blank	Blank	93.746	n/a	1	1	2	n/a	2	n/a	3	n/a	n/a	n/a	n/a	43.249	n/a
12.091	0.497	angry	Picture	93.232	n/a	1	1	3	n/a	3	98	3	n/a	n/a	n/a	n/a	43.779	BF29ANS.jpg
12.588	0.514	Blank	Blank	92.718	n/a	1	1	3	n/a	3	n/a	3	n/a	n/a	n/a	n/a	44.277	n/a
13.119	0.497	angry	Picture	92.204	n/a	1	1	4	n/a	4	107	3	n/a	n/a	n/a	n/a	44.807	BM08ANS.jpg
13.616	0.514	Blank	Blank	91.69	n/a	1	1	4	n/a	4	n/a	3	n/a	n/a	n/a	n/a	45.304	n/a
14.146	0.497	angry	Picture	91.176	n/a	1	1	5	n/a	5	104	3	n/a	n/a	n/a	n/a	45.835	BM05ANS.jpg
14.644	0.514	Blank	Blank	90.662	n/a	1	1	5	n/a	5	n/a	3	n/a	n/a	n/a	n/a	46.332	n/a
15.174	0.497	angry	Picture	90.148	n/a	1	1	6	n/a	6	101	3	n/a	n/a	n/a	n/a	46.863	AM01ANS.jpg
15.672	0.514	Blank	Blank	89.634	n/a	1	1	6	n/a	6	n/a	3	n/a	n/a	n/a	n/a	47.36	n/a
16.202	0.497	angry	Picture	89.12	n/a	1	1	7	n/a	7	103	3	n/a	n/a	n/a	n/a	47.891	AM04ANS.jpg
16.7	0.514	Blank	Blank	88.606	n/a	1	1	7	n/a	7	n/a	3	n/a	n/a	n/a	n/a	48.388	n/a
17.23	0.497	angry	Picture	88.093	n/a	1	1	8	n/a	8	111	3	n/a	n/a	n/a	n/a	48.919	BM12ANS.jpg
17.727	0.514	Blank	Blank	87.579	n/a	1	1	8	n/a	8	n/a	3	n/a	n/a	n/a	n/a	49.416	n/a
18.258	0.497	angry	Picture	87.065	n/a	1	1	9	n/a	9	110	3	n/a	n/a	n/a	n/a	49.947	AM11ANS.jpg
18.755	0.514	Blank	Blank	86.551	n/a	1	1	9	n/a	9	n/a	3	n/a	n/a	n/a	n/a	50.444	n/a
19.286	0.497	angry	Picture	86.037	n/a	1	1	10	n/a	10	85	3	n/a	n/a	n/a	n/a	50.974	BF07ANS.jpg
19.783	0.514	Blank	Blank	85.523	n/a	1	1	10	n/a	10	n/a	3	n/a	n/a	n/a	n/a	51.472	n/a
20.314	0.497	angry	Picture	85.009	n/a	1	1	11	n/a	11	87	3	n/a	n/a	n/a	n/a	52.002	BF11ANS.jpg
20.811	0.514	Blank	Blank	84.495	n/a	1	1	11	n/a	11	n/a	3	n/a	n/a	n/a	n/a	52.5	n/a
21.342	0.497	angry	Picture	83.981	n/a	1	1	12	n/a	12	91	3	n/a	n/a	n/a	n/a	53.03	AF20ANS.jpg
21.839	0.514	Blank	Blank	83.467	n/a	1	1	12	n/a	12	n/a	3	n/a	n/a	n/a	n/a	53.528	n/a
22.37	0.497	angry	Picture	82.953	n/a	1	1	13	n/a	13	115	3	n/a	n/a	n/a	n/a	54.058	AM23ANS.jpg
22.867	0.514	Blank	Blank	82.439	n/a	1	1	13	n/a	13	n/a	3	n/a	n/a	n/a	n/a	54.556	n/a
23.397	0.497	angry	Picture	81.925	n/a	1	1	14	n/a	14	97	3	n/a	n/a	n/a	n/a	55.086	BF28ANS.jpg
23.895	0.514	Blank	Blank	81.411	n/a	1	1	14	n/a	14	n/a	3	n/a	n/a	n/a	n/a	55.583	n/a
24.425	0.497	angry	Picture	80.897	n/a	1	1	15	n/a	15	82	3	n/a	n/a	n/a	n/a	56.114	AF03ANS.jpg
24.923	0.514	Blank	Blank	80.383	n/a	1	1	15	n/a	15	n/a	3	n/a	n/a	n/a	n/a	56.611	n/a
25.453	0.497	angry	Picture	79.869	n/a	1	1	16	n/a	16	96	3	n/a	n/a	n/a	n/a	57.142	AF26ANS.jpg
25.951	0.514	Blank	Blank	79.355	n/a	1	1	16	n/a	16	n/a	3	n/a	n/a	n/a	n/a	57.639	n/a
26.481	0.497	angry	Picture	78.841	n/a	1	1	17	n/a	17	109	3	n/a	n/a	n/a	n/a	58.17	AM10ANS.jpg
26.978	0.514	Blank	Blank	78.328	n/a	1	1	17	n/a	17	n/a	3	n/a	n/a	n/a	n/a	58.667	n/a
27.509	0.497	angry	Picture	77.814	n/a	1	1	18	n/a	18	114	3	n/a	n/a	n/a	n/a	59.198	AM22ANS.jpg
28.006	0.514	Blank	Blank	77.3	n/a	1	1	18	n/a	18	n/a	3	n/a	n/a	n/a	n/a	59.695	n/a
28.537	0.497	angry	Picture	76.786	n/a	1	1	19	n/a	19	120	3	n/a	n/a	n/a	n/a	60.225	AM35ANS.jpg
29.034	0.514	Blank	Blank	76.272	n/a	1	1	19	n/a	19	n/a	3	n/a	n/a	n/a	n/a	60.723	n/a
29.565	0.497	angry	Picture	75.758	n/a	1	1	20	n/a	20	81	3	n/a	n/a	n/a	n/a	61.253	AF01ANS.jpg
30.062	0.514	Blank	Blank	75.244	n/a	1	1	20	n/a	20	n/a	3	n/a	n/a	n/a	n/a	61.751	n/a
30.593	10.014	ITI	Fixation+	65.214	n/a	1	n/a	n/a	n/a	n/a	n/a	n/a	n/a	n/a	n/a	n/a	62.281	n/a
40.623	0.497	neutral	Picture	64.7	n/a	1	2	1	n/a	21	28	1	n/a	n/a	n/a	n/a	72.311	AM09NES.jpg
41.12	0.514	Blank	Blank	64.186	n/a	1	2	1	n/a	21	n/a	1	n/a	n/a	n/a	n/a	72.809	n/a
41.651	0.497	neutral	Picture	63.672	n/a	1	2	2	n/a	22	27	1	n/a	n/a	n/a	n/a	73.339	BM08NES.jpg
42.148	0.514	Blank	Blank	63.158	n/a	1	2	2	n/a	22	n/a	1	n/a	n/a	n/a	n/a	73.837	n/a
42.679	0.497	neutral	Picture	62.644	n/a	1	2	3	n/a	23	16	1	n/a	n/a	n/a	n/a	74.367	AF26NES.jpg
43.176	0.514	Blank	Blank	62.13	n/a	1	2	3	n/a	23	n/a	1	n/a	n/a	n/a	n/a	74.865	n/a
43.706	0.497	neutral	Picture	61.616	n/a	1	2	4	n/a	24	3	1	n/a	n/a	n/a	n/a	75.395	BF04NES.jpg
44.204	0.514	Blank	Blank	61.102	n/a	1	2	4	n/a	24	n/a	1	n/a	n/a	n/a	n/a	75.892	n/a
44.734	0.497	neutral	Picture	60.588	n/a	1	2	5	n/a	25	32	1	n/a	n/a	n/a	n/a	76.423	AM14NES.jpg
45.232	0.514	Blank	Blank	60.074	n/a	1	2	5	n/a	25	n/a	1	n/a	n/a	n/a	n/a	76.92	n/a
45.762	0.497	neutral	Picture	59.56	n/a	1	2	6	n/a	26	37	1	n/a	n/a	n/a	n/a	77.451	BM25NES.jpg
46.26	0.514	Blank	Blank	59.046	n/a	1	2	6	n/a	26	n/a	1	n/a	n/a	n/a	n/a	77.948	n/a
46.79	0.497	neutral	Picture	58.532	n/a	1	2	7	n/a	27	15	1	n/a	n/a	n/a	n/a	78.479	AF25NES.jpg
47.288	0.514	Blank	Blank	58.019	n/a	1	2	7	n/a	27	n/a	1	n/a	n/a	n/a	n/a	78.976	n/a
47.818	0.497	neutral	Picture	57.505	n/a	1	2	8	n/a	28	23	1	n/a	n/a	n/a	n/a	79.507	AM04NES.jpg
48.315	0.514	Blank	Blank	56.991	n/a	1	2	8	n/a	28	n/a	1	n/a	n/a	n/a	n/a	80.004	n/a
48.846	0.497	neutral	Picture	56.477	n/a	1	2	9	n/a	29	34	1	n/a	n/a	n/a	n/a	80.534	AM22NES.jpg
49.343	0.514	Blank	Blank	55.963	n/a	1	2	9	n/a	29	n/a	1	n/a	n/a	n/a	n/a	81.032	n/a
49.874	0.497	neutral	Picture	55.449	n/a	1	2	10	n/a	30	24	1	n/a	n/a	n/a	n/a	81.562	BM05NES.jpg
50.371	0.514	Blank	Blank	54.935	n/a	1	2	10	n/a	30	n/a	1	n/a	n/a	n/a	n/a	82.06	n/a
50.902	0.497	neutral	Picture	54.421	n/a	1	2	11	n/a	31	12	1	n/a	n/a	n/a	n/a	82.59	AF21NES.jpg
51.399	0.514	Blank	Blank	53.907	n/a	1	2	11	n/a	31	n/a	1	n/a	n/a	n/a	n/a	83.088	n/a
51.93	0.497	neutral	Picture	53.393	n/a	1	2	12	n/a	32	6	1	n/a	n/a	n/a	n/a	83.618	AF09NES.jpg
52.427	0.514	Blank	Blank	52.879	n/a	1	2	12	n/a	32	n/a	1	n/a	n/a	n/a	n/a	84.115	n/a
52.957	0.497	neutral	Picture	52.365	n/a	1	2	13	n/a	33	17	1	n/a	n/a	n/a	n/a	84.646	BF28NES.jpg
53.455	0.514	Blank	Blank	51.851	n/a	1	2	13	n/a	33	n/a	1	n/a	n/a	n/a	n/a	85.143	n/a
53.985	0.497	neutral	Picture	51.337	n/a	1	2	14	n/a	34	2	1	n/a	n/a	n/a	n/a	85.674	AF03NES.jpg
54.483	0.514	Blank	Blank	50.823	n/a	1	2	14	n/a	34	n/a	1	n/a	n/a	n/a	n/a	86.171	n/a
55.013	0.497	neutral	Picture	50.309	n/a	1	2	15	n/a	35	9	1	n/a	n/a	n/a	n/a	86.702	AF17NES.jpg
55.511	0.514	Blank	Blank	49.795	n/a	1	2	15	n/a	35	n/a	1	n/a	n/a	n/a	n/a	87.199	n/a
56.041	0.497	neutral	Picture	49.282	n/a	1	2	16	n/a	36	25	1	n/a	n/a	n/a	n/a	87.73	BM06NES.jpg
56.538	0.514	Blank	Blank	48.768	n/a	1	2	16	n/a	36	n/a	1	n/a	n/a	n/a	n/a	88.227	n/a
57.069	0.497	neutral	Picture	48.254	n/a	1	2	17	n/a	37	8	1	n/a	n/a	n/a	n/a	88.758	AF14NES.jpg
57.566	0.514	Blank	Blank	47.74	n/a	1	2	17	n/a	37	n/a	1	n/a	n/a	n/a	n/a	89.255	n/a
58.097	0.497	neutral	Picture	47.226	n/a	1	2	18	n/a	38	19	1	n/a	n/a	n/a	n/a	89.785	AF31NES.jpg
58.594	0.514	Blank	Blank	46.712	n/a	1	2	18	n/a	38	n/a	1	n/a	n/a	n/a	n/a	90.283	n/a
59.125	0.497	neutral	Picture	46.198	n/a	1	2	19	n/a	39	14	1	n/a	n/a	n/a	n/a	90.813	AF23NES.jpg
59.622	0.514	Blank	Blank	45.684	n/a	1	2	19	n/a	39	n/a	1	n/a	n/a	n/a	n/a	91.311	n/a
60.153	0.497	neutral	Picture	45.17	n/a	1	2	20	n/a	40	4	1	n/a	n/a	n/a	n/a	91.841	AF05NES.jpg
60.65	0.514	Blank	Blank	44.656	n/a	1	2	20	n/a	40	n/a	1	n/a	n/a	n/a	n/a	92.339	n/a
61.181	10.014	ITI	Fixation+	34.626	n/a	1	n/a	n/a	n/a	n/a	n/a	n/a	n/a	n/a	n/a	n/a	92.869	n/a
71.211	0.497	angry	Picture	34.112	n/a	1	3	1	n/a	41	84	3	n/a	n/a	n/a	n/a	102.899	AF05ANS.jpg
71.708	0.514	Blank	Blank	33.598	n/a	1	3	1	n/a	41	n/a	3	n/a	n/a	n/a	n/a	103.397	n/a
72.239	0.497	angry	Picture	33.084	n/a	1	3	2	n/a	42	92	3	n/a	n/a	n/a	n/a	103.927	AF21ANS.jpg
72.736	0.514	Blank	Blank	32.57	n/a	1	3	2	n/a	42	n/a	3	n/a	n/a	n/a	n/a	104.425	n/a
73.267	0.497	angry	Picture	32.056	n/a	1	3	3	n/a	43	86	3	n/a	n/a	n/a	n/a	104.955	AF09ANS.jpg
73.764	0.514	Blank	Blank	31.542	n/a	1	3	3	n/a	43	n/a	3	n/a	n/a	n/a	n/a	105.452	n/a
74.294	0.497	angry	Picture	31.028	n/a	1	3	4	n/a	44	93	3	n/a	n/a	n/a	n/a	105.983	BF22ANS.jpg
74.792	0.514	Blank	Blank	30.514	n/a	1	3	4	n/a	44	n/a	3	n/a	n/a	n/a	n/a	106.48	n/a
75.322	0.497	angry	Picture	30.0	n/a	1	3	5	n/a	45	88	3	n/a	n/a	n/a	n/a	107.011	AF14ANS.jpg
75.82	0.514	Blank	Blank	29.486	n/a	1	3	5	n/a	45	n/a	3	n/a	n/a	n/a	n/a	107.508	n/a
76.35	0.497	angry	Picture	28.972	n/a	1	3	6	n/a	46	113	3	n/a	n/a	n/a	n/a	108.039	AM21ANS.jpg
76.847	0.514	Blank	Blank	28.459	n/a	1	3	6	n/a	46	n/a	3	n/a	n/a	n/a	n/a	108.536	n/a
77.378	0.497	angry	Picture	27.945	n/a	1	3	7	n/a	47	95	3	n/a	n/a	n/a	n/a	109.067	AF25ANS.jpg
77.875	0.514	Blank	Blank	27.431	n/a	1	3	7	n/a	47	n/a	3	n/a	n/a	n/a	n/a	109.564	n/a
78.406	0.497	angry	Picture	26.917	n/a	1	3	8	n/a	48	102	3	n/a	n/a	n/a	n/a	110.094	BM03ANS.jpg
78.903	0.514	Blank	Blank	26.403	n/a	1	3	8	n/a	48	n/a	3	n/a	n/a	n/a	n/a	110.592	n/a
79.434	0.497	angry	Picture	25.889	n/a	1	3	9	n/a	49	112	3	n/a	n/a	n/a	n/a	111.122	AM14ANS.jpg
79.931	0.514	Blank	Blank	25.375	n/a	1	3	9	n/a	49	n/a	3	n/a	n/a	n/a	n/a	111.62	n/a
80.462	0.497	angry	Picture	24.861	n/a	1	3	10	n/a	50	83	3	n/a	n/a	n/a	n/a	112.15	BF04ANS.jpg
80.959	0.514	Blank	Blank	24.347	n/a	1	3	10	n/a	50	n/a	3	n/a	n/a	n/a	n/a	112.648	n/a
81.49	0.497	angry	Picture	23.833	n/a	1	3	11	n/a	51	90	3	n/a	n/a	n/a	n/a	113.178	AF18ANS.jpg
81.987	0.514	Blank	Blank	23.319	n/a	1	3	11	n/a	51	n/a	3	n/a	n/a	n/a	n/a	113.675	n/a
82.518	0.497	angry	Picture	22.805	n/a	1	3	12	n/a	52	117	3	n/a	n/a	n/a	n/a	114.206	BM25ANS.jpg
83.015	0.514	Blank	Blank	22.291	n/a	1	3	12	n/a	52	n/a	3	n/a	n/a	n/a	n/a	114.703	n/a
83.545	0.497	angry	Picture	21.777	n/a	1	3	13	n/a	53	94	3	n/a	n/a	n/a	n/a	115.234	AF23ANS.jpg
84.043	0.514	Blank	Blank	21.263	n/a	1	3	13	n/a	53	n/a	3	n/a	n/a	n/a	n/a	115.731	n/a
84.573	0.497	angry	Picture	20.749	n/a	1	3	14	n/a	54	106	3	n/a	n/a	n/a	n/a	116.262	AM07ANS.jpg
85.071	0.514	Blank	Blank	20.235	n/a	1	3	14	n/a	54	n/a	3	n/a	n/a	n/a	n/a	116.759	n/a
85.601	0.497	angry	Picture	19.721	n/a	1	3	15	n/a	55	105	3	n/a	n/a	n/a	n/a	117.29	BM06ANS.jpg
86.099	0.514	Blank	Blank	19.208	n/a	1	3	15	n/a	55	n/a	3	n/a	n/a	n/a	n/a	117.787	n/a
86.629	0.497	angry	Picture	18.694	n/a	1	3	16	n/a	56	116	3	n/a	n/a	n/a	n/a	118.318	BM24ANS.jpg
87.126	0.514	Blank	Blank	18.18	n/a	1	3	16	n/a	56	n/a	3	n/a	n/a	n/a	n/a	118.815	n/a
87.657	0.497	angry	Picture	17.666	n/a	1	3	17	n/a	57	89	3	n/a	n/a	n/a	n/a	119.346	AF17ANS.jpg
88.154	0.514	Blank	Blank	17.152	n/a	1	3	17	n/a	57	n/a	3	n/a	n/a	n/a	n/a	119.843	n/a
88.685	0.497	angry	Picture	16.638	n/a	1	3	18	n/a	58	118	3	n/a	n/a	n/a	n/a	120.373	BM26ANS.jpg
89.182	0.514	Blank	Blank	16.124	n/a	1	3	18	n/a	58	n/a	3	n/a	n/a	n/a	n/a	120.871	n/a
89.713	0.497	angry	Picture	15.61	n/a	1	3	19	n/a	59	100	3	n/a	n/a	n/a	n/a	121.401	AF32ANS.jpg
90.21	0.514	Blank	Blank	15.096	n/a	1	3	19	n/a	59	n/a	3	n/a	n/a	n/a	n/a	121.899	n/a
90.74	0.497	angry	Picture	14.582	n/a	1	3	20	n/a	60	119	3	n/a	n/a	n/a	n/a	122.429	BM28ANS.jpg
91.238	0.514	Blank	Blank	14.068	n/a	1	3	20	n/a	60	n/a	3	n/a	n/a	n/a	n/a	122.927	n/a
91.768	10.014	ITI	Fixation+	4.038	n/a	1	n/a	n/a	n/a	n/a	n/a	n/a	n/a	n/a	n/a	n/a	123.457	n/a
105.82	n/a	ConfirmRating	Rate	n/a	4.012	1	n/a	n/a	0	n/a	n/a	n/a	2	Angry	36	49	137.509	n/a
108.469	n/a	ConfirmRating	Rate	n/a	2.636	1	n/a	n/a	1	n/a	n/a	n/a	3	Angry	50	50	140.158	n/a
108.496	10.014	ITI	Fixation+	96.312	n/a	2	n/a	n/a	n/a	n/a	n/a	n/a	n/a	n/a	n/a	n/a	140.185	n/a
118.527	0.497	happy	Picture	95.798	n/a	2	4	1	n/a	61	79	2	n/a	n/a	n/a	n/a	150.215	BM28HAS.jpg
119.024	0.514	Blank	Blank	95.284	n/a	2	4	1	n/a	61	n/a	2	n/a	n/a	n/a	n/a	150.713	n/a
119.554	0.497	happy	Picture	94.77	n/a	2	4	2	n/a	62	61	2	n/a	n/a	n/a	n/a	151.243	AM01HAS.jpg
120.052	0.514	Blank	Blank	94.257	n/a	2	4	2	n/a	62	n/a	2	n/a	n/a	n/a	n/a	151.74	n/a
120.582	0.497	happy	Picture	93.743	n/a	2	4	3	n/a	63	57	2	n/a	n/a	n/a	n/a	152.271	BF28HAS.jpg
121.08	0.514	Blank	Blank	93.229	n/a	2	4	3	n/a	63	n/a	2	n/a	n/a	n/a	n/a	152.768	n/a
121.61	0.497	happy	Picture	92.715	n/a	2	4	4	n/a	64	77	2	n/a	n/a	n/a	n/a	153.299	BM25HAS.jpg
122.108	0.514	Blank	Blank	92.201	n/a	2	4	4	n/a	64	n/a	2	n/a	n/a	n/a	n/a	153.796	n/a
122.638	0.497	happy	Picture	91.687	n/a	2	4	5	n/a	65	47	2	n/a	n/a	n/a	n/a	154.327	BF11HAS.jpg
123.135	0.514	Blank	Blank	91.173	n/a	2	4	5	n/a	65	n/a	2	n/a	n/a	n/a	n/a	154.824	n/a
123.666	0.497	happy	Picture	90.659	n/a	2	4	6	n/a	66	50	2	n/a	n/a	n/a	n/a	155.355	AF18HAS.jpg
124.163	0.514	Blank	Blank	90.145	n/a	2	4	6	n/a	66	n/a	2	n/a	n/a	n/a	n/a	155.852	n/a
124.694	0.497	happy	Picture	89.631	n/a	2	4	7	n/a	67	78	2	n/a	n/a	n/a	n/a	156.382	BM26HAS.jpg
125.191	0.514	Blank	Blank	89.117	n/a	2	4	7	n/a	67	n/a	2	n/a	n/a	n/a	n/a	156.88	n/a
125.722	0.497	happy	Picture	88.603	n/a	2	4	8	n/a	68	45	2	n/a	n/a	n/a	n/a	157.41	BF07HAS.jpg
126.219	0.514	Blank	Blank	88.089	n/a	2	4	8	n/a	68	n/a	2	n/a	n/a	n/a	n/a	157.908	n/a
126.75	0.497	happy	Picture	87.575	n/a	2	4	9	n/a	69	56	2	n/a	n/a	n/a	n/a	158.438	AF26HAS.jpg
127.247	0.514	Blank	Blank	87.061	n/a	2	4	9	n/a	69	n/a	2	n/a	n/a	n/a	n/a	158.936	n/a
127.778	0.497	happy	Picture	86.547	n/a	2	4	10	n/a	70	65	2	n/a	n/a	n/a	n/a	159.466	BM06HAS.jpg
128.275	0.514	Blank	Blank	86.033	n/a	2	4	10	n/a	70	n/a	2	n/a	n/a	n/a	n/a	159.964	n/a
128.805	0.497	happy	Picture	85.52	n/a	2	4	11	n/a	71	73	2	n/a	n/a	n/a	n/a	160.494	AM21HAS.jpg
129.303	0.514	Blank	Blank	85.006	n/a	2	4	11	n/a	71	n/a	2	n/a	n/a	n/a	n/a	160.991	n/a
129.833	0.497	happy	Picture	84.492	n/a	2	4	12	n/a	72	41	2	n/a	n/a	n/a	n/a	161.522	AF01HAS.jpg
130.331	0.514	Blank	Blank	83.978	n/a	2	4	12	n/a	72	n/a	2	n/a	n/a	n/a	n/a	162.019	n/a
130.861	0.497	happy	Picture	83.464	n/a	2	4	13	n/a	73	59	2	n/a	n/a	n/a	n/a	162.55	AF31HAS.jpg
131.359	0.514	Blank	Blank	82.95	n/a	2	4	13	n/a	73	n/a	2	n/a	n/a	n/a	n/a	163.047	n/a
131.889	0.497	happy	Picture	82.436	n/a	2	4	14	n/a	74	64	2	n/a	n/a	n/a	n/a	163.578	BM05HAS.jpg
132.386	0.514	Blank	Blank	81.922	n/a	2	4	14	n/a	74	n/a	2	n/a	n/a	n/a	n/a	164.075	n/a
132.917	0.497	happy	Picture	81.408	n/a	2	4	15	n/a	75	68	2	n/a	n/a	n/a	n/a	164.606	AM09HAS.jpg
133.414	0.514	Blank	Blank	80.894	n/a	2	4	15	n/a	75	n/a	2	n/a	n/a	n/a	n/a	165.103	n/a
133.945	0.497	happy	Picture	80.38	n/a	2	4	16	n/a	76	54	2	n/a	n/a	n/a	n/a	165.633	AF23HAS.jpg
134.442	0.514	Blank	Blank	79.866	n/a	2	4	16	n/a	76	n/a	2	n/a	n/a	n/a	n/a	166.131	n/a
134.973	0.497	happy	Picture	79.352	n/a	2	4	17	n/a	77	53	2	n/a	n/a	n/a	n/a	166.661	BF22HAS.jpg
135.47	0.514	Blank	Blank	78.838	n/a	2	4	17	n/a	77	n/a	2	n/a	n/a	n/a	n/a	167.159	n/a
136.001	0.497	happy	Picture	78.324	n/a	2	4	18	n/a	78	44	2	n/a	n/a	n/a	n/a	167.689	AF05HAS.jpg
136.498	0.514	Blank	Blank	77.81	n/a	2	4	18	n/a	78	n/a	2	n/a	n/a	n/a	n/a	168.187	n/a
137.028	0.497	happy	Picture	77.297	n/a	2	4	19	n/a	79	52	2	n/a	n/a	n/a	n/a	168.717	AF21HAS.jpg
137.526	0.514	Blank	Blank	76.782	n/a	2	4	19	n/a	79	n/a	2	n/a	n/a	n/a	n/a	169.214	n/a
138.056	0.497	happy	Picture	76.269	n/a	2	4	20	n/a	80	62	2	n/a	n/a	n/a	n/a	169.745	BM03HAS.jpg
138.554	0.514	Blank	Blank	75.755	n/a	2	4	20	n/a	80	n/a	2	n/a	n/a	n/a	n/a	170.242	n/a
139.084	10.014	ITI	Fixation+	65.725	n/a	2	n/a	n/a	n/a	n/a	n/a	n/a	n/a	n/a	n/a	n/a	170.773	n/a
149.114	0.497	neutral	Picture	65.21	n/a	2	5	1	n/a	81	23	1	n/a	n/a	n/a	n/a	180.803	AM04NES.jpg
149.612	0.514	Blank	Blank	64.697	n/a	2	5	1	n/a	81	n/a	1	n/a	n/a	n/a	n/a	181.3	n/a
150.142	0.497	neutral	Picture	64.183	n/a	2	5	2	n/a	82	29	1	n/a	n/a	n/a	n/a	181.831	AM10NES.jpg
150.64	0.514	Blank	Blank	63.669	n/a	2	5	2	n/a	82	n/a	1	n/a	n/a	n/a	n/a	182.328	n/a
151.17	0.497	neutral	Picture	63.155	n/a	2	5	3	n/a	83	24	1	n/a	n/a	n/a	n/a	182.859	BM05NES.jpg
151.668	0.514	Blank	Blank	62.641	n/a	2	5	3	n/a	83	n/a	1	n/a	n/a	n/a	n/a	183.356	n/a
152.198	0.497	neutral	Picture	62.127	n/a	2	5	4	n/a	84	12	1	n/a	n/a	n/a	n/a	183.887	AF21NES.jpg
152.695	0.514	Blank	Blank	61.613	n/a	2	5	4	n/a	84	n/a	1	n/a	n/a	n/a	n/a	184.384	n/a
153.226	0.497	neutral	Picture	61.099	n/a	2	5	5	n/a	85	13	1	n/a	n/a	n/a	n/a	184.915	BF22NES.jpg
153.723	0.514	Blank	Blank	60.585	n/a	2	5	5	n/a	85	n/a	1	n/a	n/a	n/a	n/a	185.412	n/a
154.254	0.497	neutral	Picture	60.071	n/a	2	5	6	n/a	86	17	1	n/a	n/a	n/a	n/a	185.942	BF28NES.jpg
154.751	0.514	Blank	Blank	59.557	n/a	2	5	6	n/a	86	n/a	1	n/a	n/a	n/a	n/a	186.44	n/a
155.282	0.497	neutral	Picture	59.043	n/a	2	5	7	n/a	87	4	1	n/a	n/a	n/a	n/a	186.97	AF05NES.jpg
155.779	0.514	Blank	Blank	58.529	n/a	2	5	7	n/a	87	n/a	1	n/a	n/a	n/a	n/a	187.468	n/a
156.31	0.497	neutral	Picture	58.015	n/a	2	5	8	n/a	88	11	1	n/a	n/a	n/a	n/a	187.998	AF20NES.jpg
156.807	0.514	Blank	Blank	57.501	n/a	2	5	8	n/a	88	n/a	1	n/a	n/a	n/a	n/a	188.496	n/a
157.338	0.497	neutral	Picture	56.987	n/a	2	5	9	n/a	89	22	1	n/a	n/a	n/a	n/a	189.026	BM03NES.jpg
157.835	0.514	Blank	Blank	56.474	n/a	2	5	9	n/a	89	n/a	1	n/a	n/a	n/a	n/a	189.524	n/a
158.365	0.497	neutral	Picture	55.959	n/a	2	5	10	n/a	90	15	1	n/a	n/a	n/a	n/a	190.054	AF25NES.jpg
158.863	0.514	Blank	Blank	55.446	n/a	2	5	10	n/a	90	n/a	1	n/a	n/a	n/a	n/a	190.552	n/a
159.393	0.497	neutral	Picture	54.932	n/a	2	5	11	n/a	91	19	1	n/a	n/a	n/a	n/a	191.082	AF31NES.jpg
159.891	0.514	Blank	Blank	54.418	n/a	2	5	11	n/a	91	n/a	1	n/a	n/a	n/a	n/a	191.579	n/a
160.421	0.497	neutral	Picture	53.904	n/a	2	5	12	n/a	92	9	1	n/a	n/a	n/a	n/a	192.11	AF17NES.jpg
160.919	0.514	Blank	Blank	53.39	n/a	2	5	12	n/a	92	n/a	1	n/a	n/a	n/a	n/a	192.607	n/a
161.449	0.497	neutral	Picture	52.876	n/a	2	5	13	n/a	93	14	1	n/a	n/a	n/a	n/a	193.138	AF23NES.jpg
161.946	0.514	Blank	Blank	52.362	n/a	2	5	13	n/a	93	n/a	1	n/a	n/a	n/a	n/a	193.635	n/a
162.477	0.497	neutral	Picture	51.848	n/a	2	5	14	n/a	94	36	1	n/a	n/a	n/a	n/a	194.166	BM24NES.jpg
162.974	0.514	Blank	Blank	51.334	n/a	2	5	14	n/a	94	n/a	1	n/a	n/a	n/a	n/a	194.663	n/a
163.505	0.497	neutral	Picture	50.82	n/a	2	5	15	n/a	95	34	1	n/a	n/a	n/a	n/a	195.194	AM22NES.jpg
164.002	0.514	Blank	Blank	50.306	n/a	2	5	15	n/a	95	n/a	1	n/a	n/a	n/a	n/a	195.691	n/a
164.533	0.497	neutral	Picture	49.792	n/a	2	5	16	n/a	96	10	1	n/a	n/a	n/a	n/a	196.221	AF18NES.jpg
165.03	0.514	Blank	Blank	49.278	n/a	2	5	16	n/a	96	n/a	1	n/a	n/a	n/a	n/a	196.719	n/a
165.561	0.497	neutral	Picture	48.764	n/a	2	5	17	n/a	97	5	1	n/a	n/a	n/a	n/a	197.249	BF07NES.jpg
166.058	0.514	Blank	Blank	48.25	n/a	2	5	17	n/a	97	n/a	1	n/a	n/a	n/a	n/a	197.747	n/a
166.589	0.497	neutral	Picture	47.737	n/a	2	5	18	n/a	98	25	1	n/a	n/a	n/a	n/a	198.277	BM06NES.jpg
167.086	0.514	Blank	Blank	47.222	n/a	2	5	18	n/a	98	n/a	1	n/a	n/a	n/a	n/a	198.774	n/a
167.617	0.497	neutral	Picture	46.709	n/a	2	5	19	n/a	99	39	1	n/a	n/a	n/a	n/a	199.305	AM28NES.jpg
168.114	0.514	Blank	Blank	46.195	n/a	2	5	19	n/a	99	n/a	1	n/a	n/a	n/a	n/a	199.802	n/a
168.644	0.497	neutral	Picture	45.681	n/a	2	5	20	n/a	100	33	1	n/a	n/a	n/a	n/a	200.333	AM21NES.jpg
169.142	0.514	Blank	Blank	45.167	n/a	2	5	20	n/a	100	n/a	1	n/a	n/a	n/a	n/a	200.83	n/a
169.672	10.014	ITI	Fixation+	35.137	n/a	2	n/a	n/a	n/a	n/a	n/a	n/a	n/a	n/a	n/a	n/a	201.361	n/a
179.702	0.497	happy	Picture	34.623	n/a	2	6	1	n/a	101	74	2	n/a	n/a	n/a	n/a	211.391	AM22HAS.jpg
180.2	0.514	Blank	Blank	34.109	n/a	2	6	1	n/a	101	n/a	2	n/a	n/a	n/a	n/a	211.888	n/a
180.73	0.497	happy	Picture	33.595	n/a	2	6	2	n/a	102	76	2	n/a	n/a	n/a	n/a	212.419	BM24HAS.jpg
181.228	0.514	Blank	Blank	33.081	n/a	2	6	2	n/a	102	n/a	2	n/a	n/a	n/a	n/a	212.916	n/a
181.758	0.497	happy	Picture	32.567	n/a	2	6	3	n/a	103	80	2	n/a	n/a	n/a	n/a	213.447	BM35HAS.jpg
182.256	0.514	Blank	Blank	32.053	n/a	2	6	3	n/a	103	n/a	2	n/a	n/a	n/a	n/a	213.944	n/a
182.786	0.497	happy	Picture	31.539	n/a	2	6	4	n/a	104	75	2	n/a	n/a	n/a	n/a	214.475	AM23HAS.jpg
183.283	0.514	Blank	Blank	31.025	n/a	2	6	4	n/a	104	n/a	2	n/a	n/a	n/a	n/a	214.972	n/a
183.814	0.497	happy	Picture	30.511	n/a	2	6	5	n/a	105	49	2	n/a	n/a	n/a	n/a	215.503	AF17HAS.jpg
184.311	0.514	Blank	Blank	29.997	n/a	2	6	5	n/a	105	n/a	2	n/a	n/a	n/a	n/a	216.0	n/a
184.842	0.497	happy	Picture	29.483	n/a	2	6	6	n/a	106	43	2	n/a	n/a	n/a	n/a	216.53	BF04HAS.jpg
185.339	0.514	Blank	Blank	28.969	n/a	2	6	6	n/a	106	n/a	2	n/a	n/a	n/a	n/a	217.028	n/a
185.87	0.497	happy	Picture	28.455	n/a	2	6	7	n/a	107	70	2	n/a	n/a	n/a	n/a	217.558	BM11HAS.jpg
186.367	0.514	Blank	Blank	27.941	n/a	2	6	7	n/a	107	n/a	2	n/a	n/a	n/a	n/a	218.056	n/a
186.898	0.497	happy	Picture	27.427	n/a	2	6	8	n/a	108	66	2	n/a	n/a	n/a	n/a	218.586	BM07HAS.jpg
187.395	0.514	Blank	Blank	26.913	n/a	2	6	8	n/a	108	n/a	2	n/a	n/a	n/a	n/a	219.084	n/a
187.925	0.497	happy	Picture	26.399	n/a	2	6	9	n/a	109	48	2	n/a	n/a	n/a	n/a	219.614	AF14HAS.jpg
188.423	0.514	Blank	Blank	25.886	n/a	2	6	9	n/a	109	n/a	2	n/a	n/a	n/a	n/a	220.112	n/a
188.953	0.497	happy	Picture	25.372	n/a	2	6	10	n/a	110	58	2	n/a	n/a	n/a	n/a	220.642	BF29HAS.jpg
189.451	0.514	Blank	Blank	24.858	n/a	2	6	10	n/a	110	n/a	2	n/a	n/a	n/a	n/a	221.139	n/a
189.981	0.497	happy	Picture	24.344	n/a	2	6	11	n/a	111	63	2	n/a	n/a	n/a	n/a	221.67	AM04HAS.jpg
190.479	0.514	Blank	Blank	23.83	n/a	2	6	11	n/a	111	n/a	2	n/a	n/a	n/a	n/a	222.167	n/a
191.009	0.497	happy	Picture	23.316	n/a	2	6	12	n/a	112	72	2	n/a	n/a	n/a	n/a	222.698	AM14HAS.jpg
191.506	0.514	Blank	Blank	22.802	n/a	2	6	12	n/a	112	n/a	2	n/a	n/a	n/a	n/a	223.195	n/a
192.037	0.497	happy	Picture	22.288	n/a	2	6	13	n/a	113	55	2	n/a	n/a	n/a	n/a	223.726	AF25HAS.jpg
192.534	0.514	Blank	Blank	21.774	n/a	2	6	13	n/a	113	n/a	2	n/a	n/a	n/a	n/a	224.223	n/a
193.065	0.497	happy	Picture	21.26	n/a	2	6	14	n/a	114	42	2	n/a	n/a	n/a	n/a	224.754	AF03HAS.jpg
193.562	0.514	Blank	Blank	20.746	n/a	2	6	14	n/a	114	n/a	2	n/a	n/a	n/a	n/a	225.251	n/a
194.093	0.497	happy	Picture	20.232	n/a	2	6	15	n/a	115	60	2	n/a	n/a	n/a	n/a	225.781	AF32HAS.jpg
194.59	0.514	Blank	Blank	19.718	n/a	2	6	15	n/a	115	n/a	2	n/a	n/a	n/a	n/a	226.279	n/a
195.121	0.497	happy	Picture	19.204	n/a	2	6	16	n/a	116	67	2	n/a	n/a	n/a	n/a	226.809	BM08HAS.jpg
195.618	0.514	Blank	Blank	18.69	n/a	2	6	16	n/a	116	n/a	2	n/a	n/a	n/a	n/a	227.307	n/a
196.149	0.497	happy	Picture	18.176	n/a	2	6	17	n/a	117	51	2	n/a	n/a	n/a	n/a	227.837	AF20HAS.jpg
196.646	0.514	Blank	Blank	17.662	n/a	2	6	17	n/a	117	n/a	2	n/a	n/a	n/a	n/a	228.335	n/a
197.177	0.497	happy	Picture	17.149	n/a	2	6	18	n/a	118	71	2	n/a	n/a	n/a	n/a	228.865	BM12HAS.jpg
197.674	0.514	Blank	Blank	16.635	n/a	2	6	18	n/a	118	n/a	2	n/a	n/a	n/a	n/a	229.362	n/a
198.204	0.497	happy	Picture	16.121	n/a	2	6	19	n/a	119	69	2	n/a	n/a	n/a	n/a	229.893	AM10HAS.jpg
198.702	0.514	Blank	Blank	15.607	n/a	2	6	19	n/a	119	n/a	2	n/a	n/a	n/a	n/a	230.39	n/a
199.232	0.497	happy	Picture	15.093	n/a	2	6	20	n/a	120	46	2	n/a	n/a	n/a	n/a	230.921	AF09HAS.jpg
199.73	0.514	Blank	Blank	14.579	n/a	2	6	20	n/a	120	n/a	2	n/a	n/a	n/a	n/a	231.418	n/a
200.26	10.014	ITI	Fixation+	4.549	n/a	2	n/a	n/a	n/a	n/a	n/a	n/a	n/a	n/a	n/a	n/a	231.949	n/a
214.822	n/a	ConfirmRating	Rate	n/a	4.543	2	n/a	n/a	0	n/a	n/a	n/a	2	Happy	73	52	246.511	n/a
216.674	n/a	ConfirmRating	Rate	n/a	1.84	2	n/a	n/a	1	n/a	n/a	n/a	3	Happy	30	48	248.363	n/a
216.706	15.004	Rest	Picture	n/a	n/a	n/a	n/a	n/a	n/a	n/a	n/a	n/a	0	n/a	0	0	248.395	n/a
231.727	10.014	ITI	Fixation+	95.237	n/a	3	n/a	n/a	n/a	n/a	n/a	n/a	n/a	n/a	n/a	n/a	263.415	n/a
241.757	0.497	angry	Picture	94.723	n/a	3	7	1	n/a	1	108	3	n/a	n/a	n/a	n/a	273.445	AM09ANS.jpg
242.254	0.514	Blank	Blank	94.209	n/a	3	7	1	n/a	1	n/a	3	n/a	n/a	n/a	n/a	273.943	n/a
242.785	0.497	angry	Picture	93.696	n/a	3	7	2	n/a	2	99	3	n/a	n/a	n/a	n/a	274.473	AF31ANS.jpg
243.282	0.514	Blank	Blank	93.182	n/a	3	7	2	n/a	2	n/a	3	n/a	n/a	n/a	n/a	274.971	n/a
243.813	0.497	angry	Picture	92.668	n/a	3	7	3	n/a	3	98	3	n/a	n/a	n/a	n/a	275.501	BF29ANS.jpg
244.31	0.514	Blank	Blank	92.154	n/a	3	7	3	n/a	3	n/a	3	n/a	n/a	n/a	n/a	275.999	n/a
244.841	0.497	angry	Picture	91.64	n/a	3	7	4	n/a	4	107	3	n/a	n/a	n/a	n/a	276.529	BM08ANS.jpg
245.338	0.514	Blank	Blank	91.126	n/a	3	7	4	n/a	4	n/a	3	n/a	n/a	n/a	n/a	277.026	n/a
245.868	0.497	angry	Picture	90.612	n/a	3	7	5	n/a	5	104	3	n/a	n/a	n/a	n/a	277.557	BM05ANS.jpg
246.366	0.514	Blank	Blank	90.098	n/a	3	7	5	n/a	5	n/a	3	n/a	n/a	n/a	n/a	278.054	n/a
246.896	0.497	angry	Picture	89.584	n/a	3	7	6	n/a	6	101	3	n/a	n/a	n/a	n/a	278.585	AM01ANS.jpg
247.394	0.514	Blank	Blank	89.07	n/a	3	7	6	n/a	6	n/a	3	n/a	n/a	n/a	n/a	279.082	n/a
247.924	0.497	angry	Picture	88.556	n/a	3	7	7	n/a	7	103	3	n/a	n/a	n/a	n/a	279.613	AM04ANS.jpg
248.422	0.514	Blank	Blank	88.042	n/a	3	7	7	n/a	7	n/a	3	n/a	n/a	n/a	n/a	280.11	n/a
248.952	0.497	angry	Picture	87.528	n/a	3	7	8	n/a	8	111	3	n/a	n/a	n/a	n/a	280.641	BM12ANS.jpg
249.45	0.514	Blank	Blank	87.014	n/a	3	7	8	n/a	8	n/a	3	n/a	n/a	n/a	n/a	281.138	n/a
249.98	0.497	angry	Picture	86.5	n/a	3	7	9	n/a	9	110	3	n/a	n/a	n/a	n/a	281.669	AM11ANS.jpg
250.477	0.514	Blank	Blank	85.986	n/a	3	7	9	n/a	9	n/a	3	n/a	n/a	n/a	n/a	282.166	n/a
251.008	0.497	angry	Picture	85.472	n/a	3	7	10	n/a	10	85	3	n/a	n/a	n/a	n/a	282.697	BF07ANS.jpg
251.505	0.514	Blank	Blank	84.958	n/a	3	7	10	n/a	10	n/a	3	n/a	n/a	n/a	n/a	283.194	n/a
252.036	0.497	angry	Picture	84.445	n/a	3	7	11	n/a	11	87	3	n/a	n/a	n/a	n/a	283.724	BF11ANS.jpg
252.533	0.514	Blank	Blank	83.931	n/a	3	7	11	n/a	11	n/a	3	n/a	n/a	n/a	n/a	284.222	n/a
253.064	0.497	angry	Picture	83.417	n/a	3	7	12	n/a	12	91	3	n/a	n/a	n/a	n/a	284.752	AF20ANS.jpg
253.561	0.514	Blank	Blank	82.903	n/a	3	7	12	n/a	12	n/a	3	n/a	n/a	n/a	n/a	285.25	n/a
254.091	0.497	angry	Picture	82.389	n/a	3	7	13	n/a	13	115	3	n/a	n/a	n/a	n/a	285.78	AM23ANS.jpg
254.589	0.514	Blank	Blank	81.875	n/a	3	7	13	n/a	13	n/a	3	n/a	n/a	n/a	n/a	286.277	n/a
255.119	0.497	angry	Picture	81.361	n/a	3	7	14	n/a	14	97	3	n/a	n/a	n/a	n/a	286.808	BF28ANS.jpg
255.617	0.514	Blank	Blank	80.847	n/a	3	7	14	n/a	14	n/a	3	n/a	n/a	n/a	n/a	287.305	n/a
256.147	0.497	angry	Picture	80.333	n/a	3	7	15	n/a	15	82	3	n/a	n/a	n/a	n/a	287.836	AF03ANS.jpg
256.645	0.514	Blank	Blank	79.819	n/a	3	7	15	n/a	15	n/a	3	n/a	n/a	n/a	n/a	288.333	n/a
257.175	0.497	angry	Picture	79.305	n/a	3	7	16	n/a	16	96	3	n/a	n/a	n/a	n/a	288.864	AF26ANS.jpg
257.673	0.514	Blank	Blank	78.791	n/a	3	7	16	n/a	16	n/a	3	n/a	n/a	n/a	n/a	289.361	n/a
258.203	0.497	angry	Picture	78.277	n/a	3	7	17	n/a	17	109	3	n/a	n/a	n/a	n/a	289.892	AM10ANS.jpg
258.7	0.514	Blank	Blank	77.763	n/a	3	7	17	n/a	17	n/a	3	n/a	n/a	n/a	n/a	290.389	n/a
259.231	0.497	angry	Picture	77.249	n/a	3	7	18	n/a	18	114	3	n/a	n/a	n/a	n/a	290.92	AM22ANS.jpg
259.728	0.514	Blank	Blank	76.735	n/a	3	7	18	n/a	18	n/a	3	n/a	n/a	n/a	n/a	291.417	n/a
260.259	0.497	angry	Picture	76.221	n/a	3	7	19	n/a	19	120	3	n/a	n/a	n/a	n/a	291.947	AM35ANS.jpg
260.756	0.514	Blank	Blank	75.708	n/a	3	7	19	n/a	19	n/a	3	n/a	n/a	n/a	n/a	292.445	n/a
261.287	0.497	angry	Picture	75.194	n/a	3	7	20	n/a	20	81	3	n/a	n/a	n/a	n/a	292.975	AF01ANS.jpg
261.784	0.514	Blank	Blank	74.68	n/a	3	7	20	n/a	20	n/a	3	n/a	n/a	n/a	n/a	293.473	n/a
262.315	10.014	ITI	Fixation+	64.649	n/a	3	n/a	n/a	n/a	n/a	n/a	n/a	n/a	n/a	n/a	n/a	294.003	n/a
272.345	0.497	neutral	Picture	64.135	n/a	3	8	1	n/a	21	28	1	n/a	n/a	n/a	n/a	304.033	AM09NES.jpg
272.842	0.514	Blank	Blank	63.622	n/a	3	8	1	n/a	21	n/a	1	n/a	n/a	n/a	n/a	304.531	n/a
273.373	0.497	neutral	Picture	63.108	n/a	3	8	2	n/a	22	27	1	n/a	n/a	n/a	n/a	305.061	BM08NES.jpg
273.87	0.514	Blank	Blank	62.594	n/a	3	8	2	n/a	22	n/a	1	n/a	n/a	n/a	n/a	305.559	n/a
274.4	0.497	neutral	Picture	62.08	n/a	3	8	3	n/a	23	16	1	n/a	n/a	n/a	n/a	306.089	AF26NES.jpg
274.898	0.514	Blank	Blank	61.566	n/a	3	8	3	n/a	23	n/a	1	n/a	n/a	n/a	n/a	306.587	n/a
275.428	0.497	neutral	Picture	61.052	n/a	3	8	4	n/a	24	3	1	n/a	n/a	n/a	n/a	307.117	BF04NES.jpg
275.926	0.514	Blank	Blank	60.538	n/a	3	8	4	n/a	24	n/a	1	n/a	n/a	n/a	n/a	307.614	n/a
276.456	0.497	neutral	Picture	60.024	n/a	3	8	5	n/a	25	32	1	n/a	n/a	n/a	n/a	308.145	AM14NES.jpg
276.954	0.514	Blank	Blank	59.51	n/a	3	8	5	n/a	25	n/a	1	n/a	n/a	n/a	n/a	308.642	n/a
277.484	0.497	neutral	Picture	58.996	n/a	3	8	6	n/a	26	37	1	n/a	n/a	n/a	n/a	309.173	BM25NES.jpg
277.982	0.514	Blank	Blank	58.482	n/a	3	8	6	n/a	26	n/a	1	n/a	n/a	n/a	n/a	309.67	n/a
278.512	0.497	neutral	Picture	57.968	n/a	3	8	7	n/a	27	15	1	n/a	n/a	n/a	n/a	310.201	AF25NES.jpg
279.01	0.514	Blank	Blank	57.454	n/a	3	8	7	n/a	27	n/a	1	n/a	n/a	n/a	n/a	310.698	n/a
279.54	0.497	neutral	Picture	56.94	n/a	3	8	8	n/a	28	23	1	n/a	n/a	n/a	n/a	311.229	AM04NES.jpg
280.037	0.514	Blank	Blank	56.426	n/a	3	8	8	n/a	28	n/a	1	n/a	n/a	n/a	n/a	311.726	n/a
280.568	0.497	neutral	Picture	55.912	n/a	3	8	9	n/a	29	34	1	n/a	n/a	n/a	n/a	312.257	AM22NES.jpg
281.065	0.514	Blank	Blank	55.398	n/a	3	8	9	n/a	29	n/a	1	n/a	n/a	n/a	n/a	312.754	n/a
281.596	0.497	neutral	Picture	54.885	n/a	3	8	10	n/a	30	24	1	n/a	n/a	n/a	n/a	313.284	BM05NES.jpg
282.093	0.514	Blank	Blank	54.371	n/a	3	8	10	n/a	30	n/a	1	n/a	n/a	n/a	n/a	313.782	n/a
282.624	0.497	neutral	Picture	53.857	n/a	3	8	11	n/a	31	12	1	n/a	n/a	n/a	n/a	314.312	AF21NES.jpg
283.121	0.514	Blank	Blank	53.343	n/a	3	8	11	n/a	31	n/a	1	n/a	n/a	n/a	n/a	314.81	n/a
283.651	0.497	neutral	Picture	52.829	n/a	3	8	12	n/a	32	6	1	n/a	n/a	n/a	n/a	315.34	AF09NES.jpg
284.149	0.514	Blank	Blank	52.315	n/a	3	8	12	n/a	32	n/a	1	n/a	n/a	n/a	n/a	315.837	n/a
284.679	0.497	neutral	Picture	51.801	n/a	3	8	13	n/a	33	17	1	n/a	n/a	n/a	n/a	316.368	BF28NES.jpg
285.177	0.514	Blank	Blank	51.287	n/a	3	8	13	n/a	33	n/a	1	n/a	n/a	n/a	n/a	316.865	n/a
285.707	0.497	neutral	Picture	50.773	n/a	3	8	14	n/a	34	2	1	n/a	n/a	n/a	n/a	317.396	AF03NES.jpg
286.205	0.514	Blank	Blank	50.259	n/a	3	8	14	n/a	34	n/a	1	n/a	n/a	n/a	n/a	317.893	n/a
286.735	0.497	neutral	Picture	49.745	n/a	3	8	15	n/a	35	9	1	n/a	n/a	n/a	n/a	318.424	AF17NES.jpg
287.233	0.514	Blank	Blank	49.231	n/a	3	8	15	n/a	35	n/a	1	n/a	n/a	n/a	n/a	318.921	n/a
287.763	0.497	neutral	Picture	48.717	n/a	3	8	16	n/a	36	25	1	n/a	n/a	n/a	n/a	319.452	BM06NES.jpg
288.26	0.514	Blank	Blank	48.203	n/a	3	8	16	n/a	36	n/a	1	n/a	n/a	n/a	n/a	319.949	n/a
288.791	0.497	neutral	Picture	47.689	n/a	3	8	17	n/a	37	8	1	n/a	n/a	n/a	n/a	320.48	AF14NES.jpg
289.288	0.514	Blank	Blank	47.175	n/a	3	8	17	n/a	37	n/a	1	n/a	n/a	n/a	n/a	320.977	n/a
289.819	0.497	neutral	Picture	46.661	n/a	3	8	18	n/a	38	19	1	n/a	n/a	n/a	n/a	321.507	AF31NES.jpg
290.316	0.514	Blank	Blank	46.147	n/a	3	8	18	n/a	38	n/a	1	n/a	n/a	n/a	n/a	322.005	n/a
290.847	0.497	neutral	Picture	45.634	n/a	3	8	19	n/a	39	14	1	n/a	n/a	n/a	n/a	322.535	AF23NES.jpg
291.344	0.514	Blank	Blank	45.12	n/a	3	8	19	n/a	39	n/a	1	n/a	n/a	n/a	n/a	323.033	n/a
291.875	0.497	neutral	Picture	44.606	n/a	3	8	20	n/a	40	4	1	n/a	n/a	n/a	n/a	323.563	AF05NES.jpg
292.372	0.514	Blank	Blank	44.092	n/a	3	8	20	n/a	40	n/a	1	n/a	n/a	n/a	n/a	324.061	n/a
292.902	10.014	ITI	Fixation+	34.062	n/a	3	n/a	n/a	n/a	n/a	n/a	n/a	n/a	n/a	n/a	n/a	324.591	n/a
302.933	0.497	angry	Picture	33.548	n/a	3	9	1	n/a	41	84	3	n/a	n/a	n/a	n/a	334.621	AF05ANS.jpg
303.43	0.514	Blank	Blank	33.034	n/a	3	9	1	n/a	41	n/a	3	n/a	n/a	n/a	n/a	335.119	n/a
303.961	0.497	angry	Picture	32.52	n/a	3	9	2	n/a	42	92	3	n/a	n/a	n/a	n/a	335.649	AF21ANS.jpg
304.458	0.514	Blank	Blank	32.006	n/a	3	9	2	n/a	42	n/a	3	n/a	n/a	n/a	n/a	336.147	n/a
304.988	0.497	angry	Picture	31.492	n/a	3	9	3	n/a	43	86	3	n/a	n/a	n/a	n/a	336.677	AF09ANS.jpg
305.486	0.514	Blank	Blank	30.978	n/a	3	9	3	n/a	43	n/a	3	n/a	n/a	n/a	n/a	337.174	n/a
306.016	0.497	angry	Picture	30.464	n/a	3	9	4	n/a	44	93	3	n/a	n/a	n/a	n/a	337.705	BF22ANS.jpg
306.514	0.514	Blank	Blank	29.95	n/a	3	9	4	n/a	44	n/a	3	n/a	n/a	n/a	n/a	338.202	n/a
307.044	0.497	angry	Picture	29.436	n/a	3	9	5	n/a	45	88	3	n/a	n/a	n/a	n/a	338.733	AF14ANS.jpg
307.542	0.514	Blank	Blank	28.922	n/a	3	9	5	n/a	45	n/a	3	n/a	n/a	n/a	n/a	339.23	n/a
308.072	0.497	angry	Picture	28.408	n/a	3	9	6	n/a	46	113	3	n/a	n/a	n/a	n/a	339.761	AM21ANS.jpg
308.57	0.514	Blank	Blank	27.894	n/a	3	9	6	n/a	46	n/a	3	n/a	n/a	n/a	n/a	340.258	n/a
309.1	0.497	angry	Picture	27.38	n/a	3	9	7	n/a	47	95	3	n/a	n/a	n/a	n/a	340.789	AF25ANS.jpg
309.597	0.514	Blank	Blank	26.866	n/a	3	9	7	n/a	47	n/a	3	n/a	n/a	n/a	n/a	341.286	n/a
310.128	0.497	angry	Picture	26.352	n/a	3	9	8	n/a	48	102	3	n/a	n/a	n/a	n/a	341.817	BM03ANS.jpg
310.625	0.514	Blank	Blank	25.839	n/a	3	9	8	n/a	48	n/a	3	n/a	n/a	n/a	n/a	342.314	n/a
311.156	0.497	angry	Picture	25.325	n/a	3	9	9	n/a	49	112	3	n/a	n/a	n/a	n/a	342.844	AM14ANS.jpg
311.653	0.514	Blank	Blank	24.811	n/a	3	9	9	n/a	49	n/a	3	n/a	n/a	n/a	n/a	343.342	n/a
312.184	0.497	angry	Picture	24.297	n/a	3	9	10	n/a	50	83	3	n/a	n/a	n/a	n/a	343.872	BF04ANS.jpg
312.681	0.514	Blank	Blank	23.783	n/a	3	9	10	n/a	50	n/a	3	n/a	n/a	n/a	n/a	344.37	n/a
313.212	0.497	angry	Picture	23.269	n/a	3	9	11	n/a	51	90	3	n/a	n/a	n/a	n/a	344.9	AF18ANS.jpg
313.709	0.514	Blank	Blank	22.755	n/a	3	9	11	n/a	51	n/a	3	n/a	n/a	n/a	n/a	345.397	n/a
314.239	0.497	angry	Picture	22.241	n/a	3	9	12	n/a	52	117	3	n/a	n/a	n/a	n/a	345.928	BM25ANS.jpg
314.737	0.514	Blank	Blank	21.727	n/a	3	9	12	n/a	52	n/a	3	n/a	n/a	n/a	n/a	346.425	n/a
315.267	0.497	angry	Picture	21.213	n/a	3	9	13	n/a	53	94	3	n/a	n/a	n/a	n/a	346.956	AF23ANS.jpg
315.765	0.514	Blank	Blank	20.699	n/a	3	9	13	n/a	53	n/a	3	n/a	n/a	n/a	n/a	347.453	n/a
316.295	0.497	angry	Picture	20.185	n/a	3	9	14	n/a	54	106	3	n/a	n/a	n/a	n/a	347.984	AM07ANS.jpg
316.793	0.514	Blank	Blank	19.671	n/a	3	9	14	n/a	54	n/a	3	n/a	n/a	n/a	n/a	348.481	n/a
317.323	0.497	angry	Picture	19.157	n/a	3	9	15	n/a	55	105	3	n/a	n/a	n/a	n/a	349.012	BM06ANS.jpg
317.82	0.514	Blank	Blank	18.643	n/a	3	9	15	n/a	55	n/a	3	n/a	n/a	n/a	n/a	349.509	n/a
318.351	0.497	angry	Picture	18.129	n/a	3	9	16	n/a	56	116	3	n/a	n/a	n/a	n/a	350.04	BM24ANS.jpg
318.848	0.514	Blank	Blank	17.615	n/a	3	9	16	n/a	56	n/a	3	n/a	n/a	n/a	n/a	350.537	n/a
319.379	0.497	angry	Picture	17.101	n/a	3	9	17	n/a	57	89	3	n/a	n/a	n/a	n/a	351.067	AF17ANS.jpg
319.876	0.514	Blank	Blank	16.587	n/a	3	9	17	n/a	57	n/a	3	n/a	n/a	n/a	n/a	351.565	n/a
320.407	0.497	angry	Picture	16.074	n/a	3	9	18	n/a	58	118	3	n/a	n/a	n/a	n/a	352.095	BM26ANS.jpg
320.904	0.514	Blank	Blank	15.56	n/a	3	9	18	n/a	58	n/a	3	n/a	n/a	n/a	n/a	352.593	n/a
321.435	0.497	angry	Picture	15.046	n/a	3	9	19	n/a	59	100	3	n/a	n/a	n/a	n/a	353.123	AF32ANS.jpg
321.932	0.514	Blank	Blank	14.532	n/a	3	9	19	n/a	59	n/a	3	n/a	n/a	n/a	n/a	353.621	n/a
322.462	0.497	angry	Picture	14.018	n/a	3	9	20	n/a	60	119	3	n/a	n/a	n/a	n/a	354.151	BM28ANS.jpg
322.96	0.514	Blank	Blank	13.504	n/a	3	9	20	n/a	60	n/a	3	n/a	n/a	n/a	n/a	354.649	n/a
323.49	10.014	ITI	Fixation+	3.474	n/a	3	n/a	n/a	n/a	n/a	n/a	n/a	n/a	n/a	n/a	n/a	355.179	n/a
336.978	n/a	ConfirmRating	Rate	n/a	3.465	3	n/a	n/a	0	n/a	n/a	n/a	2	Angry	32	47	368.666	n/a
338.669	n/a	ConfirmRating	Rate	n/a	1.675	3	n/a	n/a	1	n/a	n/a	n/a	3	Angry	57	51	370.357	n/a
338.693	10.014	ITI	Fixation+	94.632	n/a	4	n/a	n/a	n/a	n/a	n/a	n/a	n/a	n/a	n/a	n/a	370.382	n/a
348.723	0.497	happy	Picture	94.118	n/a	4	10	1	n/a	61	79	2	n/a	n/a	n/a	n/a	380.412	BM28HAS.jpg
349.221	0.514	Blank	Blank	93.605	n/a	4	10	1	n/a	61	n/a	2	n/a	n/a	n/a	n/a	380.909	n/a
349.751	0.497	happy	Picture	93.091	n/a	4	10	2	n/a	62	61	2	n/a	n/a	n/a	n/a	381.44	AM01HAS.jpg
350.249	0.514	Blank	Blank	92.577	n/a	4	10	2	n/a	62	n/a	2	n/a	n/a	n/a	n/a	381.937	n/a
350.779	0.497	happy	Picture	92.063	n/a	4	10	3	n/a	63	57	2	n/a	n/a	n/a	n/a	382.468	BF28HAS.jpg
351.276	0.514	Blank	Blank	91.549	n/a	4	10	3	n/a	63	n/a	2	n/a	n/a	n/a	n/a	382.965	n/a
351.807	0.497	happy	Picture	91.035	n/a	4	10	4	n/a	64	77	2	n/a	n/a	n/a	n/a	383.496	BM25HAS.jpg
352.304	0.514	Blank	Blank	90.521	n/a	4	10	4	n/a	64	n/a	2	n/a	n/a	n/a	n/a	383.993	n/a
352.835	0.497	happy	Picture	90.007	n/a	4	10	5	n/a	65	47	2	n/a	n/a	n/a	n/a	384.524	BF11HAS.jpg
353.332	0.514	Blank	Blank	89.493	n/a	4	10	5	n/a	65	n/a	2	n/a	n/a	n/a	n/a	385.021	n/a
353.863	0.497	happy	Picture	88.979	n/a	4	10	6	n/a	66	50	2	n/a	n/a	n/a	n/a	385.551	AF18HAS.jpg
354.36	0.514	Blank	Blank	88.465	n/a	4	10	6	n/a	66	n/a	2	n/a	n/a	n/a	n/a	386.049	n/a
354.891	0.497	happy	Picture	87.951	n/a	4	10	7	n/a	67	78	2	n/a	n/a	n/a	n/a	386.579	BM26HAS.jpg
355.388	0.514	Blank	Blank	87.437	n/a	4	10	7	n/a	67	n/a	2	n/a	n/a	n/a	n/a	387.077	n/a
355.918	0.497	happy	Picture	86.923	n/a	4	10	8	n/a	68	45	2	n/a	n/a	n/a	n/a	387.607	BF07HAS.jpg
356.416	0.514	Blank	Blank	86.409	n/a	4	10	8	n/a	68	n/a	2	n/a	n/a	n/a	n/a	388.104	n/a
356.946	0.497	happy	Picture	85.895	n/a	4	10	9	n/a	69	56	2	n/a	n/a	n/a	n/a	388.635	AF26HAS.jpg
357.444	0.514	Blank	Blank	85.382	n/a	4	10	9	n/a	69	n/a	2	n/a	n/a	n/a	n/a	389.132	n/a
357.974	0.497	happy	Picture	84.868	n/a	4	10	10	n/a	70	65	2	n/a	n/a	n/a	n/a	389.663	BM06HAS.jpg
358.472	0.514	Blank	Blank	84.354	n/a	4	10	10	n/a	70	n/a	2	n/a	n/a	n/a	n/a	390.16	n/a
359.002	0.497	happy	Picture	83.84	n/a	4	10	11	n/a	71	73	2	n/a	n/a	n/a	n/a	390.691	AM21HAS.jpg
359.5	0.514	Blank	Blank	83.326	n/a	4	10	11	n/a	71	n/a	2	n/a	n/a	n/a	n/a	391.188	n/a
360.03	0.497	happy	Picture	82.812	n/a	4	10	12	n/a	72	41	2	n/a	n/a	n/a	n/a	391.719	AF01HAS.jpg
360.527	0.514	Blank	Blank	82.298	n/a	4	10	12	n/a	72	n/a	2	n/a	n/a	n/a	n/a	392.216	n/a
361.058	0.497	happy	Picture	81.784	n/a	4	10	13	n/a	73	59	2	n/a	n/a	n/a	n/a	392.747	AF31HAS.jpg
361.555	0.514	Blank	Blank	81.27	n/a	4	10	13	n/a	73	n/a	2	n/a	n/a	n/a	n/a	393.244	n/a
362.086	0.497	happy	Picture	80.756	n/a	4	10	14	n/a	74	64	2	n/a	n/a	n/a	n/a	393.774	BM05HAS.jpg
362.583	0.514	Blank	Blank	80.242	n/a	4	10	14	n/a	74	n/a	2	n/a	n/a	n/a	n/a	394.272	n/a
363.114	0.497	happy	Picture	79.728	n/a	4	10	15	n/a	75	68	2	n/a	n/a	n/a	n/a	394.802	AM09HAS.jpg
363.611	0.514	Blank	Blank	79.214	n/a	4	10	15	n/a	75	n/a	2	n/a	n/a	n/a	n/a	395.3	n/a
364.142	0.497	happy	Picture	78.7	n/a	4	10	16	n/a	76	54	2	n/a	n/a	n/a	n/a	395.83	AF23HAS.jpg
364.639	0.514	Blank	Blank	78.186	n/a	4	10	16	n/a	76	n/a	2	n/a	n/a	n/a	n/a	396.328	n/a
365.169	0.497	happy	Picture	77.672	n/a	4	10	17	n/a	77	53	2	n/a	n/a	n/a	n/a	396.858	BF22HAS.jpg
365.667	0.514	Blank	Blank	77.158	n/a	4	10	17	n/a	77	n/a	2	n/a	n/a	n/a	n/a	397.356	n/a
366.197	0.497	happy	Picture	76.644	n/a	4	10	18	n/a	78	44	2	n/a	n/a	n/a	n/a	397.886	AF05HAS.jpg
366.695	0.514	Blank	Blank	76.131	n/a	4	10	18	n/a	78	n/a	2	n/a	n/a	n/a	n/a	398.383	n/a
367.225	0.497	happy	Picture	75.616	n/a	4	10	19	n/a	79	52	2	n/a	n/a	n/a	n/a	398.914	AF21HAS.jpg
367.723	0.514	Blank	Blank	75.103	n/a	4	10	19	n/a	79	n/a	2	n/a	n/a	n/a	n/a	399.411	n/a
368.253	0.497	happy	Picture	74.589	n/a	4	10	20	n/a	80	62	2	n/a	n/a	n/a	n/a	399.942	BM03HAS.jpg
368.75	0.514	Blank	Blank	74.075	n/a	4	10	20	n/a	80	n/a	2	n/a	n/a	n/a	n/a	400.439	n/a
369.281	10.014	ITI	Fixation+	64.045	n/a	4	n/a	n/a	n/a	n/a	n/a	n/a	n/a	n/a	n/a	n/a	400.97	n/a
379.311	0.497	neutral	Picture	63.531	n/a	4	11	1	n/a	81	23	1	n/a	n/a	n/a	n/a	411.0	AM04NES.jpg
379.809	0.514	Blank	Blank	63.017	n/a	4	11	1	n/a	81	n/a	1	n/a	n/a	n/a	n/a	411.497	n/a
380.339	0.497	neutral	Picture	62.503	n/a	4	11	2	n/a	82	29	1	n/a	n/a	n/a	n/a	412.028	AM10NES.jpg
380.837	0.514	Blank	Blank	61.989	n/a	4	11	2	n/a	82	n/a	1	n/a	n/a	n/a	n/a	412.525	n/a
381.367	0.497	neutral	Picture	61.475	n/a	4	11	3	n/a	83	24	1	n/a	n/a	n/a	n/a	413.056	BM05NES.jpg
381.864	0.514	Blank	Blank	60.961	n/a	4	11	3	n/a	83	n/a	1	n/a	n/a	n/a	n/a	413.553	n/a
382.395	0.497	neutral	Picture	60.447	n/a	4	11	4	n/a	84	12	1	n/a	n/a	n/a	n/a	414.084	AF21NES.jpg
382.892	0.514	Blank	Blank	59.933	n/a	4	11	4	n/a	84	n/a	1	n/a	n/a	n/a	n/a	414.581	n/a
383.423	0.497	neutral	Picture	59.419	n/a	4	11	5	n/a	85	13	1	n/a	n/a	n/a	n/a	415.111	BF22NES.jpg
383.92	0.514	Blank	Blank	58.905	n/a	4	11	5	n/a	85	n/a	1	n/a	n/a	n/a	n/a	415.609	n/a
384.451	0.497	neutral	Picture	58.391	n/a	4	11	6	n/a	86	17	1	n/a	n/a	n/a	n/a	416.139	BF28NES.jpg
384.948	0.514	Blank	Blank	57.877	n/a	4	11	6	n/a	86	n/a	1	n/a	n/a	n/a	n/a	416.637	n/a
385.479	0.497	neutral	Picture	57.363	n/a	4	11	7	n/a	87	4	1	n/a	n/a	n/a	n/a	417.167	AF05NES.jpg
385.976	0.514	Blank	Blank	56.849	n/a	4	11	7	n/a	87	n/a	1	n/a	n/a	n/a	n/a	417.664	n/a
386.506	0.497	neutral	Picture	56.335	n/a	4	11	8	n/a	88	11	1	n/a	n/a	n/a	n/a	418.195	AF20NES.jpg
387.004	0.514	Blank	Blank	55.821	n/a	4	11	8	n/a	88	n/a	1	n/a	n/a	n/a	n/a	418.692	n/a
387.534	0.497	neutral	Picture	55.308	n/a	4	11	9	n/a	89	22	1	n/a	n/a	n/a	n/a	419.223	BM03NES.jpg
388.032	0.514	Blank	Blank	54.794	n/a	4	11	9	n/a	89	n/a	1	n/a	n/a	n/a	n/a	419.72	n/a
388.562	0.497	neutral	Picture	54.28	n/a	4	11	10	n/a	90	15	1	n/a	n/a	n/a	n/a	420.251	AF25NES.jpg
389.06	0.514	Blank	Blank	53.766	n/a	4	11	10	n/a	90	n/a	1	n/a	n/a	n/a	n/a	420.748	n/a
389.59	0.497	neutral	Picture	53.252	n/a	4	11	11	n/a	91	19	1	n/a	n/a	n/a	n/a	421.279	AF31NES.jpg
390.087	0.514	Blank	Blank	52.738	n/a	4	11	11	n/a	91	n/a	1	n/a	n/a	n/a	n/a	421.776	n/a
390.618	0.497	neutral	Picture	52.224	n/a	4	11	12	n/a	92	9	1	n/a	n/a	n/a	n/a	422.307	AF17NES.jpg
391.115	0.514	Blank	Blank	51.71	n/a	4	11	12	n/a	92	n/a	1	n/a	n/a	n/a	n/a	422.804	n/a
391.646	0.497	neutral	Picture	51.196	n/a	4	11	13	n/a	93	14	1	n/a	n/a	n/a	n/a	423.334	AF23NES.jpg
392.143	0.514	Blank	Blank	50.682	n/a	4	11	13	n/a	93	n/a	1	n/a	n/a	n/a	n/a	423.832	n/a
392.674	0.497	neutral	Picture	50.168	n/a	4	11	14	n/a	94	36	1	n/a	n/a	n/a	n/a	424.362	BM24NES.jpg
393.171	0.514	Blank	Blank	49.654	n/a	4	11	14	n/a	94	n/a	1	n/a	n/a	n/a	n/a	424.86	n/a
393.702	0.497	neutral	Picture	49.14	n/a	4	11	15	n/a	95	34	1	n/a	n/a	n/a	n/a	425.39	AM22NES.jpg
394.199	0.514	Blank	Blank	48.626	n/a	4	11	15	n/a	95	n/a	1	n/a	n/a	n/a	n/a	425.888	n/a
394.729	0.497	neutral	Picture	48.112	n/a	4	11	16	n/a	96	10	1	n/a	n/a	n/a	n/a	426.418	AF18NES.jpg
395.227	0.514	Blank	Blank	47.598	n/a	4	11	16	n/a	96	n/a	1	n/a	n/a	n/a	n/a	426.916	n/a
395.757	0.497	neutral	Picture	47.084	n/a	4	11	17	n/a	97	5	1	n/a	n/a	n/a	n/a	427.446	BF07NES.jpg
396.255	0.514	Blank	Blank	46.571	n/a	4	11	17	n/a	97	n/a	1	n/a	n/a	n/a	n/a	427.943	n/a
396.785	0.497	neutral	Picture	46.056	n/a	4	11	18	n/a	98	25	1	n/a	n/a	n/a	n/a	428.474	BM06NES.jpg
397.283	0.514	Blank	Blank	45.543	n/a	4	11	18	n/a	98	n/a	1	n/a	n/a	n/a	n/a	428.971	n/a
397.813	0.497	neutral	Picture	45.029	n/a	4	11	19	n/a	99	39	1	n/a	n/a	n/a	n/a	429.502	AM28NES.jpg
398.311	0.514	Blank	Blank	44.515	n/a	4	11	19	n/a	99	n/a	1	n/a	n/a	n/a	n/a	429.999	n/a
398.841	0.497	neutral	Picture	44.001	n/a	4	11	20	n/a	100	33	1	n/a	n/a	n/a	n/a	430.53	AM21NES.jpg
399.338	0.514	Blank	Blank	43.487	n/a	4	11	20	n/a	100	n/a	1	n/a	n/a	n/a	n/a	431.027	n/a
399.869	10.014	ITI	Fixation+	33.457	n/a	4	n/a	n/a	n/a	n/a	n/a	n/a	n/a	n/a	n/a	n/a	431.558	n/a
409.899	0.497	happy	Picture	32.943	n/a	4	12	1	n/a	101	74	2	n/a	n/a	n/a	n/a	441.588	AM22HAS.jpg
410.397	0.514	Blank	Blank	32.429	n/a	4	12	1	n/a	101	n/a	2	n/a	n/a	n/a	n/a	442.085	n/a
410.927	0.497	happy	Picture	31.915	n/a	4	12	2	n/a	102	76	2	n/a	n/a	n/a	n/a	442.616	BM24HAS.jpg
411.424	0.514	Blank	Blank	31.401	n/a	4	12	2	n/a	102	n/a	2	n/a	n/a	n/a	n/a	443.113	n/a
411.955	0.497	happy	Picture	30.887	n/a	4	12	3	n/a	103	80	2	n/a	n/a	n/a	n/a	443.644	BM35HAS.jpg
412.452	0.514	Blank	Blank	30.373	n/a	4	12	3	n/a	103	n/a	2	n/a	n/a	n/a	n/a	444.141	n/a
412.983	0.497	happy	Picture	29.859	n/a	4	12	4	n/a	104	75	2	n/a	n/a	n/a	n/a	444.671	AM23HAS.jpg
413.48	0.514	Blank	Blank	29.345	n/a	4	12	4	n/a	104	n/a	2	n/a	n/a	n/a	n/a	445.169	n/a
414.011	0.497	happy	Picture	28.831	n/a	4	12	5	n/a	105	49	2	n/a	n/a	n/a	n/a	445.699	AF17HAS.jpg
414.508	0.514	Blank	Blank	28.317	n/a	4	12	5	n/a	105	n/a	2	n/a	n/a	n/a	n/a	446.197	n/a
415.039	0.497	happy	Picture	27.803	n/a	4	12	6	n/a	106	43	2	n/a	n/a	n/a	n/a	446.727	BF04HAS.jpg
415.536	0.514	Blank	Blank	27.289	n/a	4	12	6	n/a	106	n/a	2	n/a	n/a	n/a	n/a	447.224	n/a
416.067	0.497	happy	Picture	26.775	n/a	4	12	7	n/a	107	70	2	n/a	n/a	n/a	n/a	447.755	BM11HAS.jpg
416.564	0.514	Blank	Blank	26.261	n/a	4	12	7	n/a	107	n/a	2	n/a	n/a	n/a	n/a	448.252	n/a
417.094	0.497	happy	Picture	25.748	n/a	4	12	8	n/a	108	66	2	n/a	n/a	n/a	n/a	448.783	BM07HAS.jpg
417.592	0.514	Blank	Blank	25.233	n/a	4	12	8	n/a	108	n/a	2	n/a	n/a	n/a	n/a	449.28	n/a
418.122	0.497	happy	Picture	24.72	n/a	4	12	9	n/a	109	48	2	n/a	n/a	n/a	n/a	449.811	AF14HAS.jpg
418.62	0.514	Blank	Blank	24.206	n/a	4	12	9	n/a	109	n/a	2	n/a	n/a	n/a	n/a	450.308	n/a
419.15	0.497	happy	Picture	23.692	n/a	4	12	10	n/a	110	58	2	n/a	n/a	n/a	n/a	450.839	BF29HAS.jpg
419.647	0.514	Blank	Blank	23.178	n/a	4	12	10	n/a	110	n/a	2	n/a	n/a	n/a	n/a	451.336	n/a
420.178	0.497	happy	Picture	22.664	n/a	4	12	11	n/a	111	63	2	n/a	n/a	n/a	n/a	451.867	AM04HAS.jpg
420.675	0.514	Blank	Blank	22.15	n/a	4	12	11	n/a	111	n/a	2	n/a	n/a	n/a	n/a	452.364	n/a
421.206	0.497	happy	Picture	21.636	n/a	4	12	12	n/a	112	72	2	n/a	n/a	n/a	n/a	452.894	AM14HAS.jpg
421.703	0.514	Blank	Blank	21.122	n/a	4	12	12	n/a	112	n/a	2	n/a	n/a	n/a	n/a	453.392	n/a
422.234	0.497	happy	Picture	20.608	n/a	4	12	13	n/a	113	55	2	n/a	n/a	n/a	n/a	453.922	AF25HAS.jpg
422.731	0.514	Blank	Blank	20.094	n/a	4	12	13	n/a	113	n/a	2	n/a	n/a	n/a	n/a	454.42	n/a
423.262	0.497	happy	Picture	19.58	n/a	4	12	14	n/a	114	42	2	n/a	n/a	n/a	n/a	454.95	AF03HAS.jpg
423.759	0.514	Blank	Blank	19.066	n/a	4	12	14	n/a	114	n/a	2	n/a	n/a	n/a	n/a	455.448	n/a
424.289	0.497	happy	Picture	18.552	n/a	4	12	15	n/a	115	60	2	n/a	n/a	n/a	n/a	455.978	AF32HAS.jpg
424.787	0.514	Blank	Blank	18.038	n/a	4	12	15	n/a	115	n/a	2	n/a	n/a	n/a	n/a	456.476	n/a
425.317	0.497	happy	Picture	17.524	n/a	4	12	16	n/a	116	67	2	n/a	n/a	n/a	n/a	457.006	BM08HAS.jpg
425.815	0.514	Blank	Blank	17.011	n/a	4	12	16	n/a	116	n/a	2	n/a	n/a	n/a	n/a	457.503	n/a
426.345	0.497	happy	Picture	16.496	n/a	4	12	17	n/a	117	51	2	n/a	n/a	n/a	n/a	458.034	AF20HAS.jpg
426.843	0.514	Blank	Blank	15.983	n/a	4	12	17	n/a	117	n/a	2	n/a	n/a	n/a	n/a	458.531	n/a
427.373	0.497	happy	Picture	15.469	n/a	4	12	18	n/a	118	71	2	n/a	n/a	n/a	n/a	459.062	BM12HAS.jpg
427.871	0.514	Blank	Blank	14.955	n/a	4	12	18	n/a	118	n/a	2	n/a	n/a	n/a	n/a	459.559	n/a
428.401	0.497	happy	Picture	14.441	n/a	4	12	19	n/a	119	69	2	n/a	n/a	n/a	n/a	460.09	AM10HAS.jpg
428.899	0.514	Blank	Blank	13.927	n/a	4	12	19	n/a	119	n/a	2	n/a	n/a	n/a	n/a	460.587	n/a
429.429	0.497	happy	Picture	13.413	n/a	4	12	20	n/a	120	46	2	n/a	n/a	n/a	n/a	461.118	AF09HAS.jpg
429.926	0.514	Blank	Blank	12.899	n/a	4	12	20	n/a	120	n/a	2	n/a	n/a	n/a	n/a	461.615	n/a
430.457	10.014	ITI	Fixation+	2.869	n/a	4	n/a	n/a	n/a	n/a	n/a	n/a	n/a	n/a	n/a	n/a	462.146	n/a
443.339	n/a	ConfirmRating	Rate	n/a	2.868	4	n/a	n/a	0	n/a	n/a	n/a	2	Happy	40	49	475.028	n/a
445.106	n/a	ConfirmRating	Rate	n/a	1.741	4	n/a	n/a	1	n/a	n/a	n/a	3	Happy	24	49	476.795	n/a
