onset	duration	trial_type	event_type	time_until_response	response_time	trial_number	block_num_within_trial	image_seq_num_within_block	question_seq_num_within_block	image_seq_num	picture_number	condition	question_type	block_type	rating	rating_computed	onset_uncorrected	KDEV_imagefile
0.012	10.014	ITI	Fixation+	96.075	n/a	1	n/a	n/a	n/a	n/a	n/a	n/a	n/a	n/a	n/a	n/a	29.803	n/a
10.042	0.497	happy	Picture	95.562	n/a	1	1	1	n/a	1	46	2	n/a	n/a	n/a	n/a	39.833	AF09HAS.jpg
10.54	0.514	Blank	Blank	95.048	n/a	1	1	1	n/a	1	n/a	2	n/a	n/a	n/a	n/a	40.331	n/a
11.07	0.497	happy	Picture	94.534	n/a	1	1	2	n/a	2	69	2	n/a	n/a	n/a	n/a	40.861	AM10HAS.jpg
11.568	0.514	Blank	Blank	94.02	n/a	1	1	2	n/a	2	n/a	2	n/a	n/a	n/a	n/a	41.359	n/a
12.098	0.497	happy	Picture	93.506	n/a	1	1	3	n/a	3	71	2	n/a	n/a	n/a	n/a	41.889	BM12HAS.jpg
12.595	0.514	Blank	Blank	92.992	n/a	1	1	3	n/a	3	n/a	2	n/a	n/a	n/a	n/a	42.386	n/a
13.126	0.497	happy	Picture	92.478	n/a	1	1	4	n/a	4	51	2	n/a	n/a	n/a	n/a	42.917	AF20HAS.jpg
13.623	0.514	Blank	Blank	91.964	n/a	1	1	4	n/a	4	n/a	2	n/a	n/a	n/a	n/a	43.414	n/a
14.154	0.497	happy	Picture	91.45	n/a	1	1	5	n/a	5	67	2	n/a	n/a	n/a	n/a	43.945	BM08HAS.jpg
14.651	0.514	Blank	Blank	90.936	n/a	1	1	5	n/a	5	n/a	2	n/a	n/a	n/a	n/a	44.442	n/a
15.182	0.497	happy	Picture	90.422	n/a	1	1	6	n/a	6	60	2	n/a	n/a	n/a	n/a	44.973	AF32HAS.jpg
15.679	0.514	Blank	Blank	89.908	n/a	1	1	6	n/a	6	n/a	2	n/a	n/a	n/a	n/a	45.47	n/a
16.21	0.497	happy	Picture	89.394	n/a	1	1	7	n/a	7	42	2	n/a	n/a	n/a	n/a	46.001	AF03HAS.jpg
16.707	0.514	Blank	Blank	88.88	n/a	1	1	7	n/a	7	n/a	2	n/a	n/a	n/a	n/a	46.498	n/a
17.238	0.497	happy	Picture	88.366	n/a	1	1	8	n/a	8	55	2	n/a	n/a	n/a	n/a	47.029	AF25HAS.jpg
17.735	0.514	Blank	Blank	87.852	n/a	1	1	8	n/a	8	n/a	2	n/a	n/a	n/a	n/a	47.526	n/a
18.265	0.497	happy	Picture	87.338	n/a	1	1	9	n/a	9	72	2	n/a	n/a	n/a	n/a	48.056	AM14HAS.jpg
18.763	0.514	Blank	Blank	86.825	n/a	1	1	9	n/a	9	n/a	2	n/a	n/a	n/a	n/a	48.554	n/a
19.293	0.497	happy	Picture	86.311	n/a	1	1	10	n/a	10	63	2	n/a	n/a	n/a	n/a	49.084	AM04HAS.jpg
19.791	0.514	Blank	Blank	85.797	n/a	1	1	10	n/a	10	n/a	2	n/a	n/a	n/a	n/a	49.582	n/a
20.321	0.497	happy	Picture	85.283	n/a	1	1	11	n/a	11	58	2	n/a	n/a	n/a	n/a	50.112	BF29HAS.jpg
20.819	0.514	Blank	Blank	84.769	n/a	1	1	11	n/a	11	n/a	2	n/a	n/a	n/a	n/a	50.61	n/a
21.349	0.497	happy	Picture	84.255	n/a	1	1	12	n/a	12	48	2	n/a	n/a	n/a	n/a	51.14	AF14HAS.jpg
21.846	0.514	Blank	Blank	83.741	n/a	1	1	12	n/a	12	n/a	2	n/a	n/a	n/a	n/a	51.637	n/a
22.377	0.497	happy	Picture	83.227	n/a	1	1	13	n/a	13	66	2	n/a	n/a	n/a	n/a	52.168	BM07HAS.jpg
22.874	0.514	Blank	Blank	82.713	n/a	1	1	13	n/a	13	n/a	2	n/a	n/a	n/a	n/a	52.665	n/a
23.405	0.497	happy	Picture	82.199	n/a	1	1	14	n/a	14	70	2	n/a	n/a	n/a	n/a	53.196	BM11HAS.jpg
23.902	0.514	Blank	Blank	81.685	n/a	1	1	14	n/a	14	n/a	2	n/a	n/a	n/a	n/a	53.693	n/a
24.433	0.497	happy	Picture	81.171	n/a	1	1	15	n/a	15	43	2	n/a	n/a	n/a	n/a	54.224	BF04HAS.jpg
24.93	0.514	Blank	Blank	80.657	n/a	1	1	15	n/a	15	n/a	2	n/a	n/a	n/a	n/a	54.721	n/a
25.461	0.497	happy	Picture	80.143	n/a	1	1	16	n/a	16	49	2	n/a	n/a	n/a	n/a	55.252	AF17HAS.jpg
25.958	0.514	Blank	Blank	79.629	n/a	1	1	16	n/a	16	n/a	2	n/a	n/a	n/a	n/a	55.749	n/a
26.488	0.497	happy	Picture	79.115	n/a	1	1	17	n/a	17	75	2	n/a	n/a	n/a	n/a	56.279	AM23HAS.jpg
26.986	0.514	Blank	Blank	78.601	n/a	1	1	17	n/a	17	n/a	2	n/a	n/a	n/a	n/a	56.777	n/a
27.516	0.497	happy	Picture	78.088	n/a	1	1	18	n/a	18	80	2	n/a	n/a	n/a	n/a	57.307	BM35HAS.jpg
28.014	0.514	Blank	Blank	77.574	n/a	1	1	18	n/a	18	n/a	2	n/a	n/a	n/a	n/a	57.805	n/a
28.544	0.497	happy	Picture	77.06	n/a	1	1	19	n/a	19	76	2	n/a	n/a	n/a	n/a	58.335	BM24HAS.jpg
29.042	0.514	Blank	Blank	76.546	n/a	1	1	19	n/a	19	n/a	2	n/a	n/a	n/a	n/a	58.833	n/a
29.572	0.497	happy	Picture	76.032	n/a	1	1	20	n/a	20	74	2	n/a	n/a	n/a	n/a	59.363	AM22HAS.jpg
30.07	0.514	Blank	Blank	75.518	n/a	1	1	20	n/a	20	n/a	2	n/a	n/a	n/a	n/a	59.861	n/a
30.6	10.014	ITI	Fixation+	65.488	n/a	1	n/a	n/a	n/a	n/a	n/a	n/a	n/a	n/a	n/a	n/a	60.391	n/a
40.63	0.497	neutral	Picture	64.974	n/a	1	2	1	n/a	21	33	1	n/a	n/a	n/a	n/a	70.421	AM21NES.jpg
41.127	0.514	Blank	Blank	64.46	n/a	1	2	1	n/a	21	n/a	1	n/a	n/a	n/a	n/a	70.918	n/a
41.658	0.497	neutral	Picture	63.946	n/a	1	2	2	n/a	22	39	1	n/a	n/a	n/a	n/a	71.449	AM28NES.jpg
42.155	0.514	Blank	Blank	63.432	n/a	1	2	2	n/a	22	n/a	1	n/a	n/a	n/a	n/a	71.946	n/a
42.686	0.497	neutral	Picture	62.918	n/a	1	2	3	n/a	23	25	1	n/a	n/a	n/a	n/a	72.477	BM06NES.jpg
43.183	0.514	Blank	Blank	62.404	n/a	1	2	3	n/a	23	n/a	1	n/a	n/a	n/a	n/a	72.974	n/a
43.714	0.497	neutral	Picture	61.89	n/a	1	2	4	n/a	24	5	1	n/a	n/a	n/a	n/a	73.505	BF07NES.jpg
44.211	0.514	Blank	Blank	61.376	n/a	1	2	4	n/a	24	n/a	1	n/a	n/a	n/a	n/a	74.002	n/a
44.742	0.497	neutral	Picture	60.862	n/a	1	2	5	n/a	25	10	1	n/a	n/a	n/a	n/a	74.533	AF18NES.jpg
45.239	0.514	Blank	Blank	60.348	n/a	1	2	5	n/a	25	n/a	1	n/a	n/a	n/a	n/a	75.03	n/a
45.77	0.497	neutral	Picture	59.834	n/a	1	2	6	n/a	26	34	1	n/a	n/a	n/a	n/a	75.561	AM22NES.jpg
46.267	0.514	Blank	Blank	59.32	n/a	1	2	6	n/a	26	n/a	1	n/a	n/a	n/a	n/a	76.058	n/a
46.797	0.497	neutral	Picture	58.806	n/a	1	2	7	n/a	27	36	1	n/a	n/a	n/a	n/a	76.588	BM24NES.jpg
47.295	0.514	Blank	Blank	58.292	n/a	1	2	7	n/a	27	n/a	1	n/a	n/a	n/a	n/a	77.086	n/a
47.825	0.497	neutral	Picture	57.779	n/a	1	2	8	n/a	28	14	1	n/a	n/a	n/a	n/a	77.616	AF23NES.jpg
48.323	0.514	Blank	Blank	57.265	n/a	1	2	8	n/a	28	n/a	1	n/a	n/a	n/a	n/a	78.114	n/a
48.853	0.497	neutral	Picture	56.751	n/a	1	2	9	n/a	29	9	1	n/a	n/a	n/a	n/a	78.644	AF17NES.jpg
49.351	0.514	Blank	Blank	56.237	n/a	1	2	9	n/a	29	n/a	1	n/a	n/a	n/a	n/a	79.142	n/a
49.881	0.497	neutral	Picture	55.723	n/a	1	2	10	n/a	30	19	1	n/a	n/a	n/a	n/a	79.672	AF31NES.jpg
50.379	0.514	Blank	Blank	55.209	n/a	1	2	10	n/a	30	n/a	1	n/a	n/a	n/a	n/a	80.169	n/a
50.909	0.497	neutral	Picture	54.695	n/a	1	2	11	n/a	31	15	1	n/a	n/a	n/a	n/a	80.7	AF25NES.jpg
51.406	0.514	Blank	Blank	54.181	n/a	1	2	11	n/a	31	n/a	1	n/a	n/a	n/a	n/a	81.197	n/a
51.937	0.497	neutral	Picture	53.667	n/a	1	2	12	n/a	32	22	1	n/a	n/a	n/a	n/a	81.728	BM03NES.jpg
52.434	0.514	Blank	Blank	53.153	n/a	1	2	12	n/a	32	n/a	1	n/a	n/a	n/a	n/a	82.225	n/a
52.965	0.497	neutral	Picture	52.639	n/a	1	2	13	n/a	33	11	1	n/a	n/a	n/a	n/a	82.756	AF20NES.jpg
53.462	0.514	Blank	Blank	52.125	n/a	1	2	13	n/a	33	n/a	1	n/a	n/a	n/a	n/a	83.253	n/a
53.993	0.497	neutral	Picture	51.611	n/a	1	2	14	n/a	34	4	1	n/a	n/a	n/a	n/a	83.784	AF05NES.jpg
54.49	0.514	Blank	Blank	51.097	n/a	1	2	14	n/a	34	n/a	1	n/a	n/a	n/a	n/a	84.281	n/a
55.02	0.497	neutral	Picture	50.583	n/a	1	2	15	n/a	35	17	1	n/a	n/a	n/a	n/a	84.811	BF28NES.jpg
55.518	0.514	Blank	Blank	50.069	n/a	1	2	15	n/a	35	n/a	1	n/a	n/a	n/a	n/a	85.309	n/a
56.048	0.497	neutral	Picture	49.556	n/a	1	2	16	n/a	36	13	1	n/a	n/a	n/a	n/a	85.839	BF22NES.jpg
56.546	0.514	Blank	Blank	49.042	n/a	1	2	16	n/a	36	n/a	1	n/a	n/a	n/a	n/a	86.337	n/a
57.076	0.497	neutral	Picture	48.528	n/a	1	2	17	n/a	37	12	1	n/a	n/a	n/a	n/a	86.867	AF21NES.jpg
57.574	0.514	Blank	Blank	48.014	n/a	1	2	17	n/a	37	n/a	1	n/a	n/a	n/a	n/a	87.365	n/a
58.104	0.497	neutral	Picture	47.5	n/a	1	2	18	n/a	38	24	1	n/a	n/a	n/a	n/a	87.895	BM05NES.jpg
58.602	0.514	Blank	Blank	46.986	n/a	1	2	18	n/a	38	n/a	1	n/a	n/a	n/a	n/a	88.392	n/a
59.132	0.497	neutral	Picture	46.472	n/a	1	2	19	n/a	39	29	1	n/a	n/a	n/a	n/a	88.923	AM10NES.jpg
59.629	0.514	Blank	Blank	45.958	n/a	1	2	19	n/a	39	n/a	1	n/a	n/a	n/a	n/a	89.42	n/a
60.16	0.497	neutral	Picture	45.444	n/a	1	2	20	n/a	40	23	1	n/a	n/a	n/a	n/a	89.951	AM04NES.jpg
60.657	0.514	Blank	Blank	44.93	n/a	1	2	20	n/a	40	n/a	1	n/a	n/a	n/a	n/a	90.448	n/a
61.188	10.014	ITI	Fixation+	34.9	n/a	1	n/a	n/a	n/a	n/a	n/a	n/a	n/a	n/a	n/a	n/a	90.979	n/a
71.218	0.497	happy	Picture	34.386	n/a	1	3	1	n/a	41	62	2	n/a	n/a	n/a	n/a	101.009	BM03HAS.jpg
71.715	0.514	Blank	Blank	33.872	n/a	1	3	1	n/a	41	n/a	2	n/a	n/a	n/a	n/a	101.506	n/a
72.246	0.497	happy	Picture	33.358	n/a	1	3	2	n/a	42	52	2	n/a	n/a	n/a	n/a	102.037	AF21HAS.jpg
72.743	0.514	Blank	Blank	32.844	n/a	1	3	2	n/a	42	n/a	2	n/a	n/a	n/a	n/a	102.534	n/a
73.274	0.497	happy	Picture	32.33	n/a	1	3	3	n/a	43	44	2	n/a	n/a	n/a	n/a	103.065	AF05HAS.jpg
73.771	0.514	Blank	Blank	31.816	n/a	1	3	3	n/a	43	n/a	2	n/a	n/a	n/a	n/a	103.562	n/a
74.302	0.497	happy	Picture	31.302	n/a	1	3	4	n/a	44	53	2	n/a	n/a	n/a	n/a	104.093	BF22HAS.jpg
74.799	0.514	Blank	Blank	30.788	n/a	1	3	4	n/a	44	n/a	2	n/a	n/a	n/a	n/a	104.59	n/a
75.33	0.497	happy	Picture	30.274	n/a	1	3	5	n/a	45	54	2	n/a	n/a	n/a	n/a	105.121	AF23HAS.jpg
75.827	0.514	Blank	Blank	29.76	n/a	1	3	5	n/a	45	n/a	2	n/a	n/a	n/a	n/a	105.618	n/a
76.357	0.497	happy	Picture	29.246	n/a	1	3	6	n/a	46	68	2	n/a	n/a	n/a	n/a	106.148	AM09HAS.jpg
76.855	0.514	Blank	Blank	28.733	n/a	1	3	6	n/a	46	n/a	2	n/a	n/a	n/a	n/a	106.646	n/a
77.385	0.497	happy	Picture	28.219	n/a	1	3	7	n/a	47	64	2	n/a	n/a	n/a	n/a	107.176	BM05HAS.jpg
77.883	0.514	Blank	Blank	27.705	n/a	1	3	7	n/a	47	n/a	2	n/a	n/a	n/a	n/a	107.674	n/a
78.413	0.497	happy	Picture	27.191	n/a	1	3	8	n/a	48	59	2	n/a	n/a	n/a	n/a	108.204	AF31HAS.jpg
78.91	0.514	Blank	Blank	26.677	n/a	1	3	8	n/a	48	n/a	2	n/a	n/a	n/a	n/a	108.701	n/a
79.441	0.497	happy	Picture	26.163	n/a	1	3	9	n/a	49	41	2	n/a	n/a	n/a	n/a	109.232	AF01HAS.jpg
79.938	0.514	Blank	Blank	25.649	n/a	1	3	9	n/a	49	n/a	2	n/a	n/a	n/a	n/a	109.729	n/a
80.469	0.497	happy	Picture	25.135	n/a	1	3	10	n/a	50	73	2	n/a	n/a	n/a	n/a	110.26	AM21HAS.jpg
80.966	0.514	Blank	Blank	24.621	n/a	1	3	10	n/a	50	n/a	2	n/a	n/a	n/a	n/a	110.757	n/a
81.497	0.497	happy	Picture	24.107	n/a	1	3	11	n/a	51	65	2	n/a	n/a	n/a	n/a	111.288	BM06HAS.jpg
81.994	0.514	Blank	Blank	23.593	n/a	1	3	11	n/a	51	n/a	2	n/a	n/a	n/a	n/a	111.785	n/a
82.525	0.497	happy	Picture	23.079	n/a	1	3	12	n/a	52	56	2	n/a	n/a	n/a	n/a	112.316	AF26HAS.jpg
83.022	0.514	Blank	Blank	22.565	n/a	1	3	12	n/a	52	n/a	2	n/a	n/a	n/a	n/a	112.813	n/a
83.553	0.497	happy	Picture	22.051	n/a	1	3	13	n/a	53	45	2	n/a	n/a	n/a	n/a	113.344	BF07HAS.jpg
84.05	0.514	Blank	Blank	21.537	n/a	1	3	13	n/a	53	n/a	2	n/a	n/a	n/a	n/a	113.841	n/a
84.58	0.497	happy	Picture	21.023	n/a	1	3	14	n/a	54	78	2	n/a	n/a	n/a	n/a	114.371	BM26HAS.jpg
85.078	0.514	Blank	Blank	20.51	n/a	1	3	14	n/a	54	n/a	2	n/a	n/a	n/a	n/a	114.869	n/a
85.608	0.497	happy	Picture	19.996	n/a	1	3	15	n/a	55	50	2	n/a	n/a	n/a	n/a	115.399	AF18HAS.jpg
86.106	0.514	Blank	Blank	19.482	n/a	1	3	15	n/a	55	n/a	2	n/a	n/a	n/a	n/a	115.897	n/a
86.636	0.497	happy	Picture	18.968	n/a	1	3	16	n/a	56	47	2	n/a	n/a	n/a	n/a	116.427	BF11HAS.jpg
87.133	0.514	Blank	Blank	18.454	n/a	1	3	16	n/a	56	n/a	2	n/a	n/a	n/a	n/a	116.924	n/a
87.664	0.497	happy	Picture	17.94	n/a	1	3	17	n/a	57	77	2	n/a	n/a	n/a	n/a	117.455	BM25HAS.jpg
88.161	0.514	Blank	Blank	17.426	n/a	1	3	17	n/a	57	n/a	2	n/a	n/a	n/a	n/a	117.952	n/a
88.692	0.497	happy	Picture	16.912	n/a	1	3	18	n/a	58	57	2	n/a	n/a	n/a	n/a	118.483	BF28HAS.jpg
89.189	0.514	Blank	Blank	16.398	n/a	1	3	18	n/a	58	n/a	2	n/a	n/a	n/a	n/a	118.98	n/a
89.72	0.497	happy	Picture	15.884	n/a	1	3	19	n/a	59	61	2	n/a	n/a	n/a	n/a	119.511	AM01HAS.jpg
90.217	0.514	Blank	Blank	15.37	n/a	1	3	19	n/a	59	n/a	2	n/a	n/a	n/a	n/a	120.008	n/a
90.748	0.497	happy	Picture	14.856	n/a	1	3	20	n/a	60	79	2	n/a	n/a	n/a	n/a	120.539	BM28HAS.jpg
91.245	0.514	Blank	Blank	14.342	n/a	1	3	20	n/a	60	n/a	2	n/a	n/a	n/a	n/a	121.036	n/a
91.776	10.014	ITI	Fixation+	4.312	n/a	1	n/a	n/a	n/a	n/a	n/a	n/a	n/a	n/a	n/a	n/a	121.567	n/a
106.101	n/a	ConfirmRating	Rate	n/a	4.311	1	n/a	n/a	0	n/a	n/a	n/a	2	Happy	50	50	135.892	n/a
106.928	n/a	ConfirmRating	Rate	n/a	0.796	1	n/a	n/a	1	n/a	n/a	n/a	3	Happy	50	50	136.719	n/a
106.945	10.014	ITI	Fixation+	95.481	n/a	2	n/a	n/a	n/a	n/a	n/a	n/a	n/a	n/a	n/a	n/a	136.736	n/a
116.975	0.497	angry	Picture	94.967	n/a	2	4	1	n/a	61	119	3	n/a	n/a	n/a	n/a	146.766	BM28ANS.jpg
117.473	0.514	Blank	Blank	94.453	n/a	2	4	1	n/a	61	n/a	3	n/a	n/a	n/a	n/a	147.264	n/a
118.003	0.497	angry	Picture	93.939	n/a	2	4	2	n/a	62	100	3	n/a	n/a	n/a	n/a	147.794	AF32ANS.jpg
118.501	0.514	Blank	Blank	93.425	n/a	2	4	2	n/a	62	n/a	3	n/a	n/a	n/a	n/a	148.292	n/a
119.031	0.497	angry	Picture	92.911	n/a	2	4	3	n/a	63	118	3	n/a	n/a	n/a	n/a	148.822	BM26ANS.jpg
119.528	0.514	Blank	Blank	92.397	n/a	2	4	3	n/a	63	n/a	3	n/a	n/a	n/a	n/a	149.319	n/a
120.059	0.497	angry	Picture	91.883	n/a	2	4	4	n/a	64	89	3	n/a	n/a	n/a	n/a	149.85	AF17ANS.jpg
120.556	0.514	Blank	Blank	91.369	n/a	2	4	4	n/a	64	n/a	3	n/a	n/a	n/a	n/a	150.347	n/a
121.087	0.497	angry	Picture	90.855	n/a	2	4	5	n/a	65	116	3	n/a	n/a	n/a	n/a	150.878	BM24ANS.jpg
121.584	0.514	Blank	Blank	90.341	n/a	2	4	5	n/a	65	n/a	3	n/a	n/a	n/a	n/a	151.375	n/a
122.115	0.497	angry	Picture	89.827	n/a	2	4	6	n/a	66	105	3	n/a	n/a	n/a	n/a	151.906	BM06ANS.jpg
122.612	0.514	Blank	Blank	89.313	n/a	2	4	6	n/a	66	n/a	3	n/a	n/a	n/a	n/a	152.403	n/a
123.143	0.497	angry	Picture	88.799	n/a	2	4	7	n/a	67	106	3	n/a	n/a	n/a	n/a	152.934	AM07ANS.jpg
123.64	0.514	Blank	Blank	88.285	n/a	2	4	7	n/a	67	n/a	3	n/a	n/a	n/a	n/a	153.431	n/a
124.17	0.497	angry	Picture	87.771	n/a	2	4	8	n/a	68	94	3	n/a	n/a	n/a	n/a	153.961	AF23ANS.jpg
124.668	0.514	Blank	Blank	87.257	n/a	2	4	8	n/a	68	n/a	3	n/a	n/a	n/a	n/a	154.459	n/a
125.198	0.497	angry	Picture	86.744	n/a	2	4	9	n/a	69	117	3	n/a	n/a	n/a	n/a	154.989	BM25ANS.jpg
125.696	0.514	Blank	Blank	86.23	n/a	2	4	9	n/a	69	n/a	3	n/a	n/a	n/a	n/a	155.487	n/a
126.226	0.497	angry	Picture	85.716	n/a	2	4	10	n/a	70	90	3	n/a	n/a	n/a	n/a	156.017	AF18ANS.jpg
126.724	0.514	Blank	Blank	85.202	n/a	2	4	10	n/a	70	n/a	3	n/a	n/a	n/a	n/a	156.515	n/a
127.254	0.497	angry	Picture	84.688	n/a	2	4	11	n/a	71	83	3	n/a	n/a	n/a	n/a	157.045	BF04ANS.jpg
127.751	0.514	Blank	Blank	84.174	n/a	2	4	11	n/a	71	n/a	3	n/a	n/a	n/a	n/a	157.542	n/a
128.282	0.497	angry	Picture	83.66	n/a	2	4	12	n/a	72	112	3	n/a	n/a	n/a	n/a	158.073	AM14ANS.jpg
128.779	0.514	Blank	Blank	83.146	n/a	2	4	12	n/a	72	n/a	3	n/a	n/a	n/a	n/a	158.57	n/a
129.31	0.497	angry	Picture	82.632	n/a	2	4	13	n/a	73	102	3	n/a	n/a	n/a	n/a	159.101	BM03ANS.jpg
129.807	0.514	Blank	Blank	82.118	n/a	2	4	13	n/a	73	n/a	3	n/a	n/a	n/a	n/a	159.598	n/a
130.338	0.497	angry	Picture	81.604	n/a	2	4	14	n/a	74	95	3	n/a	n/a	n/a	n/a	160.129	AF25ANS.jpg
130.835	0.514	Blank	Blank	81.09	n/a	2	4	14	n/a	74	n/a	3	n/a	n/a	n/a	n/a	160.626	n/a
131.366	0.497	angry	Picture	80.576	n/a	2	4	15	n/a	75	113	3	n/a	n/a	n/a	n/a	161.157	AM21ANS.jpg
131.863	0.514	Blank	Blank	80.062	n/a	2	4	15	n/a	75	n/a	3	n/a	n/a	n/a	n/a	161.654	n/a
132.394	0.497	angry	Picture	79.548	n/a	2	4	16	n/a	76	88	3	n/a	n/a	n/a	n/a	162.185	AF14ANS.jpg
132.891	0.514	Blank	Blank	79.034	n/a	2	4	16	n/a	76	n/a	3	n/a	n/a	n/a	n/a	162.682	n/a
133.421	0.497	angry	Picture	78.52	n/a	2	4	17	n/a	77	93	3	n/a	n/a	n/a	n/a	163.212	BF22ANS.jpg
133.919	0.514	Blank	Blank	78.006	n/a	2	4	17	n/a	77	n/a	3	n/a	n/a	n/a	n/a	163.71	n/a
134.449	0.497	angry	Picture	77.493	n/a	2	4	18	n/a	78	86	3	n/a	n/a	n/a	n/a	164.24	AF09ANS.jpg
134.947	0.514	Blank	Blank	76.979	n/a	2	4	18	n/a	78	n/a	3	n/a	n/a	n/a	n/a	164.738	n/a
135.477	0.497	angry	Picture	76.465	n/a	2	4	19	n/a	79	92	3	n/a	n/a	n/a	n/a	165.268	AF21ANS.jpg
135.975	0.514	Blank	Blank	75.951	n/a	2	4	19	n/a	79	n/a	3	n/a	n/a	n/a	n/a	165.766	n/a
136.505	0.497	angry	Picture	75.437	n/a	2	4	20	n/a	80	84	3	n/a	n/a	n/a	n/a	166.296	AF05ANS.jpg
137.002	0.514	Blank	Blank	74.923	n/a	2	4	20	n/a	80	n/a	3	n/a	n/a	n/a	n/a	166.793	n/a
137.533	10.014	ITI	Fixation+	64.893	n/a	2	n/a	n/a	n/a	n/a	n/a	n/a	n/a	n/a	n/a	n/a	167.324	n/a
147.563	0.497	neutral	Picture	64.379	n/a	2	5	1	n/a	81	4	1	n/a	n/a	n/a	n/a	177.354	AF05NES.jpg
148.06	0.514	Blank	Blank	63.865	n/a	2	5	1	n/a	81	n/a	1	n/a	n/a	n/a	n/a	177.851	n/a
148.591	0.497	neutral	Picture	63.351	n/a	2	5	2	n/a	82	14	1	n/a	n/a	n/a	n/a	178.382	AF23NES.jpg
149.088	0.514	Blank	Blank	62.837	n/a	2	5	2	n/a	82	n/a	1	n/a	n/a	n/a	n/a	178.879	n/a
149.619	0.497	neutral	Picture	62.323	n/a	2	5	3	n/a	83	19	1	n/a	n/a	n/a	n/a	179.41	AF31NES.jpg
150.116	0.514	Blank	Blank	61.809	n/a	2	5	3	n/a	83	n/a	1	n/a	n/a	n/a	n/a	179.907	n/a
150.647	0.497	neutral	Picture	61.295	n/a	2	5	4	n/a	84	8	1	n/a	n/a	n/a	n/a	180.438	AF14NES.jpg
151.144	0.514	Blank	Blank	60.781	n/a	2	5	4	n/a	84	n/a	1	n/a	n/a	n/a	n/a	180.935	n/a
151.675	0.497	neutral	Picture	60.267	n/a	2	5	5	n/a	85	25	1	n/a	n/a	n/a	n/a	181.466	BM06NES.jpg
152.172	0.514	Blank	Blank	59.753	n/a	2	5	5	n/a	85	n/a	1	n/a	n/a	n/a	n/a	181.963	n/a
152.702	0.497	neutral	Picture	59.239	n/a	2	5	6	n/a	86	9	1	n/a	n/a	n/a	n/a	182.493	AF17NES.jpg
153.2	0.514	Blank	Blank	58.725	n/a	2	5	6	n/a	86	n/a	1	n/a	n/a	n/a	n/a	182.991	n/a
153.73	0.497	neutral	Picture	58.212	n/a	2	5	7	n/a	87	2	1	n/a	n/a	n/a	n/a	183.521	AF03NES.jpg
154.228	0.514	Blank	Blank	57.698	n/a	2	5	7	n/a	87	n/a	1	n/a	n/a	n/a	n/a	184.019	n/a
154.758	0.497	neutral	Picture	57.184	n/a	2	5	8	n/a	88	17	1	n/a	n/a	n/a	n/a	184.549	BF28NES.jpg
155.256	0.514	Blank	Blank	56.67	n/a	2	5	8	n/a	88	n/a	1	n/a	n/a	n/a	n/a	185.047	n/a
155.786	0.497	neutral	Picture	56.156	n/a	2	5	9	n/a	89	6	1	n/a	n/a	n/a	n/a	185.577	AF09NES.jpg
156.283	0.514	Blank	Blank	55.642	n/a	2	5	9	n/a	89	n/a	1	n/a	n/a	n/a	n/a	186.074	n/a
156.814	0.497	neutral	Picture	55.128	n/a	2	5	10	n/a	90	12	1	n/a	n/a	n/a	n/a	186.605	AF21NES.jpg
157.311	0.514	Blank	Blank	54.614	n/a	2	5	10	n/a	90	n/a	1	n/a	n/a	n/a	n/a	187.102	n/a
157.842	0.497	neutral	Picture	54.1	n/a	2	5	11	n/a	91	24	1	n/a	n/a	n/a	n/a	187.633	BM05NES.jpg
158.339	0.514	Blank	Blank	53.586	n/a	2	5	11	n/a	91	n/a	1	n/a	n/a	n/a	n/a	188.13	n/a
158.87	0.497	neutral	Picture	53.072	n/a	2	5	12	n/a	92	34	1	n/a	n/a	n/a	n/a	188.661	AM22NES.jpg
159.367	0.514	Blank	Blank	52.558	n/a	2	5	12	n/a	92	n/a	1	n/a	n/a	n/a	n/a	189.158	n/a
159.898	0.497	neutral	Picture	52.044	n/a	2	5	13	n/a	93	23	1	n/a	n/a	n/a	n/a	189.689	AM04NES.jpg
160.395	0.514	Blank	Blank	51.53	n/a	2	5	13	n/a	93	n/a	1	n/a	n/a	n/a	n/a	190.186	n/a
160.925	0.497	neutral	Picture	51.016	n/a	2	5	14	n/a	94	15	1	n/a	n/a	n/a	n/a	190.716	AF25NES.jpg
161.423	0.514	Blank	Blank	50.502	n/a	2	5	14	n/a	94	n/a	1	n/a	n/a	n/a	n/a	191.214	n/a
161.953	0.497	neutral	Picture	49.988	n/a	2	5	15	n/a	95	37	1	n/a	n/a	n/a	n/a	191.744	BM25NES.jpg
162.451	0.514	Blank	Blank	49.474	n/a	2	5	15	n/a	95	n/a	1	n/a	n/a	n/a	n/a	192.242	n/a
162.981	0.497	neutral	Picture	48.961	n/a	2	5	16	n/a	96	32	1	n/a	n/a	n/a	n/a	192.772	AM14NES.jpg
163.479	0.514	Blank	Blank	48.447	n/a	2	5	16	n/a	96	n/a	1	n/a	n/a	n/a	n/a	193.27	n/a
164.009	0.497	neutral	Picture	47.933	n/a	2	5	17	n/a	97	3	1	n/a	n/a	n/a	n/a	193.8	BF04NES.jpg
164.507	0.514	Blank	Blank	47.419	n/a	2	5	17	n/a	97	n/a	1	n/a	n/a	n/a	n/a	194.298	n/a
165.037	0.497	neutral	Picture	46.905	n/a	2	5	18	n/a	98	16	1	n/a	n/a	n/a	n/a	194.828	AF26NES.jpg
165.534	0.514	Blank	Blank	46.391	n/a	2	5	18	n/a	98	n/a	1	n/a	n/a	n/a	n/a	195.325	n/a
166.065	0.497	neutral	Picture	45.877	n/a	2	5	19	n/a	99	27	1	n/a	n/a	n/a	n/a	195.856	BM08NES.jpg
166.562	0.514	Blank	Blank	45.363	n/a	2	5	19	n/a	99	n/a	1	n/a	n/a	n/a	n/a	196.353	n/a
167.093	0.497	neutral	Picture	44.849	n/a	2	5	20	n/a	100	28	1	n/a	n/a	n/a	n/a	196.884	AM09NES.jpg
167.59	0.514	Blank	Blank	44.335	n/a	2	5	20	n/a	100	n/a	1	n/a	n/a	n/a	n/a	197.381	n/a
168.121	10.014	ITI	Fixation+	34.305	n/a	2	n/a	n/a	n/a	n/a	n/a	n/a	n/a	n/a	n/a	n/a	197.912	n/a
178.151	0.497	angry	Picture	33.791	n/a	2	6	1	n/a	101	81	3	n/a	n/a	n/a	n/a	207.942	AF01ANS.jpg
178.648	0.514	Blank	Blank	33.277	n/a	2	6	1	n/a	101	n/a	3	n/a	n/a	n/a	n/a	208.439	n/a
179.179	0.497	angry	Picture	32.763	n/a	2	6	2	n/a	102	120	3	n/a	n/a	n/a	n/a	208.97	AM35ANS.jpg
179.676	0.514	Blank	Blank	32.249	n/a	2	6	2	n/a	102	n/a	3	n/a	n/a	n/a	n/a	209.467	n/a
180.207	0.497	angry	Picture	31.735	n/a	2	6	3	n/a	103	114	3	n/a	n/a	n/a	n/a	209.998	AM22ANS.jpg
180.704	0.514	Blank	Blank	31.221	n/a	2	6	3	n/a	103	n/a	3	n/a	n/a	n/a	n/a	210.495	n/a
181.234	0.497	angry	Picture	30.707	n/a	2	6	4	n/a	104	109	3	n/a	n/a	n/a	n/a	211.025	AM10ANS.jpg
181.732	0.514	Blank	Blank	30.193	n/a	2	6	4	n/a	104	n/a	3	n/a	n/a	n/a	n/a	211.523	n/a
182.262	0.497	angry	Picture	29.679	n/a	2	6	5	n/a	105	96	3	n/a	n/a	n/a	n/a	212.053	AF26ANS.jpg
182.76	0.514	Blank	Blank	29.166	n/a	2	6	5	n/a	105	n/a	3	n/a	n/a	n/a	n/a	212.551	n/a
183.29	0.497	angry	Picture	28.652	n/a	2	6	6	n/a	106	82	3	n/a	n/a	n/a	n/a	213.081	AF03ANS.jpg
183.788	0.514	Blank	Blank	28.138	n/a	2	6	6	n/a	106	n/a	3	n/a	n/a	n/a	n/a	213.579	n/a
184.318	0.497	angry	Picture	27.624	n/a	2	6	7	n/a	107	97	3	n/a	n/a	n/a	n/a	214.109	BF28ANS.jpg
184.816	0.514	Blank	Blank	27.11	n/a	2	6	7	n/a	107	n/a	3	n/a	n/a	n/a	n/a	214.607	n/a
185.346	0.497	angry	Picture	26.596	n/a	2	6	8	n/a	108	115	3	n/a	n/a	n/a	n/a	215.137	AM23ANS.jpg
185.843	0.514	Blank	Blank	26.082	n/a	2	6	8	n/a	108	n/a	3	n/a	n/a	n/a	n/a	215.634	n/a
186.374	0.497	angry	Picture	25.568	n/a	2	6	9	n/a	109	91	3	n/a	n/a	n/a	n/a	216.165	AF20ANS.jpg
186.871	0.514	Blank	Blank	25.054	n/a	2	6	9	n/a	109	n/a	3	n/a	n/a	n/a	n/a	216.662	n/a
187.402	0.497	angry	Picture	24.54	n/a	2	6	10	n/a	110	87	3	n/a	n/a	n/a	n/a	217.193	BF11ANS.jpg
187.899	0.514	Blank	Blank	24.026	n/a	2	6	10	n/a	110	n/a	3	n/a	n/a	n/a	n/a	217.69	n/a
188.43	0.497	angry	Picture	23.512	n/a	2	6	11	n/a	111	85	3	n/a	n/a	n/a	n/a	218.221	BF07ANS.jpg
188.927	0.514	Blank	Blank	22.998	n/a	2	6	11	n/a	111	n/a	3	n/a	n/a	n/a	n/a	218.718	n/a
189.458	0.497	angry	Picture	22.484	n/a	2	6	12	n/a	112	110	3	n/a	n/a	n/a	n/a	219.249	AM11ANS.jpg
189.955	0.514	Blank	Blank	21.97	n/a	2	6	12	n/a	112	n/a	3	n/a	n/a	n/a	n/a	219.746	n/a
190.485	0.497	angry	Picture	21.456	n/a	2	6	13	n/a	113	111	3	n/a	n/a	n/a	n/a	220.276	BM12ANS.jpg
190.983	0.514	Blank	Blank	20.942	n/a	2	6	13	n/a	113	n/a	3	n/a	n/a	n/a	n/a	220.774	n/a
191.513	0.497	angry	Picture	20.429	n/a	2	6	14	n/a	114	103	3	n/a	n/a	n/a	n/a	221.304	AM04ANS.jpg
192.011	0.514	Blank	Blank	19.915	n/a	2	6	14	n/a	114	n/a	3	n/a	n/a	n/a	n/a	221.802	n/a
192.541	0.497	angry	Picture	19.401	n/a	2	6	15	n/a	115	101	3	n/a	n/a	n/a	n/a	222.332	AM01ANS.jpg
193.038	0.514	Blank	Blank	18.887	n/a	2	6	15	n/a	115	n/a	3	n/a	n/a	n/a	n/a	222.829	n/a
193.569	0.497	angry	Picture	18.373	n/a	2	6	16	n/a	116	104	3	n/a	n/a	n/a	n/a	223.36	BM05ANS.jpg
194.066	0.514	Blank	Blank	17.859	n/a	2	6	16	n/a	116	n/a	3	n/a	n/a	n/a	n/a	223.857	n/a
194.597	0.497	angry	Picture	17.345	n/a	2	6	17	n/a	117	107	3	n/a	n/a	n/a	n/a	224.388	BM08ANS.jpg
195.094	0.514	Blank	Blank	16.831	n/a	2	6	17	n/a	117	n/a	3	n/a	n/a	n/a	n/a	224.885	n/a
195.625	0.497	angry	Picture	16.317	n/a	2	6	18	n/a	118	98	3	n/a	n/a	n/a	n/a	225.416	BF29ANS.jpg
196.122	0.514	Blank	Blank	15.803	n/a	2	6	18	n/a	118	n/a	3	n/a	n/a	n/a	n/a	225.913	n/a
196.653	0.497	angry	Picture	15.289	n/a	2	6	19	n/a	119	99	3	n/a	n/a	n/a	n/a	226.444	AF31ANS.jpg
197.15	0.514	Blank	Blank	14.775	n/a	2	6	19	n/a	119	n/a	3	n/a	n/a	n/a	n/a	226.941	n/a
197.681	0.497	angry	Picture	14.261	n/a	2	6	20	n/a	120	108	3	n/a	n/a	n/a	n/a	227.472	AM09ANS.jpg
198.178	0.514	Blank	Blank	13.747	n/a	2	6	20	n/a	120	n/a	3	n/a	n/a	n/a	n/a	227.969	n/a
198.709	10.014	ITI	Fixation+	3.717	n/a	2	n/a	n/a	n/a	n/a	n/a	n/a	n/a	n/a	n/a	n/a	228.5	n/a
212.439	n/a	ConfirmRating	Rate	n/a	3.714	2	n/a	n/a	0	n/a	n/a	n/a	2	Angry	50	50	242.23	n/a
215.267	n/a	ConfirmRating	Rate	n/a	2.802	2	n/a	n/a	1	n/a	n/a	n/a	3	Angry	50	50	245.058	n/a
215.287	15.004	Rest	Picture	n/a	n/a	n/a	n/a	n/a	n/a	n/a	n/a	n/a	0	n/a	0	0	245.078	n/a
230.308	10.014	ITI	Fixation+	96.675	n/a	3	n/a	n/a	n/a	n/a	n/a	n/a	n/a	n/a	n/a	n/a	260.099	n/a
240.338	0.497	happy	Picture	96.161	n/a	3	7	1	n/a	1	46	2	n/a	n/a	n/a	n/a	270.129	AF09HAS.jpg
240.835	0.514	Blank	Blank	95.647	n/a	3	7	1	n/a	1	n/a	2	n/a	n/a	n/a	n/a	270.626	n/a
241.366	0.497	happy	Picture	95.133	n/a	3	7	2	n/a	2	69	2	n/a	n/a	n/a	n/a	271.157	AM10HAS.jpg
241.863	0.514	Blank	Blank	94.619	n/a	3	7	2	n/a	2	n/a	2	n/a	n/a	n/a	n/a	271.654	n/a
242.393	0.497	happy	Picture	94.105	n/a	3	7	3	n/a	3	71	2	n/a	n/a	n/a	n/a	272.184	BM12HAS.jpg
242.891	0.514	Blank	Blank	93.591	n/a	3	7	3	n/a	3	n/a	2	n/a	n/a	n/a	n/a	272.682	n/a
243.421	0.497	happy	Picture	93.077	n/a	3	7	4	n/a	4	51	2	n/a	n/a	n/a	n/a	273.212	AF20HAS.jpg
243.919	0.514	Blank	Blank	92.563	n/a	3	7	4	n/a	4	n/a	2	n/a	n/a	n/a	n/a	273.71	n/a
244.449	0.497	happy	Picture	92.049	n/a	3	7	5	n/a	5	67	2	n/a	n/a	n/a	n/a	274.24	BM08HAS.jpg
244.947	0.514	Blank	Blank	91.535	n/a	3	7	5	n/a	5	n/a	2	n/a	n/a	n/a	n/a	274.738	n/a
245.477	0.497	happy	Picture	91.022	n/a	3	7	6	n/a	6	60	2	n/a	n/a	n/a	n/a	275.268	AF32HAS.jpg
245.974	0.514	Blank	Blank	90.507	n/a	3	7	6	n/a	6	n/a	2	n/a	n/a	n/a	n/a	275.765	n/a
246.505	0.497	happy	Picture	89.994	n/a	3	7	7	n/a	7	42	2	n/a	n/a	n/a	n/a	276.296	AF03HAS.jpg
247.002	0.514	Blank	Blank	89.48	n/a	3	7	7	n/a	7	n/a	2	n/a	n/a	n/a	n/a	276.793	n/a
247.533	0.497	happy	Picture	88.966	n/a	3	7	8	n/a	8	55	2	n/a	n/a	n/a	n/a	277.324	AF25HAS.jpg
248.03	0.514	Blank	Blank	88.452	n/a	3	7	8	n/a	8	n/a	2	n/a	n/a	n/a	n/a	277.821	n/a
248.561	0.497	happy	Picture	87.938	n/a	3	7	9	n/a	9	72	2	n/a	n/a	n/a	n/a	278.352	AM14HAS.jpg
249.058	0.514	Blank	Blank	87.424	n/a	3	7	9	n/a	9	n/a	2	n/a	n/a	n/a	n/a	278.849	n/a
249.589	0.497	happy	Picture	86.91	n/a	3	7	10	n/a	10	63	2	n/a	n/a	n/a	n/a	279.38	AM04HAS.jpg
250.086	0.514	Blank	Blank	86.396	n/a	3	7	10	n/a	10	n/a	2	n/a	n/a	n/a	n/a	279.877	n/a
250.617	0.497	happy	Picture	85.882	n/a	3	7	11	n/a	11	58	2	n/a	n/a	n/a	n/a	280.408	BF29HAS.jpg
251.114	0.514	Blank	Blank	85.368	n/a	3	7	11	n/a	11	n/a	2	n/a	n/a	n/a	n/a	280.905	n/a
251.644	0.497	happy	Picture	84.854	n/a	3	7	12	n/a	12	48	2	n/a	n/a	n/a	n/a	281.435	AF14HAS.jpg
252.142	0.514	Blank	Blank	84.34	n/a	3	7	12	n/a	12	n/a	2	n/a	n/a	n/a	n/a	281.933	n/a
252.672	0.497	happy	Picture	83.826	n/a	3	7	13	n/a	13	66	2	n/a	n/a	n/a	n/a	282.463	BM07HAS.jpg
253.17	0.514	Blank	Blank	83.312	n/a	3	7	13	n/a	13	n/a	2	n/a	n/a	n/a	n/a	282.961	n/a
253.7	0.497	happy	Picture	82.798	n/a	3	7	14	n/a	14	70	2	n/a	n/a	n/a	n/a	283.491	BM11HAS.jpg
254.197	0.514	Blank	Blank	82.285	n/a	3	7	14	n/a	14	n/a	2	n/a	n/a	n/a	n/a	283.988	n/a
254.728	0.497	happy	Picture	81.77	n/a	3	7	15	n/a	15	43	2	n/a	n/a	n/a	n/a	284.519	BF04HAS.jpg
255.225	0.514	Blank	Blank	81.257	n/a	3	7	15	n/a	15	n/a	2	n/a	n/a	n/a	n/a	285.016	n/a
255.756	0.497	happy	Picture	80.743	n/a	3	7	16	n/a	16	49	2	n/a	n/a	n/a	n/a	285.547	AF17HAS.jpg
256.253	0.514	Blank	Blank	80.229	n/a	3	7	16	n/a	16	n/a	2	n/a	n/a	n/a	n/a	286.044	n/a
256.784	0.497	happy	Picture	79.715	n/a	3	7	17	n/a	17	75	2	n/a	n/a	n/a	n/a	286.575	AM23HAS.jpg
257.281	0.514	Blank	Blank	79.201	n/a	3	7	17	n/a	17	n/a	2	n/a	n/a	n/a	n/a	287.072	n/a
257.812	0.497	happy	Picture	78.687	n/a	3	7	18	n/a	18	80	2	n/a	n/a	n/a	n/a	287.603	BM35HAS.jpg
258.309	0.514	Blank	Blank	78.173	n/a	3	7	18	n/a	18	n/a	2	n/a	n/a	n/a	n/a	288.1	n/a
258.839	0.497	happy	Picture	77.659	n/a	3	7	19	n/a	19	76	2	n/a	n/a	n/a	n/a	288.63	BM24HAS.jpg
259.337	0.514	Blank	Blank	77.145	n/a	3	7	19	n/a	19	n/a	2	n/a	n/a	n/a	n/a	289.128	n/a
259.867	0.497	happy	Picture	76.631	n/a	3	7	20	n/a	20	74	2	n/a	n/a	n/a	n/a	289.658	AM22HAS.jpg
260.365	0.514	Blank	Blank	76.117	n/a	3	7	20	n/a	20	n/a	2	n/a	n/a	n/a	n/a	290.156	n/a
260.895	10.014	ITI	Fixation+	66.087	n/a	3	n/a	n/a	n/a	n/a	n/a	n/a	n/a	n/a	n/a	n/a	290.686	n/a
270.925	0.497	neutral	Picture	65.573	n/a	3	8	1	n/a	21	33	1	n/a	n/a	n/a	n/a	300.716	AM21NES.jpg
271.423	0.514	Blank	Blank	65.059	n/a	3	8	1	n/a	21	n/a	1	n/a	n/a	n/a	n/a	301.214	n/a
271.953	0.497	neutral	Picture	64.545	n/a	3	8	2	n/a	22	39	1	n/a	n/a	n/a	n/a	301.744	AM28NES.jpg
272.451	0.514	Blank	Blank	64.031	n/a	3	8	2	n/a	22	n/a	1	n/a	n/a	n/a	n/a	302.242	n/a
272.981	0.497	neutral	Picture	63.517	n/a	3	8	3	n/a	23	25	1	n/a	n/a	n/a	n/a	302.772	BM06NES.jpg
273.479	0.514	Blank	Blank	63.003	n/a	3	8	3	n/a	23	n/a	1	n/a	n/a	n/a	n/a	303.27	n/a
274.009	0.497	neutral	Picture	62.489	n/a	3	8	4	n/a	24	5	1	n/a	n/a	n/a	n/a	303.8	BF07NES.jpg
274.507	0.514	Blank	Blank	61.976	n/a	3	8	4	n/a	24	n/a	1	n/a	n/a	n/a	n/a	304.298	n/a
275.037	0.497	neutral	Picture	61.462	n/a	3	8	5	n/a	25	10	1	n/a	n/a	n/a	n/a	304.828	AF18NES.jpg
275.534	0.514	Blank	Blank	60.948	n/a	3	8	5	n/a	25	n/a	1	n/a	n/a	n/a	n/a	305.325	n/a
276.065	0.497	neutral	Picture	60.434	n/a	3	8	6	n/a	26	34	1	n/a	n/a	n/a	n/a	305.856	AM22NES.jpg
276.562	0.514	Blank	Blank	59.92	n/a	3	8	6	n/a	26	n/a	1	n/a	n/a	n/a	n/a	306.353	n/a
277.093	0.497	neutral	Picture	59.406	n/a	3	8	7	n/a	27	36	1	n/a	n/a	n/a	n/a	306.884	BM24NES.jpg
277.59	0.514	Blank	Blank	58.892	n/a	3	8	7	n/a	27	n/a	1	n/a	n/a	n/a	n/a	307.381	n/a
278.121	0.497	neutral	Picture	58.378	n/a	3	8	8	n/a	28	14	1	n/a	n/a	n/a	n/a	307.912	AF23NES.jpg
278.618	0.514	Blank	Blank	57.864	n/a	3	8	8	n/a	28	n/a	1	n/a	n/a	n/a	n/a	308.409	n/a
279.149	0.497	neutral	Picture	57.35	n/a	3	8	9	n/a	29	9	1	n/a	n/a	n/a	n/a	308.94	AF17NES.jpg
279.646	0.514	Blank	Blank	56.836	n/a	3	8	9	n/a	29	n/a	1	n/a	n/a	n/a	n/a	309.437	n/a
280.176	0.497	neutral	Picture	56.322	n/a	3	8	10	n/a	30	19	1	n/a	n/a	n/a	n/a	309.967	AF31NES.jpg
280.674	0.514	Blank	Blank	55.808	n/a	3	8	10	n/a	30	n/a	1	n/a	n/a	n/a	n/a	310.465	n/a
281.204	0.497	neutral	Picture	55.294	n/a	3	8	11	n/a	31	15	1	n/a	n/a	n/a	n/a	310.995	AF25NES.jpg
281.702	0.514	Blank	Blank	54.78	n/a	3	8	11	n/a	31	n/a	1	n/a	n/a	n/a	n/a	311.493	n/a
282.232	0.497	neutral	Picture	54.266	n/a	3	8	12	n/a	32	22	1	n/a	n/a	n/a	n/a	312.023	BM03NES.jpg
282.73	0.514	Blank	Blank	53.752	n/a	3	8	12	n/a	32	n/a	1	n/a	n/a	n/a	n/a	312.521	n/a
283.26	0.497	neutral	Picture	53.238	n/a	3	8	13	n/a	33	11	1	n/a	n/a	n/a	n/a	313.051	AF20NES.jpg
283.757	0.514	Blank	Blank	52.725	n/a	3	8	13	n/a	33	n/a	1	n/a	n/a	n/a	n/a	313.548	n/a
284.288	0.497	neutral	Picture	52.211	n/a	3	8	14	n/a	34	4	1	n/a	n/a	n/a	n/a	314.079	AF05NES.jpg
284.785	0.514	Blank	Blank	51.697	n/a	3	8	14	n/a	34	n/a	1	n/a	n/a	n/a	n/a	314.576	n/a
285.316	0.497	neutral	Picture	51.183	n/a	3	8	15	n/a	35	17	1	n/a	n/a	n/a	n/a	315.107	BF28NES.jpg
285.813	0.514	Blank	Blank	50.669	n/a	3	8	15	n/a	35	n/a	1	n/a	n/a	n/a	n/a	315.604	n/a
286.344	0.497	neutral	Picture	50.155	n/a	3	8	16	n/a	36	13	1	n/a	n/a	n/a	n/a	316.135	BF22NES.jpg
286.841	0.514	Blank	Blank	49.641	n/a	3	8	16	n/a	36	n/a	1	n/a	n/a	n/a	n/a	316.632	n/a
287.372	0.497	neutral	Picture	49.127	n/a	3	8	17	n/a	37	12	1	n/a	n/a	n/a	n/a	317.163	AF21NES.jpg
287.869	0.514	Blank	Blank	48.613	n/a	3	8	17	n/a	37	n/a	1	n/a	n/a	n/a	n/a	317.66	n/a
288.399	0.497	neutral	Picture	48.099	n/a	3	8	18	n/a	38	24	1	n/a	n/a	n/a	n/a	318.19	BM05NES.jpg
288.897	0.514	Blank	Blank	47.585	n/a	3	8	18	n/a	38	n/a	1	n/a	n/a	n/a	n/a	318.688	n/a
289.427	0.497	neutral	Picture	47.071	n/a	3	8	19	n/a	39	29	1	n/a	n/a	n/a	n/a	319.218	AM10NES.jpg
289.925	0.514	Blank	Blank	46.557	n/a	3	8	19	n/a	39	n/a	1	n/a	n/a	n/a	n/a	319.716	n/a
290.455	0.497	neutral	Picture	46.043	n/a	3	8	20	n/a	40	23	1	n/a	n/a	n/a	n/a	320.246	AM04NES.jpg
290.953	0.514	Blank	Blank	45.529	n/a	3	8	20	n/a	40	n/a	1	n/a	n/a	n/a	n/a	320.744	n/a
291.483	10.014	ITI	Fixation+	35.499	n/a	3	n/a	n/a	n/a	n/a	n/a	n/a	n/a	n/a	n/a	n/a	321.274	n/a
301.513	0.497	happy	Picture	34.985	n/a	3	9	1	n/a	41	62	2	n/a	n/a	n/a	n/a	331.304	BM03HAS.jpg
302.011	0.514	Blank	Blank	34.471	n/a	3	9	1	n/a	41	n/a	2	n/a	n/a	n/a	n/a	331.802	n/a
302.541	0.497	happy	Picture	33.957	n/a	3	9	2	n/a	42	52	2	n/a	n/a	n/a	n/a	332.332	AF21HAS.jpg
303.038	0.514	Blank	Blank	33.444	n/a	3	9	2	n/a	42	n/a	2	n/a	n/a	n/a	n/a	332.829	n/a
303.569	0.497	happy	Picture	32.93	n/a	3	9	3	n/a	43	44	2	n/a	n/a	n/a	n/a	333.36	AF05HAS.jpg
304.066	0.514	Blank	Blank	32.416	n/a	3	9	3	n/a	43	n/a	2	n/a	n/a	n/a	n/a	333.857	n/a
304.597	0.497	happy	Picture	31.902	n/a	3	9	4	n/a	44	53	2	n/a	n/a	n/a	n/a	334.388	BF22HAS.jpg
305.094	0.514	Blank	Blank	31.388	n/a	3	9	4	n/a	44	n/a	2	n/a	n/a	n/a	n/a	334.885	n/a
305.625	0.497	happy	Picture	30.874	n/a	3	9	5	n/a	45	54	2	n/a	n/a	n/a	n/a	335.416	AF23HAS.jpg
306.122	0.514	Blank	Blank	30.36	n/a	3	9	5	n/a	45	n/a	2	n/a	n/a	n/a	n/a	335.913	n/a
306.653	0.497	happy	Picture	29.846	n/a	3	9	6	n/a	46	68	2	n/a	n/a	n/a	n/a	336.444	AM09HAS.jpg
307.15	0.514	Blank	Blank	29.332	n/a	3	9	6	n/a	46	n/a	2	n/a	n/a	n/a	n/a	336.941	n/a
307.68	0.497	happy	Picture	28.818	n/a	3	9	7	n/a	47	64	2	n/a	n/a	n/a	n/a	337.471	BM05HAS.jpg
308.178	0.514	Blank	Blank	28.304	n/a	3	9	7	n/a	47	n/a	2	n/a	n/a	n/a	n/a	337.969	n/a
308.708	0.497	happy	Picture	27.79	n/a	3	9	8	n/a	48	59	2	n/a	n/a	n/a	n/a	338.499	AF31HAS.jpg
309.206	0.514	Blank	Blank	27.276	n/a	3	9	8	n/a	48	n/a	2	n/a	n/a	n/a	n/a	338.997	n/a
309.736	0.497	happy	Picture	26.762	n/a	3	9	9	n/a	49	41	2	n/a	n/a	n/a	n/a	339.527	AF01HAS.jpg
310.234	0.514	Blank	Blank	26.248	n/a	3	9	9	n/a	49	n/a	2	n/a	n/a	n/a	n/a	340.025	n/a
310.764	0.497	happy	Picture	25.734	n/a	3	9	10	n/a	50	73	2	n/a	n/a	n/a	n/a	340.555	AM21HAS.jpg
311.262	0.514	Blank	Blank	25.22	n/a	3	9	10	n/a	50	n/a	2	n/a	n/a	n/a	n/a	341.053	n/a
311.792	0.497	happy	Picture	24.706	n/a	3	9	11	n/a	51	65	2	n/a	n/a	n/a	n/a	341.583	BM06HAS.jpg
312.289	0.514	Blank	Blank	24.193	n/a	3	9	11	n/a	51	n/a	2	n/a	n/a	n/a	n/a	342.08	n/a
312.82	0.497	happy	Picture	23.679	n/a	3	9	12	n/a	52	56	2	n/a	n/a	n/a	n/a	342.611	AF26HAS.jpg
313.317	0.514	Blank	Blank	23.165	n/a	3	9	12	n/a	52	n/a	2	n/a	n/a	n/a	n/a	343.108	n/a
313.848	0.497	happy	Picture	22.651	n/a	3	9	13	n/a	53	45	2	n/a	n/a	n/a	n/a	343.639	BF07HAS.jpg
314.345	0.514	Blank	Blank	22.137	n/a	3	9	13	n/a	53	n/a	2	n/a	n/a	n/a	n/a	344.136	n/a
314.876	0.497	happy	Picture	21.623	n/a	3	9	14	n/a	54	78	2	n/a	n/a	n/a	n/a	344.667	BM26HAS.jpg
315.373	0.514	Blank	Blank	21.109	n/a	3	9	14	n/a	54	n/a	2	n/a	n/a	n/a	n/a	345.164	n/a
315.904	0.497	happy	Picture	20.595	n/a	3	9	15	n/a	55	50	2	n/a	n/a	n/a	n/a	345.695	AF18HAS.jpg
316.401	0.514	Blank	Blank	20.081	n/a	3	9	15	n/a	55	n/a	2	n/a	n/a	n/a	n/a	346.192	n/a
316.932	0.497	happy	Picture	19.567	n/a	3	9	16	n/a	56	47	2	n/a	n/a	n/a	n/a	346.723	BF11HAS.jpg
317.429	0.514	Blank	Blank	19.053	n/a	3	9	16	n/a	56	n/a	2	n/a	n/a	n/a	n/a	347.22	n/a
317.959	0.497	happy	Picture	18.539	n/a	3	9	17	n/a	57	77	2	n/a	n/a	n/a	n/a	347.75	BM25HAS.jpg
318.457	0.514	Blank	Blank	18.025	n/a	3	9	17	n/a	57	n/a	2	n/a	n/a	n/a	n/a	348.248	n/a
318.987	0.497	happy	Picture	17.511	n/a	3	9	18	n/a	58	57	2	n/a	n/a	n/a	n/a	348.778	BF28HAS.jpg
319.485	0.514	Blank	Blank	16.997	n/a	3	9	18	n/a	58	n/a	2	n/a	n/a	n/a	n/a	349.276	n/a
320.015	0.497	happy	Picture	16.483	n/a	3	9	19	n/a	59	61	2	n/a	n/a	n/a	n/a	349.806	AM01HAS.jpg
320.512	0.514	Blank	Blank	15.97	n/a	3	9	19	n/a	59	n/a	2	n/a	n/a	n/a	n/a	350.303	n/a
321.043	0.497	happy	Picture	15.456	n/a	3	9	20	n/a	60	79	2	n/a	n/a	n/a	n/a	350.834	BM28HAS.jpg
321.54	0.514	Blank	Blank	14.942	n/a	3	9	20	n/a	60	n/a	2	n/a	n/a	n/a	n/a	351.331	n/a
322.071	10.014	ITI	Fixation+	4.911	n/a	3	n/a	n/a	n/a	n/a	n/a	n/a	n/a	n/a	n/a	n/a	351.862	n/a
336.996	n/a	ConfirmRating	Rate	n/a	4.907	3	n/a	n/a	0	n/a	n/a	n/a	2	Happy	86	52	366.787	n/a
344.283	n/a	ConfirmRating	Rate	n/a	7.262	3	n/a	n/a	1	n/a	n/a	n/a	3	Happy	27	49	374.074	n/a
344.303	10.014	ITI	Fixation+	96.612	n/a	4	n/a	n/a	n/a	n/a	n/a	n/a	n/a	n/a	n/a	n/a	374.094	n/a
354.333	0.497	angry	Picture	96.098	n/a	4	10	1	n/a	61	119	3	n/a	n/a	n/a	n/a	384.124	BM28ANS.jpg
354.831	0.514	Blank	Blank	95.584	n/a	4	10	1	n/a	61	n/a	3	n/a	n/a	n/a	n/a	384.622	n/a
355.361	0.497	angry	Picture	95.071	n/a	4	10	2	n/a	62	100	3	n/a	n/a	n/a	n/a	385.152	AF32ANS.jpg
355.858	0.514	Blank	Blank	94.557	n/a	4	10	2	n/a	62	n/a	3	n/a	n/a	n/a	n/a	385.649	n/a
356.389	0.497	angry	Picture	94.043	n/a	4	10	3	n/a	63	118	3	n/a	n/a	n/a	n/a	386.18	BM26ANS.jpg
356.886	0.514	Blank	Blank	93.529	n/a	4	10	3	n/a	63	n/a	3	n/a	n/a	n/a	n/a	386.677	n/a
357.417	0.497	angry	Picture	93.015	n/a	4	10	4	n/a	64	89	3	n/a	n/a	n/a	n/a	387.208	AF17ANS.jpg
357.914	0.514	Blank	Blank	92.501	n/a	4	10	4	n/a	64	n/a	3	n/a	n/a	n/a	n/a	387.705	n/a
358.445	0.497	angry	Picture	91.987	n/a	4	10	5	n/a	65	116	3	n/a	n/a	n/a	n/a	388.236	BM24ANS.jpg
358.942	0.514	Blank	Blank	91.473	n/a	4	10	5	n/a	65	n/a	3	n/a	n/a	n/a	n/a	388.733	n/a
359.473	0.497	angry	Picture	90.959	n/a	4	10	6	n/a	66	105	3	n/a	n/a	n/a	n/a	389.264	BM06ANS.jpg
359.97	0.514	Blank	Blank	90.445	n/a	4	10	6	n/a	66	n/a	3	n/a	n/a	n/a	n/a	389.761	n/a
360.5	0.497	angry	Picture	89.931	n/a	4	10	7	n/a	67	106	3	n/a	n/a	n/a	n/a	390.291	AM07ANS.jpg
360.998	0.514	Blank	Blank	89.417	n/a	4	10	7	n/a	67	n/a	3	n/a	n/a	n/a	n/a	390.789	n/a
361.528	0.497	angry	Picture	88.903	n/a	4	10	8	n/a	68	94	3	n/a	n/a	n/a	n/a	391.319	AF23ANS.jpg
362.026	0.514	Blank	Blank	88.389	n/a	4	10	8	n/a	68	n/a	3	n/a	n/a	n/a	n/a	391.817	n/a
362.556	0.497	angry	Picture	87.875	n/a	4	10	9	n/a	69	117	3	n/a	n/a	n/a	n/a	392.347	BM25ANS.jpg
363.053	0.514	Blank	Blank	87.361	n/a	4	10	9	n/a	69	n/a	3	n/a	n/a	n/a	n/a	392.844	n/a
363.584	0.497	angry	Picture	86.848	n/a	4	10	10	n/a	70	90	3	n/a	n/a	n/a	n/a	393.375	AF18ANS.jpg
364.081	0.514	Blank	Blank	86.334	n/a	4	10	10	n/a	70	n/a	3	n/a	n/a	n/a	n/a	393.872	n/a
364.612	0.497	angry	Picture	85.82	n/a	4	10	11	n/a	71	83	3	n/a	n/a	n/a	n/a	394.403	BF04ANS.jpg
365.109	0.514	Blank	Blank	85.306	n/a	4	10	11	n/a	71	n/a	3	n/a	n/a	n/a	n/a	394.9	n/a
365.64	0.497	angry	Picture	84.792	n/a	4	10	12	n/a	72	112	3	n/a	n/a	n/a	n/a	395.431	AM14ANS.jpg
366.137	0.514	Blank	Blank	84.278	n/a	4	10	12	n/a	72	n/a	3	n/a	n/a	n/a	n/a	395.928	n/a
366.668	0.497	angry	Picture	83.764	n/a	4	10	13	n/a	73	102	3	n/a	n/a	n/a	n/a	396.459	BM03ANS.jpg
367.165	0.514	Blank	Blank	83.25	n/a	4	10	13	n/a	73	n/a	3	n/a	n/a	n/a	n/a	396.956	n/a
367.696	0.497	angry	Picture	82.736	n/a	4	10	14	n/a	74	95	3	n/a	n/a	n/a	n/a	397.487	AF25ANS.jpg
368.193	0.514	Blank	Blank	82.222	n/a	4	10	14	n/a	74	n/a	3	n/a	n/a	n/a	n/a	397.984	n/a
368.723	0.497	angry	Picture	81.708	n/a	4	10	15	n/a	75	113	3	n/a	n/a	n/a	n/a	398.514	AM21ANS.jpg
369.221	0.514	Blank	Blank	81.194	n/a	4	10	15	n/a	75	n/a	3	n/a	n/a	n/a	n/a	399.012	n/a
369.751	0.497	angry	Picture	80.68	n/a	4	10	16	n/a	76	88	3	n/a	n/a	n/a	n/a	399.542	AF14ANS.jpg
370.249	0.514	Blank	Blank	80.166	n/a	4	10	16	n/a	76	n/a	3	n/a	n/a	n/a	n/a	400.04	n/a
370.779	0.497	angry	Picture	79.652	n/a	4	10	17	n/a	77	93	3	n/a	n/a	n/a	n/a	400.57	BF22ANS.jpg
371.277	0.514	Blank	Blank	79.138	n/a	4	10	17	n/a	77	n/a	3	n/a	n/a	n/a	n/a	401.068	n/a
371.807	0.497	angry	Picture	78.624	n/a	4	10	18	n/a	78	86	3	n/a	n/a	n/a	n/a	401.598	AF09ANS.jpg
372.304	0.514	Blank	Blank	78.11	n/a	4	10	18	n/a	78	n/a	3	n/a	n/a	n/a	n/a	402.095	n/a
372.835	0.497	angry	Picture	77.597	n/a	4	10	19	n/a	79	92	3	n/a	n/a	n/a	n/a	402.626	AF21ANS.jpg
373.332	0.514	Blank	Blank	77.083	n/a	4	10	19	n/a	79	n/a	3	n/a	n/a	n/a	n/a	403.123	n/a
373.863	0.497	angry	Picture	76.569	n/a	4	10	20	n/a	80	84	3	n/a	n/a	n/a	n/a	403.654	AF05ANS.jpg
374.36	0.514	Blank	Blank	76.055	n/a	4	10	20	n/a	80	n/a	3	n/a	n/a	n/a	n/a	404.151	n/a
374.891	10.014	ITI	Fixation+	66.025	n/a	4	n/a	n/a	n/a	n/a	n/a	n/a	n/a	n/a	n/a	n/a	404.682	n/a
384.921	0.497	neutral	Picture	65.511	n/a	4	11	1	n/a	81	4	1	n/a	n/a	n/a	n/a	414.712	AF05NES.jpg
385.418	0.514	Blank	Blank	64.997	n/a	4	11	1	n/a	81	n/a	1	n/a	n/a	n/a	n/a	415.209	n/a
385.949	0.497	neutral	Picture	64.483	n/a	4	11	2	n/a	82	14	1	n/a	n/a	n/a	n/a	415.74	AF23NES.jpg
386.446	0.514	Blank	Blank	63.969	n/a	4	11	2	n/a	82	n/a	1	n/a	n/a	n/a	n/a	416.237	n/a
386.977	0.497	neutral	Picture	63.455	n/a	4	11	3	n/a	83	19	1	n/a	n/a	n/a	n/a	416.768	AF31NES.jpg
387.474	0.514	Blank	Blank	62.941	n/a	4	11	3	n/a	83	n/a	1	n/a	n/a	n/a	n/a	417.265	n/a
388.005	0.497	neutral	Picture	62.427	n/a	4	11	4	n/a	84	8	1	n/a	n/a	n/a	n/a	417.796	AF14NES.jpg
388.502	0.514	Blank	Blank	61.913	n/a	4	11	4	n/a	84	n/a	1	n/a	n/a	n/a	n/a	418.293	n/a
389.032	0.497	neutral	Picture	61.399	n/a	4	11	5	n/a	85	25	1	n/a	n/a	n/a	n/a	418.823	BM06NES.jpg
389.53	0.514	Blank	Blank	60.885	n/a	4	11	5	n/a	85	n/a	1	n/a	n/a	n/a	n/a	419.321	n/a
390.06	0.497	neutral	Picture	60.371	n/a	4	11	6	n/a	86	9	1	n/a	n/a	n/a	n/a	419.851	AF17NES.jpg
390.558	0.514	Blank	Blank	59.857	n/a	4	11	6	n/a	86	n/a	1	n/a	n/a	n/a	n/a	420.349	n/a
391.088	0.497	neutral	Picture	59.343	n/a	4	11	7	n/a	87	2	1	n/a	n/a	n/a	n/a	420.879	AF03NES.jpg
391.586	0.514	Blank	Blank	58.829	n/a	4	11	7	n/a	87	n/a	1	n/a	n/a	n/a	n/a	421.377	n/a
392.116	0.497	neutral	Picture	58.315	n/a	4	11	8	n/a	88	17	1	n/a	n/a	n/a	n/a	421.907	BF28NES.jpg
392.613	0.514	Blank	Blank	57.802	n/a	4	11	8	n/a	88	n/a	1	n/a	n/a	n/a	n/a	422.404	n/a
393.144	0.497	neutral	Picture	57.287	n/a	4	11	9	n/a	89	6	1	n/a	n/a	n/a	n/a	422.935	AF09NES.jpg
393.641	0.514	Blank	Blank	56.774	n/a	4	11	9	n/a	89	n/a	1	n/a	n/a	n/a	n/a	423.432	n/a
394.172	0.497	neutral	Picture	56.26	n/a	4	11	10	n/a	90	12	1	n/a	n/a	n/a	n/a	423.963	AF21NES.jpg
394.669	0.514	Blank	Blank	55.746	n/a	4	11	10	n/a	90	n/a	1	n/a	n/a	n/a	n/a	424.46	n/a
395.2	0.497	neutral	Picture	55.232	n/a	4	11	11	n/a	91	24	1	n/a	n/a	n/a	n/a	424.991	BM05NES.jpg
395.697	0.514	Blank	Blank	54.718	n/a	4	11	11	n/a	91	n/a	1	n/a	n/a	n/a	n/a	425.488	n/a
396.228	0.497	neutral	Picture	54.204	n/a	4	11	12	n/a	92	34	1	n/a	n/a	n/a	n/a	426.019	AM22NES.jpg
396.725	0.514	Blank	Blank	53.69	n/a	4	11	12	n/a	92	n/a	1	n/a	n/a	n/a	n/a	426.516	n/a
397.255	0.497	neutral	Picture	53.176	n/a	4	11	13	n/a	93	23	1	n/a	n/a	n/a	n/a	427.046	AM04NES.jpg
397.753	0.514	Blank	Blank	52.662	n/a	4	11	13	n/a	93	n/a	1	n/a	n/a	n/a	n/a	427.544	n/a
398.283	0.497	neutral	Picture	52.148	n/a	4	11	14	n/a	94	15	1	n/a	n/a	n/a	n/a	428.074	AF25NES.jpg
398.781	0.514	Blank	Blank	51.634	n/a	4	11	14	n/a	94	n/a	1	n/a	n/a	n/a	n/a	428.572	n/a
399.311	0.497	neutral	Picture	51.12	n/a	4	11	15	n/a	95	37	1	n/a	n/a	n/a	n/a	429.102	BM25NES.jpg
399.809	0.514	Blank	Blank	50.606	n/a	4	11	15	n/a	95	n/a	1	n/a	n/a	n/a	n/a	429.6	n/a
400.339	0.497	neutral	Picture	50.092	n/a	4	11	16	n/a	96	32	1	n/a	n/a	n/a	n/a	430.13	AM14NES.jpg
400.837	0.514	Blank	Blank	49.578	n/a	4	11	16	n/a	96	n/a	1	n/a	n/a	n/a	n/a	430.627	n/a
401.367	0.497	neutral	Picture	49.065	n/a	4	11	17	n/a	97	3	1	n/a	n/a	n/a	n/a	431.158	BF04NES.jpg
401.864	0.514	Blank	Blank	48.55	n/a	4	11	17	n/a	97	n/a	1	n/a	n/a	n/a	n/a	431.655	n/a
402.395	0.497	neutral	Picture	48.037	n/a	4	11	18	n/a	98	16	1	n/a	n/a	n/a	n/a	432.186	AF26NES.jpg
402.892	0.514	Blank	Blank	47.523	n/a	4	11	18	n/a	98	n/a	1	n/a	n/a	n/a	n/a	432.683	n/a
403.423	0.497	neutral	Picture	47.009	n/a	4	11	19	n/a	99	27	1	n/a	n/a	n/a	n/a	433.214	BM08NES.jpg
403.92	0.514	Blank	Blank	46.495	n/a	4	11	19	n/a	99	n/a	1	n/a	n/a	n/a	n/a	433.711	n/a
404.451	0.497	neutral	Picture	45.981	n/a	4	11	20	n/a	100	28	1	n/a	n/a	n/a	n/a	434.242	AM09NES.jpg
404.948	0.514	Blank	Blank	45.467	n/a	4	11	20	n/a	100	n/a	1	n/a	n/a	n/a	n/a	434.739	n/a
405.478	10.014	ITI	Fixation+	35.437	n/a	4	n/a	n/a	n/a	n/a	n/a	n/a	n/a	n/a	n/a	n/a	435.269	n/a
415.509	0.497	angry	Picture	34.923	n/a	4	12	1	n/a	101	81	3	n/a	n/a	n/a	n/a	445.3	AF01ANS.jpg
416.006	0.514	Blank	Blank	34.409	n/a	4	12	1	n/a	101	n/a	3	n/a	n/a	n/a	n/a	445.797	n/a
416.536	0.497	angry	Picture	33.895	n/a	4	12	2	n/a	102	120	3	n/a	n/a	n/a	n/a	446.327	AM35ANS.jpg
417.034	0.514	Blank	Blank	33.381	n/a	4	12	2	n/a	102	n/a	3	n/a	n/a	n/a	n/a	446.825	n/a
417.564	0.497	angry	Picture	32.867	n/a	4	12	3	n/a	103	114	3	n/a	n/a	n/a	n/a	447.355	AM22ANS.jpg
418.062	0.514	Blank	Blank	32.353	n/a	4	12	3	n/a	103	n/a	3	n/a	n/a	n/a	n/a	447.853	n/a
418.592	0.497	angry	Picture	31.839	n/a	4	12	4	n/a	104	109	3	n/a	n/a	n/a	n/a	448.383	AM10ANS.jpg
419.09	0.514	Blank	Blank	31.325	n/a	4	12	4	n/a	104	n/a	3	n/a	n/a	n/a	n/a	448.881	n/a
419.62	0.497	angry	Picture	30.811	n/a	4	12	5	n/a	105	96	3	n/a	n/a	n/a	n/a	449.411	AF26ANS.jpg
420.118	0.514	Blank	Blank	30.297	n/a	4	12	5	n/a	105	n/a	3	n/a	n/a	n/a	n/a	449.909	n/a
420.648	0.497	angry	Picture	29.783	n/a	4	12	6	n/a	106	82	3	n/a	n/a	n/a	n/a	450.439	AF03ANS.jpg
421.145	0.514	Blank	Blank	29.269	n/a	4	12	6	n/a	106	n/a	3	n/a	n/a	n/a	n/a	450.936	n/a
421.676	0.497	angry	Picture	28.755	n/a	4	12	7	n/a	107	97	3	n/a	n/a	n/a	n/a	451.467	BF28ANS.jpg
422.173	0.514	Blank	Blank	28.242	n/a	4	12	7	n/a	107	n/a	3	n/a	n/a	n/a	n/a	451.964	n/a
422.704	0.497	angry	Picture	27.728	n/a	4	12	8	n/a	108	115	3	n/a	n/a	n/a	n/a	452.495	AM23ANS.jpg
423.201	0.514	Blank	Blank	27.214	n/a	4	12	8	n/a	108	n/a	3	n/a	n/a	n/a	n/a	452.992	n/a
423.732	0.497	angry	Picture	26.7	n/a	4	12	9	n/a	109	91	3	n/a	n/a	n/a	n/a	453.523	AF20ANS.jpg
424.229	0.514	Blank	Blank	26.186	n/a	4	12	9	n/a	109	n/a	3	n/a	n/a	n/a	n/a	454.02	n/a
424.76	0.497	angry	Picture	25.672	n/a	4	12	10	n/a	110	87	3	n/a	n/a	n/a	n/a	454.551	BF11ANS.jpg
425.257	0.514	Blank	Blank	25.158	n/a	4	12	10	n/a	110	n/a	3	n/a	n/a	n/a	n/a	455.048	n/a
425.788	0.497	angry	Picture	24.644	n/a	4	12	11	n/a	111	85	3	n/a	n/a	n/a	n/a	455.579	BF07ANS.jpg
426.285	0.514	Blank	Blank	24.13	n/a	4	12	11	n/a	111	n/a	3	n/a	n/a	n/a	n/a	456.076	n/a
426.815	0.497	angry	Picture	23.616	n/a	4	12	12	n/a	112	110	3	n/a	n/a	n/a	n/a	456.606	AM11ANS.jpg
427.313	0.514	Blank	Blank	23.102	n/a	4	12	12	n/a	112	n/a	3	n/a	n/a	n/a	n/a	457.104	n/a
427.843	0.497	angry	Picture	22.588	n/a	4	12	13	n/a	113	111	3	n/a	n/a	n/a	n/a	457.634	BM12ANS.jpg
428.341	0.514	Blank	Blank	22.074	n/a	4	12	13	n/a	113	n/a	3	n/a	n/a	n/a	n/a	458.132	n/a
428.871	0.497	angry	Picture	21.56	n/a	4	12	14	n/a	114	103	3	n/a	n/a	n/a	n/a	458.662	AM04ANS.jpg
429.368	0.514	Blank	Blank	21.046	n/a	4	12	14	n/a	114	n/a	3	n/a	n/a	n/a	n/a	459.159	n/a
429.899	0.497	angry	Picture	20.532	n/a	4	12	15	n/a	115	101	3	n/a	n/a	n/a	n/a	459.69	AM01ANS.jpg
430.396	0.514	Blank	Blank	20.019	n/a	4	12	15	n/a	115	n/a	3	n/a	n/a	n/a	n/a	460.187	n/a
430.927	0.497	angry	Picture	19.505	n/a	4	12	16	n/a	116	104	3	n/a	n/a	n/a	n/a	460.718	BM05ANS.jpg
431.424	0.514	Blank	Blank	18.991	n/a	4	12	16	n/a	116	n/a	3	n/a	n/a	n/a	n/a	461.215	n/a
431.955	0.497	angry	Picture	18.477	n/a	4	12	17	n/a	117	107	3	n/a	n/a	n/a	n/a	461.746	BM08ANS.jpg
432.452	0.514	Blank	Blank	17.963	n/a	4	12	17	n/a	117	n/a	3	n/a	n/a	n/a	n/a	462.243	n/a
432.983	0.497	angry	Picture	17.449	n/a	4	12	18	n/a	118	98	3	n/a	n/a	n/a	n/a	462.774	BF29ANS.jpg
433.48	0.514	Blank	Blank	16.935	n/a	4	12	18	n/a	118	n/a	3	n/a	n/a	n/a	n/a	463.271	n/a
434.01	0.497	angry	Picture	16.421	n/a	4	12	19	n/a	119	99	3	n/a	n/a	n/a	n/a	463.801	AF31ANS.jpg
434.508	0.514	Blank	Blank	15.907	n/a	4	12	19	n/a	119	n/a	3	n/a	n/a	n/a	n/a	464.299	n/a
435.038	0.497	angry	Picture	15.393	n/a	4	12	20	n/a	120	108	3	n/a	n/a	n/a	n/a	464.829	AM09ANS.jpg
435.536	0.514	Blank	Blank	14.879	n/a	4	12	20	n/a	120	n/a	3	n/a	n/a	n/a	n/a	465.327	n/a
436.066	10.014	ITI	Fixation+	4.849	n/a	4	n/a	n/a	n/a	n/a	n/a	n/a	n/a	n/a	n/a	n/a	465.857	n/a
450.929	n/a	ConfirmRating	Rate	n/a	4.841	4	n/a	n/a	0	n/a	n/a	n/a	2	Angry	77	52	480.72	n/a
459.336	n/a	ConfirmRating	Rate	n/a	8.388	4	n/a	n/a	1	n/a	n/a	n/a	3	Angry	37	49	489.127	n/a
