onset	duration	trial_type	trial_number	event_type	cue_to_participant	stimulus_type	time_until_response	rated_success_of_regulation	onset_uncorrected
0.018	10.014	Instruction	-1	Picture	Instruction	n/a	n/a	n/a	31.212
10.048	5.007	ITI	0	Picture	Fixation+	1	16.484	n/a	41.243
15.071	2.006	Cue	0	Picture	Maintain	1	14.461	n/a	46.266
17.077	4.99	Pic	0	Picture	IAPS_01	1	9.471	n/a	48.272
22.067	2.006	Blank	0	Picture	BLANK	1	7.465	n/a	53.262
31.538	n/a	ConfirmRating	0	Response	n/a	1	n/a	0	62.733
31.567	6.002	ITI	1	Picture	Fixation+	2	13.323	n/a	62.762
37.585	2.006	Cue	1	Picture	Enhance	2	11.3	n/a	68.78
39.591	4.99	Pic	1	Picture	IAPS_26	2	6.31	n/a	70.786
44.581	2.006	Blank	1	Picture	BLANK	2	4.304	n/a	75.776
50.891	n/a	ConfirmRating	1	Response	n/a	2	n/a	0	82.086
50.915	4.012	ITI	2	Picture	Fixation+	3	12.858	n/a	82.109
54.943	2.006	Cue	2	Picture	Suppress	3	10.836	n/a	86.138
56.949	4.99	Pic	2	Picture	IAPS_36	3	5.846	n/a	88.144
61.939	2.006	Blank	2	Picture	BLANK	3	3.839	n/a	93.134
67.785	n/a	ConfirmRating	2	Response	n/a	3	n/a	2	98.98
67.808	5.007	ITI	3	Picture	Fixation+	4	12.672	n/a	99.003
72.832	2.006	Cue	3	Picture	Maintain	4	10.65	n/a	104.026
74.838	4.99	Pic	3	Picture	IAPS_46	4	5.66	n/a	106.032
79.828	2.006	Blank	3	Picture	BLANK	4	3.654	n/a	111.022
85.487	n/a	ConfirmRating	3	Response	n/a	4	n/a	7	116.682
85.514	5.007	ITI	4	Picture	Fixation+	4	12.31	n/a	116.709
90.538	2.006	Cue	4	Picture	Maintain	4	10.287	n/a	121.732
92.544	4.99	Pic	4	Picture	IAPS_49	4	5.297	n/a	123.738
97.534	2.006	Blank	4	Picture	BLANK	4	3.291	n/a	128.729
102.831	n/a	ConfirmRating	4	Response	n/a	4	n/a	6	134.026
102.856	6.002	ITI	5	Picture	Fixation+	2	13.106	n/a	134.05
108.874	2.006	Cue	5	Picture	Enhance	2	11.083	n/a	140.068
110.88	4.99	Pic	5	Picture	IAPS_27	2	6.093	n/a	142.075
115.87	2.006	Blank	5	Picture	BLANK	2	4.087	n/a	147.065
121.963	n/a	ConfirmRating	5	Response	n/a	2	n/a	3	153.157
121.987	4.012	ITI	6	Picture	Fixation+	1	10.58	n/a	153.182
126.016	2.006	Cue	6	Picture	Maintain	1	8.557	n/a	157.211
128.022	4.99	Pic	6	Picture	IAPS_02	1	3.567	n/a	159.217
133.012	2.006	Blank	6	Picture	BLANK	1	1.561	n/a	164.207
136.579	n/a	ConfirmRating	6	Response	n/a	1	n/a	3	167.774
136.61	6.002	ITI	7	Picture	Fixation+	3	12.076	n/a	167.805
142.628	2.006	Cue	7	Picture	Suppress	3	10.053	n/a	173.823
144.634	4.99	Pic	7	Picture	IAPS_37	3	5.063	n/a	175.829
149.624	2.006	Blank	7	Picture	BLANK	3	3.057	n/a	180.819
154.687	n/a	ConfirmRating	7	Response	n/a	3	n/a	2	185.882
154.714	5.007	ITI	8	Picture	Fixation+	4	12.162	n/a	185.909
159.737	2.006	Cue	8	Picture	Maintain	4	10.139	n/a	190.932
161.743	4.99	Pic	8	Picture	IAPS_52	4	5.149	n/a	192.938
166.734	2.006	Blank	8	Picture	BLANK	4	3.143	n/a	197.928
171.883	n/a	ConfirmRating	8	Response	n/a	4	n/a	7	203.078
171.906	6.002	ITI	9	Picture	Fixation+	1	12.532	n/a	203.101
177.924	2.006	Cue	9	Picture	Maintain	1	10.509	n/a	209.119
179.93	4.99	Pic	9	Picture	IAPS_03	1	5.519	n/a	211.125
184.92	2.006	Blank	9	Picture	BLANK	1	3.513	n/a	216.115
190.439	n/a	ConfirmRating	9	Response	n/a	1	n/a	7	221.634
190.458	5.007	ITI	10	Picture	Fixation+	2	11.169	n/a	221.652
195.481	2.006	Cue	10	Picture	Enhance	2	9.146	n/a	226.676
197.487	4.99	Pic	10	Picture	IAPS_28	2	4.156	n/a	228.682
202.477	2.006	Blank	10	Picture	BLANK	2	2.15	n/a	233.672
206.633	n/a	ConfirmRating	10	Response	n/a	2	n/a	7	237.828
206.655	4.012	ITI	11	Picture	Fixation+	3	11.421	n/a	237.85
210.684	2.006	Cue	11	Picture	Suppress	3	9.398	n/a	241.879
212.69	4.99	Pic	11	Picture	IAPS_38	3	4.408	n/a	243.885
217.68	2.006	Blank	11	Picture	BLANK	3	2.402	n/a	248.875
222.088	n/a	ConfirmRating	11	Response	n/a	3	n/a	2	253.283
222.106	6.002	ITI	12	Picture	Fixation+	2	14.59	n/a	253.301
228.125	2.006	Cue	12	Picture	Enhance	2	12.568	n/a	259.319
230.131	4.99	Pic	12	Picture	IAPS_29	2	7.578	n/a	261.325
235.121	2.006	Blank	12	Picture	BLANK	2	5.572	n/a	266.316
242.698	n/a	ConfirmRating	12	Response	n/a	2	n/a	0	273.893
242.731	5.007	ITI	13	Picture	Fixation+	1	11.843	n/a	273.925
247.754	2.006	Cue	13	Picture	Maintain	1	9.82	n/a	278.949
249.76	4.99	Pic	13	Picture	IAPS_04	1	4.83	n/a	280.955
254.75	2.006	Blank	13	Picture	BLANK	1	2.824	n/a	285.945
259.58	n/a	ConfirmRating	13	Response	n/a	1	n/a	7	290.775
259.608	4.012	ITI	14	Picture	Fixation+	4	10.854	n/a	290.802
263.636	2.006	Cue	14	Picture	Maintain	4	8.832	n/a	294.831
265.642	4.99	Pic	14	Picture	IAPS_55	4	3.841	n/a	296.837
270.632	2.006	Blank	14	Picture	BLANK	4	1.836	n/a	301.827
274.474	n/a	ConfirmRating	14	Response	n/a	4	n/a	7	305.669
274.495	5.007	ITI	15	Picture	Fixation+	3	13.416	n/a	305.69
279.519	2.006	Cue	15	Picture	Suppress	3	11.394	n/a	310.713
281.525	4.99	Pic	15	Picture	IAPS_39	3	6.404	n/a	312.719
286.515	2.006	Blank	15	Picture	BLANK	3	4.398	n/a	317.71
292.919	n/a	ConfirmRating	15	Response	n/a	3	n/a	6	324.113
292.947	6.002	ITI	16	Picture	Fixation+	2	11.428	n/a	324.142
298.966	2.006	Cue	16	Picture	Enhance	2	9.406	n/a	330.16
300.972	4.99	Pic	16	Picture	IAPS_30	2	4.416	n/a	332.166
305.962	2.006	Blank	16	Picture	BLANK	2	2.41	n/a	337.156
310.377	n/a	ConfirmRating	16	Response	n/a	2	n/a	5	341.572
310.405	6.002	ITI	17	Picture	Fixation+	1	11.782	n/a	341.6
316.423	2.006	Cue	17	Picture	Maintain	1	9.759	n/a	347.618
318.429	4.99	Pic	17	Picture	IAPS_05	1	4.769	n/a	349.624
323.419	2.006	Blank	17	Picture	BLANK	1	2.763	n/a	354.614
328.188	n/a	ConfirmRating	17	Response	n/a	1	n/a	2	359.383
328.21	4.012	ITI	18	Picture	Fixation+	3	12.446	n/a	359.405
332.239	2.006	Cue	18	Picture	Suppress	3	10.423	n/a	363.434
334.245	4.99	Pic	18	Picture	IAPS_40	3	5.433	n/a	365.44
339.235	2.006	Blank	18	Picture	BLANK	3	3.427	n/a	370.43
344.669	n/a	ConfirmRating	18	Response	n/a	3	n/a	0	375.863
344.69	5.007	ITI	19	Picture	Fixation+	4	11.252	n/a	375.885
349.713	2.006	Cue	19	Picture	Maintain	4	9.229	n/a	380.908
351.719	4.99	Pic	19	Picture	IAPS_58	4	4.239	n/a	382.914
356.709	2.006	Blank	19	Picture	BLANK	4	2.233	n/a	387.904
360.948	n/a	ConfirmRating	19	Response	n/a	4	n/a	7	392.143
360.97	6.002	ITI	20	Picture	Fixation+	4	11.602	n/a	392.165
366.988	2.006	Cue	20	Picture	Maintain	4	9.58	n/a	398.183
368.994	4.99	Pic	20	Picture	IAPS_47	4	4.59	n/a	400.189
373.984	2.006	Blank	20	Picture	BLANK	4	2.584	n/a	405.179
378.574	n/a	ConfirmRating	20	Response	n/a	4	n/a	7	409.769
378.593	5.007	ITI	21	Picture	Fixation+	3	11.405	n/a	409.788
383.617	2.006	Cue	21	Picture	Suppress	3	9.382	n/a	414.811
385.623	4.99	Pic	21	Picture	IAPS_41	3	4.392	n/a	416.817
390.613	2.006	Blank	21	Picture	BLANK	3	2.386	n/a	421.808
395.005	n/a	ConfirmRating	21	Response	n/a	3	n/a	1	426.199
395.023	4.012	ITI	22	Picture	Fixation+	1	11.783	n/a	426.217
399.051	2.006	Cue	22	Picture	Maintain	1	9.76	n/a	430.246
401.058	4.99	Pic	22	Picture	IAPS_06	1	4.77	n/a	432.252
406.048	2.006	Blank	22	Picture	BLANK	1	2.764	n/a	437.242
410.817	n/a	ConfirmRating	22	Response	n/a	1	n/a	5	442.012
410.839	4.012	ITI	23	Picture	Fixation+	2	12.371	n/a	442.034
414.868	2.006	Cue	23	Picture	Enhance	2	10.349	n/a	446.062
416.874	4.99	Pic	23	Picture	IAPS_16	2	5.358	n/a	448.068
421.864	2.006	Blank	23	Picture	BLANK	2	3.352	n/a	453.058
427.222	n/a	ConfirmRating	23	Response	n/a	2	n/a	7	458.417
427.252	5.007	ITI	24	Picture	Fixation+	1	10.087	n/a	458.447
432.275	2.006	Cue	24	Picture	Maintain	1	8.065	n/a	463.47
434.281	4.99	Pic	24	Picture	IAPS_07	1	3.074	n/a	465.476
439.272	2.006	Blank	24	Picture	BLANK	1	1.068	n/a	470.466
442.346	n/a	ConfirmRating	24	Response	n/a	1	n/a	0	473.541
442.372	4.012	ITI	25	Picture	Fixation+	2	15.048	n/a	473.566
446.4	2.006	Cue	25	Picture	Enhance	2	13.025	n/a	477.595
448.406	4.99	Pic	25	Picture	IAPS_17	2	8.035	n/a	479.601
453.397	2.006	Blank	25	Picture	BLANK	2	6.029	n/a	484.591
461.432	n/a	ConfirmRating	25	Response	n/a	2	n/a	3	492.626
461.454	6.002	ITI	26	Picture	Fixation+	4	10.985	n/a	492.649
467.472	2.006	Cue	26	Picture	Maintain	4	8.962	n/a	498.667
469.478	4.99	Pic	26	Picture	IAPS_50	4	3.972	n/a	500.673
474.468	2.006	Blank	26	Picture	BLANK	4	1.966	n/a	505.663
478.44	n/a	ConfirmRating	26	Response	n/a	4	n/a	7	509.635
478.464	5.007	ITI	27	Picture	Fixation+	3	11.004	n/a	509.658
483.487	2.006	Cue	27	Picture	Suppress	3	8.982	n/a	514.682
485.493	4.99	Pic	27	Picture	IAPS_42	3	3.992	n/a	516.688
490.483	2.006	Blank	27	Picture	BLANK	3	1.986	n/a	521.678
494.475	n/a	ConfirmRating	27	Response	n/a	3	n/a	2	525.67
494.495	5.007	ITI	28	Picture	Fixation+	2	11.959	n/a	525.69
499.519	2.006	Cue	28	Picture	Enhance	2	9.936	n/a	530.713
501.525	4.99	Pic	28	Picture	IAPS_18	2	4.946	n/a	532.719
506.515	2.006	Blank	28	Picture	BLANK	2	2.94	n/a	537.71
511.461	n/a	ConfirmRating	28	Response	n/a	2	n/a	5	542.655
511.489	4.012	ITI	29	Picture	Fixation+	3	12.704	n/a	542.683
515.517	2.006	Cue	29	Picture	Suppress	3	10.681	n/a	546.712
517.523	4.99	Pic	29	Picture	IAPS_43	3	5.691	n/a	548.718
522.513	2.006	Blank	29	Picture	BLANK	3	3.685	n/a	553.708
528.204	n/a	ConfirmRating	29	Response	n/a	3	n/a	6	559.399
528.233	15.004	Rest	29	Picture	Rest	n/a	-15.032	n/a	559.428
543.253	5.007	ITI	30	Picture	Fixation+	4	11.36	n/a	574.448
548.277	2.006	Cue	30	Picture	Maintain	4	9.337	n/a	579.471
550.283	4.99	Pic	30	Picture	IAPS_53	4	4.347	n/a	581.477
555.273	2.006	Blank	30	Picture	BLANK	4	2.341	n/a	586.468
559.62	n/a	ConfirmRating	30	Response	n/a	4	n/a	7	590.814
559.65	6.002	ITI	31	Picture	Fixation+	1	11.974	n/a	590.844
565.668	2.006	Cue	31	Picture	Maintain	1	9.952	n/a	596.862
567.674	4.99	Pic	31	Picture	IAPS_08	1	4.961	n/a	598.869
572.664	2.006	Blank	31	Picture	BLANK	1	2.955	n/a	603.859
577.625	n/a	ConfirmRating	31	Response	n/a	1	n/a	1	608.82
577.654	4.012	ITI	32	Picture	Fixation+	3	10.158	n/a	608.849
581.683	2.006	Cue	32	Picture	Suppress	3	8.135	n/a	612.878
583.689	4.99	Pic	32	Picture	IAPS_44	3	3.145	n/a	614.884
588.679	2.006	Blank	32	Picture	BLANK	3	1.139	n/a	619.874
591.824	n/a	ConfirmRating	32	Response	n/a	3	n/a	0	623.019
591.846	5.007	ITI	33	Picture	Fixation+	1	10.262	n/a	623.04
596.869	2.006	Cue	33	Picture	Maintain	1	8.24	n/a	628.064
598.875	4.99	Pic	33	Picture	IAPS_09	1	3.25	n/a	630.07
603.865	2.006	Blank	33	Picture	BLANK	1	1.244	n/a	635.06
607.115	n/a	ConfirmRating	33	Response	n/a	1	n/a	0	638.309
607.148	4.012	ITI	34	Picture	Fixation+	2	11.726	n/a	638.342
611.176	2.006	Cue	34	Picture	Enhance	2	9.703	n/a	642.371
613.183	4.99	Pic	34	Picture	IAPS_19	2	4.713	n/a	644.377
618.173	2.006	Blank	34	Picture	BLANK	2	2.707	n/a	649.367
622.885	n/a	ConfirmRating	34	Response	n/a	2	n/a	6	654.08
622.914	6.002	ITI	35	Picture	Fixation+	4	12.309	n/a	654.109
628.932	2.006	Cue	35	Picture	Maintain	4	10.286	n/a	660.127
630.938	4.99	Pic	35	Picture	IAPS_56	4	5.296	n/a	662.133
635.928	2.006	Blank	35	Picture	BLANK	4	3.29	n/a	667.123
641.224	n/a	ConfirmRating	35	Response	n/a	4	n/a	7	672.419
641.25	5.007	ITI	36	Picture	Fixation+	3	11.1	n/a	672.445
646.274	2.006	Cue	36	Picture	Suppress	3	9.077	n/a	677.468
648.28	4.99	Pic	36	Picture	IAPS_45	3	4.087	n/a	679.474
653.27	2.006	Blank	36	Picture	BLANK	3	2.081	n/a	684.465
657.357	n/a	ConfirmRating	36	Response	n/a	3	n/a	2	688.552
657.381	6.002	ITI	37	Picture	Fixation+	4	11.683	n/a	688.576
663.399	2.006	Cue	37	Picture	Maintain	4	9.66	n/a	694.594
665.405	4.99	Pic	37	Picture	IAPS_59	4	4.67	n/a	696.6
670.396	2.006	Blank	37	Picture	BLANK	4	2.664	n/a	701.59
675.066	n/a	ConfirmRating	37	Response	n/a	4	n/a	7	706.26
675.087	5.007	ITI	38	Picture	Fixation+	2	11.371	n/a	706.282
680.111	2.006	Cue	38	Picture	Enhance	2	9.348	n/a	711.306
682.117	4.99	Pic	38	Picture	IAPS_20	2	4.358	n/a	713.312
687.107	2.006	Blank	38	Picture	BLANK	2	2.352	n/a	718.302
691.465	n/a	ConfirmRating	38	Response	n/a	2	n/a	7	722.66
691.484	4.012	ITI	39	Picture	Fixation+	1	10.077	n/a	722.679
695.512	2.006	Cue	39	Picture	Maintain	1	8.055	n/a	726.707
697.519	4.99	Pic	39	Picture	IAPS_10	1	3.064	n/a	728.713
702.509	2.006	Blank	39	Picture	BLANK	1	1.058	n/a	733.703
705.573	n/a	ConfirmRating	39	Response	n/a	1	n/a	0	736.768
705.592	6.002	ITI	40	Picture	Fixation+	4	10.968	n/a	736.787
711.611	2.006	Cue	40	Picture	Maintain	4	8.945	n/a	742.805
713.616	4.99	Pic	40	Picture	IAPS_48	4	3.955	n/a	744.811
718.607	2.006	Blank	40	Picture	BLANK	4	1.949	n/a	749.801
722.562	n/a	ConfirmRating	40	Response	n/a	4	n/a	7	753.756
722.586	5.007	ITI	41	Picture	Fixation+	3	13.65	n/a	753.78
727.609	2.006	Cue	41	Picture	Suppress	3	11.627	n/a	758.804
729.615	4.99	Pic	41	Picture	IAPS_31	3	6.637	n/a	760.81
734.605	2.006	Blank	41	Picture	BLANK	3	4.631	n/a	765.8
741.242	n/a	ConfirmRating	41	Response	n/a	3	n/a	2	772.437
741.27	6.002	ITI	42	Picture	Fixation+	2	11.683	n/a	772.465
747.288	2.006	Cue	42	Picture	Enhance	2	9.66	n/a	778.483
749.294	4.99	Pic	42	Picture	IAPS_21	2	4.67	n/a	780.489
754.284	2.006	Blank	42	Picture	BLANK	2	2.664	n/a	785.479
758.954	n/a	ConfirmRating	42	Response	n/a	2	n/a	5	790.149
758.976	4.012	ITI	43	Picture	Fixation+	1	11.792	n/a	790.171
763.005	2.006	Cue	43	Picture	Maintain	1	9.769	n/a	794.199
765.011	4.99	Pic	43	Picture	IAPS_11	1	4.779	n/a	796.205
770.001	2.006	Blank	43	Picture	BLANK	1	2.773	n/a	801.196
774.78	n/a	ConfirmRating	43	Response	n/a	1	n/a	6	805.974
774.809	5.007	ITI	44	Picture	Fixation+	2	14.93	n/a	806.003
779.832	2.006	Cue	44	Picture	Enhance	2	12.907	n/a	811.027
781.838	4.99	Pic	44	Picture	IAPS_22	2	7.917	n/a	813.033
786.828	2.006	Blank	44	Picture	BLANK	2	5.911	n/a	818.023
794.745	n/a	ConfirmRating	44	Response	n/a	2	n/a	6	825.94
794.769	5.007	ITI	45	Picture	Fixation+	4	11.461	n/a	825.964
799.793	2.006	Cue	45	Picture	Maintain	4	9.438	n/a	830.987
801.799	4.99	Pic	45	Picture	IAPS_51	4	4.448	n/a	832.994
806.789	2.006	Blank	45	Picture	BLANK	4	2.442	n/a	837.984
811.237	n/a	ConfirmRating	45	Response	n/a	4	n/a	7	842.432
811.265	4.012	ITI	46	Picture	Fixation+	3	12.134	n/a	842.46
815.294	2.006	Cue	46	Picture	Suppress	3	10.111	n/a	846.489
817.3	4.99	Pic	46	Picture	IAPS_32	3	5.121	n/a	848.495
822.29	2.006	Blank	46	Picture	BLANK	3	3.115	n/a	853.485
827.411	n/a	ConfirmRating	46	Response	n/a	3	n/a	7	858.606
827.429	5.007	ITI	47	Picture	Fixation+	1	11.664	n/a	858.624
832.453	2.006	Cue	47	Picture	Maintain	1	9.642	n/a	863.648
834.459	4.99	Pic	47	Picture	IAPS_12	1	4.651	n/a	865.654
839.449	2.006	Blank	47	Picture	BLANK	1	2.645	n/a	870.644
844.101	n/a	ConfirmRating	47	Response	n/a	1	n/a	1	875.295
844.124	4.012	ITI	48	Picture	Fixation+	3	13.226	n/a	875.319
848.153	2.006	Cue	48	Picture	Suppress	3	11.203	n/a	879.348
850.159	4.99	Pic	48	Picture	IAPS_33	3	6.213	n/a	881.354
855.149	2.006	Blank	48	Picture	BLANK	3	4.207	n/a	886.344
861.362	n/a	ConfirmRating	48	Response	n/a	3	n/a	7	892.557
861.383	5.007	ITI	49	Picture	Fixation+	4	11.674	n/a	892.577
866.406	2.006	Cue	49	Picture	Maintain	4	9.652	n/a	897.601
868.412	4.99	Pic	49	Picture	IAPS_54	4	4.662	n/a	899.607
873.402	2.006	Blank	49	Picture	BLANK	4	2.656	n/a	904.597
878.064	n/a	ConfirmRating	49	Response	n/a	4	n/a	7	909.259
878.094	5.007	ITI	50	Picture	Fixation+	1	11.257	n/a	909.289
883.117	2.006	Cue	50	Picture	Maintain	1	9.234	n/a	914.312
885.124	4.99	Pic	50	Picture	IAPS_13	1	4.244	n/a	916.318
890.114	2.006	Blank	50	Picture	BLANK	1	2.238	n/a	921.308
894.358	n/a	ConfirmRating	50	Response	n/a	1	n/a	0	925.552
894.375	4.012	ITI	51	Picture	Fixation+	2	14.885	n/a	925.569
898.403	2.006	Cue	51	Picture	Enhance	2	12.862	n/a	929.598
900.409	4.99	Pic	51	Picture	IAPS_23	2	7.872	n/a	931.604
905.399	2.006	Blank	51	Picture	BLANK	2	5.866	n/a	936.594
913.271	n/a	ConfirmRating	51	Response	n/a	2	n/a	7	944.466
913.291	5.007	ITI	52	Picture	Fixation+	1	17.99	n/a	944.486
918.314	2.006	Cue	52	Picture	Maintain	1	15.968	n/a	949.509
920.32	4.99	Pic	52	Picture	IAPS_14	1	10.977	n/a	951.515
925.31	2.006	Blank	52	Picture	BLANK	1	8.971	n/a	956.505
936.288	n/a	ConfirmRating	52	Response	n/a	1	n/a	6	967.482
936.319	5.007	ITI	53	Picture	Fixation+	4	11.89	n/a	967.513
941.342	2.006	Cue	53	Picture	Maintain	4	9.867	n/a	972.537
943.348	4.99	Pic	53	Picture	IAPS_57	4	4.877	n/a	974.543
948.338	2.006	Blank	53	Picture	BLANK	4	2.871	n/a	979.533
953.215	n/a	ConfirmRating	53	Response	n/a	4	n/a	7	984.41
953.246	6.002	ITI	54	Picture	Fixation+	3	14.674	n/a	984.44
959.264	2.006	Cue	54	Picture	Suppress	3	12.651	n/a	990.458
961.27	4.99	Pic	54	Picture	IAPS_34	3	7.661	n/a	992.464
966.26	2.006	Blank	54	Picture	BLANK	3	5.655	n/a	997.455
973.921	n/a	ConfirmRating	54	Response	n/a	3	n/a	2	1005.116
973.952	5.007	ITI	55	Picture	Fixation+	2	13.628	n/a	1005.147
978.976	2.006	Cue	55	Picture	Enhance	2	11.605	n/a	1010.17
980.982	4.99	Pic	55	Picture	IAPS_24	2	6.615	n/a	1012.177
985.972	2.006	Blank	55	Picture	BLANK	2	4.609	n/a	1017.167
992.587	n/a	ConfirmRating	55	Response	n/a	2	n/a	7	1023.782
992.603	5.007	ITI	56	Picture	Fixation+	1	12.202	n/a	1023.798
997.627	2.006	Cue	56	Picture	Maintain	1	10.18	n/a	1028.822
999.633	4.99	Pic	56	Picture	IAPS_15	1	5.189	n/a	1030.828
1004.623	2.006	Blank	56	Picture	BLANK	1	3.183	n/a	1035.818
1009.813	n/a	ConfirmRating	56	Response	n/a	1	n/a	5	1041.007
1009.845	6.002	ITI	57	Picture	Fixation+	3	12.976	n/a	1041.04
1015.863	2.006	Cue	57	Picture	Suppress	3	10.954	n/a	1047.058
1017.87	4.99	Pic	57	Picture	IAPS_35	3	5.963	n/a	1049.064
1022.86	2.006	Blank	57	Picture	BLANK	3	3.957	n/a	1054.054
1028.823	n/a	ConfirmRating	57	Response	n/a	3	n/a	3	1060.018
1028.845	4.012	ITI	58	Picture	Fixation+	4	12.143	n/a	1060.039
1032.873	2.006	Cue	58	Picture	Maintain	4	10.12	n/a	1064.068
1034.879	4.99	Pic	58	Picture	IAPS_60	4	5.13	n/a	1066.074
1039.87	2.006	Blank	58	Picture	BLANK	4	3.124	n/a	1071.064
1045.0	n/a	ConfirmRating	58	Response	n/a	4	n/a	7	1076.195
1045.025	6.002	ITI	59	Picture	Fixation+	2	12.439	n/a	1076.22
1051.044	2.006	Cue	59	Picture	Enhance	2	10.417	n/a	1082.238
1053.05	4.99	Pic	59	Picture	IAPS_25	2	5.427	n/a	1084.244
1058.04	2.006	Blank	59	Picture	BLANK	2	3.421	n/a	1089.235
1063.466	n/a	ConfirmRating	59	Response	n/a	2	n/a	7	1094.661
