onset	duration	trial_type	trial_number	event_type	cue_to_participant	stimulus_type	time_until_response	rated_success_of_regulation	onset_uncorrected
0.002	10.008	Instruction	-1	Picture	Instruction	n/a	n/a	n/a	32.306
10.01	5.006	ITI	0	Picture	Fixation+	1	11.953	n/a	42.314
15.016	2.006	Cue	0	Picture	Maintain	1	9.947	n/a	47.321
17.022	4.994	Pic	0	Picture	IAPS_01	1	4.953	n/a	49.327
22.016	2.002	Blank	0	Picture	BLANK	1	2.951	n/a	54.321
26.969	0.0	ConfirmRating	0	Response	n/a	1	0.0	7	59.274
26.97	6.001	ITI	1	Picture	Fixation+	2	10.666	n/a	59.274
32.971	2.006	Cue	1	Picture	Enhance	2	8.66	n/a	65.276
34.977	4.994	Pic	1	Picture	IAPS_26	2	3.666	n/a	67.281
39.971	2.002	Blank	1	Picture	BLANK	2	1.664	n/a	72.275
43.637	n/a	ConfirmRating	1	Response	n/a	2	n/a	6	75.942
43.664	4.012	ITI	2	Picture	Fixation+	3	11.805	n/a	75.969
47.676	2.006	Cue	2	Picture	Suppress	3	9.799	n/a	79.981
49.682	4.994	Pic	2	Picture	IAPS_36	3	4.805	n/a	81.987
54.676	2.002	Blank	2	Picture	BLANK	3	2.802	n/a	86.981
59.481	n/a	ConfirmRating	2	Response	n/a	3	n/a	7	91.785
59.497	5.006	ITI	3	Picture	Fixation+	4	11.198	n/a	91.802
64.504	2.006	Cue	3	Picture	Maintain	4	9.192	n/a	96.808
66.51	4.994	Pic	3	Picture	IAPS_46	4	4.198	n/a	98.814
71.504	2.002	Blank	3	Picture	BLANK	4	2.196	n/a	103.808
75.701	n/a	ConfirmRating	3	Response	n/a	4	n/a	7	108.006
75.728	5.006	ITI	4	Picture	Fixation+	4	10.879	n/a	108.032
80.734	2.006	Cue	4	Picture	Maintain	4	8.873	n/a	113.039
82.74	4.994	Pic	4	Picture	IAPS_49	4	3.879	n/a	115.045
87.734	2.002	Blank	4	Picture	BLANK	4	1.877	n/a	120.039
91.613	n/a	ConfirmRating	4	Response	n/a	4	n/a	7	123.918
91.627	6.001	ITI	5	Picture	Fixation+	2	10.47	n/a	123.931
97.628	2.006	Cue	5	Picture	Enhance	2	8.464	n/a	129.933
99.634	4.994	Pic	5	Picture	IAPS_27	2	3.47	n/a	131.938
104.628	2.002	Blank	5	Picture	BLANK	2	1.468	n/a	136.932
108.098	n/a	ConfirmRating	5	Response	n/a	2	n/a	6	140.402
108.122	4.012	ITI	6	Picture	Fixation+	1	10.834	n/a	140.427
112.135	2.006	Cue	6	Picture	Maintain	1	8.828	n/a	144.439
114.14	4.994	Pic	6	Picture	IAPS_02	1	3.834	n/a	146.445
119.134	2.002	Blank	6	Picture	BLANK	1	1.832	n/a	151.439
122.968	n/a	ConfirmRating	6	Response	n/a	1	n/a	7	155.273
122.994	6.001	ITI	7	Picture	Fixation+	3	10.632	n/a	155.298
128.995	2.006	Cue	7	Picture	Suppress	3	8.626	n/a	161.3
131.001	4.994	Pic	7	Picture	IAPS_37	3	3.632	n/a	163.305
135.995	2.002	Blank	7	Picture	BLANK	3	1.63	n/a	168.299
139.627	n/a	ConfirmRating	7	Response	n/a	3	n/a	7	171.932
139.655	5.006	ITI	8	Picture	Fixation+	4	10.944	n/a	171.96
144.662	2.006	Cue	8	Picture	Maintain	4	8.938	n/a	176.967
146.668	4.994	Pic	8	Picture	IAPS_52	4	3.944	n/a	178.972
151.662	2.002	Blank	8	Picture	BLANK	4	1.942	n/a	183.966
155.606	n/a	ConfirmRating	8	Response	n/a	4	n/a	7	187.91
155.62	6.001	ITI	9	Picture	Fixation+	1	10.954	n/a	187.925
161.622	2.006	Cue	9	Picture	Maintain	1	8.948	n/a	193.927
163.628	4.994	Pic	9	Picture	IAPS_03	1	3.954	n/a	195.932
168.622	2.002	Blank	9	Picture	BLANK	1	1.952	n/a	200.926
172.576	n/a	ConfirmRating	9	Response	n/a	1	n/a	7	204.88
172.581	5.006	ITI	10	Picture	Fixation+	2	10.034	n/a	204.885
177.587	2.006	Cue	10	Picture	Enhance	2	8.028	n/a	209.892
179.593	4.994	Pic	10	Picture	IAPS_28	2	3.034	n/a	211.898
184.587	2.002	Blank	10	Picture	BLANK	2	1.032	n/a	216.892
187.621	n/a	ConfirmRating	10	Response	n/a	2	n/a	6	219.926
187.651	4.012	ITI	11	Picture	Fixation+	3	11.568	n/a	219.955
191.663	2.006	Cue	11	Picture	Suppress	3	9.562	n/a	223.967
193.668	4.994	Pic	11	Picture	IAPS_38	3	4.568	n/a	225.973
198.662	2.002	Blank	11	Picture	BLANK	3	2.565	n/a	230.967
203.23	n/a	ConfirmRating	11	Response	n/a	3	n/a	6	235.535
203.251	6.001	ITI	12	Picture	Fixation+	2	10.74	n/a	235.556
209.253	2.006	Cue	12	Picture	Enhance	2	8.734	n/a	241.557
211.258	4.994	Pic	12	Picture	IAPS_29	2	3.74	n/a	243.563
216.252	2.002	Blank	12	Picture	BLANK	2	1.738	n/a	248.557
219.993	n/a	ConfirmRating	12	Response	n/a	2	n/a	6	252.297
220.012	5.006	ITI	13	Picture	Fixation+	1	13.129	n/a	252.317
225.019	2.006	Cue	13	Picture	Maintain	1	11.123	n/a	257.324
227.025	4.994	Pic	13	Picture	IAPS_04	1	6.129	n/a	259.329
232.019	2.002	Blank	13	Picture	BLANK	1	4.126	n/a	264.323
238.147	n/a	ConfirmRating	13	Response	n/a	1	n/a	7	270.452
238.166	4.012	ITI	14	Picture	Fixation+	4	11.414	n/a	270.471
242.178	2.006	Cue	14	Picture	Maintain	4	9.408	n/a	274.483
244.184	4.994	Pic	14	Picture	IAPS_55	4	4.414	n/a	276.488
249.178	2.002	Blank	14	Picture	BLANK	4	2.412	n/a	281.482
253.592	n/a	ConfirmRating	14	Response	n/a	4	n/a	7	285.897
253.601	5.006	ITI	15	Picture	Fixation+	3	11.191	n/a	285.906
258.608	2.006	Cue	15	Picture	Suppress	3	9.185	n/a	290.912
260.613	4.994	Pic	15	Picture	IAPS_39	3	4.191	n/a	292.918
265.607	2.002	Blank	15	Picture	BLANK	3	2.189	n/a	297.912
269.799	n/a	ConfirmRating	15	Response	n/a	3	n/a	7	302.103
269.832	6.001	ITI	16	Picture	Fixation+	2	10.128	n/a	302.136
275.833	2.006	Cue	16	Picture	Enhance	2	8.122	n/a	308.138
277.839	4.994	Pic	16	Picture	IAPS_30	2	3.128	n/a	310.143
282.833	2.002	Blank	16	Picture	BLANK	2	1.125	n/a	315.137
285.96	n/a	ConfirmRating	16	Response	n/a	2	n/a	6	318.265
285.963	6.001	ITI	17	Picture	Fixation+	1	10.339	n/a	318.267
291.964	2.006	Cue	17	Picture	Maintain	1	8.333	n/a	324.269
293.97	4.994	Pic	17	Picture	IAPS_05	1	3.339	n/a	326.274
298.964	2.002	Blank	17	Picture	BLANK	1	1.337	n/a	331.268
302.303	n/a	ConfirmRating	17	Response	n/a	1	n/a	7	334.608
302.326	4.012	ITI	18	Picture	Fixation+	3	14.413	n/a	334.63
306.338	2.006	Cue	18	Picture	Suppress	3	12.407	n/a	338.642
308.344	4.994	Pic	18	Picture	IAPS_40	3	7.413	n/a	340.648
313.338	2.002	Blank	18	Picture	BLANK	3	5.411	n/a	345.642
320.751	n/a	ConfirmRating	18	Response	n/a	3	n/a	5	353.055
320.778	5.006	ITI	19	Picture	Fixation+	4	10.532	n/a	353.083
325.785	2.006	Cue	19	Picture	Maintain	4	8.526	n/a	358.089
327.79	4.994	Pic	19	Picture	IAPS_58	4	3.532	n/a	360.095
332.784	2.002	Blank	19	Picture	BLANK	4	1.53	n/a	365.089
336.316	n/a	ConfirmRating	19	Response	n/a	4	n/a	7	368.621
336.345	6.001	ITI	20	Picture	Fixation+	4	11.445	n/a	368.65
342.347	2.006	Cue	20	Picture	Maintain	4	9.439	n/a	374.651
344.353	4.994	Pic	20	Picture	IAPS_47	4	4.445	n/a	376.657
349.347	2.002	Blank	20	Picture	BLANK	4	2.442	n/a	381.651
353.791	n/a	ConfirmRating	20	Response	n/a	4	n/a	7	386.096
353.803	5.006	ITI	21	Picture	Fixation+	3	10.205	n/a	386.107
358.81	2.006	Cue	21	Picture	Suppress	3	8.199	n/a	391.114
360.815	4.994	Pic	21	Picture	IAPS_41	3	3.205	n/a	393.12
365.809	2.002	Blank	21	Picture	BLANK	3	1.202	n/a	398.114
369.014	n/a	ConfirmRating	21	Response	n/a	3	n/a	6	401.318
369.039	4.012	ITI	22	Picture	Fixation+	1	12.807	n/a	401.343
373.051	2.006	Cue	22	Picture	Maintain	1	10.801	n/a	405.355
375.056	4.994	Pic	22	Picture	IAPS_06	1	5.807	n/a	407.361
380.05	2.002	Blank	22	Picture	BLANK	1	3.805	n/a	412.355
385.858	n/a	ConfirmRating	22	Response	n/a	1	n/a	6	418.162
385.866	4.012	ITI	23	Picture	Fixation+	2	11.872	n/a	418.171
389.878	2.006	Cue	23	Picture	Enhance	2	9.866	n/a	422.183
391.884	4.994	Pic	23	Picture	IAPS_16	2	4.873	n/a	424.188
396.878	2.002	Blank	23	Picture	BLANK	2	2.87	n/a	429.182
401.75	n/a	ConfirmRating	23	Response	n/a	2	n/a	5	434.055
401.765	5.006	ITI	24	Picture	Fixation+	1	10.029	n/a	434.07
406.772	2.006	Cue	24	Picture	Maintain	1	8.023	n/a	439.077
408.778	4.994	Pic	24	Picture	IAPS_07	1	3.029	n/a	441.082
413.772	2.002	Blank	24	Picture	BLANK	1	1.027	n/a	446.076
416.801	n/a	ConfirmRating	24	Response	n/a	1	n/a	7	449.106
416.802	4.012	ITI	25	Picture	Fixation+	2	10.023	n/a	449.107
420.814	2.006	Cue	25	Picture	Enhance	2	8.017	n/a	453.119
422.82	4.994	Pic	25	Picture	IAPS_17	2	3.023	n/a	455.124
427.814	2.002	Blank	25	Picture	BLANK	2	1.021	n/a	460.118
430.837	n/a	ConfirmRating	25	Response	n/a	2	n/a	6	463.141
430.844	6.001	ITI	26	Picture	Fixation+	4	12.956	n/a	463.149
436.846	2.006	Cue	26	Picture	Maintain	4	10.95	n/a	469.15
438.851	4.994	Pic	26	Picture	IAPS_50	4	5.956	n/a	471.156
443.845	2.002	Blank	26	Picture	BLANK	4	3.954	n/a	476.15
449.801	n/a	ConfirmRating	26	Response	n/a	4	n/a	7	482.106
449.827	5.006	ITI	27	Picture	Fixation+	3	10.208	n/a	482.131
454.834	2.006	Cue	27	Picture	Suppress	3	8.202	n/a	487.138
456.839	4.994	Pic	27	Picture	IAPS_42	3	3.208	n/a	489.144
461.833	2.002	Blank	27	Picture	BLANK	3	1.206	n/a	494.138
465.041	n/a	ConfirmRating	27	Response	n/a	3	n/a	6	497.346
465.063	5.006	ITI	28	Picture	Fixation+	2	11.503	n/a	497.367
470.07	2.006	Cue	28	Picture	Enhance	2	9.497	n/a	502.374
472.075	4.994	Pic	28	Picture	IAPS_18	2	4.503	n/a	504.38
477.069	2.002	Blank	28	Picture	BLANK	2	2.5	n/a	509.374
481.572	n/a	ConfirmRating	28	Response	n/a	2	n/a	7	513.876
481.592	4.012	ITI	29	Picture	Fixation+	3	11.631	n/a	513.896
485.604	2.006	Cue	29	Picture	Suppress	3	9.625	n/a	517.908
487.609	4.994	Pic	29	Picture	IAPS_43	3	4.631	n/a	519.914
492.603	2.002	Blank	29	Picture	BLANK	3	2.629	n/a	524.908
497.234	n/a	ConfirmRating	29	Response	n/a	3	n/a	7	529.539
497.259	15.003	Rest	29	Picture	Rest	n/a	-15.028	n/a	529.563
512.262	5.006	ITI	30	Picture	Fixation+	4	10.112	n/a	544.567
517.269	2.006	Cue	30	Picture	Maintain	4	8.106	n/a	549.574
519.275	4.994	Pic	30	Picture	IAPS_53	4	3.112	n/a	551.579
524.269	2.002	Blank	30	Picture	BLANK	4	1.11	n/a	556.573
527.381	n/a	ConfirmRating	30	Response	n/a	4	n/a	7	559.686
527.399	6.001	ITI	31	Picture	Fixation+	1	10.336	n/a	559.703
533.4	2.006	Cue	31	Picture	Maintain	1	8.33	n/a	565.705
535.406	4.994	Pic	31	Picture	IAPS_08	1	3.336	n/a	567.711
540.4	2.002	Blank	31	Picture	BLANK	1	1.333	n/a	572.705
543.736	n/a	ConfirmRating	31	Response	n/a	1	n/a	7	576.04
543.762	4.012	ITI	32	Picture	Fixation+	3	10.96	n/a	576.067
547.774	2.006	Cue	32	Picture	Suppress	3	8.954	n/a	580.079
549.78	4.994	Pic	32	Picture	IAPS_44	3	3.96	n/a	582.084
554.774	2.002	Blank	32	Picture	BLANK	3	1.957	n/a	587.078
558.733	n/a	ConfirmRating	32	Response	n/a	3	n/a	7	591.038
558.766	5.006	ITI	33	Picture	Fixation+	1	10.102	n/a	591.07
563.773	2.006	Cue	33	Picture	Maintain	1	8.096	n/a	596.077
565.778	4.994	Pic	33	Picture	IAPS_09	1	3.102	n/a	598.083
570.772	2.002	Blank	33	Picture	BLANK	1	1.1	n/a	603.077
573.874	n/a	ConfirmRating	33	Response	n/a	1	n/a	7	606.179
573.902	4.012	ITI	34	Picture	Fixation+	2	10.33	n/a	606.207
577.914	2.006	Cue	34	Picture	Enhance	2	8.324	n/a	610.219
579.92	4.994	Pic	34	Picture	IAPS_19	2	3.33	n/a	612.225
584.914	2.002	Blank	34	Picture	BLANK	2	1.328	n/a	617.218
588.244	n/a	ConfirmRating	34	Response	n/a	2	n/a	6	620.548
588.276	6.001	ITI	35	Picture	Fixation+	4	11.148	n/a	620.581
594.277	2.006	Cue	35	Picture	Maintain	4	9.141	n/a	626.582
596.283	4.994	Pic	35	Picture	IAPS_56	4	4.147	n/a	628.588
601.277	2.002	Blank	35	Picture	BLANK	4	2.145	n/a	633.582
605.424	n/a	ConfirmRating	35	Response	n/a	4	n/a	7	637.729
605.435	5.006	ITI	36	Picture	Fixation+	3	11.34	n/a	637.74
610.442	2.006	Cue	36	Picture	Suppress	3	9.334	n/a	642.746
612.447	4.994	Pic	36	Picture	IAPS_45	3	4.34	n/a	644.752
617.441	2.002	Blank	36	Picture	BLANK	3	2.338	n/a	649.746
621.781	n/a	ConfirmRating	36	Response	n/a	3	n/a	6	654.086
621.798	6.001	ITI	37	Picture	Fixation+	4	10.336	n/a	654.103
627.8	2.006	Cue	37	Picture	Maintain	4	8.33	n/a	660.104
629.805	4.994	Pic	37	Picture	IAPS_59	4	3.336	n/a	662.11
634.799	2.002	Blank	37	Picture	BLANK	4	1.333	n/a	667.104
638.135	n/a	ConfirmRating	37	Response	n/a	4	n/a	7	670.439
638.161	5.006	ITI	38	Picture	Fixation+	2	10.243	n/a	670.466
643.168	2.006	Cue	38	Picture	Enhance	2	8.237	n/a	675.473
645.174	4.994	Pic	38	Picture	IAPS_20	2	3.243	n/a	677.478
650.168	2.002	Blank	38	Picture	BLANK	2	1.241	n/a	682.472
653.411	n/a	ConfirmRating	38	Response	n/a	2	n/a	5	685.715
653.43	4.012	ITI	39	Picture	Fixation+	1	9.925	n/a	685.735
657.442	2.006	Cue	39	Picture	Maintain	1	7.919	n/a	689.747
659.448	4.994	Pic	39	Picture	IAPS_10	1	2.925	n/a	691.753
664.442	2.002	Blank	39	Picture	BLANK	1	0.923	n/a	696.747
667.367	n/a	ConfirmRating	39	Response	n/a	1	n/a	5	699.672
667.373	6.001	ITI	40	Picture	Fixation+	4	11.15	n/a	699.678
673.375	2.006	Cue	40	Picture	Maintain	4	9.144	n/a	705.679
675.38	4.994	Pic	40	Picture	IAPS_48	4	4.15	n/a	707.685
680.374	2.002	Blank	40	Picture	BLANK	4	2.148	n/a	712.679
684.524	n/a	ConfirmRating	40	Response	n/a	4	n/a	7	716.829
684.532	5.006	ITI	41	Picture	Fixation+	3	10.29	n/a	716.837
689.539	2.006	Cue	41	Picture	Suppress	3	8.284	n/a	721.843
691.544	4.994	Pic	41	Picture	IAPS_31	3	3.29	n/a	723.849
696.538	2.002	Blank	41	Picture	BLANK	3	1.288	n/a	728.843
699.829	n/a	ConfirmRating	41	Response	n/a	3	n/a	7	732.133
699.834	6.001	ITI	42	Picture	Fixation+	2	12.691	n/a	732.139
705.836	2.006	Cue	42	Picture	Enhance	2	10.685	n/a	738.14
707.841	4.994	Pic	42	Picture	IAPS_21	2	5.691	n/a	740.146
712.835	2.002	Blank	42	Picture	BLANK	2	3.689	n/a	745.14
718.526	n/a	ConfirmRating	42	Response	n/a	2	n/a	6	750.831
718.552	4.012	ITI	43	Picture	Fixation+	1	10.634	n/a	750.856
722.564	2.006	Cue	43	Picture	Maintain	1	8.628	n/a	754.868
724.569	4.994	Pic	43	Picture	IAPS_11	1	3.634	n/a	756.874
729.563	2.002	Blank	43	Picture	BLANK	1	1.632	n/a	761.868
733.197	n/a	ConfirmRating	43	Response	n/a	1	n/a	7	765.502
733.224	5.006	ITI	44	Picture	Fixation+	2	11.667	n/a	765.528
738.231	2.006	Cue	44	Picture	Enhance	2	9.661	n/a	770.535
740.236	4.994	Pic	44	Picture	IAPS_22	2	4.667	n/a	772.541
745.23	2.002	Blank	44	Picture	BLANK	2	2.664	n/a	777.535
749.897	n/a	ConfirmRating	44	Response	n/a	2	n/a	6	782.202
749.919	5.006	ITI	45	Picture	Fixation+	4	10.556	n/a	782.223
754.925	2.006	Cue	45	Picture	Maintain	4	8.549	n/a	787.23
756.931	4.994	Pic	45	Picture	IAPS_51	4	3.556	n/a	789.236
761.925	2.002	Blank	45	Picture	BLANK	4	1.553	n/a	794.23
765.481	n/a	ConfirmRating	45	Response	n/a	4	n/a	6	797.785
765.486	4.012	ITI	46	Picture	Fixation+	3	10.279	n/a	797.791
769.498	2.006	Cue	46	Picture	Suppress	3	8.273	n/a	801.803
771.504	4.994	Pic	46	Picture	IAPS_32	3	3.279	n/a	803.808
776.498	2.002	Blank	46	Picture	BLANK	3	1.276	n/a	808.802
779.776	n/a	ConfirmRating	46	Response	n/a	3	n/a	7	812.081
779.793	5.006	ITI	47	Picture	Fixation+	1	10.14	n/a	812.098
784.8	2.006	Cue	47	Picture	Maintain	1	8.134	n/a	817.105
786.806	4.994	Pic	47	Picture	IAPS_12	1	3.14	n/a	819.111
791.8	2.002	Blank	47	Picture	BLANK	1	1.138	n/a	824.105
794.94	n/a	ConfirmRating	47	Response	n/a	1	n/a	7	827.245
794.963	4.012	ITI	48	Picture	Fixation+	3	13.224	n/a	827.268
798.975	2.006	Cue	48	Picture	Suppress	3	11.218	n/a	831.28
800.981	4.994	Pic	48	Picture	IAPS_33	3	6.224	n/a	833.285
805.975	2.002	Blank	48	Picture	BLANK	3	4.222	n/a	838.279
812.199	n/a	ConfirmRating	48	Response	n/a	3	n/a	5	844.503
812.221	5.006	ITI	49	Picture	Fixation+	4	10.563	n/a	844.526
817.228	2.006	Cue	49	Picture	Maintain	4	8.557	n/a	849.533
819.234	4.994	Pic	49	Picture	IAPS_54	4	3.563	n/a	851.538
824.228	2.002	Blank	49	Picture	BLANK	4	1.56	n/a	856.533
827.79	n/a	ConfirmRating	49	Response	n/a	4	n/a	7	860.095
827.822	5.006	ITI	50	Picture	Fixation+	1	11.452	n/a	860.127
832.829	2.006	Cue	50	Picture	Maintain	1	9.446	n/a	865.134
834.834	4.994	Pic	50	Picture	IAPS_13	1	4.452	n/a	867.139
839.828	2.002	Blank	50	Picture	BLANK	1	2.449	n/a	872.133
844.28	n/a	ConfirmRating	50	Response	n/a	1	n/a	6	876.585
844.285	4.012	ITI	51	Picture	Fixation+	2	10.021	n/a	876.589
848.297	2.006	Cue	51	Picture	Enhance	2	8.015	n/a	880.601
850.302	4.994	Pic	51	Picture	IAPS_23	2	3.021	n/a	882.607
855.296	2.002	Blank	51	Picture	BLANK	2	1.019	n/a	887.601
858.318	n/a	ConfirmRating	51	Response	n/a	2	n/a	6	890.622
858.327	5.006	ITI	52	Picture	Fixation+	1	10.612	n/a	890.632
863.334	2.006	Cue	52	Picture	Maintain	1	8.606	n/a	895.638
865.339	4.994	Pic	52	Picture	IAPS_14	1	3.612	n/a	897.644
870.333	2.002	Blank	52	Picture	BLANK	1	1.61	n/a	902.638
873.946	n/a	ConfirmRating	52	Response	n/a	1	n/a	7	906.25
873.961	5.006	ITI	53	Picture	Fixation+	4	11.145	n/a	906.265
878.967	2.006	Cue	53	Picture	Maintain	4	9.139	n/a	911.272
880.973	4.994	Pic	53	Picture	IAPS_57	4	4.145	n/a	913.278
885.967	2.002	Blank	53	Picture	BLANK	4	2.143	n/a	918.272
890.112	n/a	ConfirmRating	53	Response	n/a	4	n/a	7	922.417
890.125	6.001	ITI	54	Picture	Fixation+	3	10.699	n/a	922.43
896.126	2.006	Cue	54	Picture	Suppress	3	8.693	n/a	928.431
898.132	4.994	Pic	54	Picture	IAPS_34	3	3.699	n/a	930.437
903.126	2.002	Blank	54	Picture	BLANK	3	1.697	n/a	935.431
906.825	n/a	ConfirmRating	54	Response	n/a	3	n/a	7	939.13
906.853	5.006	ITI	55	Picture	Fixation+	2	11.257	n/a	939.158
911.86	2.006	Cue	55	Picture	Enhance	2	9.251	n/a	944.164
913.865	4.994	Pic	55	Picture	IAPS_24	2	4.257	n/a	946.17
918.859	2.002	Blank	55	Picture	BLANK	2	2.255	n/a	951.164
923.117	0.033	ConfirmRating	55	Response	n/a	2	-0.033	7	955.421
923.149	5.0	ITI	56	Picture	Fixation+	1	11.292	n/a	955.454
928.173	2.0	Cue	56	Picture	Maintain	1	9.269	n/a	960.477
930.173	4.98	Pic	56	Picture	IAPS_15	1	4.289	n/a	962.477
935.152	2.0	Blank	56	Picture	BLANK	1	2.289	n/a	967.457
939.441	n/a	ConfirmRating	56	Response	n/a	1	n/a	7	971.746
939.463	6.001	ITI	57	Picture	Fixation+	3	11.314	n/a	971.768
945.465	2.006	Cue	57	Picture	Suppress	3	9.308	n/a	977.769
947.47	4.994	Pic	57	Picture	IAPS_35	3	4.314	n/a	979.775
952.464	2.002	Blank	57	Picture	BLANK	3	2.311	n/a	984.769
956.778	n/a	ConfirmRating	57	Response	n/a	3	n/a	7	989.083
956.788	4.012	ITI	58	Picture	Fixation+	4	10.432	n/a	989.093
960.8	2.006	Cue	58	Picture	Maintain	4	8.426	n/a	993.105
962.806	4.994	Pic	58	Picture	IAPS_60	4	3.432	n/a	995.11
967.8	2.002	Blank	58	Picture	BLANK	4	1.43	n/a	1000.104
971.232	n/a	ConfirmRating	58	Response	n/a	4	n/a	7	1003.536
971.261	6.001	ITI	59	Picture	Fixation+	2	10.029	n/a	1003.566
977.263	2.006	Cue	59	Picture	Enhance	2	8.023	n/a	1009.567
979.268	4.994	Pic	59	Picture	IAPS_25	2	3.029	n/a	1011.573
984.262	2.002	Blank	59	Picture	BLANK	2	1.027	n/a	1016.567
987.291	n/a	ConfirmRating	59	Response	n/a	2	n/a	5	1019.596
