onset	duration	trial_type	event_type	time_until_response	response_time	trial_number	block_num_within_trial	image_seq_num_within_block	question_seq_num_within_block	image_seq_num	picture_number	condition	question_type	block_type	rating	rating_computed	onset_uncorrected	KDEV_imagefile
0.015	10.014	ITI	Fixation+	98.168	n/a	1	n/a	n/a	n/a	n/a	n/a	n/a	n/a	n/a	n/a	n/a	27.383	n/a
10.045	0.497	happy	Picture	97.654	n/a	1	1	1	n/a	1	108	3	n/a	n/a	n/a	n/a	37.413	AM09ANS.jpg
10.542	0.514	Blank	Blank	97.141	n/a	1	1	1	n/a	1	n/a	3	n/a	n/a	n/a	n/a	37.91	n/a
11.073	0.497	happy	Picture	96.627	n/a	1	1	2	n/a	2	99	3	n/a	n/a	n/a	n/a	38.441	AF31ANS.jpg
11.57	0.514	Blank	Blank	96.113	n/a	1	1	2	n/a	2	n/a	3	n/a	n/a	n/a	n/a	38.938	n/a
12.101	0.497	happy	Picture	95.599	n/a	1	1	3	n/a	3	98	3	n/a	n/a	n/a	n/a	39.468	BF29ANS.jpg
12.598	0.514	Blank	Blank	95.085	n/a	1	1	3	n/a	3	n/a	3	n/a	n/a	n/a	n/a	39.966	n/a
13.129	0.497	happy	Picture	94.571	n/a	1	1	4	n/a	4	107	3	n/a	n/a	n/a	n/a	40.496	BM08ANS.jpg
13.626	0.514	Blank	Blank	94.057	n/a	1	1	4	n/a	4	n/a	3	n/a	n/a	n/a	n/a	40.994	n/a
14.157	0.497	happy	Picture	93.543	n/a	1	1	5	n/a	5	104	3	n/a	n/a	n/a	n/a	41.524	BM05ANS.jpg
14.654	0.514	Blank	Blank	93.029	n/a	1	1	5	n/a	5	n/a	3	n/a	n/a	n/a	n/a	42.022	n/a
15.184	0.497	happy	Picture	92.515	n/a	1	1	6	n/a	6	101	3	n/a	n/a	n/a	n/a	42.552	AM01ANS.jpg
15.682	0.514	Blank	Blank	92.001	n/a	1	1	6	n/a	6	n/a	3	n/a	n/a	n/a	n/a	43.05	n/a
16.212	0.497	happy	Picture	91.487	n/a	1	1	7	n/a	7	103	3	n/a	n/a	n/a	n/a	43.58	AM04ANS.jpg
16.71	0.514	Blank	Blank	90.973	n/a	1	1	7	n/a	7	n/a	3	n/a	n/a	n/a	n/a	44.077	n/a
17.24	0.497	happy	Picture	90.459	n/a	1	1	8	n/a	8	111	3	n/a	n/a	n/a	n/a	44.608	BM12ANS.jpg
17.738	0.514	Blank	Blank	89.945	n/a	1	1	8	n/a	8	n/a	3	n/a	n/a	n/a	n/a	45.105	n/a
18.268	0.497	happy	Picture	89.431	n/a	1	1	9	n/a	9	110	3	n/a	n/a	n/a	n/a	45.636	AM11ANS.jpg
18.765	0.514	Blank	Blank	88.917	n/a	1	1	9	n/a	9	n/a	3	n/a	n/a	n/a	n/a	46.133	n/a
19.296	0.497	happy	Picture	88.404	n/a	1	1	10	n/a	10	85	3	n/a	n/a	n/a	n/a	46.664	BF07ANS.jpg
19.793	0.514	Blank	Blank	87.89	n/a	1	1	10	n/a	10	n/a	3	n/a	n/a	n/a	n/a	47.161	n/a
20.324	0.497	happy	Picture	87.376	n/a	1	1	11	n/a	11	87	3	n/a	n/a	n/a	n/a	47.691	BF11ANS.jpg
20.821	0.514	Blank	Blank	86.862	n/a	1	1	11	n/a	11	n/a	3	n/a	n/a	n/a	n/a	48.189	n/a
21.352	0.497	happy	Picture	86.348	n/a	1	1	12	n/a	12	91	3	n/a	n/a	n/a	n/a	48.719	AF20ANS.jpg
21.849	0.514	Blank	Blank	85.834	n/a	1	1	12	n/a	12	n/a	3	n/a	n/a	n/a	n/a	49.217	n/a
22.38	0.497	happy	Picture	85.32	n/a	1	1	13	n/a	13	115	3	n/a	n/a	n/a	n/a	49.747	AM23ANS.jpg
22.877	0.514	Blank	Blank	84.806	n/a	1	1	13	n/a	13	n/a	3	n/a	n/a	n/a	n/a	50.245	n/a
23.407	0.497	happy	Picture	84.292	n/a	1	1	14	n/a	14	97	3	n/a	n/a	n/a	n/a	50.775	BF28ANS.jpg
23.905	0.514	Blank	Blank	83.778	n/a	1	1	14	n/a	14	n/a	3	n/a	n/a	n/a	n/a	51.273	n/a
24.435	0.497	happy	Picture	83.264	n/a	1	1	15	n/a	15	82	3	n/a	n/a	n/a	n/a	51.803	AF03ANS.jpg
24.933	0.514	Blank	Blank	82.75	n/a	1	1	15	n/a	15	n/a	3	n/a	n/a	n/a	n/a	52.3	n/a
25.463	0.497	happy	Picture	82.236	n/a	1	1	16	n/a	16	96	3	n/a	n/a	n/a	n/a	52.831	AF26ANS.jpg
25.961	0.514	Blank	Blank	81.722	n/a	1	1	16	n/a	16	n/a	3	n/a	n/a	n/a	n/a	53.328	n/a
26.491	0.497	happy	Picture	81.208	n/a	1	1	17	n/a	17	109	3	n/a	n/a	n/a	n/a	53.859	AM10ANS.jpg
26.988	0.514	Blank	Blank	80.694	n/a	1	1	17	n/a	17	n/a	3	n/a	n/a	n/a	n/a	54.356	n/a
27.519	0.497	happy	Picture	80.181	n/a	1	1	18	n/a	18	114	3	n/a	n/a	n/a	n/a	54.887	AM22ANS.jpg
28.016	0.514	Blank	Blank	79.667	n/a	1	1	18	n/a	18	n/a	3	n/a	n/a	n/a	n/a	55.384	n/a
28.547	0.497	happy	Picture	79.153	n/a	1	1	19	n/a	19	120	3	n/a	n/a	n/a	n/a	55.914	AM35ANS.jpg
29.044	0.514	Blank	Blank	78.639	n/a	1	1	19	n/a	19	n/a	3	n/a	n/a	n/a	n/a	56.412	n/a
29.575	0.497	happy	Picture	78.125	n/a	1	1	20	n/a	20	81	3	n/a	n/a	n/a	n/a	56.942	AF01ANS.jpg
30.072	0.514	Blank	Blank	77.611	n/a	1	1	20	n/a	20	n/a	3	n/a	n/a	n/a	n/a	57.44	n/a
30.603	10.014	ITI	Fixation+	67.581	n/a	1	n/a	n/a	n/a	n/a	n/a	n/a	n/a	n/a	n/a	n/a	57.97	n/a
40.633	0.497	neutral	Picture	67.067	n/a	1	2	1	n/a	21	28	1	n/a	n/a	n/a	n/a	68.0	AM09NES.jpg
41.13	0.514	Blank	Blank	66.553	n/a	1	2	1	n/a	21	n/a	1	n/a	n/a	n/a	n/a	68.498	n/a
41.661	0.497	neutral	Picture	66.039	n/a	1	2	2	n/a	22	27	1	n/a	n/a	n/a	n/a	69.028	BM08NES.jpg
42.158	0.514	Blank	Blank	65.525	n/a	1	2	2	n/a	22	n/a	1	n/a	n/a	n/a	n/a	69.526	n/a
42.689	0.497	neutral	Picture	65.011	n/a	1	2	3	n/a	23	16	1	n/a	n/a	n/a	n/a	70.056	AF26NES.jpg
43.186	0.514	Blank	Blank	64.497	n/a	1	2	3	n/a	23	n/a	1	n/a	n/a	n/a	n/a	70.553	n/a
43.716	0.497	neutral	Picture	63.983	n/a	1	2	4	n/a	24	3	1	n/a	n/a	n/a	n/a	71.084	BF04NES.jpg
44.214	0.514	Blank	Blank	63.469	n/a	1	2	4	n/a	24	n/a	1	n/a	n/a	n/a	n/a	71.581	n/a
44.744	0.497	neutral	Picture	62.955	n/a	1	2	5	n/a	25	32	1	n/a	n/a	n/a	n/a	72.112	AM14NES.jpg
45.242	0.514	Blank	Blank	62.441	n/a	1	2	5	n/a	25	n/a	1	n/a	n/a	n/a	n/a	72.609	n/a
45.772	0.497	neutral	Picture	61.927	n/a	1	2	6	n/a	26	37	1	n/a	n/a	n/a	n/a	73.14	BM25NES.jpg
46.269	0.514	Blank	Blank	61.413	n/a	1	2	6	n/a	26	n/a	1	n/a	n/a	n/a	n/a	73.637	n/a
46.8	0.497	neutral	Picture	60.9	n/a	1	2	7	n/a	27	15	1	n/a	n/a	n/a	n/a	74.168	AF25NES.jpg
47.297	0.514	Blank	Blank	60.386	n/a	1	2	7	n/a	27	n/a	1	n/a	n/a	n/a	n/a	74.665	n/a
47.828	0.497	neutral	Picture	59.872	n/a	1	2	8	n/a	28	23	1	n/a	n/a	n/a	n/a	75.195	AM04NES.jpg
48.325	0.514	Blank	Blank	59.358	n/a	1	2	8	n/a	28	n/a	1	n/a	n/a	n/a	n/a	75.693	n/a
48.856	0.497	neutral	Picture	58.844	n/a	1	2	9	n/a	29	34	1	n/a	n/a	n/a	n/a	76.223	AM22NES.jpg
49.353	0.514	Blank	Blank	58.33	n/a	1	2	9	n/a	29	n/a	1	n/a	n/a	n/a	n/a	76.721	n/a
49.884	0.497	neutral	Picture	57.816	n/a	1	2	10	n/a	30	24	1	n/a	n/a	n/a	n/a	77.251	BM05NES.jpg
50.381	0.514	Blank	Blank	57.302	n/a	1	2	10	n/a	30	n/a	1	n/a	n/a	n/a	n/a	77.749	n/a
50.912	0.497	neutral	Picture	56.788	n/a	1	2	11	n/a	31	12	1	n/a	n/a	n/a	n/a	78.279	AF21NES.jpg
51.409	0.514	Blank	Blank	56.274	n/a	1	2	11	n/a	31	n/a	1	n/a	n/a	n/a	n/a	78.776	n/a
51.939	0.497	neutral	Picture	55.76	n/a	1	2	12	n/a	32	6	1	n/a	n/a	n/a	n/a	79.307	AF09NES.jpg
52.437	0.514	Blank	Blank	55.246	n/a	1	2	12	n/a	32	n/a	1	n/a	n/a	n/a	n/a	79.804	n/a
52.967	0.497	neutral	Picture	54.732	n/a	1	2	13	n/a	33	17	1	n/a	n/a	n/a	n/a	80.335	BF28NES.jpg
53.465	0.514	Blank	Blank	54.218	n/a	1	2	13	n/a	33	n/a	1	n/a	n/a	n/a	n/a	80.832	n/a
53.995	0.497	neutral	Picture	53.704	n/a	1	2	14	n/a	34	2	1	n/a	n/a	n/a	n/a	81.363	AF03NES.jpg
54.493	0.514	Blank	Blank	53.19	n/a	1	2	14	n/a	34	n/a	1	n/a	n/a	n/a	n/a	81.86	n/a
55.023	0.497	neutral	Picture	52.677	n/a	1	2	15	n/a	35	9	1	n/a	n/a	n/a	n/a	82.391	AF17NES.jpg
55.52	0.514	Blank	Blank	52.163	n/a	1	2	15	n/a	35	n/a	1	n/a	n/a	n/a	n/a	82.888	n/a
56.051	0.497	neutral	Picture	51.649	n/a	1	2	16	n/a	36	25	1	n/a	n/a	n/a	n/a	83.419	BM06NES.jpg
56.548	0.514	Blank	Blank	51.135	n/a	1	2	16	n/a	36	n/a	1	n/a	n/a	n/a	n/a	83.916	n/a
57.079	0.497	neutral	Picture	50.621	n/a	1	2	17	n/a	37	8	1	n/a	n/a	n/a	n/a	84.446	AF14NES.jpg
57.576	0.514	Blank	Blank	50.107	n/a	1	2	17	n/a	37	n/a	1	n/a	n/a	n/a	n/a	84.944	n/a
58.107	0.497	neutral	Picture	49.593	n/a	1	2	18	n/a	38	19	1	n/a	n/a	n/a	n/a	85.474	AF31NES.jpg
58.604	0.514	Blank	Blank	49.079	n/a	1	2	18	n/a	38	n/a	1	n/a	n/a	n/a	n/a	85.972	n/a
59.135	0.497	neutral	Picture	48.565	n/a	1	2	19	n/a	39	14	1	n/a	n/a	n/a	n/a	86.502	AF23NES.jpg
59.632	0.514	Blank	Blank	48.051	n/a	1	2	19	n/a	39	n/a	1	n/a	n/a	n/a	n/a	87.0	n/a
60.162	0.497	neutral	Picture	47.537	n/a	1	2	20	n/a	40	4	1	n/a	n/a	n/a	n/a	87.53	AF05NES.jpg
60.66	0.514	Blank	Blank	47.023	n/a	1	2	20	n/a	40	n/a	1	n/a	n/a	n/a	n/a	88.027	n/a
61.19	10.014	ITI	Fixation+	36.993	n/a	1	n/a	n/a	n/a	n/a	n/a	n/a	n/a	n/a	n/a	n/a	88.558	n/a
71.22	0.497	happy	Picture	36.479	n/a	1	3	1	n/a	41	84	3	n/a	n/a	n/a	n/a	98.588	AF05ANS.jpg
71.718	0.514	Blank	Blank	35.965	n/a	1	3	1	n/a	41	n/a	3	n/a	n/a	n/a	n/a	99.085	n/a
72.248	0.497	happy	Picture	35.451	n/a	1	3	2	n/a	42	92	3	n/a	n/a	n/a	n/a	99.616	AF21ANS.jpg
72.746	0.514	Blank	Blank	34.937	n/a	1	3	2	n/a	42	n/a	3	n/a	n/a	n/a	n/a	100.113	n/a
73.276	0.497	happy	Picture	34.423	n/a	1	3	3	n/a	43	86	3	n/a	n/a	n/a	n/a	100.644	AF09ANS.jpg
73.773	0.514	Blank	Blank	33.909	n/a	1	3	3	n/a	43	n/a	3	n/a	n/a	n/a	n/a	101.141	n/a
74.304	0.497	happy	Picture	33.395	n/a	1	3	4	n/a	44	93	3	n/a	n/a	n/a	n/a	101.672	BF22ANS.jpg
74.801	0.514	Blank	Blank	32.882	n/a	1	3	4	n/a	44	n/a	3	n/a	n/a	n/a	n/a	102.169	n/a
75.332	0.497	happy	Picture	32.368	n/a	1	3	5	n/a	45	88	3	n/a	n/a	n/a	n/a	102.7	AF14ANS.jpg
75.829	0.514	Blank	Blank	31.854	n/a	1	3	5	n/a	45	n/a	3	n/a	n/a	n/a	n/a	103.197	n/a
76.36	0.497	happy	Picture	31.34	n/a	1	3	6	n/a	46	113	3	n/a	n/a	n/a	n/a	103.727	AM21ANS.jpg
76.857	0.514	Blank	Blank	30.826	n/a	1	3	6	n/a	46	n/a	3	n/a	n/a	n/a	n/a	104.225	n/a
77.388	0.497	happy	Picture	30.312	n/a	1	3	7	n/a	47	95	3	n/a	n/a	n/a	n/a	104.755	AF25ANS.jpg
77.885	0.514	Blank	Blank	29.798	n/a	1	3	7	n/a	47	n/a	3	n/a	n/a	n/a	n/a	105.253	n/a
78.415	0.497	happy	Picture	29.284	n/a	1	3	8	n/a	48	102	3	n/a	n/a	n/a	n/a	105.783	BM03ANS.jpg
78.913	0.514	Blank	Blank	28.77	n/a	1	3	8	n/a	48	n/a	3	n/a	n/a	n/a	n/a	106.281	n/a
79.443	0.497	happy	Picture	28.256	n/a	1	3	9	n/a	49	112	3	n/a	n/a	n/a	n/a	106.811	AM14ANS.jpg
79.941	0.514	Blank	Blank	27.742	n/a	1	3	9	n/a	49	n/a	3	n/a	n/a	n/a	n/a	107.308	n/a
80.471	0.497	happy	Picture	27.228	n/a	1	3	10	n/a	50	83	3	n/a	n/a	n/a	n/a	107.839	BF04ANS.jpg
80.969	0.514	Blank	Blank	26.714	n/a	1	3	10	n/a	50	n/a	3	n/a	n/a	n/a	n/a	108.336	n/a
81.499	0.497	happy	Picture	26.2	n/a	1	3	11	n/a	51	90	3	n/a	n/a	n/a	n/a	108.867	AF18ANS.jpg
81.996	0.514	Blank	Blank	25.686	n/a	1	3	11	n/a	51	n/a	3	n/a	n/a	n/a	n/a	109.364	n/a
82.527	0.497	happy	Picture	25.172	n/a	1	3	12	n/a	52	117	3	n/a	n/a	n/a	n/a	109.895	BM25ANS.jpg
83.024	0.514	Blank	Blank	24.659	n/a	1	3	12	n/a	52	n/a	3	n/a	n/a	n/a	n/a	110.392	n/a
83.555	0.497	happy	Picture	24.145	n/a	1	3	13	n/a	53	94	3	n/a	n/a	n/a	n/a	110.923	AF23ANS.jpg
84.052	0.514	Blank	Blank	23.631	n/a	1	3	13	n/a	53	n/a	3	n/a	n/a	n/a	n/a	111.42	n/a
84.583	0.497	happy	Picture	23.117	n/a	1	3	14	n/a	54	106	3	n/a	n/a	n/a	n/a	111.951	AM07ANS.jpg
85.08	0.514	Blank	Blank	22.603	n/a	1	3	14	n/a	54	n/a	3	n/a	n/a	n/a	n/a	112.448	n/a
85.611	0.497	happy	Picture	22.089	n/a	1	3	15	n/a	55	105	3	n/a	n/a	n/a	n/a	112.978	BM06ANS.jpg
86.108	0.514	Blank	Blank	21.575	n/a	1	3	15	n/a	55	n/a	3	n/a	n/a	n/a	n/a	113.476	n/a
86.639	0.497	happy	Picture	21.061	n/a	1	3	16	n/a	56	116	3	n/a	n/a	n/a	n/a	114.006	BM24ANS.jpg
87.136	0.514	Blank	Blank	20.547	n/a	1	3	16	n/a	56	n/a	3	n/a	n/a	n/a	n/a	114.504	n/a
87.666	0.497	happy	Picture	20.033	n/a	1	3	17	n/a	57	89	3	n/a	n/a	n/a	n/a	115.034	AF17ANS.jpg
88.164	0.514	Blank	Blank	19.519	n/a	1	3	17	n/a	57	n/a	3	n/a	n/a	n/a	n/a	115.531	n/a
88.694	0.497	happy	Picture	19.005	n/a	1	3	18	n/a	58	118	3	n/a	n/a	n/a	n/a	116.062	BM26ANS.jpg
89.192	0.514	Blank	Blank	18.491	n/a	1	3	18	n/a	58	n/a	3	n/a	n/a	n/a	n/a	116.559	n/a
89.722	0.497	happy	Picture	17.977	n/a	1	3	19	n/a	59	100	3	n/a	n/a	n/a	n/a	117.09	AF32ANS.jpg
90.219	0.514	Blank	Blank	17.463	n/a	1	3	19	n/a	59	n/a	3	n/a	n/a	n/a	n/a	117.587	n/a
90.75	0.497	happy	Picture	16.949	n/a	1	3	20	n/a	60	119	3	n/a	n/a	n/a	n/a	118.118	BM28ANS.jpg
91.247	0.514	Blank	Blank	16.436	n/a	1	3	20	n/a	60	n/a	3	n/a	n/a	n/a	n/a	118.615	n/a
91.778	10.014	ITI	Fixation+	6.405	n/a	1	n/a	n/a	n/a	n/a	n/a	n/a	n/a	n/a	n/a	n/a	119.146	n/a
108.197	n/a	ConfirmRating	Rate	n/a	6.4	1	n/a	n/a	0	n/a	n/a	n/a	2	Happy	70	51	135.565	n/a
116.827	n/a	ConfirmRating	Rate	n/a	8.605	1	n/a	n/a	1	n/a	n/a	n/a	3	Happy	17	49	144.194	n/a
116.845	10.014	ITI	Fixation+	95.224	n/a	2	n/a	n/a	n/a	n/a	n/a	n/a	n/a	n/a	n/a	n/a	144.213	n/a
126.875	0.497	angry	Picture	94.71	n/a	2	4	1	n/a	61	79	2	n/a	n/a	n/a	n/a	154.243	BM28HAS.jpg
127.372	0.514	Blank	Blank	94.196	n/a	2	4	1	n/a	61	n/a	2	n/a	n/a	n/a	n/a	154.74	n/a
127.903	0.497	angry	Picture	93.682	n/a	2	4	2	n/a	62	61	2	n/a	n/a	n/a	n/a	155.271	AM01HAS.jpg
128.4	0.514	Blank	Blank	93.168	n/a	2	4	2	n/a	62	n/a	2	n/a	n/a	n/a	n/a	155.768	n/a
128.931	0.497	angry	Picture	92.654	n/a	2	4	3	n/a	63	57	2	n/a	n/a	n/a	n/a	156.298	BF28HAS.jpg
129.428	0.514	Blank	Blank	92.14	n/a	2	4	3	n/a	63	n/a	2	n/a	n/a	n/a	n/a	156.796	n/a
129.959	0.497	angry	Picture	91.626	n/a	2	4	4	n/a	64	77	2	n/a	n/a	n/a	n/a	157.326	BM25HAS.jpg
130.456	0.514	Blank	Blank	91.112	n/a	2	4	4	n/a	64	n/a	2	n/a	n/a	n/a	n/a	157.824	n/a
130.986	0.497	angry	Picture	90.598	n/a	2	4	5	n/a	65	47	2	n/a	n/a	n/a	n/a	158.354	BF11HAS.jpg
131.484	0.514	Blank	Blank	90.084	n/a	2	4	5	n/a	65	n/a	2	n/a	n/a	n/a	n/a	158.852	n/a
132.014	0.497	angry	Picture	89.57	n/a	2	4	6	n/a	66	50	2	n/a	n/a	n/a	n/a	159.382	AF18HAS.jpg
132.512	0.514	Blank	Blank	89.056	n/a	2	4	6	n/a	66	n/a	2	n/a	n/a	n/a	n/a	159.879	n/a
133.042	0.497	angry	Picture	88.543	n/a	2	4	7	n/a	67	78	2	n/a	n/a	n/a	n/a	160.41	BM26HAS.jpg
133.54	0.514	Blank	Blank	88.029	n/a	2	4	7	n/a	67	n/a	2	n/a	n/a	n/a	n/a	160.907	n/a
134.07	0.497	angry	Picture	87.515	n/a	2	4	8	n/a	68	45	2	n/a	n/a	n/a	n/a	161.438	BF07HAS.jpg
134.567	0.514	Blank	Blank	87.001	n/a	2	4	8	n/a	68	n/a	2	n/a	n/a	n/a	n/a	161.935	n/a
135.098	0.497	angry	Picture	86.487	n/a	2	4	9	n/a	69	56	2	n/a	n/a	n/a	n/a	162.466	AF26HAS.jpg
135.595	0.514	Blank	Blank	85.973	n/a	2	4	9	n/a	69	n/a	2	n/a	n/a	n/a	n/a	162.963	n/a
136.126	0.497	angry	Picture	85.459	n/a	2	4	10	n/a	70	65	2	n/a	n/a	n/a	n/a	163.494	BM06HAS.jpg
136.623	0.514	Blank	Blank	84.945	n/a	2	4	10	n/a	70	n/a	2	n/a	n/a	n/a	n/a	163.991	n/a
137.154	0.497	angry	Picture	84.431	n/a	2	4	11	n/a	71	73	2	n/a	n/a	n/a	n/a	164.522	AM21HAS.jpg
137.651	0.514	Blank	Blank	83.917	n/a	2	4	11	n/a	71	n/a	2	n/a	n/a	n/a	n/a	165.019	n/a
138.182	0.497	angry	Picture	83.403	n/a	2	4	12	n/a	72	41	2	n/a	n/a	n/a	n/a	165.549	AF01HAS.jpg
138.679	0.514	Blank	Blank	82.889	n/a	2	4	12	n/a	72	n/a	2	n/a	n/a	n/a	n/a	166.047	n/a
139.209	0.497	angry	Picture	82.375	n/a	2	4	13	n/a	73	59	2	n/a	n/a	n/a	n/a	166.577	AF31HAS.jpg
139.707	0.514	Blank	Blank	81.861	n/a	2	4	13	n/a	73	n/a	2	n/a	n/a	n/a	n/a	167.075	n/a
140.237	0.497	angry	Picture	81.347	n/a	2	4	14	n/a	74	64	2	n/a	n/a	n/a	n/a	167.605	BM05HAS.jpg
140.735	0.514	Blank	Blank	80.833	n/a	2	4	14	n/a	74	n/a	2	n/a	n/a	n/a	n/a	168.102	n/a
141.265	0.497	angry	Picture	80.32	n/a	2	4	15	n/a	75	68	2	n/a	n/a	n/a	n/a	168.633	AM09HAS.jpg
141.763	0.514	Blank	Blank	79.806	n/a	2	4	15	n/a	75	n/a	2	n/a	n/a	n/a	n/a	169.13	n/a
142.293	0.497	angry	Picture	79.292	n/a	2	4	16	n/a	76	54	2	n/a	n/a	n/a	n/a	169.661	AF23HAS.jpg
142.791	0.514	Blank	Blank	78.778	n/a	2	4	16	n/a	76	n/a	2	n/a	n/a	n/a	n/a	170.158	n/a
143.321	0.497	angry	Picture	78.264	n/a	2	4	17	n/a	77	53	2	n/a	n/a	n/a	n/a	170.689	BF22HAS.jpg
143.818	0.514	Blank	Blank	77.75	n/a	2	4	17	n/a	77	n/a	2	n/a	n/a	n/a	n/a	171.186	n/a
144.349	0.497	angry	Picture	77.236	n/a	2	4	18	n/a	78	44	2	n/a	n/a	n/a	n/a	171.717	AF05HAS.jpg
144.846	0.514	Blank	Blank	76.722	n/a	2	4	18	n/a	78	n/a	2	n/a	n/a	n/a	n/a	172.214	n/a
145.377	0.497	angry	Picture	76.208	n/a	2	4	19	n/a	79	52	2	n/a	n/a	n/a	n/a	172.744	AF21HAS.jpg
145.874	0.514	Blank	Blank	75.694	n/a	2	4	19	n/a	79	n/a	2	n/a	n/a	n/a	n/a	173.242	n/a
146.405	0.497	angry	Picture	75.18	n/a	2	4	20	n/a	80	62	2	n/a	n/a	n/a	n/a	173.772	BM03HAS.jpg
146.902	0.514	Blank	Blank	74.666	n/a	2	4	20	n/a	80	n/a	2	n/a	n/a	n/a	n/a	174.27	n/a
147.433	10.014	ITI	Fixation+	64.636	n/a	2	n/a	n/a	n/a	n/a	n/a	n/a	n/a	n/a	n/a	n/a	174.8	n/a
157.463	0.497	neutral	Picture	64.122	n/a	2	5	1	n/a	81	23	1	n/a	n/a	n/a	n/a	184.83	AM04NES.jpg
157.96	0.514	Blank	Blank	63.608	n/a	2	5	1	n/a	81	n/a	1	n/a	n/a	n/a	n/a	185.328	n/a
158.49	0.497	neutral	Picture	63.094	n/a	2	5	2	n/a	82	29	1	n/a	n/a	n/a	n/a	185.858	AM10NES.jpg
158.988	0.514	Blank	Blank	62.58	n/a	2	5	2	n/a	82	n/a	1	n/a	n/a	n/a	n/a	186.356	n/a
159.518	0.497	neutral	Picture	62.066	n/a	2	5	3	n/a	83	24	1	n/a	n/a	n/a	n/a	186.886	BM05NES.jpg
160.016	0.514	Blank	Blank	61.552	n/a	2	5	3	n/a	83	n/a	1	n/a	n/a	n/a	n/a	187.383	n/a
160.546	0.497	neutral	Picture	61.039	n/a	2	5	4	n/a	84	12	1	n/a	n/a	n/a	n/a	187.914	AF21NES.jpg
161.044	0.514	Blank	Blank	60.525	n/a	2	5	4	n/a	84	n/a	1	n/a	n/a	n/a	n/a	188.411	n/a
161.574	0.497	neutral	Picture	60.011	n/a	2	5	5	n/a	85	13	1	n/a	n/a	n/a	n/a	188.942	BF22NES.jpg
162.072	0.514	Blank	Blank	59.497	n/a	2	5	5	n/a	85	n/a	1	n/a	n/a	n/a	n/a	189.439	n/a
162.602	0.497	neutral	Picture	58.983	n/a	2	5	6	n/a	86	17	1	n/a	n/a	n/a	n/a	189.97	BF28NES.jpg
163.099	0.514	Blank	Blank	58.469	n/a	2	5	6	n/a	86	n/a	1	n/a	n/a	n/a	n/a	190.467	n/a
163.63	0.497	neutral	Picture	57.955	n/a	2	5	7	n/a	87	4	1	n/a	n/a	n/a	n/a	190.998	AF05NES.jpg
164.127	0.514	Blank	Blank	57.441	n/a	2	5	7	n/a	87	n/a	1	n/a	n/a	n/a	n/a	191.495	n/a
164.658	0.497	neutral	Picture	56.927	n/a	2	5	8	n/a	88	11	1	n/a	n/a	n/a	n/a	192.025	AF20NES.jpg
165.155	0.514	Blank	Blank	56.413	n/a	2	5	8	n/a	88	n/a	1	n/a	n/a	n/a	n/a	192.523	n/a
165.686	0.497	neutral	Picture	55.899	n/a	2	5	9	n/a	89	22	1	n/a	n/a	n/a	n/a	193.053	BM03NES.jpg
166.183	0.514	Blank	Blank	55.385	n/a	2	5	9	n/a	89	n/a	1	n/a	n/a	n/a	n/a	193.551	n/a
166.714	0.497	neutral	Picture	54.871	n/a	2	5	10	n/a	90	15	1	n/a	n/a	n/a	n/a	194.081	AF25NES.jpg
167.211	0.514	Blank	Blank	54.357	n/a	2	5	10	n/a	90	n/a	1	n/a	n/a	n/a	n/a	194.579	n/a
167.741	0.497	neutral	Picture	53.843	n/a	2	5	11	n/a	91	19	1	n/a	n/a	n/a	n/a	195.109	AF31NES.jpg
168.239	0.514	Blank	Blank	53.329	n/a	2	5	11	n/a	91	n/a	1	n/a	n/a	n/a	n/a	195.607	n/a
168.769	0.497	neutral	Picture	52.816	n/a	2	5	12	n/a	92	9	1	n/a	n/a	n/a	n/a	196.137	AF17NES.jpg
169.267	0.514	Blank	Blank	52.302	n/a	2	5	12	n/a	92	n/a	1	n/a	n/a	n/a	n/a	196.634	n/a
169.797	0.497	neutral	Picture	51.788	n/a	2	5	13	n/a	93	14	1	n/a	n/a	n/a	n/a	197.165	AF23NES.jpg
170.295	0.514	Blank	Blank	51.274	n/a	2	5	13	n/a	93	n/a	1	n/a	n/a	n/a	n/a	197.662	n/a
170.825	0.497	neutral	Picture	50.76	n/a	2	5	14	n/a	94	36	1	n/a	n/a	n/a	n/a	198.193	BM24NES.jpg
171.322	0.514	Blank	Blank	50.246	n/a	2	5	14	n/a	94	n/a	1	n/a	n/a	n/a	n/a	198.69	n/a
171.853	0.497	neutral	Picture	49.732	n/a	2	5	15	n/a	95	34	1	n/a	n/a	n/a	n/a	199.221	AM22NES.jpg
172.35	0.514	Blank	Blank	49.218	n/a	2	5	15	n/a	95	n/a	1	n/a	n/a	n/a	n/a	199.718	n/a
172.881	0.497	neutral	Picture	48.704	n/a	2	5	16	n/a	96	10	1	n/a	n/a	n/a	n/a	200.249	AF18NES.jpg
173.378	0.514	Blank	Blank	48.19	n/a	2	5	16	n/a	96	n/a	1	n/a	n/a	n/a	n/a	200.746	n/a
173.909	0.497	neutral	Picture	47.676	n/a	2	5	17	n/a	97	5	1	n/a	n/a	n/a	n/a	201.276	BF07NES.jpg
174.406	0.514	Blank	Blank	47.162	n/a	2	5	17	n/a	97	n/a	1	n/a	n/a	n/a	n/a	201.774	n/a
174.937	0.497	neutral	Picture	46.648	n/a	2	5	18	n/a	98	25	1	n/a	n/a	n/a	n/a	202.304	BM06NES.jpg
175.434	0.514	Blank	Blank	46.134	n/a	2	5	18	n/a	98	n/a	1	n/a	n/a	n/a	n/a	202.802	n/a
175.964	0.497	neutral	Picture	45.62	n/a	2	5	19	n/a	99	39	1	n/a	n/a	n/a	n/a	203.332	AM28NES.jpg
176.462	0.514	Blank	Blank	45.106	n/a	2	5	19	n/a	99	n/a	1	n/a	n/a	n/a	n/a	203.829	n/a
176.992	0.497	neutral	Picture	44.593	n/a	2	5	20	n/a	100	33	1	n/a	n/a	n/a	n/a	204.36	AM21NES.jpg
177.49	0.514	Blank	Blank	44.079	n/a	2	5	20	n/a	100	n/a	1	n/a	n/a	n/a	n/a	204.857	n/a
178.02	10.014	ITI	Fixation+	34.049	n/a	2	n/a	n/a	n/a	n/a	n/a	n/a	n/a	n/a	n/a	n/a	205.388	n/a
188.05	0.497	angry	Picture	33.535	n/a	2	6	1	n/a	101	74	2	n/a	n/a	n/a	n/a	215.418	AM22HAS.jpg
188.548	0.514	Blank	Blank	33.021	n/a	2	6	1	n/a	101	n/a	2	n/a	n/a	n/a	n/a	215.915	n/a
189.078	0.497	angry	Picture	32.507	n/a	2	6	2	n/a	102	76	2	n/a	n/a	n/a	n/a	216.446	BM24HAS.jpg
189.575	0.514	Blank	Blank	31.993	n/a	2	6	2	n/a	102	n/a	2	n/a	n/a	n/a	n/a	216.943	n/a
190.106	0.497	angry	Picture	31.479	n/a	2	6	3	n/a	103	80	2	n/a	n/a	n/a	n/a	217.474	BM35HAS.jpg
190.603	0.514	Blank	Blank	30.965	n/a	2	6	3	n/a	103	n/a	2	n/a	n/a	n/a	n/a	217.971	n/a
191.134	0.497	angry	Picture	30.451	n/a	2	6	4	n/a	104	75	2	n/a	n/a	n/a	n/a	218.502	AM23HAS.jpg
191.631	0.514	Blank	Blank	29.937	n/a	2	6	4	n/a	104	n/a	2	n/a	n/a	n/a	n/a	218.999	n/a
192.162	0.497	angry	Picture	29.423	n/a	2	6	5	n/a	105	49	2	n/a	n/a	n/a	n/a	219.53	AF17HAS.jpg
192.659	0.514	Blank	Blank	28.909	n/a	2	6	5	n/a	105	n/a	2	n/a	n/a	n/a	n/a	220.027	n/a
193.19	0.497	angry	Picture	28.395	n/a	2	6	6	n/a	106	43	2	n/a	n/a	n/a	n/a	220.557	BF04HAS.jpg
193.687	0.514	Blank	Blank	27.881	n/a	2	6	6	n/a	106	n/a	2	n/a	n/a	n/a	n/a	221.055	n/a
194.218	0.497	angry	Picture	27.367	n/a	2	6	7	n/a	107	70	2	n/a	n/a	n/a	n/a	221.585	BM11HAS.jpg
194.715	0.514	Blank	Blank	26.853	n/a	2	6	7	n/a	107	n/a	2	n/a	n/a	n/a	n/a	222.083	n/a
195.245	0.497	angry	Picture	26.339	n/a	2	6	8	n/a	108	66	2	n/a	n/a	n/a	n/a	222.613	BM07HAS.jpg
195.743	0.514	Blank	Blank	25.825	n/a	2	6	8	n/a	108	n/a	2	n/a	n/a	n/a	n/a	223.111	n/a
196.273	0.497	angry	Picture	25.311	n/a	2	6	9	n/a	109	48	2	n/a	n/a	n/a	n/a	223.641	AF14HAS.jpg
196.771	0.514	Blank	Blank	24.798	n/a	2	6	9	n/a	109	n/a	2	n/a	n/a	n/a	n/a	224.138	n/a
197.301	0.497	angry	Picture	24.284	n/a	2	6	10	n/a	110	58	2	n/a	n/a	n/a	n/a	224.669	BF29HAS.jpg
197.799	0.514	Blank	Blank	23.77	n/a	2	6	10	n/a	110	n/a	2	n/a	n/a	n/a	n/a	225.166	n/a
198.329	0.497	angry	Picture	23.256	n/a	2	6	11	n/a	111	63	2	n/a	n/a	n/a	n/a	225.697	AM04HAS.jpg
198.827	0.514	Blank	Blank	22.742	n/a	2	6	11	n/a	111	n/a	2	n/a	n/a	n/a	n/a	226.194	n/a
199.357	0.497	angry	Picture	22.228	n/a	2	6	12	n/a	112	72	2	n/a	n/a	n/a	n/a	226.725	AM14HAS.jpg
199.854	0.514	Blank	Blank	21.714	n/a	2	6	12	n/a	112	n/a	2	n/a	n/a	n/a	n/a	227.222	n/a
200.385	0.497	angry	Picture	21.2	n/a	2	6	13	n/a	113	55	2	n/a	n/a	n/a	n/a	227.752	AF25HAS.jpg
200.882	0.514	Blank	Blank	20.686	n/a	2	6	13	n/a	113	n/a	2	n/a	n/a	n/a	n/a	228.25	n/a
201.413	0.497	angry	Picture	20.172	n/a	2	6	14	n/a	114	42	2	n/a	n/a	n/a	n/a	228.78	AF03HAS.jpg
201.91	0.514	Blank	Blank	19.658	n/a	2	6	14	n/a	114	n/a	2	n/a	n/a	n/a	n/a	229.278	n/a
202.441	0.497	angry	Picture	19.144	n/a	2	6	15	n/a	115	60	2	n/a	n/a	n/a	n/a	229.808	AF32HAS.jpg
202.938	0.514	Blank	Blank	18.63	n/a	2	6	15	n/a	115	n/a	2	n/a	n/a	n/a	n/a	230.306	n/a
203.469	0.497	angry	Picture	18.116	n/a	2	6	16	n/a	116	67	2	n/a	n/a	n/a	n/a	230.836	BM08HAS.jpg
203.966	0.514	Blank	Blank	17.602	n/a	2	6	16	n/a	116	n/a	2	n/a	n/a	n/a	n/a	231.333	n/a
204.496	0.497	angry	Picture	17.089	n/a	2	6	17	n/a	117	51	2	n/a	n/a	n/a	n/a	231.864	AF20HAS.jpg
204.994	0.514	Blank	Blank	16.575	n/a	2	6	17	n/a	117	n/a	2	n/a	n/a	n/a	n/a	232.361	n/a
205.524	0.497	angry	Picture	16.061	n/a	2	6	18	n/a	118	71	2	n/a	n/a	n/a	n/a	232.892	BM12HAS.jpg
206.022	0.514	Blank	Blank	15.547	n/a	2	6	18	n/a	118	n/a	2	n/a	n/a	n/a	n/a	233.389	n/a
206.552	0.497	angry	Picture	15.033	n/a	2	6	19	n/a	119	69	2	n/a	n/a	n/a	n/a	233.92	AM10HAS.jpg
207.05	0.514	Blank	Blank	14.519	n/a	2	6	19	n/a	119	n/a	2	n/a	n/a	n/a	n/a	234.417	n/a
207.58	0.497	angry	Picture	14.005	n/a	2	6	20	n/a	120	46	2	n/a	n/a	n/a	n/a	234.948	AF09HAS.jpg
208.077	0.514	Blank	Blank	13.491	n/a	2	6	20	n/a	120	n/a	2	n/a	n/a	n/a	n/a	235.445	n/a
208.608	10.014	ITI	Fixation+	3.461	n/a	2	n/a	n/a	n/a	n/a	n/a	n/a	n/a	n/a	n/a	n/a	235.976	n/a
222.082	n/a	ConfirmRating	Rate	n/a	3.449	2	n/a	n/a	0	n/a	n/a	n/a	2	Angry	50	50	249.45	n/a
227.636	n/a	ConfirmRating	Rate	n/a	5.537	2	n/a	n/a	1	n/a	n/a	n/a	3	Angry	50	50	255.004	n/a
227.657	15.004	Rest	Picture	n/a	n/a	n/a	n/a	n/a	n/a	n/a	n/a	n/a	0	n/a	0	0	255.024	n/a
242.677	10.014	ITI	Fixation+	96.508	n/a	3	n/a	n/a	n/a	n/a	n/a	n/a	n/a	n/a	n/a	n/a	270.045	n/a
252.707	0.497	happy	Picture	95.994	n/a	3	7	1	n/a	1	108	3	n/a	n/a	n/a	n/a	280.075	AM09ANS.jpg
253.204	0.514	Blank	Blank	95.48	n/a	3	7	1	n/a	1	n/a	3	n/a	n/a	n/a	n/a	280.572	n/a
253.735	0.497	happy	Picture	94.966	n/a	3	7	2	n/a	2	99	3	n/a	n/a	n/a	n/a	281.103	AF31ANS.jpg
254.232	0.514	Blank	Blank	94.452	n/a	3	7	2	n/a	2	n/a	3	n/a	n/a	n/a	n/a	281.6	n/a
254.763	0.497	happy	Picture	93.938	n/a	3	7	3	n/a	3	98	3	n/a	n/a	n/a	n/a	282.131	BF29ANS.jpg
255.26	0.514	Blank	Blank	93.424	n/a	3	7	3	n/a	3	n/a	3	n/a	n/a	n/a	n/a	282.628	n/a
255.791	0.497	happy	Picture	92.91	n/a	3	7	4	n/a	4	107	3	n/a	n/a	n/a	n/a	283.159	BM08ANS.jpg
256.288	0.514	Blank	Blank	92.396	n/a	3	7	4	n/a	4	n/a	3	n/a	n/a	n/a	n/a	283.656	n/a
256.819	0.497	happy	Picture	91.882	n/a	3	7	5	n/a	5	104	3	n/a	n/a	n/a	n/a	284.186	BM05ANS.jpg
257.316	0.514	Blank	Blank	91.368	n/a	3	7	5	n/a	5	n/a	3	n/a	n/a	n/a	n/a	284.684	n/a
257.846	0.497	happy	Picture	90.854	n/a	3	7	6	n/a	6	101	3	n/a	n/a	n/a	n/a	285.214	AM01ANS.jpg
258.344	0.514	Blank	Blank	90.341	n/a	3	7	6	n/a	6	n/a	3	n/a	n/a	n/a	n/a	285.712	n/a
258.874	0.497	happy	Picture	89.827	n/a	3	7	7	n/a	7	103	3	n/a	n/a	n/a	n/a	286.242	AM04ANS.jpg
259.372	0.514	Blank	Blank	89.313	n/a	3	7	7	n/a	7	n/a	3	n/a	n/a	n/a	n/a	286.74	n/a
259.902	0.497	happy	Picture	88.799	n/a	3	7	8	n/a	8	111	3	n/a	n/a	n/a	n/a	287.27	BM12ANS.jpg
260.4	0.514	Blank	Blank	88.285	n/a	3	7	8	n/a	8	n/a	3	n/a	n/a	n/a	n/a	287.767	n/a
260.93	0.497	happy	Picture	87.771	n/a	3	7	9	n/a	9	110	3	n/a	n/a	n/a	n/a	288.298	AM11ANS.jpg
261.428	0.514	Blank	Blank	87.257	n/a	3	7	9	n/a	9	n/a	3	n/a	n/a	n/a	n/a	288.795	n/a
261.958	0.497	happy	Picture	86.743	n/a	3	7	10	n/a	10	85	3	n/a	n/a	n/a	n/a	289.326	BF07ANS.jpg
262.455	0.514	Blank	Blank	86.229	n/a	3	7	10	n/a	10	n/a	3	n/a	n/a	n/a	n/a	289.823	n/a
262.986	0.497	happy	Picture	85.715	n/a	3	7	11	n/a	11	87	3	n/a	n/a	n/a	n/a	290.354	BF11ANS.jpg
263.483	0.514	Blank	Blank	85.201	n/a	3	7	11	n/a	11	n/a	3	n/a	n/a	n/a	n/a	290.851	n/a
264.014	0.497	happy	Picture	84.687	n/a	3	7	12	n/a	12	91	3	n/a	n/a	n/a	n/a	291.382	AF20ANS.jpg
264.511	0.514	Blank	Blank	84.173	n/a	3	7	12	n/a	12	n/a	3	n/a	n/a	n/a	n/a	291.879	n/a
265.042	0.497	happy	Picture	83.659	n/a	3	7	13	n/a	13	115	3	n/a	n/a	n/a	n/a	292.409	AM23ANS.jpg
265.539	0.514	Blank	Blank	83.145	n/a	3	7	13	n/a	13	n/a	3	n/a	n/a	n/a	n/a	292.907	n/a
266.07	0.497	happy	Picture	82.632	n/a	3	7	14	n/a	14	97	3	n/a	n/a	n/a	n/a	293.437	BF28ANS.jpg
266.567	0.514	Blank	Blank	82.118	n/a	3	7	14	n/a	14	n/a	3	n/a	n/a	n/a	n/a	293.935	n/a
267.097	0.497	happy	Picture	81.604	n/a	3	7	15	n/a	15	82	3	n/a	n/a	n/a	n/a	294.465	AF03ANS.jpg
267.595	0.514	Blank	Blank	81.09	n/a	3	7	15	n/a	15	n/a	3	n/a	n/a	n/a	n/a	294.962	n/a
268.125	0.497	happy	Picture	80.576	n/a	3	7	16	n/a	16	96	3	n/a	n/a	n/a	n/a	295.493	AF26ANS.jpg
268.623	0.514	Blank	Blank	80.062	n/a	3	7	16	n/a	16	n/a	3	n/a	n/a	n/a	n/a	295.99	n/a
269.153	0.497	happy	Picture	79.548	n/a	3	7	17	n/a	17	109	3	n/a	n/a	n/a	n/a	296.521	AM10ANS.jpg
269.651	0.514	Blank	Blank	79.034	n/a	3	7	17	n/a	17	n/a	3	n/a	n/a	n/a	n/a	297.018	n/a
270.181	0.497	happy	Picture	78.52	n/a	3	7	18	n/a	18	114	3	n/a	n/a	n/a	n/a	297.549	AM22ANS.jpg
270.678	0.514	Blank	Blank	78.006	n/a	3	7	18	n/a	18	n/a	3	n/a	n/a	n/a	n/a	298.046	n/a
271.209	0.497	happy	Picture	77.492	n/a	3	7	19	n/a	19	120	3	n/a	n/a	n/a	n/a	298.577	AM35ANS.jpg
271.706	0.514	Blank	Blank	76.978	n/a	3	7	19	n/a	19	n/a	3	n/a	n/a	n/a	n/a	299.074	n/a
272.237	0.497	happy	Picture	76.464	n/a	3	7	20	n/a	20	81	3	n/a	n/a	n/a	n/a	299.604	AF01ANS.jpg
272.734	0.514	Blank	Blank	75.95	n/a	3	7	20	n/a	20	n/a	3	n/a	n/a	n/a	n/a	300.102	n/a
273.265	10.014	ITI	Fixation+	65.92	n/a	3	n/a	n/a	n/a	n/a	n/a	n/a	n/a	n/a	n/a	n/a	300.632	n/a
283.295	0.497	neutral	Picture	65.406	n/a	3	8	1	n/a	21	28	1	n/a	n/a	n/a	n/a	310.663	AM09NES.jpg
283.792	0.514	Blank	Blank	64.892	n/a	3	8	1	n/a	21	n/a	1	n/a	n/a	n/a	n/a	311.16	n/a
284.323	0.497	neutral	Picture	64.378	n/a	3	8	2	n/a	22	27	1	n/a	n/a	n/a	n/a	311.69	BM08NES.jpg
284.82	0.514	Blank	Blank	63.864	n/a	3	8	2	n/a	22	n/a	1	n/a	n/a	n/a	n/a	312.188	n/a
285.351	0.497	neutral	Picture	63.351	n/a	3	8	3	n/a	23	16	1	n/a	n/a	n/a	n/a	312.718	AF26NES.jpg
285.848	0.514	Blank	Blank	62.837	n/a	3	8	3	n/a	23	n/a	1	n/a	n/a	n/a	n/a	313.216	n/a
286.378	0.497	neutral	Picture	62.323	n/a	3	8	4	n/a	24	3	1	n/a	n/a	n/a	n/a	313.746	BF04NES.jpg
286.876	0.514	Blank	Blank	61.809	n/a	3	8	4	n/a	24	n/a	1	n/a	n/a	n/a	n/a	314.243	n/a
287.406	0.497	neutral	Picture	61.295	n/a	3	8	5	n/a	25	32	1	n/a	n/a	n/a	n/a	314.774	AM14NES.jpg
287.904	0.514	Blank	Blank	60.781	n/a	3	8	5	n/a	25	n/a	1	n/a	n/a	n/a	n/a	315.271	n/a
288.434	0.497	neutral	Picture	60.267	n/a	3	8	6	n/a	26	37	1	n/a	n/a	n/a	n/a	315.802	BM25NES.jpg
288.932	0.514	Blank	Blank	59.753	n/a	3	8	6	n/a	26	n/a	1	n/a	n/a	n/a	n/a	316.299	n/a
289.462	0.497	neutral	Picture	59.239	n/a	3	8	7	n/a	27	15	1	n/a	n/a	n/a	n/a	316.83	AF25NES.jpg
289.959	0.514	Blank	Blank	58.725	n/a	3	8	7	n/a	27	n/a	1	n/a	n/a	n/a	n/a	317.327	n/a
290.49	0.497	neutral	Picture	58.211	n/a	3	8	8	n/a	28	23	1	n/a	n/a	n/a	n/a	317.858	AM04NES.jpg
290.987	0.514	Blank	Blank	57.697	n/a	3	8	8	n/a	28	n/a	1	n/a	n/a	n/a	n/a	318.355	n/a
291.518	0.497	neutral	Picture	57.183	n/a	3	8	9	n/a	29	34	1	n/a	n/a	n/a	n/a	318.885	AM22NES.jpg
292.015	0.514	Blank	Blank	56.669	n/a	3	8	9	n/a	29	n/a	1	n/a	n/a	n/a	n/a	319.383	n/a
292.546	0.497	neutral	Picture	56.155	n/a	3	8	10	n/a	30	24	1	n/a	n/a	n/a	n/a	319.913	BM05NES.jpg
293.043	0.514	Blank	Blank	55.641	n/a	3	8	10	n/a	30	n/a	1	n/a	n/a	n/a	n/a	320.411	n/a
293.574	0.497	neutral	Picture	55.127	n/a	3	8	11	n/a	31	12	1	n/a	n/a	n/a	n/a	320.941	AF21NES.jpg
294.071	0.514	Blank	Blank	54.614	n/a	3	8	11	n/a	31	n/a	1	n/a	n/a	n/a	n/a	321.439	n/a
294.601	0.497	neutral	Picture	54.1	n/a	3	8	12	n/a	32	6	1	n/a	n/a	n/a	n/a	321.969	AF09NES.jpg
295.099	0.514	Blank	Blank	53.586	n/a	3	8	12	n/a	32	n/a	1	n/a	n/a	n/a	n/a	322.466	n/a
295.629	0.497	neutral	Picture	53.072	n/a	3	8	13	n/a	33	17	1	n/a	n/a	n/a	n/a	322.997	BF28NES.jpg
296.127	0.514	Blank	Blank	52.558	n/a	3	8	13	n/a	33	n/a	1	n/a	n/a	n/a	n/a	323.494	n/a
296.657	0.497	neutral	Picture	52.044	n/a	3	8	14	n/a	34	2	1	n/a	n/a	n/a	n/a	324.025	AF03NES.jpg
297.155	0.514	Blank	Blank	51.53	n/a	3	8	14	n/a	34	n/a	1	n/a	n/a	n/a	n/a	324.522	n/a
297.685	0.497	neutral	Picture	51.016	n/a	3	8	15	n/a	35	9	1	n/a	n/a	n/a	n/a	325.053	AF17NES.jpg
298.183	0.514	Blank	Blank	50.502	n/a	3	8	15	n/a	35	n/a	1	n/a	n/a	n/a	n/a	325.55	n/a
298.713	0.497	neutral	Picture	49.988	n/a	3	8	16	n/a	36	25	1	n/a	n/a	n/a	n/a	326.081	BM06NES.jpg
299.21	0.514	Blank	Blank	49.474	n/a	3	8	16	n/a	36	n/a	1	n/a	n/a	n/a	n/a	326.578	n/a
299.741	0.497	neutral	Picture	48.96	n/a	3	8	17	n/a	37	8	1	n/a	n/a	n/a	n/a	327.109	AF14NES.jpg
300.238	0.514	Blank	Blank	48.446	n/a	3	8	17	n/a	37	n/a	1	n/a	n/a	n/a	n/a	327.606	n/a
300.769	0.497	neutral	Picture	47.932	n/a	3	8	18	n/a	38	19	1	n/a	n/a	n/a	n/a	328.136	AF31NES.jpg
301.266	0.514	Blank	Blank	47.418	n/a	3	8	18	n/a	38	n/a	1	n/a	n/a	n/a	n/a	328.634	n/a
301.797	0.497	neutral	Picture	46.904	n/a	3	8	19	n/a	39	14	1	n/a	n/a	n/a	n/a	329.164	AF23NES.jpg
302.294	0.514	Blank	Blank	46.391	n/a	3	8	19	n/a	39	n/a	1	n/a	n/a	n/a	n/a	329.662	n/a
302.825	0.497	neutral	Picture	45.876	n/a	3	8	20	n/a	40	4	1	n/a	n/a	n/a	n/a	330.192	AF05NES.jpg
303.322	0.514	Blank	Blank	45.363	n/a	3	8	20	n/a	40	n/a	1	n/a	n/a	n/a	n/a	330.69	n/a
303.852	10.014	ITI	Fixation+	35.332	n/a	3	n/a	n/a	n/a	n/a	n/a	n/a	n/a	n/a	n/a	n/a	331.22	n/a
313.882	0.497	happy	Picture	34.819	n/a	3	9	1	n/a	41	84	3	n/a	n/a	n/a	n/a	341.25	AF05ANS.jpg
314.38	0.514	Blank	Blank	34.305	n/a	3	9	1	n/a	41	n/a	3	n/a	n/a	n/a	n/a	341.748	n/a
314.91	0.497	happy	Picture	33.791	n/a	3	9	2	n/a	42	92	3	n/a	n/a	n/a	n/a	342.278	AF21ANS.jpg
315.408	0.514	Blank	Blank	33.277	n/a	3	9	2	n/a	42	n/a	3	n/a	n/a	n/a	n/a	342.775	n/a
315.938	0.497	happy	Picture	32.763	n/a	3	9	3	n/a	43	86	3	n/a	n/a	n/a	n/a	343.306	AF09ANS.jpg
316.436	0.514	Blank	Blank	32.249	n/a	3	9	3	n/a	43	n/a	3	n/a	n/a	n/a	n/a	343.803	n/a
316.966	0.497	happy	Picture	31.735	n/a	3	9	4	n/a	44	93	3	n/a	n/a	n/a	n/a	344.334	BF22ANS.jpg
317.464	0.514	Blank	Blank	31.221	n/a	3	9	4	n/a	44	n/a	3	n/a	n/a	n/a	n/a	344.831	n/a
317.994	0.497	happy	Picture	30.707	n/a	3	9	5	n/a	45	88	3	n/a	n/a	n/a	n/a	345.362	AF14ANS.jpg
318.491	0.514	Blank	Blank	30.193	n/a	3	9	5	n/a	45	n/a	3	n/a	n/a	n/a	n/a	345.859	n/a
319.022	0.497	happy	Picture	29.679	n/a	3	9	6	n/a	46	113	3	n/a	n/a	n/a	n/a	346.39	AM21ANS.jpg
319.519	0.514	Blank	Blank	29.165	n/a	3	9	6	n/a	46	n/a	3	n/a	n/a	n/a	n/a	346.887	n/a
320.05	0.497	happy	Picture	28.651	n/a	3	9	7	n/a	47	95	3	n/a	n/a	n/a	n/a	347.418	AF25ANS.jpg
320.547	0.514	Blank	Blank	28.137	n/a	3	9	7	n/a	47	n/a	3	n/a	n/a	n/a	n/a	347.915	n/a
321.078	0.497	happy	Picture	27.623	n/a	3	9	8	n/a	48	102	3	n/a	n/a	n/a	n/a	348.445	BM03ANS.jpg
321.575	0.514	Blank	Blank	27.11	n/a	3	9	8	n/a	48	n/a	3	n/a	n/a	n/a	n/a	348.943	n/a
322.106	0.497	happy	Picture	26.595	n/a	3	9	9	n/a	49	112	3	n/a	n/a	n/a	n/a	349.473	AM14ANS.jpg
322.603	0.514	Blank	Blank	26.082	n/a	3	9	9	n/a	49	n/a	3	n/a	n/a	n/a	n/a	349.971	n/a
323.133	0.497	happy	Picture	25.568	n/a	3	9	10	n/a	50	83	3	n/a	n/a	n/a	n/a	350.501	BF04ANS.jpg
323.631	0.514	Blank	Blank	25.054	n/a	3	9	10	n/a	50	n/a	3	n/a	n/a	n/a	n/a	350.998	n/a
324.161	0.497	happy	Picture	24.54	n/a	3	9	11	n/a	51	90	3	n/a	n/a	n/a	n/a	351.529	AF18ANS.jpg
324.659	0.514	Blank	Blank	24.026	n/a	3	9	11	n/a	51	n/a	3	n/a	n/a	n/a	n/a	352.026	n/a
325.189	0.497	happy	Picture	23.512	n/a	3	9	12	n/a	52	117	3	n/a	n/a	n/a	n/a	352.557	BM25ANS.jpg
325.686	0.514	Blank	Blank	22.998	n/a	3	9	12	n/a	52	n/a	3	n/a	n/a	n/a	n/a	353.054	n/a
326.217	0.497	happy	Picture	22.484	n/a	3	9	13	n/a	53	94	3	n/a	n/a	n/a	n/a	353.585	AF23ANS.jpg
326.714	0.514	Blank	Blank	21.97	n/a	3	9	13	n/a	53	n/a	3	n/a	n/a	n/a	n/a	354.082	n/a
327.245	0.497	happy	Picture	21.456	n/a	3	9	14	n/a	54	106	3	n/a	n/a	n/a	n/a	354.613	AM07ANS.jpg
327.742	0.514	Blank	Blank	20.942	n/a	3	9	14	n/a	54	n/a	3	n/a	n/a	n/a	n/a	355.11	n/a
328.273	0.497	happy	Picture	20.428	n/a	3	9	15	n/a	55	105	3	n/a	n/a	n/a	n/a	355.64	BM06ANS.jpg
328.77	0.514	Blank	Blank	19.914	n/a	3	9	15	n/a	55	n/a	3	n/a	n/a	n/a	n/a	356.138	n/a
329.301	0.497	happy	Picture	19.4	n/a	3	9	16	n/a	56	116	3	n/a	n/a	n/a	n/a	356.668	BM24ANS.jpg
329.798	0.514	Blank	Blank	18.886	n/a	3	9	16	n/a	56	n/a	3	n/a	n/a	n/a	n/a	357.166	n/a
330.328	0.497	happy	Picture	18.373	n/a	3	9	17	n/a	57	89	3	n/a	n/a	n/a	n/a	357.696	AF17ANS.jpg
330.826	0.514	Blank	Blank	17.859	n/a	3	9	17	n/a	57	n/a	3	n/a	n/a	n/a	n/a	358.194	n/a
331.356	0.497	happy	Picture	17.345	n/a	3	9	18	n/a	58	118	3	n/a	n/a	n/a	n/a	358.724	BM26ANS.jpg
331.854	0.514	Blank	Blank	16.831	n/a	3	9	18	n/a	58	n/a	3	n/a	n/a	n/a	n/a	359.221	n/a
332.384	0.497	happy	Picture	16.317	n/a	3	9	19	n/a	59	100	3	n/a	n/a	n/a	n/a	359.752	AF32ANS.jpg
332.882	0.514	Blank	Blank	15.803	n/a	3	9	19	n/a	59	n/a	3	n/a	n/a	n/a	n/a	360.249	n/a
333.412	0.497	happy	Picture	15.289	n/a	3	9	20	n/a	60	119	3	n/a	n/a	n/a	n/a	360.78	BM28ANS.jpg
333.909	0.514	Blank	Blank	14.775	n/a	3	9	20	n/a	60	n/a	3	n/a	n/a	n/a	n/a	361.277	n/a
334.44	10.014	ITI	Fixation+	4.745	n/a	3	n/a	n/a	n/a	n/a	n/a	n/a	n/a	n/a	n/a	n/a	361.808	n/a
349.198	n/a	ConfirmRating	Rate	n/a	4.742	3	n/a	n/a	0	n/a	n/a	n/a	2	Happy	78	53	376.566	n/a
358.363	n/a	ConfirmRating	Rate	n/a	9.151	3	n/a	n/a	1	n/a	n/a	n/a	3	Happy	10	46	385.731	n/a
358.396	10.014	ITI	Fixation+	93.694	n/a	4	n/a	n/a	n/a	n/a	n/a	n/a	n/a	n/a	n/a	n/a	385.764	n/a
368.426	0.497	angry	Picture	93.18	n/a	4	10	1	n/a	61	79	2	n/a	n/a	n/a	n/a	395.794	BM28HAS.jpg
368.924	0.514	Blank	Blank	92.666	n/a	4	10	1	n/a	61	n/a	2	n/a	n/a	n/a	n/a	396.291	n/a
369.454	0.497	angry	Picture	92.152	n/a	4	10	2	n/a	62	61	2	n/a	n/a	n/a	n/a	396.822	AM01HAS.jpg
369.952	0.514	Blank	Blank	91.638	n/a	4	10	2	n/a	62	n/a	2	n/a	n/a	n/a	n/a	397.319	n/a
370.482	0.497	angry	Picture	91.124	n/a	4	10	3	n/a	63	57	2	n/a	n/a	n/a	n/a	397.85	BF28HAS.jpg
370.979	0.514	Blank	Blank	90.611	n/a	4	10	3	n/a	63	n/a	2	n/a	n/a	n/a	n/a	398.347	n/a
371.51	0.497	angry	Picture	90.097	n/a	4	10	4	n/a	64	77	2	n/a	n/a	n/a	n/a	398.878	BM25HAS.jpg
372.007	0.514	Blank	Blank	89.583	n/a	4	10	4	n/a	64	n/a	2	n/a	n/a	n/a	n/a	399.375	n/a
372.538	0.497	angry	Picture	89.069	n/a	4	10	5	n/a	65	47	2	n/a	n/a	n/a	n/a	399.906	BF11HAS.jpg
373.035	0.514	Blank	Blank	88.555	n/a	4	10	5	n/a	65	n/a	2	n/a	n/a	n/a	n/a	400.403	n/a
373.566	0.497	angry	Picture	88.041	n/a	4	10	6	n/a	66	50	2	n/a	n/a	n/a	n/a	400.933	AF18HAS.jpg
374.063	0.514	Blank	Blank	87.527	n/a	4	10	6	n/a	66	n/a	2	n/a	n/a	n/a	n/a	401.431	n/a
374.594	0.497	angry	Picture	87.013	n/a	4	10	7	n/a	67	78	2	n/a	n/a	n/a	n/a	401.961	BM26HAS.jpg
375.091	0.514	Blank	Blank	86.499	n/a	4	10	7	n/a	67	n/a	2	n/a	n/a	n/a	n/a	402.459	n/a
375.621	0.497	angry	Picture	85.985	n/a	4	10	8	n/a	68	45	2	n/a	n/a	n/a	n/a	402.989	BF07HAS.jpg
376.119	0.514	Blank	Blank	85.471	n/a	4	10	8	n/a	68	n/a	2	n/a	n/a	n/a	n/a	403.486	n/a
376.649	0.497	angry	Picture	84.957	n/a	4	10	9	n/a	69	56	2	n/a	n/a	n/a	n/a	404.017	AF26HAS.jpg
377.147	0.514	Blank	Blank	84.443	n/a	4	10	9	n/a	69	n/a	2	n/a	n/a	n/a	n/a	404.514	n/a
377.677	0.497	angry	Picture	83.929	n/a	4	10	10	n/a	70	65	2	n/a	n/a	n/a	n/a	405.045	BM06HAS.jpg
378.175	0.514	Blank	Blank	83.415	n/a	4	10	10	n/a	70	n/a	2	n/a	n/a	n/a	n/a	405.542	n/a
378.705	0.497	angry	Picture	82.901	n/a	4	10	11	n/a	71	73	2	n/a	n/a	n/a	n/a	406.073	AM21HAS.jpg
379.202	0.514	Blank	Blank	82.388	n/a	4	10	11	n/a	71	n/a	2	n/a	n/a	n/a	n/a	406.57	n/a
379.733	0.497	angry	Picture	81.873	n/a	4	10	12	n/a	72	41	2	n/a	n/a	n/a	n/a	407.101	AF01HAS.jpg
380.23	0.514	Blank	Blank	81.36	n/a	4	10	12	n/a	72	n/a	2	n/a	n/a	n/a	n/a	407.598	n/a
380.761	0.497	angry	Picture	80.846	n/a	4	10	13	n/a	73	59	2	n/a	n/a	n/a	n/a	408.129	AF31HAS.jpg
381.258	0.514	Blank	Blank	80.332	n/a	4	10	13	n/a	73	n/a	2	n/a	n/a	n/a	n/a	408.626	n/a
381.789	0.497	angry	Picture	79.818	n/a	4	10	14	n/a	74	64	2	n/a	n/a	n/a	n/a	409.156	BM05HAS.jpg
382.286	0.514	Blank	Blank	79.304	n/a	4	10	14	n/a	74	n/a	2	n/a	n/a	n/a	n/a	409.654	n/a
382.817	0.497	angry	Picture	78.79	n/a	4	10	15	n/a	75	68	2	n/a	n/a	n/a	n/a	410.184	AM09HAS.jpg
383.314	0.514	Blank	Blank	78.276	n/a	4	10	15	n/a	75	n/a	2	n/a	n/a	n/a	n/a	410.682	n/a
383.844	0.497	angry	Picture	77.762	n/a	4	10	16	n/a	76	54	2	n/a	n/a	n/a	n/a	411.212	AF23HAS.jpg
384.342	0.514	Blank	Blank	77.248	n/a	4	10	16	n/a	76	n/a	2	n/a	n/a	n/a	n/a	411.71	n/a
384.872	0.497	angry	Picture	76.734	n/a	4	10	17	n/a	77	53	2	n/a	n/a	n/a	n/a	412.24	BF22HAS.jpg
385.37	0.514	Blank	Blank	76.22	n/a	4	10	17	n/a	77	n/a	2	n/a	n/a	n/a	n/a	412.737	n/a
385.9	0.497	angry	Picture	75.706	n/a	4	10	18	n/a	78	44	2	n/a	n/a	n/a	n/a	413.268	AF05HAS.jpg
386.398	0.514	Blank	Blank	75.192	n/a	4	10	18	n/a	78	n/a	2	n/a	n/a	n/a	n/a	413.765	n/a
386.928	0.497	angry	Picture	74.678	n/a	4	10	19	n/a	79	52	2	n/a	n/a	n/a	n/a	414.296	AF21HAS.jpg
387.425	0.514	Blank	Blank	74.165	n/a	4	10	19	n/a	79	n/a	2	n/a	n/a	n/a	n/a	414.793	n/a
387.956	0.497	angry	Picture	73.651	n/a	4	10	20	n/a	80	62	2	n/a	n/a	n/a	n/a	415.324	BM03HAS.jpg
388.453	0.514	Blank	Blank	73.137	n/a	4	10	20	n/a	80	n/a	2	n/a	n/a	n/a	n/a	415.821	n/a
388.984	10.014	ITI	Fixation+	63.106	n/a	4	n/a	n/a	n/a	n/a	n/a	n/a	n/a	n/a	n/a	n/a	416.352	n/a
399.014	0.497	neutral	Picture	62.592	n/a	4	11	1	n/a	81	23	1	n/a	n/a	n/a	n/a	426.382	AM04NES.jpg
399.511	0.514	Blank	Blank	62.079	n/a	4	11	1	n/a	81	n/a	1	n/a	n/a	n/a	n/a	426.879	n/a
400.042	0.497	neutral	Picture	61.565	n/a	4	11	2	n/a	82	29	1	n/a	n/a	n/a	n/a	427.41	AM10NES.jpg
400.539	0.514	Blank	Blank	61.051	n/a	4	11	2	n/a	82	n/a	1	n/a	n/a	n/a	n/a	427.907	n/a
401.07	0.497	neutral	Picture	60.537	n/a	4	11	3	n/a	83	24	1	n/a	n/a	n/a	n/a	428.438	BM05NES.jpg
401.567	0.514	Blank	Blank	60.023	n/a	4	11	3	n/a	83	n/a	1	n/a	n/a	n/a	n/a	428.935	n/a
402.098	0.497	neutral	Picture	59.509	n/a	4	11	4	n/a	84	12	1	n/a	n/a	n/a	n/a	429.465	AF21NES.jpg
402.595	0.514	Blank	Blank	58.995	n/a	4	11	4	n/a	84	n/a	1	n/a	n/a	n/a	n/a	429.963	n/a
403.125	0.497	neutral	Picture	58.481	n/a	4	11	5	n/a	85	13	1	n/a	n/a	n/a	n/a	430.493	BF22NES.jpg
403.623	0.514	Blank	Blank	57.967	n/a	4	11	5	n/a	85	n/a	1	n/a	n/a	n/a	n/a	430.991	n/a
404.153	0.497	neutral	Picture	57.453	n/a	4	11	6	n/a	86	17	1	n/a	n/a	n/a	n/a	431.521	BF28NES.jpg
404.651	0.514	Blank	Blank	56.939	n/a	4	11	6	n/a	86	n/a	1	n/a	n/a	n/a	n/a	432.018	n/a
405.181	0.497	neutral	Picture	56.425	n/a	4	11	7	n/a	87	4	1	n/a	n/a	n/a	n/a	432.549	AF05NES.jpg
405.679	0.514	Blank	Blank	55.911	n/a	4	11	7	n/a	87	n/a	1	n/a	n/a	n/a	n/a	433.046	n/a
406.209	0.497	neutral	Picture	55.397	n/a	4	11	8	n/a	88	11	1	n/a	n/a	n/a	n/a	433.577	AF20NES.jpg
406.707	0.514	Blank	Blank	54.884	n/a	4	11	8	n/a	88	n/a	1	n/a	n/a	n/a	n/a	434.074	n/a
407.237	0.497	neutral	Picture	54.37	n/a	4	11	9	n/a	89	22	1	n/a	n/a	n/a	n/a	434.605	BM03NES.jpg
407.734	0.514	Blank	Blank	53.856	n/a	4	11	9	n/a	89	n/a	1	n/a	n/a	n/a	n/a	435.102	n/a
408.265	0.497	neutral	Picture	53.342	n/a	4	11	10	n/a	90	15	1	n/a	n/a	n/a	n/a	435.633	AF25NES.jpg
408.762	0.514	Blank	Blank	52.828	n/a	4	11	10	n/a	90	n/a	1	n/a	n/a	n/a	n/a	436.13	n/a
409.293	0.497	neutral	Picture	52.314	n/a	4	11	11	n/a	91	19	1	n/a	n/a	n/a	n/a	436.661	AF31NES.jpg
409.79	0.514	Blank	Blank	51.8	n/a	4	11	11	n/a	91	n/a	1	n/a	n/a	n/a	n/a	437.158	n/a
410.321	0.497	neutral	Picture	51.286	n/a	4	11	12	n/a	92	9	1	n/a	n/a	n/a	n/a	437.688	AF17NES.jpg
410.818	0.514	Blank	Blank	50.772	n/a	4	11	12	n/a	92	n/a	1	n/a	n/a	n/a	n/a	438.186	n/a
411.349	0.497	neutral	Picture	50.258	n/a	4	11	13	n/a	93	14	1	n/a	n/a	n/a	n/a	438.716	AF23NES.jpg
411.846	0.514	Blank	Blank	49.744	n/a	4	11	13	n/a	93	n/a	1	n/a	n/a	n/a	n/a	439.214	n/a
412.376	0.497	neutral	Picture	49.23	n/a	4	11	14	n/a	94	36	1	n/a	n/a	n/a	n/a	439.744	BM24NES.jpg
412.874	0.514	Blank	Blank	48.716	n/a	4	11	14	n/a	94	n/a	1	n/a	n/a	n/a	n/a	440.241	n/a
413.404	0.497	neutral	Picture	48.202	n/a	4	11	15	n/a	95	34	1	n/a	n/a	n/a	n/a	440.772	AM22NES.jpg
413.902	0.514	Blank	Blank	47.688	n/a	4	11	15	n/a	95	n/a	1	n/a	n/a	n/a	n/a	441.269	n/a
414.432	0.497	neutral	Picture	47.174	n/a	4	11	16	n/a	96	10	1	n/a	n/a	n/a	n/a	441.8	AF18NES.jpg
414.929	0.514	Blank	Blank	46.66	n/a	4	11	16	n/a	96	n/a	1	n/a	n/a	n/a	n/a	442.297	n/a
415.46	0.497	neutral	Picture	46.147	n/a	4	11	17	n/a	97	5	1	n/a	n/a	n/a	n/a	442.828	BF07NES.jpg
415.957	0.514	Blank	Blank	45.633	n/a	4	11	17	n/a	97	n/a	1	n/a	n/a	n/a	n/a	443.325	n/a
416.488	0.497	neutral	Picture	45.119	n/a	4	11	18	n/a	98	25	1	n/a	n/a	n/a	n/a	443.856	BM06NES.jpg
416.985	0.514	Blank	Blank	44.605	n/a	4	11	18	n/a	98	n/a	1	n/a	n/a	n/a	n/a	444.353	n/a
417.516	0.497	neutral	Picture	44.091	n/a	4	11	19	n/a	99	39	1	n/a	n/a	n/a	n/a	444.884	AM28NES.jpg
418.013	0.514	Blank	Blank	43.577	n/a	4	11	19	n/a	99	n/a	1	n/a	n/a	n/a	n/a	445.381	n/a
418.544	0.497	neutral	Picture	43.063	n/a	4	11	20	n/a	100	33	1	n/a	n/a	n/a	n/a	445.911	AM21NES.jpg
419.041	0.514	Blank	Blank	42.549	n/a	4	11	20	n/a	100	n/a	1	n/a	n/a	n/a	n/a	446.409	n/a
419.572	10.014	ITI	Fixation+	32.519	n/a	4	n/a	n/a	n/a	n/a	n/a	n/a	n/a	n/a	n/a	n/a	446.939	n/a
429.602	0.497	angry	Picture	32.005	n/a	4	12	1	n/a	101	74	2	n/a	n/a	n/a	n/a	456.969	AM22HAS.jpg
430.099	0.514	Blank	Blank	31.491	n/a	4	12	1	n/a	101	n/a	2	n/a	n/a	n/a	n/a	457.467	n/a
430.63	0.497	angry	Picture	30.977	n/a	4	12	2	n/a	102	76	2	n/a	n/a	n/a	n/a	457.997	BM24HAS.jpg
431.127	0.514	Blank	Blank	30.463	n/a	4	12	2	n/a	102	n/a	2	n/a	n/a	n/a	n/a	458.495	n/a
431.657	0.497	angry	Picture	29.949	n/a	4	12	3	n/a	103	80	2	n/a	n/a	n/a	n/a	459.025	BM35HAS.jpg
432.155	0.514	Blank	Blank	29.435	n/a	4	12	3	n/a	103	n/a	2	n/a	n/a	n/a	n/a	459.522	n/a
432.685	0.497	angry	Picture	28.921	n/a	4	12	4	n/a	104	75	2	n/a	n/a	n/a	n/a	460.053	AM23HAS.jpg
433.183	0.514	Blank	Blank	28.407	n/a	4	12	4	n/a	104	n/a	2	n/a	n/a	n/a	n/a	460.55	n/a
433.713	0.497	angry	Picture	27.893	n/a	4	12	5	n/a	105	49	2	n/a	n/a	n/a	n/a	461.081	AF17HAS.jpg
434.21	0.514	Blank	Blank	27.379	n/a	4	12	5	n/a	105	n/a	2	n/a	n/a	n/a	n/a	461.578	n/a
434.741	0.497	angry	Picture	26.866	n/a	4	12	6	n/a	106	43	2	n/a	n/a	n/a	n/a	462.109	BF04HAS.jpg
435.238	0.514	Blank	Blank	26.351	n/a	4	12	6	n/a	106	n/a	2	n/a	n/a	n/a	n/a	462.606	n/a
435.769	0.497	angry	Picture	25.838	n/a	4	12	7	n/a	107	70	2	n/a	n/a	n/a	n/a	463.137	BM11HAS.jpg
436.266	0.514	Blank	Blank	25.324	n/a	4	12	7	n/a	107	n/a	2	n/a	n/a	n/a	n/a	463.634	n/a
436.797	0.497	angry	Picture	24.81	n/a	4	12	8	n/a	108	66	2	n/a	n/a	n/a	n/a	464.164	BM07HAS.jpg
437.294	0.514	Blank	Blank	24.296	n/a	4	12	8	n/a	108	n/a	2	n/a	n/a	n/a	n/a	464.662	n/a
437.825	0.497	angry	Picture	23.782	n/a	4	12	9	n/a	109	48	2	n/a	n/a	n/a	n/a	465.192	AF14HAS.jpg
438.322	0.514	Blank	Blank	23.268	n/a	4	12	9	n/a	109	n/a	2	n/a	n/a	n/a	n/a	465.69	n/a
438.853	0.497	angry	Picture	22.754	n/a	4	12	10	n/a	110	58	2	n/a	n/a	n/a	n/a	466.22	BF29HAS.jpg
439.35	0.514	Blank	Blank	22.24	n/a	4	12	10	n/a	110	n/a	2	n/a	n/a	n/a	n/a	466.718	n/a
439.88	0.497	angry	Picture	21.726	n/a	4	12	11	n/a	111	63	2	n/a	n/a	n/a	n/a	467.248	AM04HAS.jpg
440.378	0.514	Blank	Blank	21.212	n/a	4	12	11	n/a	111	n/a	2	n/a	n/a	n/a	n/a	467.745	n/a
440.908	0.497	angry	Picture	20.698	n/a	4	12	12	n/a	112	72	2	n/a	n/a	n/a	n/a	468.276	AM14HAS.jpg
441.406	0.514	Blank	Blank	20.184	n/a	4	12	12	n/a	112	n/a	2	n/a	n/a	n/a	n/a	468.773	n/a
441.936	0.497	angry	Picture	19.67	n/a	4	12	13	n/a	113	55	2	n/a	n/a	n/a	n/a	469.304	AF25HAS.jpg
442.434	0.514	Blank	Blank	19.156	n/a	4	12	13	n/a	113	n/a	2	n/a	n/a	n/a	n/a	469.801	n/a
442.964	0.497	angry	Picture	18.643	n/a	4	12	14	n/a	114	42	2	n/a	n/a	n/a	n/a	470.332	AF03HAS.jpg
443.461	0.514	Blank	Blank	18.129	n/a	4	12	14	n/a	114	n/a	2	n/a	n/a	n/a	n/a	470.829	n/a
443.992	0.497	angry	Picture	17.615	n/a	4	12	15	n/a	115	60	2	n/a	n/a	n/a	n/a	471.36	AF32HAS.jpg
444.489	0.514	Blank	Blank	17.101	n/a	4	12	15	n/a	115	n/a	2	n/a	n/a	n/a	n/a	471.857	n/a
445.02	0.497	angry	Picture	16.587	n/a	4	12	16	n/a	116	67	2	n/a	n/a	n/a	n/a	472.387	BM08HAS.jpg
445.517	0.514	Blank	Blank	16.073	n/a	4	12	16	n/a	116	n/a	2	n/a	n/a	n/a	n/a	472.885	n/a
446.048	0.497	angry	Picture	15.559	n/a	4	12	17	n/a	117	51	2	n/a	n/a	n/a	n/a	473.415	AF20HAS.jpg
446.545	0.514	Blank	Blank	15.045	n/a	4	12	17	n/a	117	n/a	2	n/a	n/a	n/a	n/a	473.913	n/a
447.076	0.497	angry	Picture	14.531	n/a	4	12	18	n/a	118	71	2	n/a	n/a	n/a	n/a	474.443	BM12HAS.jpg
447.573	0.514	Blank	Blank	14.017	n/a	4	12	18	n/a	118	n/a	2	n/a	n/a	n/a	n/a	474.941	n/a
448.103	0.497	angry	Picture	13.503	n/a	4	12	19	n/a	119	69	2	n/a	n/a	n/a	n/a	475.471	AM10HAS.jpg
448.601	0.514	Blank	Blank	12.989	n/a	4	12	19	n/a	119	n/a	2	n/a	n/a	n/a	n/a	475.969	n/a
449.131	0.497	angry	Picture	12.475	n/a	4	12	20	n/a	120	46	2	n/a	n/a	n/a	n/a	476.499	AF09HAS.jpg
449.629	0.514	Blank	Blank	11.961	n/a	4	12	20	n/a	120	n/a	2	n/a	n/a	n/a	n/a	476.996	n/a
450.159	10.014	ITI	Fixation+	1.931	n/a	4	n/a	n/a	n/a	n/a	n/a	n/a	n/a	n/a	n/a	n/a	477.527	n/a
462.104	n/a	ConfirmRating	Rate	n/a	1.923	4	n/a	n/a	0	n/a	n/a	n/a	2	Angry	50	50	489.472	n/a
466.022	n/a	ConfirmRating	Rate	n/a	3.896	4	n/a	n/a	1	n/a	n/a	n/a	3	Angry	42	49	493.389	n/a
