onset	duration	trial_type	event_type	time_until_response	response_time	trial_number	block_num_within_trial	image_seq_num_within_block	question_seq_num_within_block	image_seq_num	picture_number	condition	question_type	block_type	rating	rating_computed	onset_uncorrected	KDEV_imagefile
0.005	10.014	ITI	Fixation+	96.931	n/a	1	n/a	n/a	n/a	n/a	n/a	n/a	n/a	n/a	n/a	n/a	31.511	n/a
10.035	0.497	happy	Picture	96.417	n/a	1	1	1	n/a	1	108	3	n/a	n/a	n/a	n/a	41.541	AM09ANS.jpg
10.532	0.514	Blank	Blank	95.903	n/a	1	1	1	n/a	1	n/a	3	n/a	n/a	n/a	n/a	42.038	n/a
11.063	0.497	happy	Picture	95.389	n/a	1	1	2	n/a	2	99	3	n/a	n/a	n/a	n/a	42.569	AF31ANS.jpg
11.56	0.514	Blank	Blank	94.875	n/a	1	1	2	n/a	2	n/a	3	n/a	n/a	n/a	n/a	43.066	n/a
12.09	0.497	happy	Picture	94.361	n/a	1	1	3	n/a	3	98	3	n/a	n/a	n/a	n/a	43.597	BF29ANS.jpg
12.588	0.514	Blank	Blank	93.847	n/a	1	1	3	n/a	3	n/a	3	n/a	n/a	n/a	n/a	44.094	n/a
13.118	0.497	happy	Picture	93.333	n/a	1	1	4	n/a	4	107	3	n/a	n/a	n/a	n/a	44.625	BM08ANS.jpg
13.616	0.514	Blank	Blank	92.819	n/a	1	1	4	n/a	4	n/a	3	n/a	n/a	n/a	n/a	45.122	n/a
14.146	0.497	happy	Picture	92.305	n/a	1	1	5	n/a	5	104	3	n/a	n/a	n/a	n/a	45.653	BM05ANS.jpg
14.644	0.514	Blank	Blank	91.791	n/a	1	1	5	n/a	5	n/a	3	n/a	n/a	n/a	n/a	46.15	n/a
15.174	0.497	happy	Picture	91.277	n/a	1	1	6	n/a	6	101	3	n/a	n/a	n/a	n/a	46.681	AM01ANS.jpg
15.671	0.514	Blank	Blank	90.763	n/a	1	1	6	n/a	6	n/a	3	n/a	n/a	n/a	n/a	47.178	n/a
16.202	0.497	happy	Picture	90.249	n/a	1	1	7	n/a	7	103	3	n/a	n/a	n/a	n/a	47.709	AM04ANS.jpg
16.699	0.514	Blank	Blank	89.735	n/a	1	1	7	n/a	7	n/a	3	n/a	n/a	n/a	n/a	48.206	n/a
17.23	0.497	happy	Picture	89.221	n/a	1	1	8	n/a	8	111	3	n/a	n/a	n/a	n/a	48.736	BM12ANS.jpg
17.727	0.514	Blank	Blank	88.707	n/a	1	1	8	n/a	8	n/a	3	n/a	n/a	n/a	n/a	49.234	n/a
18.258	0.497	happy	Picture	88.194	n/a	1	1	9	n/a	9	110	3	n/a	n/a	n/a	n/a	49.764	AM11ANS.jpg
18.755	0.514	Blank	Blank	87.68	n/a	1	1	9	n/a	9	n/a	3	n/a	n/a	n/a	n/a	50.262	n/a
19.286	0.497	happy	Picture	87.166	n/a	1	1	10	n/a	10	85	3	n/a	n/a	n/a	n/a	50.792	BF07ANS.jpg
19.783	0.514	Blank	Blank	86.652	n/a	1	1	10	n/a	10	n/a	3	n/a	n/a	n/a	n/a	51.289	n/a
20.314	0.497	happy	Picture	86.138	n/a	1	1	11	n/a	11	87	3	n/a	n/a	n/a	n/a	51.82	BF11ANS.jpg
20.811	0.514	Blank	Blank	85.624	n/a	1	1	11	n/a	11	n/a	3	n/a	n/a	n/a	n/a	52.317	n/a
21.341	0.497	happy	Picture	85.11	n/a	1	1	12	n/a	12	91	3	n/a	n/a	n/a	n/a	52.848	AF20ANS.jpg
21.839	0.514	Blank	Blank	84.596	n/a	1	1	12	n/a	12	n/a	3	n/a	n/a	n/a	n/a	53.345	n/a
22.369	0.497	happy	Picture	84.082	n/a	1	1	13	n/a	13	115	3	n/a	n/a	n/a	n/a	53.876	AM23ANS.jpg
22.867	0.514	Blank	Blank	83.568	n/a	1	1	13	n/a	13	n/a	3	n/a	n/a	n/a	n/a	54.373	n/a
23.397	0.497	happy	Picture	83.054	n/a	1	1	14	n/a	14	97	3	n/a	n/a	n/a	n/a	54.904	BF28ANS.jpg
23.895	0.514	Blank	Blank	82.54	n/a	1	1	14	n/a	14	n/a	3	n/a	n/a	n/a	n/a	55.401	n/a
24.425	0.497	happy	Picture	82.026	n/a	1	1	15	n/a	15	82	3	n/a	n/a	n/a	n/a	55.931	AF03ANS.jpg
24.922	0.514	Blank	Blank	81.512	n/a	1	1	15	n/a	15	n/a	3	n/a	n/a	n/a	n/a	56.429	n/a
25.453	0.497	happy	Picture	80.998	n/a	1	1	16	n/a	16	96	3	n/a	n/a	n/a	n/a	56.959	AF26ANS.jpg
25.95	0.514	Blank	Blank	80.484	n/a	1	1	16	n/a	16	n/a	3	n/a	n/a	n/a	n/a	57.457	n/a
26.481	0.497	happy	Picture	79.97	n/a	1	1	17	n/a	17	109	3	n/a	n/a	n/a	n/a	57.987	AM10ANS.jpg
26.978	0.514	Blank	Blank	79.457	n/a	1	1	17	n/a	17	n/a	3	n/a	n/a	n/a	n/a	58.485	n/a
27.509	0.497	happy	Picture	78.943	n/a	1	1	18	n/a	18	114	3	n/a	n/a	n/a	n/a	59.015	AM22ANS.jpg
28.006	0.514	Blank	Blank	78.429	n/a	1	1	18	n/a	18	n/a	3	n/a	n/a	n/a	n/a	59.513	n/a
28.537	0.497	happy	Picture	77.915	n/a	1	1	19	n/a	19	120	3	n/a	n/a	n/a	n/a	60.043	AM35ANS.jpg
29.034	0.514	Blank	Blank	77.401	n/a	1	1	19	n/a	19	n/a	3	n/a	n/a	n/a	n/a	60.541	n/a
29.564	0.497	happy	Picture	76.887	n/a	1	1	20	n/a	20	81	3	n/a	n/a	n/a	n/a	61.071	AF01ANS.jpg
30.062	0.514	Blank	Blank	76.373	n/a	1	1	20	n/a	20	n/a	3	n/a	n/a	n/a	n/a	61.568	n/a
30.592	10.014	ITI	Fixation+	66.343	n/a	1	n/a	n/a	n/a	n/a	n/a	n/a	n/a	n/a	n/a	n/a	62.099	n/a
40.623	0.497	neutral	Picture	65.829	n/a	1	2	1	n/a	21	28	1	n/a	n/a	n/a	n/a	72.129	AM09NES.jpg
41.12	0.514	Blank	Blank	65.315	n/a	1	2	1	n/a	21	n/a	1	n/a	n/a	n/a	n/a	72.626	n/a
41.65	0.497	neutral	Picture	64.801	n/a	1	2	2	n/a	22	27	1	n/a	n/a	n/a	n/a	73.157	BM08NES.jpg
42.148	0.514	Blank	Blank	64.287	n/a	1	2	2	n/a	22	n/a	1	n/a	n/a	n/a	n/a	73.654	n/a
42.678	0.497	neutral	Picture	63.773	n/a	1	2	3	n/a	23	16	1	n/a	n/a	n/a	n/a	74.185	AF26NES.jpg
43.176	0.514	Blank	Blank	63.259	n/a	1	2	3	n/a	23	n/a	1	n/a	n/a	n/a	n/a	74.682	n/a
43.706	0.497	neutral	Picture	62.745	n/a	1	2	4	n/a	24	3	1	n/a	n/a	n/a	n/a	75.213	BF04NES.jpg
44.204	0.514	Blank	Blank	62.231	n/a	1	2	4	n/a	24	n/a	1	n/a	n/a	n/a	n/a	75.71	n/a
44.734	0.497	neutral	Picture	61.717	n/a	1	2	5	n/a	25	32	1	n/a	n/a	n/a	n/a	76.241	AM14NES.jpg
45.231	0.514	Blank	Blank	61.203	n/a	1	2	5	n/a	25	n/a	1	n/a	n/a	n/a	n/a	76.738	n/a
45.762	0.497	neutral	Picture	60.689	n/a	1	2	6	n/a	26	37	1	n/a	n/a	n/a	n/a	77.269	BM25NES.jpg
46.259	0.514	Blank	Blank	60.175	n/a	1	2	6	n/a	26	n/a	1	n/a	n/a	n/a	n/a	77.766	n/a
46.79	0.497	neutral	Picture	59.661	n/a	1	2	7	n/a	27	15	1	n/a	n/a	n/a	n/a	78.296	AF25NES.jpg
47.287	0.514	Blank	Blank	59.147	n/a	1	2	7	n/a	27	n/a	1	n/a	n/a	n/a	n/a	78.794	n/a
47.818	0.497	neutral	Picture	58.634	n/a	1	2	8	n/a	28	23	1	n/a	n/a	n/a	n/a	79.324	AM04NES.jpg
48.315	0.514	Blank	Blank	58.12	n/a	1	2	8	n/a	28	n/a	1	n/a	n/a	n/a	n/a	79.822	n/a
48.846	0.497	neutral	Picture	57.606	n/a	1	2	9	n/a	29	34	1	n/a	n/a	n/a	n/a	80.352	AM22NES.jpg
49.343	0.514	Blank	Blank	57.092	n/a	1	2	9	n/a	29	n/a	1	n/a	n/a	n/a	n/a	80.85	n/a
49.873	0.497	neutral	Picture	56.578	n/a	1	2	10	n/a	30	24	1	n/a	n/a	n/a	n/a	81.38	BM05NES.jpg
50.371	0.514	Blank	Blank	56.064	n/a	1	2	10	n/a	30	n/a	1	n/a	n/a	n/a	n/a	81.877	n/a
50.901	0.497	neutral	Picture	55.55	n/a	1	2	11	n/a	31	12	1	n/a	n/a	n/a	n/a	82.408	AF21NES.jpg
51.399	0.514	Blank	Blank	55.036	n/a	1	2	11	n/a	31	n/a	1	n/a	n/a	n/a	n/a	82.905	n/a
51.929	0.497	neutral	Picture	54.522	n/a	1	2	12	n/a	32	6	1	n/a	n/a	n/a	n/a	83.436	AF09NES.jpg
52.427	0.514	Blank	Blank	54.008	n/a	1	2	12	n/a	32	n/a	1	n/a	n/a	n/a	n/a	83.933	n/a
52.957	0.497	neutral	Picture	53.494	n/a	1	2	13	n/a	33	17	1	n/a	n/a	n/a	n/a	84.464	BF28NES.jpg
53.454	0.514	Blank	Blank	52.98	n/a	1	2	13	n/a	33	n/a	1	n/a	n/a	n/a	n/a	84.961	n/a
53.985	0.497	neutral	Picture	52.466	n/a	1	2	14	n/a	34	2	1	n/a	n/a	n/a	n/a	85.492	AF03NES.jpg
54.482	0.514	Blank	Blank	51.952	n/a	1	2	14	n/a	34	n/a	1	n/a	n/a	n/a	n/a	85.989	n/a
55.013	0.497	neutral	Picture	51.438	n/a	1	2	15	n/a	35	9	1	n/a	n/a	n/a	n/a	86.519	AF17NES.jpg
55.51	0.514	Blank	Blank	50.924	n/a	1	2	15	n/a	35	n/a	1	n/a	n/a	n/a	n/a	87.017	n/a
56.041	0.497	neutral	Picture	50.41	n/a	1	2	16	n/a	36	25	1	n/a	n/a	n/a	n/a	87.547	BM06NES.jpg
56.538	0.514	Blank	Blank	49.897	n/a	1	2	16	n/a	36	n/a	1	n/a	n/a	n/a	n/a	88.045	n/a
57.069	0.497	neutral	Picture	49.383	n/a	1	2	17	n/a	37	8	1	n/a	n/a	n/a	n/a	88.575	AF14NES.jpg
57.566	0.514	Blank	Blank	48.869	n/a	1	2	17	n/a	37	n/a	1	n/a	n/a	n/a	n/a	89.073	n/a
58.097	0.497	neutral	Picture	48.355	n/a	1	2	18	n/a	38	19	1	n/a	n/a	n/a	n/a	89.603	AF31NES.jpg
58.594	0.514	Blank	Blank	47.841	n/a	1	2	18	n/a	38	n/a	1	n/a	n/a	n/a	n/a	90.1	n/a
59.124	0.497	neutral	Picture	47.327	n/a	1	2	19	n/a	39	14	1	n/a	n/a	n/a	n/a	90.631	AF23NES.jpg
59.622	0.514	Blank	Blank	46.813	n/a	1	2	19	n/a	39	n/a	1	n/a	n/a	n/a	n/a	91.128	n/a
60.152	0.497	neutral	Picture	46.299	n/a	1	2	20	n/a	40	4	1	n/a	n/a	n/a	n/a	91.659	AF05NES.jpg
60.65	0.514	Blank	Blank	45.785	n/a	1	2	20	n/a	40	n/a	1	n/a	n/a	n/a	n/a	92.156	n/a
61.18	10.014	ITI	Fixation+	35.755	n/a	1	n/a	n/a	n/a	n/a	n/a	n/a	n/a	n/a	n/a	n/a	92.687	n/a
71.21	0.497	happy	Picture	35.241	n/a	1	3	1	n/a	41	84	3	n/a	n/a	n/a	n/a	102.717	AF05ANS.jpg
71.708	0.514	Blank	Blank	34.727	n/a	1	3	1	n/a	41	n/a	3	n/a	n/a	n/a	n/a	103.214	n/a
72.238	0.497	happy	Picture	34.213	n/a	1	3	2	n/a	42	92	3	n/a	n/a	n/a	n/a	103.745	AF21ANS.jpg
72.736	0.514	Blank	Blank	33.699	n/a	1	3	2	n/a	42	n/a	3	n/a	n/a	n/a	n/a	104.242	n/a
73.266	0.497	happy	Picture	33.185	n/a	1	3	3	n/a	43	86	3	n/a	n/a	n/a	n/a	104.773	AF09ANS.jpg
73.764	0.514	Blank	Blank	32.671	n/a	1	3	3	n/a	43	n/a	3	n/a	n/a	n/a	n/a	105.27	n/a
74.294	0.497	happy	Picture	32.157	n/a	1	3	4	n/a	44	93	3	n/a	n/a	n/a	n/a	105.801	BF22ANS.jpg
74.791	0.514	Blank	Blank	31.643	n/a	1	3	4	n/a	44	n/a	3	n/a	n/a	n/a	n/a	106.298	n/a
75.322	0.497	happy	Picture	31.129	n/a	1	3	5	n/a	45	88	3	n/a	n/a	n/a	n/a	106.829	AF14ANS.jpg
75.819	0.514	Blank	Blank	30.615	n/a	1	3	5	n/a	45	n/a	3	n/a	n/a	n/a	n/a	107.326	n/a
76.35	0.497	happy	Picture	30.102	n/a	1	3	6	n/a	46	113	3	n/a	n/a	n/a	n/a	107.856	AM21ANS.jpg
76.847	0.514	Blank	Blank	29.587	n/a	1	3	6	n/a	46	n/a	3	n/a	n/a	n/a	n/a	108.354	n/a
77.378	0.497	happy	Picture	29.074	n/a	1	3	7	n/a	47	95	3	n/a	n/a	n/a	n/a	108.884	AF25ANS.jpg
77.875	0.514	Blank	Blank	28.56	n/a	1	3	7	n/a	47	n/a	3	n/a	n/a	n/a	n/a	109.382	n/a
78.406	0.497	happy	Picture	28.046	n/a	1	3	8	n/a	48	102	3	n/a	n/a	n/a	n/a	109.912	BM03ANS.jpg
78.903	0.514	Blank	Blank	27.532	n/a	1	3	8	n/a	48	n/a	3	n/a	n/a	n/a	n/a	110.409	n/a
79.433	0.497	happy	Picture	27.018	n/a	1	3	9	n/a	49	112	3	n/a	n/a	n/a	n/a	110.94	AM14ANS.jpg
79.931	0.514	Blank	Blank	26.504	n/a	1	3	9	n/a	49	n/a	3	n/a	n/a	n/a	n/a	111.437	n/a
80.461	0.497	happy	Picture	25.99	n/a	1	3	10	n/a	50	83	3	n/a	n/a	n/a	n/a	111.968	BF04ANS.jpg
80.959	0.514	Blank	Blank	25.476	n/a	1	3	10	n/a	50	n/a	3	n/a	n/a	n/a	n/a	112.465	n/a
81.489	0.497	happy	Picture	24.962	n/a	1	3	11	n/a	51	90	3	n/a	n/a	n/a	n/a	112.996	AF18ANS.jpg
81.987	0.514	Blank	Blank	24.448	n/a	1	3	11	n/a	51	n/a	3	n/a	n/a	n/a	n/a	113.493	n/a
82.517	0.497	happy	Picture	23.934	n/a	1	3	12	n/a	52	117	3	n/a	n/a	n/a	n/a	114.024	BM25ANS.jpg
83.015	0.514	Blank	Blank	23.42	n/a	1	3	12	n/a	52	n/a	3	n/a	n/a	n/a	n/a	114.521	n/a
83.545	0.497	happy	Picture	22.906	n/a	1	3	13	n/a	53	94	3	n/a	n/a	n/a	n/a	115.052	AF23ANS.jpg
84.042	0.514	Blank	Blank	22.392	n/a	1	3	13	n/a	53	n/a	3	n/a	n/a	n/a	n/a	115.549	n/a
84.573	0.497	happy	Picture	21.878	n/a	1	3	14	n/a	54	106	3	n/a	n/a	n/a	n/a	116.079	AM07ANS.jpg
85.07	0.514	Blank	Blank	21.364	n/a	1	3	14	n/a	54	n/a	3	n/a	n/a	n/a	n/a	116.577	n/a
85.601	0.497	happy	Picture	20.85	n/a	1	3	15	n/a	55	105	3	n/a	n/a	n/a	n/a	117.107	BM06ANS.jpg
86.098	0.514	Blank	Blank	20.337	n/a	1	3	15	n/a	55	n/a	3	n/a	n/a	n/a	n/a	117.605	n/a
86.629	0.497	happy	Picture	19.823	n/a	1	3	16	n/a	56	116	3	n/a	n/a	n/a	n/a	118.135	BM24ANS.jpg
87.126	0.514	Blank	Blank	19.309	n/a	1	3	16	n/a	56	n/a	3	n/a	n/a	n/a	n/a	118.633	n/a
87.657	0.497	happy	Picture	18.795	n/a	1	3	17	n/a	57	89	3	n/a	n/a	n/a	n/a	119.163	AF17ANS.jpg
88.154	0.514	Blank	Blank	18.281	n/a	1	3	17	n/a	57	n/a	3	n/a	n/a	n/a	n/a	119.66	n/a
88.684	0.497	happy	Picture	17.767	n/a	1	3	18	n/a	58	118	3	n/a	n/a	n/a	n/a	120.191	BM26ANS.jpg
89.182	0.514	Blank	Blank	17.253	n/a	1	3	18	n/a	58	n/a	3	n/a	n/a	n/a	n/a	120.688	n/a
89.712	0.497	happy	Picture	16.739	n/a	1	3	19	n/a	59	100	3	n/a	n/a	n/a	n/a	121.219	AF32ANS.jpg
90.21	0.514	Blank	Blank	16.225	n/a	1	3	19	n/a	59	n/a	3	n/a	n/a	n/a	n/a	121.716	n/a
90.74	0.497	happy	Picture	15.711	n/a	1	3	20	n/a	60	119	3	n/a	n/a	n/a	n/a	122.247	BM28ANS.jpg
91.238	0.514	Blank	Blank	15.197	n/a	1	3	20	n/a	60	n/a	3	n/a	n/a	n/a	n/a	122.744	n/a
91.768	10.014	ITI	Fixation+	5.167	n/a	1	n/a	n/a	n/a	n/a	n/a	n/a	n/a	n/a	n/a	n/a	123.275	n/a
106.949	n/a	ConfirmRating	Rate	n/a	5.156	1	n/a	n/a	0	n/a	n/a	n/a	2	Happy	82	53	138.455	n/a
110.953	n/a	ConfirmRating	Rate	n/a	3.995	1	n/a	n/a	1	n/a	n/a	n/a	3	Happy	5	47	142.459	n/a
110.983	10.014	ITI	Fixation+	100.483	n/a	2	n/a	n/a	n/a	n/a	n/a	n/a	n/a	n/a	n/a	n/a	142.489	n/a
121.013	0.497	angry	Picture	99.969	n/a	2	4	1	n/a	61	79	2	n/a	n/a	n/a	n/a	152.52	BM28HAS.jpg
121.51	0.514	Blank	Blank	99.455	n/a	2	4	1	n/a	61	n/a	2	n/a	n/a	n/a	n/a	153.017	n/a
122.041	0.497	angry	Picture	98.941	n/a	2	4	2	n/a	62	61	2	n/a	n/a	n/a	n/a	153.548	AM01HAS.jpg
122.538	0.514	Blank	Blank	98.427	n/a	2	4	2	n/a	62	n/a	2	n/a	n/a	n/a	n/a	154.045	n/a
123.069	0.497	angry	Picture	97.913	n/a	2	4	3	n/a	63	57	2	n/a	n/a	n/a	n/a	154.575	BF28HAS.jpg
123.566	0.514	Blank	Blank	97.399	n/a	2	4	3	n/a	63	n/a	2	n/a	n/a	n/a	n/a	155.073	n/a
124.097	0.497	angry	Picture	96.885	n/a	2	4	4	n/a	64	77	2	n/a	n/a	n/a	n/a	155.603	BM25HAS.jpg
124.594	0.514	Blank	Blank	96.371	n/a	2	4	4	n/a	64	n/a	2	n/a	n/a	n/a	n/a	156.101	n/a
125.125	0.497	angry	Picture	95.857	n/a	2	4	5	n/a	65	47	2	n/a	n/a	n/a	n/a	156.631	BF11HAS.jpg
125.622	0.514	Blank	Blank	95.343	n/a	2	4	5	n/a	65	n/a	2	n/a	n/a	n/a	n/a	157.129	n/a
126.153	0.497	angry	Picture	94.829	n/a	2	4	6	n/a	66	50	2	n/a	n/a	n/a	n/a	157.659	AF18HAS.jpg
126.65	0.514	Blank	Blank	94.315	n/a	2	4	6	n/a	66	n/a	2	n/a	n/a	n/a	n/a	158.156	n/a
127.181	0.497	angry	Picture	93.801	n/a	2	4	7	n/a	67	78	2	n/a	n/a	n/a	n/a	158.687	BM26HAS.jpg
127.678	0.514	Blank	Blank	93.287	n/a	2	4	7	n/a	67	n/a	2	n/a	n/a	n/a	n/a	159.184	n/a
128.208	0.497	angry	Picture	92.773	n/a	2	4	8	n/a	68	45	2	n/a	n/a	n/a	n/a	159.715	BF07HAS.jpg
128.706	0.514	Blank	Blank	92.259	n/a	2	4	8	n/a	68	n/a	2	n/a	n/a	n/a	n/a	160.212	n/a
129.236	0.497	angry	Picture	91.746	n/a	2	4	9	n/a	69	56	2	n/a	n/a	n/a	n/a	160.743	AF26HAS.jpg
129.734	0.514	Blank	Blank	91.231	n/a	2	4	9	n/a	69	n/a	2	n/a	n/a	n/a	n/a	161.24	n/a
130.264	0.497	angry	Picture	90.718	n/a	2	4	10	n/a	70	65	2	n/a	n/a	n/a	n/a	161.771	BM06HAS.jpg
130.762	0.514	Blank	Blank	90.204	n/a	2	4	10	n/a	70	n/a	2	n/a	n/a	n/a	n/a	162.268	n/a
131.292	0.497	angry	Picture	89.69	n/a	2	4	11	n/a	71	73	2	n/a	n/a	n/a	n/a	162.798	AM21HAS.jpg
131.789	0.514	Blank	Blank	89.176	n/a	2	4	11	n/a	71	n/a	2	n/a	n/a	n/a	n/a	163.296	n/a
132.32	0.497	angry	Picture	88.662	n/a	2	4	12	n/a	72	41	2	n/a	n/a	n/a	n/a	163.826	AF01HAS.jpg
132.817	0.514	Blank	Blank	88.148	n/a	2	4	12	n/a	72	n/a	2	n/a	n/a	n/a	n/a	164.324	n/a
133.348	0.497	angry	Picture	87.634	n/a	2	4	13	n/a	73	59	2	n/a	n/a	n/a	n/a	164.854	AF31HAS.jpg
133.845	0.514	Blank	Blank	87.12	n/a	2	4	13	n/a	73	n/a	2	n/a	n/a	n/a	n/a	165.352	n/a
134.376	0.497	angry	Picture	86.606	n/a	2	4	14	n/a	74	64	2	n/a	n/a	n/a	n/a	165.882	BM05HAS.jpg
134.873	0.514	Blank	Blank	86.092	n/a	2	4	14	n/a	74	n/a	2	n/a	n/a	n/a	n/a	166.38	n/a
135.404	0.497	angry	Picture	85.578	n/a	2	4	15	n/a	75	68	2	n/a	n/a	n/a	n/a	166.91	AM09HAS.jpg
135.901	0.514	Blank	Blank	85.064	n/a	2	4	15	n/a	75	n/a	2	n/a	n/a	n/a	n/a	167.407	n/a
136.431	0.497	angry	Picture	84.55	n/a	2	4	16	n/a	76	54	2	n/a	n/a	n/a	n/a	167.938	AF23HAS.jpg
136.929	0.514	Blank	Blank	84.036	n/a	2	4	16	n/a	76	n/a	2	n/a	n/a	n/a	n/a	168.435	n/a
137.459	0.497	angry	Picture	83.522	n/a	2	4	17	n/a	77	53	2	n/a	n/a	n/a	n/a	168.966	BF22HAS.jpg
137.957	0.514	Blank	Blank	83.008	n/a	2	4	17	n/a	77	n/a	2	n/a	n/a	n/a	n/a	169.463	n/a
138.487	0.497	angry	Picture	82.495	n/a	2	4	18	n/a	78	44	2	n/a	n/a	n/a	n/a	169.994	AF05HAS.jpg
138.985	0.514	Blank	Blank	81.981	n/a	2	4	18	n/a	78	n/a	2	n/a	n/a	n/a	n/a	170.491	n/a
139.515	0.497	angry	Picture	81.467	n/a	2	4	19	n/a	79	52	2	n/a	n/a	n/a	n/a	171.022	AF21HAS.jpg
140.013	0.514	Blank	Blank	80.953	n/a	2	4	19	n/a	79	n/a	2	n/a	n/a	n/a	n/a	171.519	n/a
140.543	0.497	angry	Picture	80.439	n/a	2	4	20	n/a	80	62	2	n/a	n/a	n/a	n/a	172.049	BM03HAS.jpg
141.04	0.514	Blank	Blank	79.925	n/a	2	4	20	n/a	80	n/a	2	n/a	n/a	n/a	n/a	172.547	n/a
141.571	10.014	ITI	Fixation+	69.895	n/a	2	n/a	n/a	n/a	n/a	n/a	n/a	n/a	n/a	n/a	n/a	173.077	n/a
151.601	0.497	neutral	Picture	69.381	n/a	2	5	1	n/a	81	23	1	n/a	n/a	n/a	n/a	183.108	AM04NES.jpg
152.098	0.514	Blank	Blank	68.867	n/a	2	5	1	n/a	81	n/a	1	n/a	n/a	n/a	n/a	183.605	n/a
152.629	0.497	neutral	Picture	68.353	n/a	2	5	2	n/a	82	29	1	n/a	n/a	n/a	n/a	184.136	AM10NES.jpg
153.126	0.514	Blank	Blank	67.839	n/a	2	5	2	n/a	82	n/a	1	n/a	n/a	n/a	n/a	184.633	n/a
153.657	0.497	neutral	Picture	67.325	n/a	2	5	3	n/a	83	24	1	n/a	n/a	n/a	n/a	185.163	BM05NES.jpg
154.154	0.514	Blank	Blank	66.811	n/a	2	5	3	n/a	83	n/a	1	n/a	n/a	n/a	n/a	185.661	n/a
154.685	0.497	neutral	Picture	66.297	n/a	2	5	4	n/a	84	12	1	n/a	n/a	n/a	n/a	186.191	AF21NES.jpg
155.182	0.514	Blank	Blank	65.783	n/a	2	5	4	n/a	84	n/a	1	n/a	n/a	n/a	n/a	186.689	n/a
155.713	0.497	neutral	Picture	65.269	n/a	2	5	5	n/a	85	13	1	n/a	n/a	n/a	n/a	187.219	BF22NES.jpg
156.21	0.514	Blank	Blank	64.755	n/a	2	5	5	n/a	85	n/a	1	n/a	n/a	n/a	n/a	187.716	n/a
156.741	0.497	neutral	Picture	64.241	n/a	2	5	6	n/a	86	17	1	n/a	n/a	n/a	n/a	188.247	BF28NES.jpg
157.238	0.514	Blank	Blank	63.727	n/a	2	5	6	n/a	86	n/a	1	n/a	n/a	n/a	n/a	188.744	n/a
157.768	0.497	neutral	Picture	63.213	n/a	2	5	7	n/a	87	4	1	n/a	n/a	n/a	n/a	189.275	AF05NES.jpg
158.266	0.514	Blank	Blank	62.699	n/a	2	5	7	n/a	87	n/a	1	n/a	n/a	n/a	n/a	189.772	n/a
158.796	0.497	neutral	Picture	62.186	n/a	2	5	8	n/a	88	11	1	n/a	n/a	n/a	n/a	190.303	AF20NES.jpg
159.294	0.514	Blank	Blank	61.672	n/a	2	5	8	n/a	88	n/a	1	n/a	n/a	n/a	n/a	190.8	n/a
159.824	0.497	neutral	Picture	61.158	n/a	2	5	9	n/a	89	22	1	n/a	n/a	n/a	n/a	191.331	BM03NES.jpg
160.322	0.514	Blank	Blank	60.644	n/a	2	5	9	n/a	89	n/a	1	n/a	n/a	n/a	n/a	191.828	n/a
160.852	0.497	neutral	Picture	60.13	n/a	2	5	10	n/a	90	15	1	n/a	n/a	n/a	n/a	192.359	AF25NES.jpg
161.349	0.514	Blank	Blank	59.616	n/a	2	5	10	n/a	90	n/a	1	n/a	n/a	n/a	n/a	192.856	n/a
161.88	0.497	neutral	Picture	59.102	n/a	2	5	11	n/a	91	19	1	n/a	n/a	n/a	n/a	193.386	AF31NES.jpg
162.377	0.514	Blank	Blank	58.588	n/a	2	5	11	n/a	91	n/a	1	n/a	n/a	n/a	n/a	193.884	n/a
162.908	0.497	neutral	Picture	58.074	n/a	2	5	12	n/a	92	9	1	n/a	n/a	n/a	n/a	194.414	AF17NES.jpg
163.405	0.514	Blank	Blank	57.56	n/a	2	5	12	n/a	92	n/a	1	n/a	n/a	n/a	n/a	194.912	n/a
163.936	0.497	neutral	Picture	57.046	n/a	2	5	13	n/a	93	14	1	n/a	n/a	n/a	n/a	195.442	AF23NES.jpg
164.433	0.514	Blank	Blank	56.532	n/a	2	5	13	n/a	93	n/a	1	n/a	n/a	n/a	n/a	195.94	n/a
164.964	0.497	neutral	Picture	56.018	n/a	2	5	14	n/a	94	36	1	n/a	n/a	n/a	n/a	196.47	BM24NES.jpg
165.461	0.514	Blank	Blank	55.504	n/a	2	5	14	n/a	94	n/a	1	n/a	n/a	n/a	n/a	196.968	n/a
165.992	0.497	neutral	Picture	54.99	n/a	2	5	15	n/a	95	34	1	n/a	n/a	n/a	n/a	197.498	AM22NES.jpg
166.489	0.514	Blank	Blank	54.476	n/a	2	5	15	n/a	95	n/a	1	n/a	n/a	n/a	n/a	197.995	n/a
167.019	0.497	neutral	Picture	53.962	n/a	2	5	16	n/a	96	10	1	n/a	n/a	n/a	n/a	198.526	AF18NES.jpg
167.517	0.514	Blank	Blank	53.448	n/a	2	5	16	n/a	96	n/a	1	n/a	n/a	n/a	n/a	199.023	n/a
168.047	0.497	neutral	Picture	52.935	n/a	2	5	17	n/a	97	5	1	n/a	n/a	n/a	n/a	199.554	BF07NES.jpg
168.545	0.514	Blank	Blank	52.421	n/a	2	5	17	n/a	97	n/a	1	n/a	n/a	n/a	n/a	200.051	n/a
169.075	0.497	neutral	Picture	51.907	n/a	2	5	18	n/a	98	25	1	n/a	n/a	n/a	n/a	200.582	BM06NES.jpg
169.573	0.514	Blank	Blank	51.393	n/a	2	5	18	n/a	98	n/a	1	n/a	n/a	n/a	n/a	201.079	n/a
170.103	0.497	neutral	Picture	50.879	n/a	2	5	19	n/a	99	39	1	n/a	n/a	n/a	n/a	201.609	AM28NES.jpg
170.6	0.514	Blank	Blank	50.365	n/a	2	5	19	n/a	99	n/a	1	n/a	n/a	n/a	n/a	202.107	n/a
171.131	0.497	neutral	Picture	49.851	n/a	2	5	20	n/a	100	33	1	n/a	n/a	n/a	n/a	202.637	AM21NES.jpg
171.628	0.514	Blank	Blank	49.337	n/a	2	5	20	n/a	100	n/a	1	n/a	n/a	n/a	n/a	203.135	n/a
172.159	10.014	ITI	Fixation+	39.307	n/a	2	n/a	n/a	n/a	n/a	n/a	n/a	n/a	n/a	n/a	n/a	203.665	n/a
182.189	0.497	angry	Picture	38.793	n/a	2	6	1	n/a	101	74	2	n/a	n/a	n/a	n/a	213.696	AM22HAS.jpg
182.686	0.514	Blank	Blank	38.279	n/a	2	6	1	n/a	101	n/a	2	n/a	n/a	n/a	n/a	214.193	n/a
183.217	0.497	angry	Picture	37.765	n/a	2	6	2	n/a	102	76	2	n/a	n/a	n/a	n/a	214.723	BM24HAS.jpg
183.714	0.514	Blank	Blank	37.251	n/a	2	6	2	n/a	102	n/a	2	n/a	n/a	n/a	n/a	215.221	n/a
184.245	0.497	angry	Picture	36.737	n/a	2	6	3	n/a	103	80	2	n/a	n/a	n/a	n/a	215.751	BM35HAS.jpg
184.742	0.514	Blank	Blank	36.223	n/a	2	6	3	n/a	103	n/a	2	n/a	n/a	n/a	n/a	216.249	n/a
185.273	0.497	angry	Picture	35.709	n/a	2	6	4	n/a	104	75	2	n/a	n/a	n/a	n/a	216.779	AM23HAS.jpg
185.77	0.514	Blank	Blank	35.195	n/a	2	6	4	n/a	104	n/a	2	n/a	n/a	n/a	n/a	217.276	n/a
186.3	0.497	angry	Picture	34.681	n/a	2	6	5	n/a	105	49	2	n/a	n/a	n/a	n/a	217.807	AF17HAS.jpg
186.798	0.514	Blank	Blank	34.167	n/a	2	6	5	n/a	105	n/a	2	n/a	n/a	n/a	n/a	218.304	n/a
187.328	0.497	angry	Picture	33.653	n/a	2	6	6	n/a	106	43	2	n/a	n/a	n/a	n/a	218.835	BF04HAS.jpg
187.826	0.514	Blank	Blank	33.139	n/a	2	6	6	n/a	106	n/a	2	n/a	n/a	n/a	n/a	219.332	n/a
188.356	0.497	angry	Picture	32.625	n/a	2	6	7	n/a	107	70	2	n/a	n/a	n/a	n/a	219.863	BM11HAS.jpg
188.854	0.514	Blank	Blank	32.112	n/a	2	6	7	n/a	107	n/a	2	n/a	n/a	n/a	n/a	220.36	n/a
189.384	0.497	angry	Picture	31.598	n/a	2	6	8	n/a	108	66	2	n/a	n/a	n/a	n/a	220.891	BM07HAS.jpg
189.882	0.514	Blank	Blank	31.084	n/a	2	6	8	n/a	108	n/a	2	n/a	n/a	n/a	n/a	221.388	n/a
190.412	0.497	angry	Picture	30.57	n/a	2	6	9	n/a	109	48	2	n/a	n/a	n/a	n/a	221.919	AF14HAS.jpg
190.909	0.514	Blank	Blank	30.056	n/a	2	6	9	n/a	109	n/a	2	n/a	n/a	n/a	n/a	222.416	n/a
191.44	0.497	angry	Picture	29.542	n/a	2	6	10	n/a	110	58	2	n/a	n/a	n/a	n/a	222.946	BF29HAS.jpg
191.937	0.514	Blank	Blank	29.028	n/a	2	6	10	n/a	110	n/a	2	n/a	n/a	n/a	n/a	223.444	n/a
192.468	0.497	angry	Picture	28.514	n/a	2	6	11	n/a	111	63	2	n/a	n/a	n/a	n/a	223.974	AM04HAS.jpg
192.965	0.514	Blank	Blank	28.0	n/a	2	6	11	n/a	111	n/a	2	n/a	n/a	n/a	n/a	224.472	n/a
193.496	0.497	angry	Picture	27.486	n/a	2	6	12	n/a	112	72	2	n/a	n/a	n/a	n/a	225.002	AM14HAS.jpg
193.993	0.514	Blank	Blank	26.972	n/a	2	6	12	n/a	112	n/a	2	n/a	n/a	n/a	n/a	225.5	n/a
194.524	0.497	angry	Picture	26.458	n/a	2	6	13	n/a	113	55	2	n/a	n/a	n/a	n/a	226.03	AF25HAS.jpg
195.021	0.514	Blank	Blank	25.944	n/a	2	6	13	n/a	113	n/a	2	n/a	n/a	n/a	n/a	226.528	n/a
195.552	0.497	angry	Picture	25.43	n/a	2	6	14	n/a	114	42	2	n/a	n/a	n/a	n/a	227.058	AF03HAS.jpg
196.049	0.514	Blank	Blank	24.916	n/a	2	6	14	n/a	114	n/a	2	n/a	n/a	n/a	n/a	227.555	n/a
196.579	0.497	angry	Picture	24.402	n/a	2	6	15	n/a	115	60	2	n/a	n/a	n/a	n/a	228.086	AF32HAS.jpg
197.077	0.514	Blank	Blank	23.888	n/a	2	6	15	n/a	115	n/a	2	n/a	n/a	n/a	n/a	228.583	n/a
197.607	0.497	angry	Picture	23.375	n/a	2	6	16	n/a	116	67	2	n/a	n/a	n/a	n/a	229.114	BM08HAS.jpg
198.105	0.514	Blank	Blank	22.861	n/a	2	6	16	n/a	116	n/a	2	n/a	n/a	n/a	n/a	229.611	n/a
198.635	0.497	angry	Picture	22.347	n/a	2	6	17	n/a	117	51	2	n/a	n/a	n/a	n/a	230.142	AF20HAS.jpg
199.133	0.514	Blank	Blank	21.833	n/a	2	6	17	n/a	117	n/a	2	n/a	n/a	n/a	n/a	230.639	n/a
199.663	0.497	angry	Picture	21.319	n/a	2	6	18	n/a	118	71	2	n/a	n/a	n/a	n/a	231.169	BM12HAS.jpg
200.16	0.514	Blank	Blank	20.805	n/a	2	6	18	n/a	118	n/a	2	n/a	n/a	n/a	n/a	231.667	n/a
200.691	0.497	angry	Picture	20.291	n/a	2	6	19	n/a	119	69	2	n/a	n/a	n/a	n/a	232.197	AM10HAS.jpg
201.188	0.514	Blank	Blank	19.777	n/a	2	6	19	n/a	119	n/a	2	n/a	n/a	n/a	n/a	232.695	n/a
201.719	0.497	angry	Picture	19.263	n/a	2	6	20	n/a	120	46	2	n/a	n/a	n/a	n/a	233.225	AF09HAS.jpg
202.216	0.514	Blank	Blank	18.749	n/a	2	6	20	n/a	120	n/a	2	n/a	n/a	n/a	n/a	233.723	n/a
202.747	10.014	ITI	Fixation+	8.719	n/a	2	n/a	n/a	n/a	n/a	n/a	n/a	n/a	n/a	n/a	n/a	234.253	n/a
221.479	n/a	ConfirmRating	Rate	n/a	8.704	2	n/a	n/a	0	n/a	n/a	n/a	2	Angry	50	50	252.986	n/a
228.423	n/a	ConfirmRating	Rate	n/a	6.93	2	n/a	n/a	1	n/a	n/a	n/a	3	Angry	12	47	259.93	n/a
228.444	15.004	Rest	Picture	n/a	n/a	n/a	n/a	n/a	n/a	n/a	n/a	n/a	0	n/a	0	0	259.95	n/a
243.464	10.014	ITI	Fixation+	96.708	n/a	3	n/a	n/a	n/a	n/a	n/a	n/a	n/a	n/a	n/a	n/a	274.971	n/a
253.494	0.497	happy	Picture	96.194	n/a	3	7	1	n/a	1	108	3	n/a	n/a	n/a	n/a	285.001	AM09ANS.jpg
253.992	0.514	Blank	Blank	95.68	n/a	3	7	1	n/a	1	n/a	3	n/a	n/a	n/a	n/a	285.498	n/a
254.522	0.497	happy	Picture	95.166	n/a	3	7	2	n/a	2	99	3	n/a	n/a	n/a	n/a	286.029	AF31ANS.jpg
255.02	0.514	Blank	Blank	94.653	n/a	3	7	2	n/a	2	n/a	3	n/a	n/a	n/a	n/a	286.526	n/a
255.55	0.497	happy	Picture	94.139	n/a	3	7	3	n/a	3	98	3	n/a	n/a	n/a	n/a	287.057	BF29ANS.jpg
256.048	0.514	Blank	Blank	93.625	n/a	3	7	3	n/a	3	n/a	3	n/a	n/a	n/a	n/a	287.554	n/a
256.578	0.497	happy	Picture	93.111	n/a	3	7	4	n/a	4	107	3	n/a	n/a	n/a	n/a	288.085	BM08ANS.jpg
257.075	0.514	Blank	Blank	92.597	n/a	3	7	4	n/a	4	n/a	3	n/a	n/a	n/a	n/a	288.582	n/a
257.606	0.497	happy	Picture	92.083	n/a	3	7	5	n/a	5	104	3	n/a	n/a	n/a	n/a	289.113	BM05ANS.jpg
258.103	0.514	Blank	Blank	91.569	n/a	3	7	5	n/a	5	n/a	3	n/a	n/a	n/a	n/a	289.61	n/a
258.634	0.497	happy	Picture	91.055	n/a	3	7	6	n/a	6	101	3	n/a	n/a	n/a	n/a	290.14	AM01ANS.jpg
259.131	0.514	Blank	Blank	90.541	n/a	3	7	6	n/a	6	n/a	3	n/a	n/a	n/a	n/a	290.638	n/a
259.662	0.497	happy	Picture	90.027	n/a	3	7	7	n/a	7	103	3	n/a	n/a	n/a	n/a	291.168	AM04ANS.jpg
260.159	0.514	Blank	Blank	89.513	n/a	3	7	7	n/a	7	n/a	3	n/a	n/a	n/a	n/a	291.666	n/a
260.69	0.497	happy	Picture	88.999	n/a	3	7	8	n/a	8	111	3	n/a	n/a	n/a	n/a	292.196	BM12ANS.jpg
261.187	0.514	Blank	Blank	88.485	n/a	3	7	8	n/a	8	n/a	3	n/a	n/a	n/a	n/a	292.693	n/a
261.717	0.497	happy	Picture	87.971	n/a	3	7	9	n/a	9	110	3	n/a	n/a	n/a	n/a	293.224	AM11ANS.jpg
262.215	0.514	Blank	Blank	87.457	n/a	3	7	9	n/a	9	n/a	3	n/a	n/a	n/a	n/a	293.721	n/a
262.745	0.497	happy	Picture	86.943	n/a	3	7	10	n/a	10	85	3	n/a	n/a	n/a	n/a	294.252	BF07ANS.jpg
263.243	0.514	Blank	Blank	86.43	n/a	3	7	10	n/a	10	n/a	3	n/a	n/a	n/a	n/a	294.749	n/a
263.773	0.497	happy	Picture	85.916	n/a	3	7	11	n/a	11	87	3	n/a	n/a	n/a	n/a	295.28	BF11ANS.jpg
264.271	0.514	Blank	Blank	85.402	n/a	3	7	11	n/a	11	n/a	3	n/a	n/a	n/a	n/a	295.777	n/a
264.801	0.497	happy	Picture	84.888	n/a	3	7	12	n/a	12	91	3	n/a	n/a	n/a	n/a	296.308	AF20ANS.jpg
265.298	0.514	Blank	Blank	84.374	n/a	3	7	12	n/a	12	n/a	3	n/a	n/a	n/a	n/a	296.805	n/a
265.829	0.497	happy	Picture	83.86	n/a	3	7	13	n/a	13	115	3	n/a	n/a	n/a	n/a	297.336	AM23ANS.jpg
266.326	0.514	Blank	Blank	83.346	n/a	3	7	13	n/a	13	n/a	3	n/a	n/a	n/a	n/a	297.833	n/a
266.857	0.497	happy	Picture	82.832	n/a	3	7	14	n/a	14	97	3	n/a	n/a	n/a	n/a	298.363	BF28ANS.jpg
267.354	0.514	Blank	Blank	82.318	n/a	3	7	14	n/a	14	n/a	3	n/a	n/a	n/a	n/a	298.861	n/a
267.885	0.497	happy	Picture	81.804	n/a	3	7	15	n/a	15	82	3	n/a	n/a	n/a	n/a	299.391	AF03ANS.jpg
268.382	0.514	Blank	Blank	81.29	n/a	3	7	15	n/a	15	n/a	3	n/a	n/a	n/a	n/a	299.889	n/a
268.913	0.497	happy	Picture	80.776	n/a	3	7	16	n/a	16	96	3	n/a	n/a	n/a	n/a	300.419	AF26ANS.jpg
269.41	0.514	Blank	Blank	80.262	n/a	3	7	16	n/a	16	n/a	3	n/a	n/a	n/a	n/a	300.917	n/a
269.941	0.497	happy	Picture	79.748	n/a	3	7	17	n/a	17	109	3	n/a	n/a	n/a	n/a	301.447	AM10ANS.jpg
270.438	0.514	Blank	Blank	79.234	n/a	3	7	17	n/a	17	n/a	3	n/a	n/a	n/a	n/a	301.945	n/a
270.969	0.497	happy	Picture	78.72	n/a	3	7	18	n/a	18	114	3	n/a	n/a	n/a	n/a	302.475	AM22ANS.jpg
271.466	0.514	Blank	Blank	78.206	n/a	3	7	18	n/a	18	n/a	3	n/a	n/a	n/a	n/a	302.972	n/a
271.996	0.497	happy	Picture	77.692	n/a	3	7	19	n/a	19	120	3	n/a	n/a	n/a	n/a	303.503	AM35ANS.jpg
272.494	0.514	Blank	Blank	77.178	n/a	3	7	19	n/a	19	n/a	3	n/a	n/a	n/a	n/a	304.0	n/a
273.024	0.497	happy	Picture	76.665	n/a	3	7	20	n/a	20	81	3	n/a	n/a	n/a	n/a	304.531	AF01ANS.jpg
273.522	0.514	Blank	Blank	76.151	n/a	3	7	20	n/a	20	n/a	3	n/a	n/a	n/a	n/a	305.028	n/a
274.052	10.014	ITI	Fixation+	66.12	n/a	3	n/a	n/a	n/a	n/a	n/a	n/a	n/a	n/a	n/a	n/a	305.559	n/a
284.082	0.497	neutral	Picture	65.606	n/a	3	8	1	n/a	21	28	1	n/a	n/a	n/a	n/a	315.589	AM09NES.jpg
284.58	0.514	Blank	Blank	65.093	n/a	3	8	1	n/a	21	n/a	1	n/a	n/a	n/a	n/a	316.086	n/a
285.11	0.497	neutral	Picture	64.579	n/a	3	8	2	n/a	22	27	1	n/a	n/a	n/a	n/a	316.617	BM08NES.jpg
285.608	0.514	Blank	Blank	64.065	n/a	3	8	2	n/a	22	n/a	1	n/a	n/a	n/a	n/a	317.114	n/a
286.138	0.497	neutral	Picture	63.551	n/a	3	8	3	n/a	23	16	1	n/a	n/a	n/a	n/a	317.645	AF26NES.jpg
286.635	0.514	Blank	Blank	63.037	n/a	3	8	3	n/a	23	n/a	1	n/a	n/a	n/a	n/a	318.142	n/a
287.166	0.497	neutral	Picture	62.523	n/a	3	8	4	n/a	24	3	1	n/a	n/a	n/a	n/a	318.673	BF04NES.jpg
287.663	0.514	Blank	Blank	62.009	n/a	3	8	4	n/a	24	n/a	1	n/a	n/a	n/a	n/a	319.17	n/a
288.194	0.497	neutral	Picture	61.495	n/a	3	8	5	n/a	25	32	1	n/a	n/a	n/a	n/a	319.7	AM14NES.jpg
288.691	0.514	Blank	Blank	60.981	n/a	3	8	5	n/a	25	n/a	1	n/a	n/a	n/a	n/a	320.198	n/a
289.222	0.497	neutral	Picture	60.467	n/a	3	8	6	n/a	26	37	1	n/a	n/a	n/a	n/a	320.728	BM25NES.jpg
289.719	0.514	Blank	Blank	59.953	n/a	3	8	6	n/a	26	n/a	1	n/a	n/a	n/a	n/a	321.226	n/a
290.25	0.497	neutral	Picture	59.439	n/a	3	8	7	n/a	27	15	1	n/a	n/a	n/a	n/a	321.756	AF25NES.jpg
290.747	0.514	Blank	Blank	58.925	n/a	3	8	7	n/a	27	n/a	1	n/a	n/a	n/a	n/a	322.253	n/a
291.277	0.497	neutral	Picture	58.411	n/a	3	8	8	n/a	28	23	1	n/a	n/a	n/a	n/a	322.784	AM04NES.jpg
291.775	0.514	Blank	Blank	57.897	n/a	3	8	8	n/a	28	n/a	1	n/a	n/a	n/a	n/a	323.281	n/a
292.305	0.497	neutral	Picture	57.383	n/a	3	8	9	n/a	29	34	1	n/a	n/a	n/a	n/a	323.812	AM22NES.jpg
292.803	0.514	Blank	Blank	56.87	n/a	3	8	9	n/a	29	n/a	1	n/a	n/a	n/a	n/a	324.309	n/a
293.333	0.497	neutral	Picture	56.355	n/a	3	8	10	n/a	30	24	1	n/a	n/a	n/a	n/a	324.84	BM05NES.jpg
293.831	0.514	Blank	Blank	55.842	n/a	3	8	10	n/a	30	n/a	1	n/a	n/a	n/a	n/a	325.337	n/a
294.361	0.497	neutral	Picture	55.328	n/a	3	8	11	n/a	31	12	1	n/a	n/a	n/a	n/a	325.868	AF21NES.jpg
294.858	0.514	Blank	Blank	54.814	n/a	3	8	11	n/a	31	n/a	1	n/a	n/a	n/a	n/a	326.365	n/a
295.389	0.497	neutral	Picture	54.3	n/a	3	8	12	n/a	32	6	1	n/a	n/a	n/a	n/a	326.896	AF09NES.jpg
295.886	0.514	Blank	Blank	53.786	n/a	3	8	12	n/a	32	n/a	1	n/a	n/a	n/a	n/a	327.393	n/a
296.417	0.497	neutral	Picture	53.272	n/a	3	8	13	n/a	33	17	1	n/a	n/a	n/a	n/a	327.923	BF28NES.jpg
296.914	0.514	Blank	Blank	52.758	n/a	3	8	13	n/a	33	n/a	1	n/a	n/a	n/a	n/a	328.421	n/a
297.445	0.497	neutral	Picture	52.244	n/a	3	8	14	n/a	34	2	1	n/a	n/a	n/a	n/a	328.951	AF03NES.jpg
297.942	0.514	Blank	Blank	51.73	n/a	3	8	14	n/a	34	n/a	1	n/a	n/a	n/a	n/a	329.449	n/a
298.473	0.497	neutral	Picture	51.216	n/a	3	8	15	n/a	35	9	1	n/a	n/a	n/a	n/a	329.979	AF17NES.jpg
298.97	0.514	Blank	Blank	50.702	n/a	3	8	15	n/a	35	n/a	1	n/a	n/a	n/a	n/a	330.477	n/a
299.501	0.497	neutral	Picture	50.188	n/a	3	8	16	n/a	36	25	1	n/a	n/a	n/a	n/a	331.007	BM06NES.jpg
299.998	0.514	Blank	Blank	49.674	n/a	3	8	16	n/a	36	n/a	1	n/a	n/a	n/a	n/a	331.505	n/a
300.529	0.497	neutral	Picture	49.16	n/a	3	8	17	n/a	37	8	1	n/a	n/a	n/a	n/a	332.035	AF14NES.jpg
301.026	0.514	Blank	Blank	48.646	n/a	3	8	17	n/a	37	n/a	1	n/a	n/a	n/a	n/a	332.532	n/a
301.556	0.497	neutral	Picture	48.132	n/a	3	8	18	n/a	38	19	1	n/a	n/a	n/a	n/a	333.063	AF31NES.jpg
302.054	0.514	Blank	Blank	47.618	n/a	3	8	18	n/a	38	n/a	1	n/a	n/a	n/a	n/a	333.56	n/a
302.584	0.497	neutral	Picture	47.105	n/a	3	8	19	n/a	39	14	1	n/a	n/a	n/a	n/a	334.091	AF23NES.jpg
303.082	0.514	Blank	Blank	46.591	n/a	3	8	19	n/a	39	n/a	1	n/a	n/a	n/a	n/a	334.588	n/a
303.612	0.497	neutral	Picture	46.077	n/a	3	8	20	n/a	40	4	1	n/a	n/a	n/a	n/a	335.119	AF05NES.jpg
304.109	0.514	Blank	Blank	45.563	n/a	3	8	20	n/a	40	n/a	1	n/a	n/a	n/a	n/a	335.616	n/a
304.64	10.014	ITI	Fixation+	35.533	n/a	3	n/a	n/a	n/a	n/a	n/a	n/a	n/a	n/a	n/a	n/a	336.147	n/a
314.67	0.497	happy	Picture	35.019	n/a	3	9	1	n/a	41	84	3	n/a	n/a	n/a	n/a	346.177	AF05ANS.jpg
315.168	0.514	Blank	Blank	34.505	n/a	3	9	1	n/a	41	n/a	3	n/a	n/a	n/a	n/a	346.674	n/a
315.698	0.497	happy	Picture	33.991	n/a	3	9	2	n/a	42	92	3	n/a	n/a	n/a	n/a	347.205	AF21ANS.jpg
316.195	0.514	Blank	Blank	33.477	n/a	3	9	2	n/a	42	n/a	3	n/a	n/a	n/a	n/a	347.702	n/a
316.726	0.497	happy	Picture	32.963	n/a	3	9	3	n/a	43	86	3	n/a	n/a	n/a	n/a	348.233	AF09ANS.jpg
317.223	0.514	Blank	Blank	32.449	n/a	3	9	3	n/a	43	n/a	3	n/a	n/a	n/a	n/a	348.73	n/a
317.754	0.497	happy	Picture	31.935	n/a	3	9	4	n/a	44	93	3	n/a	n/a	n/a	n/a	349.26	BF22ANS.jpg
318.251	0.514	Blank	Blank	31.421	n/a	3	9	4	n/a	44	n/a	3	n/a	n/a	n/a	n/a	349.758	n/a
318.782	0.497	happy	Picture	30.907	n/a	3	9	5	n/a	45	88	3	n/a	n/a	n/a	n/a	350.288	AF14ANS.jpg
319.279	0.514	Blank	Blank	30.393	n/a	3	9	5	n/a	45	n/a	3	n/a	n/a	n/a	n/a	350.786	n/a
319.81	0.497	happy	Picture	29.879	n/a	3	9	6	n/a	46	113	3	n/a	n/a	n/a	n/a	351.316	AM21ANS.jpg
320.307	0.514	Blank	Blank	29.365	n/a	3	9	6	n/a	46	n/a	3	n/a	n/a	n/a	n/a	351.813	n/a
320.837	0.497	happy	Picture	28.851	n/a	3	9	7	n/a	47	95	3	n/a	n/a	n/a	n/a	352.344	AF25ANS.jpg
321.335	0.514	Blank	Blank	28.337	n/a	3	9	7	n/a	47	n/a	3	n/a	n/a	n/a	n/a	352.841	n/a
321.865	0.497	happy	Picture	27.823	n/a	3	9	8	n/a	48	102	3	n/a	n/a	n/a	n/a	353.372	BM03ANS.jpg
322.363	0.514	Blank	Blank	27.31	n/a	3	9	8	n/a	48	n/a	3	n/a	n/a	n/a	n/a	353.869	n/a
322.893	0.497	happy	Picture	26.795	n/a	3	9	9	n/a	49	112	3	n/a	n/a	n/a	n/a	354.4	AM14ANS.jpg
323.391	0.514	Blank	Blank	26.282	n/a	3	9	9	n/a	49	n/a	3	n/a	n/a	n/a	n/a	354.897	n/a
323.921	0.497	happy	Picture	25.768	n/a	3	9	10	n/a	50	83	3	n/a	n/a	n/a	n/a	355.428	BF04ANS.jpg
324.419	0.514	Blank	Blank	25.254	n/a	3	9	10	n/a	50	n/a	3	n/a	n/a	n/a	n/a	355.925	n/a
324.949	0.497	happy	Picture	24.74	n/a	3	9	11	n/a	51	90	3	n/a	n/a	n/a	n/a	356.456	AF18ANS.jpg
325.446	0.514	Blank	Blank	24.226	n/a	3	9	11	n/a	51	n/a	3	n/a	n/a	n/a	n/a	356.953	n/a
325.977	0.497	happy	Picture	23.712	n/a	3	9	12	n/a	52	117	3	n/a	n/a	n/a	n/a	357.483	BM25ANS.jpg
326.474	0.514	Blank	Blank	23.198	n/a	3	9	12	n/a	52	n/a	3	n/a	n/a	n/a	n/a	357.981	n/a
327.005	0.497	happy	Picture	22.684	n/a	3	9	13	n/a	53	94	3	n/a	n/a	n/a	n/a	358.511	AF23ANS.jpg
327.502	0.514	Blank	Blank	22.17	n/a	3	9	13	n/a	53	n/a	3	n/a	n/a	n/a	n/a	359.009	n/a
328.033	0.497	happy	Picture	21.656	n/a	3	9	14	n/a	54	106	3	n/a	n/a	n/a	n/a	359.539	AM07ANS.jpg
328.53	0.514	Blank	Blank	21.142	n/a	3	9	14	n/a	54	n/a	3	n/a	n/a	n/a	n/a	360.037	n/a
329.061	0.497	happy	Picture	20.628	n/a	3	9	15	n/a	55	105	3	n/a	n/a	n/a	n/a	360.567	BM06ANS.jpg
329.558	0.514	Blank	Blank	20.114	n/a	3	9	15	n/a	55	n/a	3	n/a	n/a	n/a	n/a	361.065	n/a
330.089	0.497	happy	Picture	19.6	n/a	3	9	16	n/a	56	116	3	n/a	n/a	n/a	n/a	361.595	BM24ANS.jpg
330.586	0.514	Blank	Blank	19.086	n/a	3	9	16	n/a	56	n/a	3	n/a	n/a	n/a	n/a	362.092	n/a
331.116	0.497	happy	Picture	18.572	n/a	3	9	17	n/a	57	89	3	n/a	n/a	n/a	n/a	362.623	AF17ANS.jpg
331.614	0.514	Blank	Blank	18.059	n/a	3	9	17	n/a	57	n/a	3	n/a	n/a	n/a	n/a	363.12	n/a
332.144	0.497	happy	Picture	17.545	n/a	3	9	18	n/a	58	118	3	n/a	n/a	n/a	n/a	363.651	BM26ANS.jpg
332.642	0.514	Blank	Blank	17.031	n/a	3	9	18	n/a	58	n/a	3	n/a	n/a	n/a	n/a	364.148	n/a
333.172	0.497	happy	Picture	16.517	n/a	3	9	19	n/a	59	100	3	n/a	n/a	n/a	n/a	364.679	AF32ANS.jpg
333.669	0.514	Blank	Blank	16.003	n/a	3	9	19	n/a	59	n/a	3	n/a	n/a	n/a	n/a	365.176	n/a
334.2	0.497	happy	Picture	15.489	n/a	3	9	20	n/a	60	119	3	n/a	n/a	n/a	n/a	365.707	BM28ANS.jpg
334.697	0.514	Blank	Blank	14.975	n/a	3	9	20	n/a	60	n/a	3	n/a	n/a	n/a	n/a	366.204	n/a
335.228	10.014	ITI	Fixation+	4.945	n/a	3	n/a	n/a	n/a	n/a	n/a	n/a	n/a	n/a	n/a	n/a	366.734	n/a
350.186	n/a	ConfirmRating	Rate	n/a	4.941	3	n/a	n/a	0	n/a	n/a	n/a	2	Happy	82	53	381.693	n/a
354.933	n/a	ConfirmRating	Rate	n/a	4.725	3	n/a	n/a	1	n/a	n/a	n/a	3	Happy	0	46	386.44	n/a
354.957	10.014	ITI	Fixation+	97.17	n/a	4	n/a	n/a	n/a	n/a	n/a	n/a	n/a	n/a	n/a	n/a	386.463	n/a
364.987	0.497	angry	Picture	96.656	n/a	4	10	1	n/a	61	79	2	n/a	n/a	n/a	n/a	396.493	BM28HAS.jpg
365.484	0.514	Blank	Blank	96.142	n/a	4	10	1	n/a	61	n/a	2	n/a	n/a	n/a	n/a	396.991	n/a
366.015	0.497	angry	Picture	95.629	n/a	4	10	2	n/a	62	61	2	n/a	n/a	n/a	n/a	397.521	AM01HAS.jpg
366.512	0.514	Blank	Blank	95.115	n/a	4	10	2	n/a	62	n/a	2	n/a	n/a	n/a	n/a	398.019	n/a
367.043	0.497	angry	Picture	94.601	n/a	4	10	3	n/a	63	57	2	n/a	n/a	n/a	n/a	398.549	BF28HAS.jpg
367.54	0.514	Blank	Blank	94.087	n/a	4	10	3	n/a	63	n/a	2	n/a	n/a	n/a	n/a	399.046	n/a
368.071	0.497	angry	Picture	93.573	n/a	4	10	4	n/a	64	77	2	n/a	n/a	n/a	n/a	399.577	BM25HAS.jpg
368.568	0.514	Blank	Blank	93.059	n/a	4	10	4	n/a	64	n/a	2	n/a	n/a	n/a	n/a	400.074	n/a
369.098	0.497	angry	Picture	92.545	n/a	4	10	5	n/a	65	47	2	n/a	n/a	n/a	n/a	400.605	BF11HAS.jpg
369.596	0.514	Blank	Blank	92.031	n/a	4	10	5	n/a	65	n/a	2	n/a	n/a	n/a	n/a	401.102	n/a
370.126	0.497	angry	Picture	91.517	n/a	4	10	6	n/a	66	50	2	n/a	n/a	n/a	n/a	401.633	AF18HAS.jpg
370.624	0.514	Blank	Blank	91.003	n/a	4	10	6	n/a	66	n/a	2	n/a	n/a	n/a	n/a	402.13	n/a
371.154	0.497	angry	Picture	90.489	n/a	4	10	7	n/a	67	78	2	n/a	n/a	n/a	n/a	402.661	BM26HAS.jpg
371.652	0.514	Blank	Blank	89.975	n/a	4	10	7	n/a	67	n/a	2	n/a	n/a	n/a	n/a	403.158	n/a
372.182	0.497	angry	Picture	89.461	n/a	4	10	8	n/a	68	45	2	n/a	n/a	n/a	n/a	403.689	BF07HAS.jpg
372.679	0.514	Blank	Blank	88.947	n/a	4	10	8	n/a	68	n/a	2	n/a	n/a	n/a	n/a	404.186	n/a
373.21	0.497	angry	Picture	88.433	n/a	4	10	9	n/a	69	56	2	n/a	n/a	n/a	n/a	404.716	AF26HAS.jpg
373.707	0.514	Blank	Blank	87.919	n/a	4	10	9	n/a	69	n/a	2	n/a	n/a	n/a	n/a	405.214	n/a
374.238	0.497	angry	Picture	87.405	n/a	4	10	10	n/a	70	65	2	n/a	n/a	n/a	n/a	405.744	BM06HAS.jpg
374.735	0.514	Blank	Blank	86.891	n/a	4	10	10	n/a	70	n/a	2	n/a	n/a	n/a	n/a	406.242	n/a
375.266	0.497	angry	Picture	86.378	n/a	4	10	11	n/a	71	73	2	n/a	n/a	n/a	n/a	406.772	AM21HAS.jpg
375.763	0.514	Blank	Blank	85.863	n/a	4	10	11	n/a	71	n/a	2	n/a	n/a	n/a	n/a	407.27	n/a
376.294	0.497	angry	Picture	85.35	n/a	4	10	12	n/a	72	41	2	n/a	n/a	n/a	n/a	407.8	AF01HAS.jpg
376.791	0.514	Blank	Blank	84.836	n/a	4	10	12	n/a	72	n/a	2	n/a	n/a	n/a	n/a	408.298	n/a
377.321	0.497	angry	Picture	84.322	n/a	4	10	13	n/a	73	59	2	n/a	n/a	n/a	n/a	408.828	AF31HAS.jpg
377.819	0.514	Blank	Blank	83.808	n/a	4	10	13	n/a	73	n/a	2	n/a	n/a	n/a	n/a	409.325	n/a
378.349	0.497	angry	Picture	83.294	n/a	4	10	14	n/a	74	64	2	n/a	n/a	n/a	n/a	409.856	BM05HAS.jpg
378.847	0.514	Blank	Blank	82.78	n/a	4	10	14	n/a	74	n/a	2	n/a	n/a	n/a	n/a	410.353	n/a
379.377	0.497	angry	Picture	82.266	n/a	4	10	15	n/a	75	68	2	n/a	n/a	n/a	n/a	410.884	AM09HAS.jpg
379.875	0.514	Blank	Blank	81.752	n/a	4	10	15	n/a	75	n/a	2	n/a	n/a	n/a	n/a	411.381	n/a
380.405	0.497	angry	Picture	81.238	n/a	4	10	16	n/a	76	54	2	n/a	n/a	n/a	n/a	411.912	AF23HAS.jpg
380.902	0.514	Blank	Blank	80.724	n/a	4	10	16	n/a	76	n/a	2	n/a	n/a	n/a	n/a	412.409	n/a
381.433	0.497	angry	Picture	80.21	n/a	4	10	17	n/a	77	53	2	n/a	n/a	n/a	n/a	412.94	BF22HAS.jpg
381.93	0.514	Blank	Blank	79.696	n/a	4	10	17	n/a	77	n/a	2	n/a	n/a	n/a	n/a	413.437	n/a
382.461	0.497	angry	Picture	79.182	n/a	4	10	18	n/a	78	44	2	n/a	n/a	n/a	n/a	413.967	AF05HAS.jpg
382.958	0.514	Blank	Blank	78.668	n/a	4	10	18	n/a	78	n/a	2	n/a	n/a	n/a	n/a	414.465	n/a
383.489	0.497	angry	Picture	78.154	n/a	4	10	19	n/a	79	52	2	n/a	n/a	n/a	n/a	414.995	AF21HAS.jpg
383.986	0.514	Blank	Blank	77.64	n/a	4	10	19	n/a	79	n/a	2	n/a	n/a	n/a	n/a	415.493	n/a
384.517	0.497	angry	Picture	77.127	n/a	4	10	20	n/a	80	62	2	n/a	n/a	n/a	n/a	416.023	BM03HAS.jpg
385.014	0.514	Blank	Blank	76.613	n/a	4	10	20	n/a	80	n/a	2	n/a	n/a	n/a	n/a	416.521	n/a
385.545	10.014	ITI	Fixation+	66.582	n/a	4	n/a	n/a	n/a	n/a	n/a	n/a	n/a	n/a	n/a	n/a	417.051	n/a
395.575	0.497	neutral	Picture	66.068	n/a	4	11	1	n/a	81	23	1	n/a	n/a	n/a	n/a	427.081	AM04NES.jpg
396.072	0.514	Blank	Blank	65.555	n/a	4	11	1	n/a	81	n/a	1	n/a	n/a	n/a	n/a	427.579	n/a
396.603	0.497	neutral	Picture	65.041	n/a	4	11	2	n/a	82	29	1	n/a	n/a	n/a	n/a	428.109	AM10NES.jpg
397.1	0.514	Blank	Blank	64.527	n/a	4	11	2	n/a	82	n/a	1	n/a	n/a	n/a	n/a	428.606	n/a
397.631	0.497	neutral	Picture	64.013	n/a	4	11	3	n/a	83	24	1	n/a	n/a	n/a	n/a	429.137	BM05NES.jpg
398.128	0.514	Blank	Blank	63.499	n/a	4	11	3	n/a	83	n/a	1	n/a	n/a	n/a	n/a	429.634	n/a
398.658	0.497	neutral	Picture	62.985	n/a	4	11	4	n/a	84	12	1	n/a	n/a	n/a	n/a	430.165	AF21NES.jpg
399.156	0.514	Blank	Blank	62.471	n/a	4	11	4	n/a	84	n/a	1	n/a	n/a	n/a	n/a	430.662	n/a
399.686	0.497	neutral	Picture	61.957	n/a	4	11	5	n/a	85	13	1	n/a	n/a	n/a	n/a	431.193	BF22NES.jpg
400.184	0.514	Blank	Blank	61.443	n/a	4	11	5	n/a	85	n/a	1	n/a	n/a	n/a	n/a	431.69	n/a
400.714	0.497	neutral	Picture	60.929	n/a	4	11	6	n/a	86	17	1	n/a	n/a	n/a	n/a	432.221	BF28NES.jpg
401.212	0.514	Blank	Blank	60.415	n/a	4	11	6	n/a	86	n/a	1	n/a	n/a	n/a	n/a	432.718	n/a
401.742	0.497	neutral	Picture	59.901	n/a	4	11	7	n/a	87	4	1	n/a	n/a	n/a	n/a	433.249	AF05NES.jpg
402.239	0.514	Blank	Blank	59.387	n/a	4	11	7	n/a	87	n/a	1	n/a	n/a	n/a	n/a	433.746	n/a
402.77	0.497	neutral	Picture	58.873	n/a	4	11	8	n/a	88	11	1	n/a	n/a	n/a	n/a	434.276	AF20NES.jpg
403.267	0.514	Blank	Blank	58.359	n/a	4	11	8	n/a	88	n/a	1	n/a	n/a	n/a	n/a	434.774	n/a
403.798	0.497	neutral	Picture	57.845	n/a	4	11	9	n/a	89	22	1	n/a	n/a	n/a	n/a	435.304	BM03NES.jpg
404.295	0.514	Blank	Blank	57.331	n/a	4	11	9	n/a	89	n/a	1	n/a	n/a	n/a	n/a	435.802	n/a
404.826	0.497	neutral	Picture	56.818	n/a	4	11	10	n/a	90	15	1	n/a	n/a	n/a	n/a	436.332	AF25NES.jpg
405.323	0.514	Blank	Blank	56.303	n/a	4	11	10	n/a	90	n/a	1	n/a	n/a	n/a	n/a	436.83	n/a
405.854	0.497	neutral	Picture	55.79	n/a	4	11	11	n/a	91	19	1	n/a	n/a	n/a	n/a	437.36	AF31NES.jpg
406.351	0.514	Blank	Blank	55.276	n/a	4	11	11	n/a	91	n/a	1	n/a	n/a	n/a	n/a	437.858	n/a
406.881	0.497	neutral	Picture	54.762	n/a	4	11	12	n/a	92	9	1	n/a	n/a	n/a	n/a	438.388	AF17NES.jpg
407.379	0.514	Blank	Blank	54.248	n/a	4	11	12	n/a	92	n/a	1	n/a	n/a	n/a	n/a	438.885	n/a
407.909	0.497	neutral	Picture	53.734	n/a	4	11	13	n/a	93	14	1	n/a	n/a	n/a	n/a	439.416	AF23NES.jpg
408.407	0.514	Blank	Blank	53.22	n/a	4	11	13	n/a	93	n/a	1	n/a	n/a	n/a	n/a	439.913	n/a
408.937	0.497	neutral	Picture	52.706	n/a	4	11	14	n/a	94	36	1	n/a	n/a	n/a	n/a	440.444	BM24NES.jpg
409.435	0.514	Blank	Blank	52.192	n/a	4	11	14	n/a	94	n/a	1	n/a	n/a	n/a	n/a	440.941	n/a
409.965	0.497	neutral	Picture	51.678	n/a	4	11	15	n/a	95	34	1	n/a	n/a	n/a	n/a	441.472	AM22NES.jpg
410.463	0.514	Blank	Blank	51.164	n/a	4	11	15	n/a	95	n/a	1	n/a	n/a	n/a	n/a	441.969	n/a
410.993	0.497	neutral	Picture	50.65	n/a	4	11	16	n/a	96	10	1	n/a	n/a	n/a	n/a	442.5	AF18NES.jpg
411.49	0.514	Blank	Blank	50.136	n/a	4	11	16	n/a	96	n/a	1	n/a	n/a	n/a	n/a	442.997	n/a
412.021	0.497	neutral	Picture	49.622	n/a	4	11	17	n/a	97	5	1	n/a	n/a	n/a	n/a	443.527	BF07NES.jpg
412.518	0.514	Blank	Blank	49.108	n/a	4	11	17	n/a	97	n/a	1	n/a	n/a	n/a	n/a	444.025	n/a
413.049	0.497	neutral	Picture	48.594	n/a	4	11	18	n/a	98	25	1	n/a	n/a	n/a	n/a	444.555	BM06NES.jpg
413.546	0.514	Blank	Blank	48.08	n/a	4	11	18	n/a	98	n/a	1	n/a	n/a	n/a	n/a	445.053	n/a
414.077	0.497	neutral	Picture	47.567	n/a	4	11	19	n/a	99	39	1	n/a	n/a	n/a	n/a	445.583	AM28NES.jpg
414.574	0.514	Blank	Blank	47.053	n/a	4	11	19	n/a	99	n/a	1	n/a	n/a	n/a	n/a	446.081	n/a
415.105	0.497	neutral	Picture	46.539	n/a	4	11	20	n/a	100	33	1	n/a	n/a	n/a	n/a	446.611	AM21NES.jpg
415.602	0.514	Blank	Blank	46.025	n/a	4	11	20	n/a	100	n/a	1	n/a	n/a	n/a	n/a	447.108	n/a
416.132	10.014	ITI	Fixation+	35.995	n/a	4	n/a	n/a	n/a	n/a	n/a	n/a	n/a	n/a	n/a	n/a	447.639	n/a
426.163	0.497	angry	Picture	35.481	n/a	4	12	1	n/a	101	74	2	n/a	n/a	n/a	n/a	457.669	AM22HAS.jpg
426.66	0.514	Blank	Blank	34.967	n/a	4	12	1	n/a	101	n/a	2	n/a	n/a	n/a	n/a	458.166	n/a
427.191	0.497	angry	Picture	34.453	n/a	4	12	2	n/a	102	76	2	n/a	n/a	n/a	n/a	458.697	BM24HAS.jpg
427.688	0.514	Blank	Blank	33.939	n/a	4	12	2	n/a	102	n/a	2	n/a	n/a	n/a	n/a	459.194	n/a
428.219	0.497	angry	Picture	33.425	n/a	4	12	3	n/a	103	80	2	n/a	n/a	n/a	n/a	459.725	BM35HAS.jpg
428.716	0.514	Blank	Blank	32.911	n/a	4	12	3	n/a	103	n/a	2	n/a	n/a	n/a	n/a	460.222	n/a
429.246	0.497	angry	Picture	32.397	n/a	4	12	4	n/a	104	75	2	n/a	n/a	n/a	n/a	460.753	AM23HAS.jpg
429.744	0.514	Blank	Blank	31.883	n/a	4	12	4	n/a	104	n/a	2	n/a	n/a	n/a	n/a	461.25	n/a
430.274	0.497	angry	Picture	31.369	n/a	4	12	5	n/a	105	49	2	n/a	n/a	n/a	n/a	461.781	AF17HAS.jpg
430.772	0.514	Blank	Blank	30.855	n/a	4	12	5	n/a	105	n/a	2	n/a	n/a	n/a	n/a	462.278	n/a
431.302	0.497	angry	Picture	30.341	n/a	4	12	6	n/a	106	43	2	n/a	n/a	n/a	n/a	462.809	BF04HAS.jpg
431.799	0.514	Blank	Blank	29.827	n/a	4	12	6	n/a	106	n/a	2	n/a	n/a	n/a	n/a	463.306	n/a
432.33	0.497	angry	Picture	29.313	n/a	4	12	7	n/a	107	70	2	n/a	n/a	n/a	n/a	463.837	BM11HAS.jpg
432.827	0.514	Blank	Blank	28.799	n/a	4	12	7	n/a	107	n/a	2	n/a	n/a	n/a	n/a	464.334	n/a
433.358	0.497	angry	Picture	28.285	n/a	4	12	8	n/a	108	66	2	n/a	n/a	n/a	n/a	464.864	BM07HAS.jpg
433.855	0.514	Blank	Blank	27.771	n/a	4	12	8	n/a	108	n/a	2	n/a	n/a	n/a	n/a	465.362	n/a
434.386	0.497	angry	Picture	27.258	n/a	4	12	9	n/a	109	48	2	n/a	n/a	n/a	n/a	465.892	AF14HAS.jpg
434.883	0.514	Blank	Blank	26.744	n/a	4	12	9	n/a	109	n/a	2	n/a	n/a	n/a	n/a	466.39	n/a
435.414	0.497	angry	Picture	26.23	n/a	4	12	10	n/a	110	58	2	n/a	n/a	n/a	n/a	466.92	BF29HAS.jpg
435.911	0.514	Blank	Blank	25.716	n/a	4	12	10	n/a	110	n/a	2	n/a	n/a	n/a	n/a	467.418	n/a
436.442	0.497	angry	Picture	25.202	n/a	4	12	11	n/a	111	63	2	n/a	n/a	n/a	n/a	467.948	AM04HAS.jpg
436.939	0.514	Blank	Blank	24.688	n/a	4	12	11	n/a	111	n/a	2	n/a	n/a	n/a	n/a	468.445	n/a
437.469	0.497	angry	Picture	24.174	n/a	4	12	12	n/a	112	72	2	n/a	n/a	n/a	n/a	468.976	AM14HAS.jpg
437.967	0.514	Blank	Blank	23.66	n/a	4	12	12	n/a	112	n/a	2	n/a	n/a	n/a	n/a	469.473	n/a
438.497	0.497	angry	Picture	23.146	n/a	4	12	13	n/a	113	55	2	n/a	n/a	n/a	n/a	470.004	AF25HAS.jpg
438.995	0.514	Blank	Blank	22.632	n/a	4	12	13	n/a	113	n/a	2	n/a	n/a	n/a	n/a	470.501	n/a
439.525	0.497	angry	Picture	22.118	n/a	4	12	14	n/a	114	42	2	n/a	n/a	n/a	n/a	471.032	AF03HAS.jpg
440.023	0.514	Blank	Blank	21.604	n/a	4	12	14	n/a	114	n/a	2	n/a	n/a	n/a	n/a	471.529	n/a
440.553	0.497	angry	Picture	21.09	n/a	4	12	15	n/a	115	60	2	n/a	n/a	n/a	n/a	472.06	AF32HAS.jpg
441.05	0.514	Blank	Blank	20.576	n/a	4	12	15	n/a	115	n/a	2	n/a	n/a	n/a	n/a	472.557	n/a
441.581	0.497	angry	Picture	20.062	n/a	4	12	16	n/a	116	67	2	n/a	n/a	n/a	n/a	473.087	BM08HAS.jpg
442.078	0.514	Blank	Blank	19.548	n/a	4	12	16	n/a	116	n/a	2	n/a	n/a	n/a	n/a	473.585	n/a
442.609	0.497	angry	Picture	19.034	n/a	4	12	17	n/a	117	51	2	n/a	n/a	n/a	n/a	474.115	AF20HAS.jpg
443.106	0.514	Blank	Blank	18.52	n/a	4	12	17	n/a	117	n/a	2	n/a	n/a	n/a	n/a	474.613	n/a
443.637	0.497	angry	Picture	18.007	n/a	4	12	18	n/a	118	71	2	n/a	n/a	n/a	n/a	475.143	BM12HAS.jpg
444.134	0.514	Blank	Blank	17.493	n/a	4	12	18	n/a	118	n/a	2	n/a	n/a	n/a	n/a	475.641	n/a
444.665	0.497	angry	Picture	16.979	n/a	4	12	19	n/a	119	69	2	n/a	n/a	n/a	n/a	476.171	AM10HAS.jpg
445.162	0.514	Blank	Blank	16.465	n/a	4	12	19	n/a	119	n/a	2	n/a	n/a	n/a	n/a	476.668	n/a
445.692	0.497	angry	Picture	15.951	n/a	4	12	20	n/a	120	46	2	n/a	n/a	n/a	n/a	477.199	AF09HAS.jpg
446.19	0.514	Blank	Blank	15.437	n/a	4	12	20	n/a	120	n/a	2	n/a	n/a	n/a	n/a	477.696	n/a
446.72	10.014	ITI	Fixation+	5.407	n/a	4	n/a	n/a	n/a	n/a	n/a	n/a	n/a	n/a	n/a	n/a	478.227	n/a
462.141	n/a	ConfirmRating	Rate	n/a	5.404	4	n/a	n/a	0	n/a	n/a	n/a	2	Angry	40	49	493.647	n/a
468.173	n/a	ConfirmRating	Rate	n/a	6.018	4	n/a	n/a	1	n/a	n/a	n/a	3	Angry	17	47	499.68	n/a
