onset	duration	trial_type	event_type	time_until_response	response_time	trial_number	block_num_within_trial	image_seq_num_within_block	question_seq_num_within_block	image_seq_num	picture_number	condition	question_type	block_type	rating	rating_computed	onset_uncorrected	KDEV_imagefile
0.012	10.014	ITI	Fixation+	98.521	n/a	1	n/a	n/a	n/a	n/a	n/a	n/a	n/a	n/a	n/a	n/a	32.97	n/a
10.042	0.497	angry	Picture	98.007	n/a	1	1	1	n/a	1	108	3	n/a	n/a	n/a	n/a	43.0	AM09ANS.jpg
10.539	0.514	Blank	Blank	97.493	n/a	1	1	1	n/a	1	n/a	3	n/a	n/a	n/a	n/a	43.497	n/a
11.07	0.497	angry	Picture	96.979	n/a	1	1	2	n/a	2	99	3	n/a	n/a	n/a	n/a	44.028	AF31ANS.jpg
11.567	0.514	Blank	Blank	96.465	n/a	1	1	2	n/a	2	n/a	3	n/a	n/a	n/a	n/a	44.525	n/a
12.098	0.497	angry	Picture	95.951	n/a	1	1	3	n/a	3	98	3	n/a	n/a	n/a	n/a	45.056	BF29ANS.jpg
12.595	0.514	Blank	Blank	95.437	n/a	1	1	3	n/a	3	n/a	3	n/a	n/a	n/a	n/a	45.553	n/a
13.125	0.497	angry	Picture	94.923	n/a	1	1	4	n/a	4	107	3	n/a	n/a	n/a	n/a	46.084	BM08ANS.jpg
13.623	0.514	Blank	Blank	94.409	n/a	1	1	4	n/a	4	n/a	3	n/a	n/a	n/a	n/a	46.581	n/a
14.153	0.497	angry	Picture	93.895	n/a	1	1	5	n/a	5	104	3	n/a	n/a	n/a	n/a	47.111	BM05ANS.jpg
14.651	0.514	Blank	Blank	93.381	n/a	1	1	5	n/a	5	n/a	3	n/a	n/a	n/a	n/a	47.609	n/a
15.181	0.497	angry	Picture	92.867	n/a	1	1	6	n/a	6	101	3	n/a	n/a	n/a	n/a	48.139	AM01ANS.jpg
15.678	0.514	Blank	Blank	92.353	n/a	1	1	6	n/a	6	n/a	3	n/a	n/a	n/a	n/a	48.637	n/a
16.209	0.497	angry	Picture	91.839	n/a	1	1	7	n/a	7	103	3	n/a	n/a	n/a	n/a	49.167	AM04ANS.jpg
16.706	0.514	Blank	Blank	91.325	n/a	1	1	7	n/a	7	n/a	3	n/a	n/a	n/a	n/a	49.665	n/a
17.237	0.497	angry	Picture	90.811	n/a	1	1	8	n/a	8	111	3	n/a	n/a	n/a	n/a	50.195	BM12ANS.jpg
17.734	0.514	Blank	Blank	90.297	n/a	1	1	8	n/a	8	n/a	3	n/a	n/a	n/a	n/a	50.693	n/a
18.265	0.497	angry	Picture	89.784	n/a	1	1	9	n/a	9	110	3	n/a	n/a	n/a	n/a	51.223	AM11ANS.jpg
18.762	0.514	Blank	Blank	89.27	n/a	1	1	9	n/a	9	n/a	3	n/a	n/a	n/a	n/a	51.72	n/a
19.293	0.497	angry	Picture	88.756	n/a	1	1	10	n/a	10	85	3	n/a	n/a	n/a	n/a	52.251	BF07ANS.jpg
19.79	0.514	Blank	Blank	88.242	n/a	1	1	10	n/a	10	n/a	3	n/a	n/a	n/a	n/a	52.748	n/a
20.321	0.497	angry	Picture	87.728	n/a	1	1	11	n/a	11	87	3	n/a	n/a	n/a	n/a	53.279	BF11ANS.jpg
20.818	0.514	Blank	Blank	87.214	n/a	1	1	11	n/a	11	n/a	3	n/a	n/a	n/a	n/a	53.776	n/a
21.349	0.497	angry	Picture	86.7	n/a	1	1	12	n/a	12	91	3	n/a	n/a	n/a	n/a	54.307	AF20ANS.jpg
21.846	0.514	Blank	Blank	86.186	n/a	1	1	12	n/a	12	n/a	3	n/a	n/a	n/a	n/a	54.804	n/a
22.376	0.497	angry	Picture	85.672	n/a	1	1	13	n/a	13	115	3	n/a	n/a	n/a	n/a	55.335	AM23ANS.jpg
22.874	0.514	Blank	Blank	85.158	n/a	1	1	13	n/a	13	n/a	3	n/a	n/a	n/a	n/a	55.832	n/a
23.404	0.497	angry	Picture	84.644	n/a	1	1	14	n/a	14	97	3	n/a	n/a	n/a	n/a	56.362	BF28ANS.jpg
23.902	0.514	Blank	Blank	84.13	n/a	1	1	14	n/a	14	n/a	3	n/a	n/a	n/a	n/a	56.86	n/a
24.432	0.497	angry	Picture	83.616	n/a	1	1	15	n/a	15	82	3	n/a	n/a	n/a	n/a	57.39	AF03ANS.jpg
24.93	0.514	Blank	Blank	83.102	n/a	1	1	15	n/a	15	n/a	3	n/a	n/a	n/a	n/a	57.888	n/a
25.46	0.496	angry	Picture	82.59	n/a	1	1	16	n/a	16	96	3	n/a	n/a	n/a	n/a	58.418	AF26ANS.jpg
25.956	0.515	Blank	Blank	82.074	n/a	1	1	16	n/a	16	n/a	3	n/a	n/a	n/a	n/a	58.914	n/a
26.488	0.497	angry	Picture	81.56	n/a	1	1	17	n/a	17	109	3	n/a	n/a	n/a	n/a	59.446	AM10ANS.jpg
26.985	0.514	Blank	Blank	81.047	n/a	1	1	17	n/a	17	n/a	3	n/a	n/a	n/a	n/a	59.944	n/a
27.516	0.497	angry	Picture	80.533	n/a	1	1	18	n/a	18	114	3	n/a	n/a	n/a	n/a	60.474	AM22ANS.jpg
28.013	0.514	Blank	Blank	80.019	n/a	1	1	18	n/a	18	n/a	3	n/a	n/a	n/a	n/a	60.971	n/a
28.544	0.497	angry	Picture	79.505	n/a	1	1	19	n/a	19	120	3	n/a	n/a	n/a	n/a	61.502	AM35ANS.jpg
29.041	0.514	Blank	Blank	78.991	n/a	1	1	19	n/a	19	n/a	3	n/a	n/a	n/a	n/a	61.999	n/a
29.572	0.497	angry	Picture	78.477	n/a	1	1	20	n/a	20	81	3	n/a	n/a	n/a	n/a	62.53	AF01ANS.jpg
30.069	0.514	Blank	Blank	77.963	n/a	1	1	20	n/a	20	n/a	3	n/a	n/a	n/a	n/a	63.027	n/a
30.599	10.014	ITI	Fixation+	67.933	n/a	1	n/a	n/a	n/a	n/a	n/a	n/a	n/a	n/a	n/a	n/a	63.558	n/a
40.63	0.497	neutral	Picture	67.419	n/a	1	2	1	n/a	21	28	1	n/a	n/a	n/a	n/a	73.588	AM09NES.jpg
41.127	0.514	Blank	Blank	66.905	n/a	1	2	1	n/a	21	n/a	1	n/a	n/a	n/a	n/a	74.085	n/a
41.658	0.497	neutral	Picture	66.391	n/a	1	2	2	n/a	22	27	1	n/a	n/a	n/a	n/a	74.616	BM08NES.jpg
42.155	0.514	Blank	Blank	65.877	n/a	1	2	2	n/a	22	n/a	1	n/a	n/a	n/a	n/a	75.113	n/a
42.685	0.497	neutral	Picture	65.363	n/a	1	2	3	n/a	23	16	1	n/a	n/a	n/a	n/a	75.644	AF26NES.jpg
43.183	0.514	Blank	Blank	64.849	n/a	1	2	3	n/a	23	n/a	1	n/a	n/a	n/a	n/a	76.141	n/a
43.713	0.497	neutral	Picture	64.335	n/a	1	2	4	n/a	24	3	1	n/a	n/a	n/a	n/a	76.671	BF04NES.jpg
44.211	0.514	Blank	Blank	63.821	n/a	1	2	4	n/a	24	n/a	1	n/a	n/a	n/a	n/a	77.169	n/a
44.741	0.497	neutral	Picture	63.307	n/a	1	2	5	n/a	25	32	1	n/a	n/a	n/a	n/a	77.699	AM14NES.jpg
45.239	0.514	Blank	Blank	62.793	n/a	1	2	5	n/a	25	n/a	1	n/a	n/a	n/a	n/a	78.197	n/a
45.769	0.497	neutral	Picture	62.279	n/a	1	2	6	n/a	26	37	1	n/a	n/a	n/a	n/a	78.727	BM25NES.jpg
46.266	0.514	Blank	Blank	61.765	n/a	1	2	6	n/a	26	n/a	1	n/a	n/a	n/a	n/a	79.225	n/a
46.797	0.497	neutral	Picture	61.252	n/a	1	2	7	n/a	27	15	1	n/a	n/a	n/a	n/a	79.755	AF25NES.jpg
47.294	0.514	Blank	Blank	60.738	n/a	1	2	7	n/a	27	n/a	1	n/a	n/a	n/a	n/a	80.252	n/a
47.825	0.497	neutral	Picture	60.224	n/a	1	2	8	n/a	28	23	1	n/a	n/a	n/a	n/a	80.783	AM04NES.jpg
48.322	0.514	Blank	Blank	59.71	n/a	1	2	8	n/a	28	n/a	1	n/a	n/a	n/a	n/a	81.28	n/a
48.853	0.497	neutral	Picture	59.196	n/a	1	2	9	n/a	29	34	1	n/a	n/a	n/a	n/a	81.811	AM22NES.jpg
49.35	0.514	Blank	Blank	58.682	n/a	1	2	9	n/a	29	n/a	1	n/a	n/a	n/a	n/a	82.308	n/a
49.881	0.497	neutral	Picture	58.168	n/a	1	2	10	n/a	30	24	1	n/a	n/a	n/a	n/a	82.839	BM05NES.jpg
50.378	0.514	Blank	Blank	57.654	n/a	1	2	10	n/a	30	n/a	1	n/a	n/a	n/a	n/a	83.336	n/a
50.908	0.497	neutral	Picture	57.14	n/a	1	2	11	n/a	31	12	1	n/a	n/a	n/a	n/a	83.867	AF21NES.jpg
51.406	0.514	Blank	Blank	56.626	n/a	1	2	11	n/a	31	n/a	1	n/a	n/a	n/a	n/a	84.364	n/a
51.936	0.497	neutral	Picture	56.112	n/a	1	2	12	n/a	32	6	1	n/a	n/a	n/a	n/a	84.894	AF09NES.jpg
52.434	0.514	Blank	Blank	55.598	n/a	1	2	12	n/a	32	n/a	1	n/a	n/a	n/a	n/a	85.392	n/a
52.964	0.497	neutral	Picture	55.084	n/a	1	2	13	n/a	33	17	1	n/a	n/a	n/a	n/a	85.922	BF28NES.jpg
53.462	0.514	Blank	Blank	54.57	n/a	1	2	13	n/a	33	n/a	1	n/a	n/a	n/a	n/a	86.42	n/a
53.992	0.497	neutral	Picture	54.056	n/a	1	2	14	n/a	34	2	1	n/a	n/a	n/a	n/a	86.95	AF03NES.jpg
54.489	0.514	Blank	Blank	53.542	n/a	1	2	14	n/a	34	n/a	1	n/a	n/a	n/a	n/a	87.448	n/a
55.02	0.497	neutral	Picture	53.028	n/a	1	2	15	n/a	35	9	1	n/a	n/a	n/a	n/a	87.978	AF17NES.jpg
55.517	0.514	Blank	Blank	52.514	n/a	1	2	15	n/a	35	n/a	1	n/a	n/a	n/a	n/a	88.475	n/a
56.048	0.497	neutral	Picture	52.001	n/a	1	2	16	n/a	36	25	1	n/a	n/a	n/a	n/a	89.006	BM06NES.jpg
56.545	0.514	Blank	Blank	51.487	n/a	1	2	16	n/a	36	n/a	1	n/a	n/a	n/a	n/a	89.503	n/a
57.076	0.497	neutral	Picture	50.973	n/a	1	2	17	n/a	37	8	1	n/a	n/a	n/a	n/a	90.034	AF14NES.jpg
57.573	0.514	Blank	Blank	50.459	n/a	1	2	17	n/a	37	n/a	1	n/a	n/a	n/a	n/a	90.531	n/a
58.104	0.497	neutral	Picture	49.945	n/a	1	2	18	n/a	38	19	1	n/a	n/a	n/a	n/a	91.062	AF31NES.jpg
58.601	0.514	Blank	Blank	49.431	n/a	1	2	18	n/a	38	n/a	1	n/a	n/a	n/a	n/a	91.559	n/a
59.131	0.497	neutral	Picture	48.917	n/a	1	2	19	n/a	39	14	1	n/a	n/a	n/a	n/a	92.09	AF23NES.jpg
59.629	0.514	Blank	Blank	48.403	n/a	1	2	19	n/a	39	n/a	1	n/a	n/a	n/a	n/a	92.587	n/a
60.159	0.497	neutral	Picture	47.889	n/a	1	2	20	n/a	40	4	1	n/a	n/a	n/a	n/a	93.118	AF05NES.jpg
60.657	0.514	Blank	Blank	47.375	n/a	1	2	20	n/a	40	n/a	1	n/a	n/a	n/a	n/a	93.615	n/a
61.187	10.014	ITI	Fixation+	37.345	n/a	1	n/a	n/a	n/a	n/a	n/a	n/a	n/a	n/a	n/a	n/a	94.145	n/a
71.217	0.497	angry	Picture	36.831	n/a	1	3	1	n/a	41	84	3	n/a	n/a	n/a	n/a	104.176	AF05ANS.jpg
71.715	0.514	Blank	Blank	36.317	n/a	1	3	1	n/a	41	n/a	3	n/a	n/a	n/a	n/a	104.673	n/a
72.245	0.497	angry	Picture	35.803	n/a	1	3	2	n/a	42	92	3	n/a	n/a	n/a	n/a	105.203	AF21ANS.jpg
72.743	0.514	Blank	Blank	35.289	n/a	1	3	2	n/a	42	n/a	3	n/a	n/a	n/a	n/a	105.701	n/a
73.273	0.497	angry	Picture	34.775	n/a	1	3	3	n/a	43	86	3	n/a	n/a	n/a	n/a	106.231	AF09ANS.jpg
73.77	0.514	Blank	Blank	34.261	n/a	1	3	3	n/a	43	n/a	3	n/a	n/a	n/a	n/a	106.729	n/a
74.301	0.497	angry	Picture	33.747	n/a	1	3	4	n/a	44	93	3	n/a	n/a	n/a	n/a	107.259	BF22ANS.jpg
74.798	0.514	Blank	Blank	33.233	n/a	1	3	4	n/a	44	n/a	3	n/a	n/a	n/a	n/a	107.757	n/a
75.329	0.497	angry	Picture	32.719	n/a	1	3	5	n/a	45	88	3	n/a	n/a	n/a	n/a	108.287	AF14ANS.jpg
75.826	0.514	Blank	Blank	32.206	n/a	1	3	5	n/a	45	n/a	3	n/a	n/a	n/a	n/a	108.784	n/a
76.357	0.497	angry	Picture	31.692	n/a	1	3	6	n/a	46	113	3	n/a	n/a	n/a	n/a	109.315	AM21ANS.jpg
76.854	0.514	Blank	Blank	31.178	n/a	1	3	6	n/a	46	n/a	3	n/a	n/a	n/a	n/a	109.812	n/a
77.385	0.497	angry	Picture	30.664	n/a	1	3	7	n/a	47	95	3	n/a	n/a	n/a	n/a	110.343	AF25ANS.jpg
77.882	0.514	Blank	Blank	30.15	n/a	1	3	7	n/a	47	n/a	3	n/a	n/a	n/a	n/a	110.84	n/a
78.413	0.497	angry	Picture	29.636	n/a	1	3	8	n/a	48	102	3	n/a	n/a	n/a	n/a	111.371	BM03ANS.jpg
78.91	0.514	Blank	Blank	29.122	n/a	1	3	8	n/a	48	n/a	3	n/a	n/a	n/a	n/a	111.868	n/a
79.441	0.497	angry	Picture	28.608	n/a	1	3	9	n/a	49	112	3	n/a	n/a	n/a	n/a	112.399	AM14ANS.jpg
79.938	0.514	Blank	Blank	28.094	n/a	1	3	9	n/a	49	n/a	3	n/a	n/a	n/a	n/a	112.896	n/a
80.468	0.497	angry	Picture	27.58	n/a	1	3	10	n/a	50	83	3	n/a	n/a	n/a	n/a	113.427	BF04ANS.jpg
80.966	0.514	Blank	Blank	27.066	n/a	1	3	10	n/a	50	n/a	3	n/a	n/a	n/a	n/a	113.924	n/a
81.496	0.497	angry	Picture	26.552	n/a	1	3	11	n/a	51	90	3	n/a	n/a	n/a	n/a	114.454	AF18ANS.jpg
81.994	0.514	Blank	Blank	26.038	n/a	1	3	11	n/a	51	n/a	3	n/a	n/a	n/a	n/a	114.952	n/a
82.524	0.497	angry	Picture	25.524	n/a	1	3	12	n/a	52	117	3	n/a	n/a	n/a	n/a	115.482	BM25ANS.jpg
83.022	0.514	Blank	Blank	25.01	n/a	1	3	12	n/a	52	n/a	3	n/a	n/a	n/a	n/a	115.98	n/a
83.552	0.497	angry	Picture	24.496	n/a	1	3	13	n/a	53	94	3	n/a	n/a	n/a	n/a	116.51	AF23ANS.jpg
84.049	0.514	Blank	Blank	23.982	n/a	1	3	13	n/a	53	n/a	3	n/a	n/a	n/a	n/a	117.008	n/a
84.58	0.497	angry	Picture	23.469	n/a	1	3	14	n/a	54	106	3	n/a	n/a	n/a	n/a	117.538	AM07ANS.jpg
85.077	0.514	Blank	Blank	22.955	n/a	1	3	14	n/a	54	n/a	3	n/a	n/a	n/a	n/a	118.035	n/a
85.608	0.497	angry	Picture	22.441	n/a	1	3	15	n/a	55	105	3	n/a	n/a	n/a	n/a	118.566	BM06ANS.jpg
86.105	0.514	Blank	Blank	21.927	n/a	1	3	15	n/a	55	n/a	3	n/a	n/a	n/a	n/a	119.063	n/a
86.636	0.497	angry	Picture	21.413	n/a	1	3	16	n/a	56	116	3	n/a	n/a	n/a	n/a	119.594	BM24ANS.jpg
87.133	0.514	Blank	Blank	20.899	n/a	1	3	16	n/a	56	n/a	3	n/a	n/a	n/a	n/a	120.091	n/a
87.663	0.497	angry	Picture	20.385	n/a	1	3	17	n/a	57	89	3	n/a	n/a	n/a	n/a	120.622	AF17ANS.jpg
88.161	0.514	Blank	Blank	19.871	n/a	1	3	17	n/a	57	n/a	3	n/a	n/a	n/a	n/a	121.119	n/a
88.691	0.497	angry	Picture	19.357	n/a	1	3	18	n/a	58	118	3	n/a	n/a	n/a	n/a	121.65	BM26ANS.jpg
89.189	0.514	Blank	Blank	18.843	n/a	1	3	18	n/a	58	n/a	3	n/a	n/a	n/a	n/a	122.147	n/a
89.719	0.497	angry	Picture	18.329	n/a	1	3	19	n/a	59	100	3	n/a	n/a	n/a	n/a	122.677	AF32ANS.jpg
90.217	0.514	Blank	Blank	17.815	n/a	1	3	19	n/a	59	n/a	3	n/a	n/a	n/a	n/a	123.175	n/a
90.747	0.497	angry	Picture	17.301	n/a	1	3	20	n/a	60	119	3	n/a	n/a	n/a	n/a	123.705	BM28ANS.jpg
91.244	0.514	Blank	Blank	16.787	n/a	1	3	20	n/a	60	n/a	3	n/a	n/a	n/a	n/a	124.203	n/a
91.775	10.014	ITI	Fixation+	6.757	n/a	1	n/a	n/a	n/a	n/a	n/a	n/a	n/a	n/a	n/a	n/a	124.733	n/a
108.546	n/a	ConfirmRating	Rate	n/a	6.748	1	n/a	n/a	0	n/a	n/a	n/a	2	Angry	50	50	141.504	n/a
114.201	n/a	ConfirmRating	Rate	n/a	5.637	1	n/a	n/a	1	n/a	n/a	n/a	3	Angry	36	49	147.159	n/a
114.223	10.014	ITI	Fixation+	94.353	n/a	2	n/a	n/a	n/a	n/a	n/a	n/a	n/a	n/a	n/a	n/a	147.181	n/a
124.253	0.497	happy	Picture	93.839	n/a	2	4	1	n/a	61	79	2	n/a	n/a	n/a	n/a	157.211	BM28HAS.jpg
124.75	0.514	Blank	Blank	93.325	n/a	2	4	1	n/a	61	n/a	2	n/a	n/a	n/a	n/a	157.708	n/a
125.281	0.497	happy	Picture	92.811	n/a	2	4	2	n/a	62	61	2	n/a	n/a	n/a	n/a	158.239	AM01HAS.jpg
125.778	0.514	Blank	Blank	92.297	n/a	2	4	2	n/a	62	n/a	2	n/a	n/a	n/a	n/a	158.736	n/a
126.309	0.497	happy	Picture	91.783	n/a	2	4	3	n/a	63	57	2	n/a	n/a	n/a	n/a	159.267	BF28HAS.jpg
126.806	0.514	Blank	Blank	91.269	n/a	2	4	3	n/a	63	n/a	2	n/a	n/a	n/a	n/a	159.764	n/a
127.337	0.497	happy	Picture	90.755	n/a	2	4	4	n/a	64	77	2	n/a	n/a	n/a	n/a	160.295	BM25HAS.jpg
127.834	0.514	Blank	Blank	90.241	n/a	2	4	4	n/a	64	n/a	2	n/a	n/a	n/a	n/a	160.792	n/a
128.364	0.497	happy	Picture	89.727	n/a	2	4	5	n/a	65	47	2	n/a	n/a	n/a	n/a	161.323	BF11HAS.jpg
128.862	0.514	Blank	Blank	89.214	n/a	2	4	5	n/a	65	n/a	2	n/a	n/a	n/a	n/a	161.82	n/a
129.392	0.497	happy	Picture	88.7	n/a	2	4	6	n/a	66	50	2	n/a	n/a	n/a	n/a	162.351	AF18HAS.jpg
129.89	0.514	Blank	Blank	88.186	n/a	2	4	6	n/a	66	n/a	2	n/a	n/a	n/a	n/a	162.848	n/a
130.42	0.497	happy	Picture	87.672	n/a	2	4	7	n/a	67	78	2	n/a	n/a	n/a	n/a	163.378	BM26HAS.jpg
130.917	0.514	Blank	Blank	87.158	n/a	2	4	7	n/a	67	n/a	2	n/a	n/a	n/a	n/a	163.876	n/a
131.448	0.497	happy	Picture	86.644	n/a	2	4	8	n/a	68	45	2	n/a	n/a	n/a	n/a	164.406	BF07HAS.jpg
131.945	0.514	Blank	Blank	86.13	n/a	2	4	8	n/a	68	n/a	2	n/a	n/a	n/a	n/a	164.904	n/a
132.476	0.497	happy	Picture	85.616	n/a	2	4	9	n/a	69	56	2	n/a	n/a	n/a	n/a	165.434	AF26HAS.jpg
132.973	0.514	Blank	Blank	85.102	n/a	2	4	9	n/a	69	n/a	2	n/a	n/a	n/a	n/a	165.931	n/a
133.504	0.497	happy	Picture	84.588	n/a	2	4	10	n/a	70	65	2	n/a	n/a	n/a	n/a	166.462	BM06HAS.jpg
134.001	0.514	Blank	Blank	84.074	n/a	2	4	10	n/a	70	n/a	2	n/a	n/a	n/a	n/a	166.959	n/a
134.532	0.497	happy	Picture	83.56	n/a	2	4	11	n/a	71	73	2	n/a	n/a	n/a	n/a	167.49	AM21HAS.jpg
135.029	0.514	Blank	Blank	83.046	n/a	2	4	11	n/a	71	n/a	2	n/a	n/a	n/a	n/a	167.987	n/a
135.56	0.497	happy	Picture	82.532	n/a	2	4	12	n/a	72	41	2	n/a	n/a	n/a	n/a	168.518	AF01HAS.jpg
136.057	0.514	Blank	Blank	82.018	n/a	2	4	12	n/a	72	n/a	2	n/a	n/a	n/a	n/a	169.015	n/a
136.588	0.497	happy	Picture	81.504	n/a	2	4	13	n/a	73	59	2	n/a	n/a	n/a	n/a	169.546	AF31HAS.jpg
137.085	0.514	Blank	Blank	80.99	n/a	2	4	13	n/a	73	n/a	2	n/a	n/a	n/a	n/a	170.043	n/a
137.615	0.497	happy	Picture	80.477	n/a	2	4	14	n/a	74	64	2	n/a	n/a	n/a	n/a	170.573	BM05HAS.jpg
138.113	0.514	Blank	Blank	79.963	n/a	2	4	14	n/a	74	n/a	2	n/a	n/a	n/a	n/a	171.071	n/a
138.643	0.497	happy	Picture	79.449	n/a	2	4	15	n/a	75	68	2	n/a	n/a	n/a	n/a	171.601	AM09HAS.jpg
139.141	0.514	Blank	Blank	78.935	n/a	2	4	15	n/a	75	n/a	2	n/a	n/a	n/a	n/a	172.099	n/a
139.671	0.497	happy	Picture	78.421	n/a	2	4	16	n/a	76	54	2	n/a	n/a	n/a	n/a	172.629	AF23HAS.jpg
140.168	0.514	Blank	Blank	77.907	n/a	2	4	16	n/a	76	n/a	2	n/a	n/a	n/a	n/a	173.127	n/a
140.699	0.497	happy	Picture	77.393	n/a	2	4	17	n/a	77	53	2	n/a	n/a	n/a	n/a	173.657	BF22HAS.jpg
141.196	0.514	Blank	Blank	76.879	n/a	2	4	17	n/a	77	n/a	2	n/a	n/a	n/a	n/a	174.155	n/a
141.727	0.497	happy	Picture	76.365	n/a	2	4	18	n/a	78	44	2	n/a	n/a	n/a	n/a	174.685	AF05HAS.jpg
142.224	0.514	Blank	Blank	75.851	n/a	2	4	18	n/a	78	n/a	2	n/a	n/a	n/a	n/a	175.182	n/a
142.755	0.497	happy	Picture	75.337	n/a	2	4	19	n/a	79	52	2	n/a	n/a	n/a	n/a	175.713	AF21HAS.jpg
143.252	0.514	Blank	Blank	74.823	n/a	2	4	19	n/a	79	n/a	2	n/a	n/a	n/a	n/a	176.21	n/a
143.783	0.497	happy	Picture	74.309	n/a	2	4	20	n/a	80	62	2	n/a	n/a	n/a	n/a	176.741	BM03HAS.jpg
144.28	0.514	Blank	Blank	73.795	n/a	2	4	20	n/a	80	n/a	2	n/a	n/a	n/a	n/a	177.238	n/a
144.81	10.014	ITI	Fixation+	63.765	n/a	2	n/a	n/a	n/a	n/a	n/a	n/a	n/a	n/a	n/a	n/a	177.769	n/a
154.841	0.497	neutral	Picture	63.251	n/a	2	5	1	n/a	81	23	1	n/a	n/a	n/a	n/a	187.799	AM04NES.jpg
155.338	0.514	Blank	Blank	62.737	n/a	2	5	1	n/a	81	n/a	1	n/a	n/a	n/a	n/a	188.296	n/a
155.869	0.497	neutral	Picture	62.223	n/a	2	5	2	n/a	82	29	1	n/a	n/a	n/a	n/a	188.827	AM10NES.jpg
156.366	0.514	Blank	Blank	61.709	n/a	2	5	2	n/a	82	n/a	1	n/a	n/a	n/a	n/a	189.324	n/a
156.896	0.497	neutral	Picture	61.195	n/a	2	5	3	n/a	83	24	1	n/a	n/a	n/a	n/a	189.855	BM05NES.jpg
157.394	0.514	Blank	Blank	60.681	n/a	2	5	3	n/a	83	n/a	1	n/a	n/a	n/a	n/a	190.352	n/a
157.924	0.497	neutral	Picture	60.168	n/a	2	5	4	n/a	84	12	1	n/a	n/a	n/a	n/a	190.882	AF21NES.jpg
158.422	0.514	Blank	Blank	59.654	n/a	2	5	4	n/a	84	n/a	1	n/a	n/a	n/a	n/a	191.38	n/a
158.951	0.498	neutral	Picture	59.14	n/a	2	5	5	n/a	85	13	1	n/a	n/a	n/a	n/a	191.91	BF22NES.jpg
159.45	0.514	Blank	Blank	58.626	n/a	2	5	5	n/a	85	n/a	1	n/a	n/a	n/a	n/a	192.408	n/a
159.98	0.497	neutral	Picture	58.112	n/a	2	5	6	n/a	86	17	1	n/a	n/a	n/a	n/a	192.938	BF28NES.jpg
160.477	0.514	Blank	Blank	57.598	n/a	2	5	6	n/a	86	n/a	1	n/a	n/a	n/a	n/a	193.436	n/a
161.008	0.497	neutral	Picture	57.084	n/a	2	5	7	n/a	87	4	1	n/a	n/a	n/a	n/a	193.966	AF05NES.jpg
161.505	0.514	Blank	Blank	56.57	n/a	2	5	7	n/a	87	n/a	1	n/a	n/a	n/a	n/a	194.464	n/a
162.036	0.497	neutral	Picture	56.056	n/a	2	5	8	n/a	88	11	1	n/a	n/a	n/a	n/a	194.994	AF20NES.jpg
162.533	0.514	Blank	Blank	55.542	n/a	2	5	8	n/a	88	n/a	1	n/a	n/a	n/a	n/a	195.491	n/a
163.064	0.497	neutral	Picture	55.028	n/a	2	5	9	n/a	89	22	1	n/a	n/a	n/a	n/a	196.022	BM03NES.jpg
163.561	0.514	Blank	Blank	54.514	n/a	2	5	9	n/a	89	n/a	1	n/a	n/a	n/a	n/a	196.519	n/a
164.092	0.497	neutral	Picture	54.0	n/a	2	5	10	n/a	90	15	1	n/a	n/a	n/a	n/a	197.05	AF25NES.jpg
164.589	0.514	Blank	Blank	53.486	n/a	2	5	10	n/a	90	n/a	1	n/a	n/a	n/a	n/a	197.547	n/a
165.119	0.497	neutral	Picture	52.972	n/a	2	5	11	n/a	91	19	1	n/a	n/a	n/a	n/a	198.078	AF31NES.jpg
165.617	0.514	Blank	Blank	52.458	n/a	2	5	11	n/a	91	n/a	1	n/a	n/a	n/a	n/a	198.575	n/a
166.147	0.497	neutral	Picture	51.944	n/a	2	5	12	n/a	92	9	1	n/a	n/a	n/a	n/a	199.106	AF17NES.jpg
166.645	0.514	Blank	Blank	51.43	n/a	2	5	12	n/a	92	n/a	1	n/a	n/a	n/a	n/a	199.603	n/a
167.175	0.497	neutral	Picture	50.917	n/a	2	5	13	n/a	93	14	1	n/a	n/a	n/a	n/a	200.133	AF23NES.jpg
167.673	0.514	Blank	Blank	50.403	n/a	2	5	13	n/a	93	n/a	1	n/a	n/a	n/a	n/a	200.631	n/a
168.203	0.497	neutral	Picture	49.889	n/a	2	5	14	n/a	94	36	1	n/a	n/a	n/a	n/a	201.161	BM24NES.jpg
168.701	0.514	Blank	Blank	49.375	n/a	2	5	14	n/a	94	n/a	1	n/a	n/a	n/a	n/a	201.659	n/a
169.231	0.497	neutral	Picture	48.861	n/a	2	5	15	n/a	95	34	1	n/a	n/a	n/a	n/a	202.189	AM22NES.jpg
169.728	0.514	Blank	Blank	48.347	n/a	2	5	15	n/a	95	n/a	1	n/a	n/a	n/a	n/a	202.687	n/a
170.259	0.497	neutral	Picture	47.833	n/a	2	5	16	n/a	96	10	1	n/a	n/a	n/a	n/a	203.217	AF18NES.jpg
170.756	0.514	Blank	Blank	47.319	n/a	2	5	16	n/a	96	n/a	1	n/a	n/a	n/a	n/a	203.714	n/a
171.287	0.497	neutral	Picture	46.805	n/a	2	5	17	n/a	97	5	1	n/a	n/a	n/a	n/a	204.245	BF07NES.jpg
171.784	0.514	Blank	Blank	46.291	n/a	2	5	17	n/a	97	n/a	1	n/a	n/a	n/a	n/a	204.742	n/a
172.315	0.497	neutral	Picture	45.777	n/a	2	5	18	n/a	98	25	1	n/a	n/a	n/a	n/a	205.273	BM06NES.jpg
172.812	0.514	Blank	Blank	45.263	n/a	2	5	18	n/a	98	n/a	1	n/a	n/a	n/a	n/a	205.77	n/a
173.343	0.497	neutral	Picture	44.749	n/a	2	5	19	n/a	99	39	1	n/a	n/a	n/a	n/a	206.301	AM28NES.jpg
173.84	0.514	Blank	Blank	44.235	n/a	2	5	19	n/a	99	n/a	1	n/a	n/a	n/a	n/a	206.798	n/a
174.37	0.497	neutral	Picture	43.721	n/a	2	5	20	n/a	100	33	1	n/a	n/a	n/a	n/a	207.329	AM21NES.jpg
174.868	0.514	Blank	Blank	43.207	n/a	2	5	20	n/a	100	n/a	1	n/a	n/a	n/a	n/a	207.826	n/a
175.398	10.014	ITI	Fixation+	33.177	n/a	2	n/a	n/a	n/a	n/a	n/a	n/a	n/a	n/a	n/a	n/a	208.357	n/a
185.428	0.497	happy	Picture	32.663	n/a	2	6	1	n/a	101	74	2	n/a	n/a	n/a	n/a	218.387	AM22HAS.jpg
185.926	0.514	Blank	Blank	32.149	n/a	2	6	1	n/a	101	n/a	2	n/a	n/a	n/a	n/a	218.884	n/a
186.456	0.497	happy	Picture	31.636	n/a	2	6	2	n/a	102	76	2	n/a	n/a	n/a	n/a	219.415	BM24HAS.jpg
186.953	0.515	Blank	Blank	31.121	n/a	2	6	2	n/a	102	n/a	2	n/a	n/a	n/a	n/a	219.911	n/a
187.484	0.497	happy	Picture	30.608	n/a	2	6	3	n/a	103	80	2	n/a	n/a	n/a	n/a	220.442	BM35HAS.jpg
187.982	0.514	Blank	Blank	30.094	n/a	2	6	3	n/a	103	n/a	2	n/a	n/a	n/a	n/a	220.94	n/a
188.512	0.497	happy	Picture	29.58	n/a	2	6	4	n/a	104	75	2	n/a	n/a	n/a	n/a	221.47	AM23HAS.jpg
189.01	0.514	Blank	Blank	29.066	n/a	2	6	4	n/a	104	n/a	2	n/a	n/a	n/a	n/a	221.968	n/a
189.54	0.497	happy	Picture	28.552	n/a	2	6	5	n/a	105	49	2	n/a	n/a	n/a	n/a	222.498	AF17HAS.jpg
190.037	0.514	Blank	Blank	28.038	n/a	2	6	5	n/a	105	n/a	2	n/a	n/a	n/a	n/a	222.996	n/a
190.568	0.497	happy	Picture	27.524	n/a	2	6	6	n/a	106	43	2	n/a	n/a	n/a	n/a	223.526	BF04HAS.jpg
191.065	0.514	Blank	Blank	27.01	n/a	2	6	6	n/a	106	n/a	2	n/a	n/a	n/a	n/a	224.024	n/a
191.596	0.497	happy	Picture	26.496	n/a	2	6	7	n/a	107	70	2	n/a	n/a	n/a	n/a	224.554	BM11HAS.jpg
192.093	0.514	Blank	Blank	25.982	n/a	2	6	7	n/a	107	n/a	2	n/a	n/a	n/a	n/a	225.051	n/a
192.624	0.497	happy	Picture	25.468	n/a	2	6	8	n/a	108	66	2	n/a	n/a	n/a	n/a	225.582	BM07HAS.jpg
193.121	0.514	Blank	Blank	24.954	n/a	2	6	8	n/a	108	n/a	2	n/a	n/a	n/a	n/a	226.079	n/a
193.652	0.497	happy	Picture	24.44	n/a	2	6	9	n/a	109	48	2	n/a	n/a	n/a	n/a	226.61	AF14HAS.jpg
194.149	0.514	Blank	Blank	23.926	n/a	2	6	9	n/a	109	n/a	2	n/a	n/a	n/a	n/a	227.107	n/a
194.679	0.497	happy	Picture	23.412	n/a	2	6	10	n/a	110	58	2	n/a	n/a	n/a	n/a	227.638	BF29HAS.jpg
195.177	0.514	Blank	Blank	22.899	n/a	2	6	10	n/a	110	n/a	2	n/a	n/a	n/a	n/a	228.135	n/a
195.707	0.497	happy	Picture	22.385	n/a	2	6	11	n/a	111	63	2	n/a	n/a	n/a	n/a	228.666	AM04HAS.jpg
196.205	0.514	Blank	Blank	21.871	n/a	2	6	11	n/a	111	n/a	2	n/a	n/a	n/a	n/a	229.163	n/a
196.735	0.497	happy	Picture	21.357	n/a	2	6	12	n/a	112	72	2	n/a	n/a	n/a	n/a	229.693	AM14HAS.jpg
197.233	0.514	Blank	Blank	20.843	n/a	2	6	12	n/a	112	n/a	2	n/a	n/a	n/a	n/a	230.191	n/a
197.763	0.497	happy	Picture	20.329	n/a	2	6	13	n/a	113	55	2	n/a	n/a	n/a	n/a	230.721	AF25HAS.jpg
198.26	0.514	Blank	Blank	19.815	n/a	2	6	13	n/a	113	n/a	2	n/a	n/a	n/a	n/a	231.219	n/a
198.791	0.497	happy	Picture	19.301	n/a	2	6	14	n/a	114	42	2	n/a	n/a	n/a	n/a	231.749	AF03HAS.jpg
199.288	0.514	Blank	Blank	18.787	n/a	2	6	14	n/a	114	n/a	2	n/a	n/a	n/a	n/a	232.246	n/a
199.819	0.497	happy	Picture	18.273	n/a	2	6	15	n/a	115	60	2	n/a	n/a	n/a	n/a	232.777	AF32HAS.jpg
200.316	0.514	Blank	Blank	17.759	n/a	2	6	15	n/a	115	n/a	2	n/a	n/a	n/a	n/a	233.274	n/a
200.847	0.497	happy	Picture	17.245	n/a	2	6	16	n/a	116	67	2	n/a	n/a	n/a	n/a	233.805	BM08HAS.jpg
201.344	0.514	Blank	Blank	16.731	n/a	2	6	16	n/a	116	n/a	2	n/a	n/a	n/a	n/a	234.302	n/a
201.875	0.497	happy	Picture	16.217	n/a	2	6	17	n/a	117	51	2	n/a	n/a	n/a	n/a	234.833	AF20HAS.jpg
202.372	0.514	Blank	Blank	15.703	n/a	2	6	17	n/a	117	n/a	2	n/a	n/a	n/a	n/a	235.33	n/a
202.903	0.497	happy	Picture	15.189	n/a	2	6	18	n/a	118	71	2	n/a	n/a	n/a	n/a	235.861	BM12HAS.jpg
203.4	0.514	Blank	Blank	14.675	n/a	2	6	18	n/a	118	n/a	2	n/a	n/a	n/a	n/a	236.358	n/a
203.93	0.497	happy	Picture	14.161	n/a	2	6	19	n/a	119	69	2	n/a	n/a	n/a	n/a	236.888	AM10HAS.jpg
204.428	0.514	Blank	Blank	13.648	n/a	2	6	19	n/a	119	n/a	2	n/a	n/a	n/a	n/a	237.386	n/a
204.958	0.497	happy	Picture	13.134	n/a	2	6	20	n/a	120	46	2	n/a	n/a	n/a	n/a	237.917	AF09HAS.jpg
205.456	0.514	Blank	Blank	12.62	n/a	2	6	20	n/a	120	n/a	2	n/a	n/a	n/a	n/a	238.414	n/a
205.986	10.014	ITI	Fixation+	2.59	n/a	2	n/a	n/a	n/a	n/a	n/a	n/a	n/a	n/a	n/a	n/a	238.944	n/a
218.589	n/a	ConfirmRating	Rate	n/a	2.586	2	n/a	n/a	0	n/a	n/a	n/a	2	Happy	50	50	251.547	n/a
222.588	n/a	ConfirmRating	Rate	n/a	3.979	2	n/a	n/a	1	n/a	n/a	n/a	3	Happy	16	49	255.546	n/a
222.615	15.004	Rest	Picture	n/a	n/a	n/a	n/a	n/a	n/a	n/a	n/a	n/a	0	n/a	0	0	255.573	n/a
237.635	10.014	ITI	Fixation+	92.944	n/a	3	n/a	n/a	n/a	n/a	n/a	n/a	n/a	n/a	n/a	n/a	270.593	n/a
247.665	0.497	angry	Picture	92.43	n/a	3	7	1	n/a	1	108	3	n/a	n/a	n/a	n/a	280.623	AM09ANS.jpg
248.162	0.514	Blank	Blank	91.916	n/a	3	7	1	n/a	1	n/a	3	n/a	n/a	n/a	n/a	281.121	n/a
248.693	0.497	angry	Picture	91.402	n/a	3	7	2	n/a	2	99	3	n/a	n/a	n/a	n/a	281.651	AF31ANS.jpg
249.19	0.514	Blank	Blank	90.888	n/a	3	7	2	n/a	2	n/a	3	n/a	n/a	n/a	n/a	282.149	n/a
249.721	0.497	angry	Picture	90.374	n/a	3	7	3	n/a	3	98	3	n/a	n/a	n/a	n/a	282.679	BF29ANS.jpg
250.218	0.514	Blank	Blank	89.86	n/a	3	7	3	n/a	3	n/a	3	n/a	n/a	n/a	n/a	283.176	n/a
250.749	0.497	angry	Picture	89.346	n/a	3	7	4	n/a	4	107	3	n/a	n/a	n/a	n/a	283.707	BM08ANS.jpg
251.246	0.514	Blank	Blank	88.832	n/a	3	7	4	n/a	4	n/a	3	n/a	n/a	n/a	n/a	284.204	n/a
251.777	0.497	angry	Picture	88.318	n/a	3	7	5	n/a	5	104	3	n/a	n/a	n/a	n/a	284.735	BM05ANS.jpg
252.274	0.514	Blank	Blank	87.805	n/a	3	7	5	n/a	5	n/a	3	n/a	n/a	n/a	n/a	285.232	n/a
252.805	0.497	angry	Picture	87.291	n/a	3	7	6	n/a	6	101	3	n/a	n/a	n/a	n/a	285.763	AM01ANS.jpg
253.302	0.514	Blank	Blank	86.777	n/a	3	7	6	n/a	6	n/a	3	n/a	n/a	n/a	n/a	286.26	n/a
253.833	0.497	angry	Picture	86.263	n/a	3	7	7	n/a	7	103	3	n/a	n/a	n/a	n/a	286.791	AM04ANS.jpg
254.33	0.514	Blank	Blank	85.749	n/a	3	7	7	n/a	7	n/a	3	n/a	n/a	n/a	n/a	287.288	n/a
254.86	0.497	angry	Picture	85.235	n/a	3	7	8	n/a	8	111	3	n/a	n/a	n/a	n/a	287.818	BM12ANS.jpg
255.358	0.514	Blank	Blank	84.721	n/a	3	7	8	n/a	8	n/a	3	n/a	n/a	n/a	n/a	288.316	n/a
255.888	0.497	angry	Picture	84.207	n/a	3	7	9	n/a	9	110	3	n/a	n/a	n/a	n/a	288.846	AM11ANS.jpg
256.386	0.514	Blank	Blank	83.693	n/a	3	7	9	n/a	9	n/a	3	n/a	n/a	n/a	n/a	289.344	n/a
256.916	0.497	angry	Picture	83.179	n/a	3	7	10	n/a	10	85	3	n/a	n/a	n/a	n/a	289.874	BF07ANS.jpg
257.413	0.514	Blank	Blank	82.665	n/a	3	7	10	n/a	10	n/a	3	n/a	n/a	n/a	n/a	290.372	n/a
257.944	0.497	angry	Picture	82.151	n/a	3	7	11	n/a	11	87	3	n/a	n/a	n/a	n/a	290.902	BF11ANS.jpg
258.441	0.514	Blank	Blank	81.637	n/a	3	7	11	n/a	11	n/a	3	n/a	n/a	n/a	n/a	291.4	n/a
258.972	0.497	angry	Picture	81.123	n/a	3	7	12	n/a	12	91	3	n/a	n/a	n/a	n/a	291.93	AF20ANS.jpg
259.469	0.514	Blank	Blank	80.609	n/a	3	7	12	n/a	12	n/a	3	n/a	n/a	n/a	n/a	292.427	n/a
260.0	0.497	angry	Picture	80.095	n/a	3	7	13	n/a	13	115	3	n/a	n/a	n/a	n/a	292.958	AM23ANS.jpg
260.497	0.514	Blank	Blank	79.581	n/a	3	7	13	n/a	13	n/a	3	n/a	n/a	n/a	n/a	293.455	n/a
261.028	0.497	angry	Picture	79.067	n/a	3	7	14	n/a	14	97	3	n/a	n/a	n/a	n/a	293.986	BF28ANS.jpg
261.525	0.514	Blank	Blank	78.554	n/a	3	7	14	n/a	14	n/a	3	n/a	n/a	n/a	n/a	294.483	n/a
262.055	0.497	angry	Picture	78.04	n/a	3	7	15	n/a	15	82	3	n/a	n/a	n/a	n/a	295.014	AF03ANS.jpg
262.553	0.514	Blank	Blank	77.526	n/a	3	7	15	n/a	15	n/a	3	n/a	n/a	n/a	n/a	295.511	n/a
263.083	0.497	angry	Picture	77.012	n/a	3	7	16	n/a	16	96	3	n/a	n/a	n/a	n/a	296.042	AF26ANS.jpg
263.581	0.514	Blank	Blank	76.498	n/a	3	7	16	n/a	16	n/a	3	n/a	n/a	n/a	n/a	296.539	n/a
264.111	0.497	angry	Picture	75.984	n/a	3	7	17	n/a	17	109	3	n/a	n/a	n/a	n/a	297.07	AM10ANS.jpg
264.609	0.514	Blank	Blank	75.47	n/a	3	7	17	n/a	17	n/a	3	n/a	n/a	n/a	n/a	297.567	n/a
265.139	0.497	angry	Picture	74.956	n/a	3	7	18	n/a	18	114	3	n/a	n/a	n/a	n/a	298.097	AM22ANS.jpg
265.637	0.514	Blank	Blank	74.442	n/a	3	7	18	n/a	18	n/a	3	n/a	n/a	n/a	n/a	298.595	n/a
266.167	0.497	angry	Picture	73.928	n/a	3	7	19	n/a	19	120	3	n/a	n/a	n/a	n/a	299.125	AM35ANS.jpg
266.664	0.514	Blank	Blank	73.414	n/a	3	7	19	n/a	19	n/a	3	n/a	n/a	n/a	n/a	299.623	n/a
267.195	0.497	angry	Picture	72.9	n/a	3	7	20	n/a	20	81	3	n/a	n/a	n/a	n/a	300.153	AF01ANS.jpg
267.692	0.514	Blank	Blank	72.386	n/a	3	7	20	n/a	20	n/a	3	n/a	n/a	n/a	n/a	300.651	n/a
268.223	10.014	ITI	Fixation+	62.356	n/a	3	n/a	n/a	n/a	n/a	n/a	n/a	n/a	n/a	n/a	n/a	301.181	n/a
278.253	0.497	neutral	Picture	61.842	n/a	3	8	1	n/a	21	28	1	n/a	n/a	n/a	n/a	311.211	AM09NES.jpg
278.75	0.514	Blank	Blank	61.328	n/a	3	8	1	n/a	21	n/a	1	n/a	n/a	n/a	n/a	311.709	n/a
279.281	0.497	neutral	Picture	60.814	n/a	3	8	2	n/a	22	27	1	n/a	n/a	n/a	n/a	312.239	BM08NES.jpg
279.778	0.514	Blank	Blank	60.3	n/a	3	8	2	n/a	22	n/a	1	n/a	n/a	n/a	n/a	312.736	n/a
280.309	0.497	neutral	Picture	59.786	n/a	3	8	3	n/a	23	16	1	n/a	n/a	n/a	n/a	313.267	AF26NES.jpg
280.806	0.514	Blank	Blank	59.273	n/a	3	8	3	n/a	23	n/a	1	n/a	n/a	n/a	n/a	313.764	n/a
281.337	0.497	neutral	Picture	58.758	n/a	3	8	4	n/a	24	3	1	n/a	n/a	n/a	n/a	314.295	BF04NES.jpg
281.834	0.514	Blank	Blank	58.245	n/a	3	8	4	n/a	24	n/a	1	n/a	n/a	n/a	n/a	314.792	n/a
282.365	0.497	neutral	Picture	57.731	n/a	3	8	5	n/a	25	32	1	n/a	n/a	n/a	n/a	315.323	AM14NES.jpg
282.862	0.514	Blank	Blank	57.217	n/a	3	8	5	n/a	25	n/a	1	n/a	n/a	n/a	n/a	315.82	n/a
283.392	0.497	neutral	Picture	56.703	n/a	3	8	6	n/a	26	37	1	n/a	n/a	n/a	n/a	316.351	BM25NES.jpg
283.89	0.514	Blank	Blank	56.189	n/a	3	8	6	n/a	26	n/a	1	n/a	n/a	n/a	n/a	316.848	n/a
284.42	0.497	neutral	Picture	55.675	n/a	3	8	7	n/a	27	15	1	n/a	n/a	n/a	n/a	317.378	AF25NES.jpg
284.918	0.514	Blank	Blank	55.161	n/a	3	8	7	n/a	27	n/a	1	n/a	n/a	n/a	n/a	317.876	n/a
285.448	0.497	neutral	Picture	54.647	n/a	3	8	8	n/a	28	23	1	n/a	n/a	n/a	n/a	318.406	AM04NES.jpg
285.946	0.514	Blank	Blank	54.133	n/a	3	8	8	n/a	28	n/a	1	n/a	n/a	n/a	n/a	318.904	n/a
286.476	0.497	neutral	Picture	53.619	n/a	3	8	9	n/a	29	34	1	n/a	n/a	n/a	n/a	319.434	AM22NES.jpg
286.973	0.514	Blank	Blank	53.105	n/a	3	8	9	n/a	29	n/a	1	n/a	n/a	n/a	n/a	319.932	n/a
287.504	0.497	neutral	Picture	52.591	n/a	3	8	10	n/a	30	24	1	n/a	n/a	n/a	n/a	320.462	BM05NES.jpg
288.001	0.514	Blank	Blank	52.077	n/a	3	8	10	n/a	30	n/a	1	n/a	n/a	n/a	n/a	320.959	n/a
288.532	0.497	neutral	Picture	51.563	n/a	3	8	11	n/a	31	12	1	n/a	n/a	n/a	n/a	321.49	AF21NES.jpg
289.029	0.514	Blank	Blank	51.049	n/a	3	8	11	n/a	31	n/a	1	n/a	n/a	n/a	n/a	321.987	n/a
289.56	0.497	neutral	Picture	50.535	n/a	3	8	12	n/a	32	6	1	n/a	n/a	n/a	n/a	322.518	AF09NES.jpg
290.057	0.514	Blank	Blank	50.022	n/a	3	8	12	n/a	32	n/a	1	n/a	n/a	n/a	n/a	323.015	n/a
290.588	0.497	neutral	Picture	49.508	n/a	3	8	13	n/a	33	17	1	n/a	n/a	n/a	n/a	323.546	BF28NES.jpg
291.085	0.514	Blank	Blank	48.994	n/a	3	8	13	n/a	33	n/a	1	n/a	n/a	n/a	n/a	324.043	n/a
291.615	0.497	neutral	Picture	48.48	n/a	3	8	14	n/a	34	2	1	n/a	n/a	n/a	n/a	324.574	AF03NES.jpg
292.113	0.514	Blank	Blank	47.966	n/a	3	8	14	n/a	34	n/a	1	n/a	n/a	n/a	n/a	325.071	n/a
292.643	0.497	neutral	Picture	47.452	n/a	3	8	15	n/a	35	9	1	n/a	n/a	n/a	n/a	325.601	AF17NES.jpg
293.141	0.514	Blank	Blank	46.938	n/a	3	8	15	n/a	35	n/a	1	n/a	n/a	n/a	n/a	326.099	n/a
293.671	0.497	neutral	Picture	46.424	n/a	3	8	16	n/a	36	25	1	n/a	n/a	n/a	n/a	326.629	BM06NES.jpg
294.169	0.514	Blank	Blank	45.91	n/a	3	8	16	n/a	36	n/a	1	n/a	n/a	n/a	n/a	327.127	n/a
294.699	0.497	neutral	Picture	45.396	n/a	3	8	17	n/a	37	8	1	n/a	n/a	n/a	n/a	327.657	AF14NES.jpg
295.197	0.514	Blank	Blank	44.882	n/a	3	8	17	n/a	37	n/a	1	n/a	n/a	n/a	n/a	328.155	n/a
295.727	0.497	neutral	Picture	44.368	n/a	3	8	18	n/a	38	19	1	n/a	n/a	n/a	n/a	328.685	AF31NES.jpg
296.224	0.514	Blank	Blank	43.854	n/a	3	8	18	n/a	38	n/a	1	n/a	n/a	n/a	n/a	329.183	n/a
296.755	0.497	neutral	Picture	43.34	n/a	3	8	19	n/a	39	14	1	n/a	n/a	n/a	n/a	329.713	AF23NES.jpg
297.252	0.514	Blank	Blank	42.826	n/a	3	8	19	n/a	39	n/a	1	n/a	n/a	n/a	n/a	330.21	n/a
297.783	0.497	neutral	Picture	42.312	n/a	3	8	20	n/a	40	4	1	n/a	n/a	n/a	n/a	330.741	AF05NES.jpg
298.28	0.514	Blank	Blank	41.798	n/a	3	8	20	n/a	40	n/a	1	n/a	n/a	n/a	n/a	331.238	n/a
298.811	10.014	ITI	Fixation+	31.768	n/a	3	n/a	n/a	n/a	n/a	n/a	n/a	n/a	n/a	n/a	n/a	331.769	n/a
308.841	0.497	angry	Picture	31.254	n/a	3	9	1	n/a	41	84	3	n/a	n/a	n/a	n/a	341.799	AF05ANS.jpg
309.338	0.514	Blank	Blank	30.74	n/a	3	9	1	n/a	41	n/a	3	n/a	n/a	n/a	n/a	342.296	n/a
309.869	0.497	angry	Picture	30.226	n/a	3	9	2	n/a	42	92	3	n/a	n/a	n/a	n/a	342.827	AF21ANS.jpg
310.366	0.514	Blank	Blank	29.712	n/a	3	9	2	n/a	42	n/a	3	n/a	n/a	n/a	n/a	343.324	n/a
310.897	0.497	angry	Picture	29.199	n/a	3	9	3	n/a	43	86	3	n/a	n/a	n/a	n/a	343.855	AF09ANS.jpg
311.394	0.514	Blank	Blank	28.685	n/a	3	9	3	n/a	43	n/a	3	n/a	n/a	n/a	n/a	344.352	n/a
311.924	0.497	angry	Picture	28.171	n/a	3	9	4	n/a	44	93	3	n/a	n/a	n/a	n/a	344.883	BF22ANS.jpg
312.422	0.514	Blank	Blank	27.657	n/a	3	9	4	n/a	44	n/a	3	n/a	n/a	n/a	n/a	345.38	n/a
312.952	0.497	angry	Picture	27.143	n/a	3	9	5	n/a	45	88	3	n/a	n/a	n/a	n/a	345.911	AF14ANS.jpg
313.45	0.514	Blank	Blank	26.629	n/a	3	9	5	n/a	45	n/a	3	n/a	n/a	n/a	n/a	346.408	n/a
313.98	0.497	angry	Picture	26.115	n/a	3	9	6	n/a	46	113	3	n/a	n/a	n/a	n/a	346.938	AM21ANS.jpg
314.478	0.514	Blank	Blank	25.601	n/a	3	9	6	n/a	46	n/a	3	n/a	n/a	n/a	n/a	347.436	n/a
315.008	0.497	angry	Picture	25.087	n/a	3	9	7	n/a	47	95	3	n/a	n/a	n/a	n/a	347.966	AF25ANS.jpg
315.506	0.514	Blank	Blank	24.573	n/a	3	9	7	n/a	47	n/a	3	n/a	n/a	n/a	n/a	348.464	n/a
316.036	0.497	angry	Picture	24.059	n/a	3	9	8	n/a	48	102	3	n/a	n/a	n/a	n/a	348.994	BM03ANS.jpg
316.533	0.514	Blank	Blank	23.545	n/a	3	9	8	n/a	48	n/a	3	n/a	n/a	n/a	n/a	349.491	n/a
317.064	0.497	angry	Picture	23.031	n/a	3	9	9	n/a	49	112	3	n/a	n/a	n/a	n/a	350.022	AM14ANS.jpg
317.561	0.514	Blank	Blank	22.517	n/a	3	9	9	n/a	49	n/a	3	n/a	n/a	n/a	n/a	350.519	n/a
318.092	0.497	angry	Picture	22.003	n/a	3	9	10	n/a	50	83	3	n/a	n/a	n/a	n/a	351.05	BF04ANS.jpg
318.589	0.514	Blank	Blank	21.49	n/a	3	9	10	n/a	50	n/a	3	n/a	n/a	n/a	n/a	351.547	n/a
319.12	0.497	angry	Picture	20.975	n/a	3	9	11	n/a	51	90	3	n/a	n/a	n/a	n/a	352.078	AF18ANS.jpg
319.617	0.514	Blank	Blank	20.462	n/a	3	9	11	n/a	51	n/a	3	n/a	n/a	n/a	n/a	352.575	n/a
320.148	0.497	angry	Picture	19.948	n/a	3	9	12	n/a	52	117	3	n/a	n/a	n/a	n/a	353.106	BM25ANS.jpg
320.645	0.514	Blank	Blank	19.434	n/a	3	9	12	n/a	52	n/a	3	n/a	n/a	n/a	n/a	353.603	n/a
321.175	0.497	angry	Picture	18.92	n/a	3	9	13	n/a	53	94	3	n/a	n/a	n/a	n/a	354.134	AF23ANS.jpg
321.673	0.514	Blank	Blank	18.406	n/a	3	9	13	n/a	53	n/a	3	n/a	n/a	n/a	n/a	354.631	n/a
322.203	0.497	angry	Picture	17.892	n/a	3	9	14	n/a	54	106	3	n/a	n/a	n/a	n/a	355.161	AM07ANS.jpg
322.701	0.514	Blank	Blank	17.378	n/a	3	9	14	n/a	54	n/a	3	n/a	n/a	n/a	n/a	355.659	n/a
323.231	0.497	angry	Picture	16.864	n/a	3	9	15	n/a	55	105	3	n/a	n/a	n/a	n/a	356.189	BM06ANS.jpg
323.728	0.514	Blank	Blank	16.35	n/a	3	9	15	n/a	55	n/a	3	n/a	n/a	n/a	n/a	356.687	n/a
324.259	0.497	angry	Picture	15.836	n/a	3	9	16	n/a	56	116	3	n/a	n/a	n/a	n/a	357.217	BM24ANS.jpg
324.756	0.514	Blank	Blank	15.322	n/a	3	9	16	n/a	56	n/a	3	n/a	n/a	n/a	n/a	357.715	n/a
325.287	0.497	angry	Picture	14.808	n/a	3	9	17	n/a	57	89	3	n/a	n/a	n/a	n/a	358.245	AF17ANS.jpg
325.784	0.514	Blank	Blank	14.294	n/a	3	9	17	n/a	57	n/a	3	n/a	n/a	n/a	n/a	358.743	n/a
326.315	0.497	angry	Picture	13.78	n/a	3	9	18	n/a	58	118	3	n/a	n/a	n/a	n/a	359.273	BM26ANS.jpg
326.812	0.514	Blank	Blank	13.266	n/a	3	9	18	n/a	58	n/a	3	n/a	n/a	n/a	n/a	359.77	n/a
327.343	0.497	angry	Picture	12.752	n/a	3	9	19	n/a	59	100	3	n/a	n/a	n/a	n/a	360.301	AF32ANS.jpg
327.84	0.514	Blank	Blank	12.239	n/a	3	9	19	n/a	59	n/a	3	n/a	n/a	n/a	n/a	360.798	n/a
328.371	0.497	angry	Picture	11.725	n/a	3	9	20	n/a	60	119	3	n/a	n/a	n/a	n/a	361.329	BM28ANS.jpg
328.868	0.514	Blank	Blank	11.211	n/a	3	9	20	n/a	60	n/a	3	n/a	n/a	n/a	n/a	361.826	n/a
329.399	10.014	ITI	Fixation+	1.18	n/a	3	n/a	n/a	n/a	n/a	n/a	n/a	n/a	n/a	n/a	n/a	362.357	n/a
340.593	n/a	ConfirmRating	Rate	n/a	1.177	3	n/a	n/a	0	n/a	n/a	n/a	2	Angry	50	50	373.551	n/a
341.938	n/a	ConfirmRating	Rate	n/a	1.327	3	n/a	n/a	1	n/a	n/a	n/a	3	Angry	18	49	374.897	n/a
341.965	10.014	ITI	Fixation+	94.16	n/a	4	n/a	n/a	n/a	n/a	n/a	n/a	n/a	n/a	n/a	n/a	374.923	n/a
351.995	0.497	happy	Picture	93.646	n/a	4	10	1	n/a	61	79	2	n/a	n/a	n/a	n/a	384.954	BM28HAS.jpg
352.493	0.514	Blank	Blank	93.132	n/a	4	10	1	n/a	61	n/a	2	n/a	n/a	n/a	n/a	385.451	n/a
353.023	0.497	happy	Picture	92.618	n/a	4	10	2	n/a	62	61	2	n/a	n/a	n/a	n/a	385.981	AM01HAS.jpg
353.521	0.514	Blank	Blank	92.104	n/a	4	10	2	n/a	62	n/a	2	n/a	n/a	n/a	n/a	386.479	n/a
354.051	0.497	happy	Picture	91.591	n/a	4	10	3	n/a	63	57	2	n/a	n/a	n/a	n/a	387.009	BF28HAS.jpg
354.548	0.514	Blank	Blank	91.077	n/a	4	10	3	n/a	63	n/a	2	n/a	n/a	n/a	n/a	387.507	n/a
355.079	0.497	happy	Picture	90.563	n/a	4	10	4	n/a	64	77	2	n/a	n/a	n/a	n/a	388.037	BM25HAS.jpg
355.576	0.514	Blank	Blank	90.049	n/a	4	10	4	n/a	64	n/a	2	n/a	n/a	n/a	n/a	388.534	n/a
356.107	0.497	happy	Picture	89.535	n/a	4	10	5	n/a	65	47	2	n/a	n/a	n/a	n/a	389.065	BF11HAS.jpg
356.604	0.514	Blank	Blank	89.021	n/a	4	10	5	n/a	65	n/a	2	n/a	n/a	n/a	n/a	389.562	n/a
357.135	0.497	happy	Picture	88.507	n/a	4	10	6	n/a	66	50	2	n/a	n/a	n/a	n/a	390.093	AF18HAS.jpg
357.632	0.514	Blank	Blank	87.993	n/a	4	10	6	n/a	66	n/a	2	n/a	n/a	n/a	n/a	390.59	n/a
358.163	0.497	happy	Picture	87.479	n/a	4	10	7	n/a	67	78	2	n/a	n/a	n/a	n/a	391.121	BM26HAS.jpg
358.66	0.514	Blank	Blank	86.965	n/a	4	10	7	n/a	67	n/a	2	n/a	n/a	n/a	n/a	391.618	n/a
359.191	0.497	happy	Picture	86.451	n/a	4	10	8	n/a	68	45	2	n/a	n/a	n/a	n/a	392.149	BF07HAS.jpg
359.688	0.514	Blank	Blank	85.937	n/a	4	10	8	n/a	68	n/a	2	n/a	n/a	n/a	n/a	392.646	n/a
360.218	0.497	happy	Picture	85.423	n/a	4	10	9	n/a	69	56	2	n/a	n/a	n/a	n/a	393.177	AF26HAS.jpg
360.716	0.514	Blank	Blank	84.909	n/a	4	10	9	n/a	69	n/a	2	n/a	n/a	n/a	n/a	393.674	n/a
361.246	0.497	happy	Picture	84.395	n/a	4	10	10	n/a	70	65	2	n/a	n/a	n/a	n/a	394.204	BM06HAS.jpg
361.744	0.514	Blank	Blank	83.881	n/a	4	10	10	n/a	70	n/a	2	n/a	n/a	n/a	n/a	394.702	n/a
362.274	0.497	happy	Picture	83.367	n/a	4	10	11	n/a	71	73	2	n/a	n/a	n/a	n/a	395.232	AM21HAS.jpg
362.772	0.514	Blank	Blank	82.854	n/a	4	10	11	n/a	71	n/a	2	n/a	n/a	n/a	n/a	395.73	n/a
363.302	0.497	happy	Picture	82.339	n/a	4	10	12	n/a	72	41	2	n/a	n/a	n/a	n/a	396.26	AF01HAS.jpg
363.799	0.514	Blank	Blank	81.826	n/a	4	10	12	n/a	72	n/a	2	n/a	n/a	n/a	n/a	396.758	n/a
364.33	0.497	happy	Picture	81.312	n/a	4	10	13	n/a	73	59	2	n/a	n/a	n/a	n/a	397.288	AF31HAS.jpg
364.827	0.514	Blank	Blank	80.798	n/a	4	10	13	n/a	73	n/a	2	n/a	n/a	n/a	n/a	397.786	n/a
365.358	0.497	happy	Picture	80.284	n/a	4	10	14	n/a	74	64	2	n/a	n/a	n/a	n/a	398.316	BM05HAS.jpg
365.855	0.514	Blank	Blank	79.77	n/a	4	10	14	n/a	74	n/a	2	n/a	n/a	n/a	n/a	398.813	n/a
366.386	0.497	happy	Picture	79.256	n/a	4	10	15	n/a	75	68	2	n/a	n/a	n/a	n/a	399.344	AM09HAS.jpg
366.883	0.514	Blank	Blank	78.742	n/a	4	10	15	n/a	75	n/a	2	n/a	n/a	n/a	n/a	399.841	n/a
367.414	0.497	happy	Picture	78.228	n/a	4	10	16	n/a	76	54	2	n/a	n/a	n/a	n/a	400.372	AF23HAS.jpg
367.911	0.514	Blank	Blank	77.714	n/a	4	10	16	n/a	76	n/a	2	n/a	n/a	n/a	n/a	400.869	n/a
368.441	0.497	happy	Picture	77.2	n/a	4	10	17	n/a	77	53	2	n/a	n/a	n/a	n/a	401.4	BF22HAS.jpg
368.939	0.514	Blank	Blank	76.686	n/a	4	10	17	n/a	77	n/a	2	n/a	n/a	n/a	n/a	401.897	n/a
369.469	0.497	happy	Picture	76.172	n/a	4	10	18	n/a	78	44	2	n/a	n/a	n/a	n/a	402.428	AF05HAS.jpg
369.967	0.514	Blank	Blank	75.658	n/a	4	10	18	n/a	78	n/a	2	n/a	n/a	n/a	n/a	402.925	n/a
370.497	0.497	happy	Picture	75.144	n/a	4	10	19	n/a	79	52	2	n/a	n/a	n/a	n/a	403.455	AF21HAS.jpg
370.995	0.514	Blank	Blank	74.63	n/a	4	10	19	n/a	79	n/a	2	n/a	n/a	n/a	n/a	403.953	n/a
371.525	0.497	happy	Picture	74.117	n/a	4	10	20	n/a	80	62	2	n/a	n/a	n/a	n/a	404.483	BM03HAS.jpg
372.022	0.514	Blank	Blank	73.603	n/a	4	10	20	n/a	80	n/a	2	n/a	n/a	n/a	n/a	404.981	n/a
372.553	10.014	ITI	Fixation+	63.572	n/a	4	n/a	n/a	n/a	n/a	n/a	n/a	n/a	n/a	n/a	n/a	405.511	n/a
382.583	0.497	neutral	Picture	63.058	n/a	4	11	1	n/a	81	23	1	n/a	n/a	n/a	n/a	415.541	AM04NES.jpg
383.081	0.514	Blank	Blank	62.545	n/a	4	11	1	n/a	81	n/a	1	n/a	n/a	n/a	n/a	416.039	n/a
383.611	0.497	neutral	Picture	62.03	n/a	4	11	2	n/a	82	29	1	n/a	n/a	n/a	n/a	416.569	AM10NES.jpg
384.108	0.514	Blank	Blank	61.517	n/a	4	11	2	n/a	82	n/a	1	n/a	n/a	n/a	n/a	417.067	n/a
384.639	0.497	neutral	Picture	61.003	n/a	4	11	3	n/a	83	24	1	n/a	n/a	n/a	n/a	417.597	BM05NES.jpg
385.136	0.514	Blank	Blank	60.489	n/a	4	11	3	n/a	83	n/a	1	n/a	n/a	n/a	n/a	418.094	n/a
385.667	0.497	neutral	Picture	59.975	n/a	4	11	4	n/a	84	12	1	n/a	n/a	n/a	n/a	418.625	AF21NES.jpg
386.164	0.514	Blank	Blank	59.461	n/a	4	11	4	n/a	84	n/a	1	n/a	n/a	n/a	n/a	419.122	n/a
386.695	0.497	neutral	Picture	58.947	n/a	4	11	5	n/a	85	13	1	n/a	n/a	n/a	n/a	419.653	BF22NES.jpg
387.192	0.514	Blank	Blank	58.433	n/a	4	11	5	n/a	85	n/a	1	n/a	n/a	n/a	n/a	420.15	n/a
387.723	0.497	neutral	Picture	57.919	n/a	4	11	6	n/a	86	17	1	n/a	n/a	n/a	n/a	420.681	BF28NES.jpg
388.22	0.514	Blank	Blank	57.405	n/a	4	11	6	n/a	86	n/a	1	n/a	n/a	n/a	n/a	421.178	n/a
388.75	0.497	neutral	Picture	56.891	n/a	4	11	7	n/a	87	4	1	n/a	n/a	n/a	n/a	421.709	AF05NES.jpg
389.248	0.514	Blank	Blank	56.377	n/a	4	11	7	n/a	87	n/a	1	n/a	n/a	n/a	n/a	422.206	n/a
389.778	0.497	neutral	Picture	55.863	n/a	4	11	8	n/a	88	11	1	n/a	n/a	n/a	n/a	422.736	AF20NES.jpg
390.276	0.514	Blank	Blank	55.349	n/a	4	11	8	n/a	88	n/a	1	n/a	n/a	n/a	n/a	423.234	n/a
390.806	0.497	neutral	Picture	54.835	n/a	4	11	9	n/a	89	22	1	n/a	n/a	n/a	n/a	423.764	BM03NES.jpg
391.304	0.514	Blank	Blank	54.321	n/a	4	11	9	n/a	89	n/a	1	n/a	n/a	n/a	n/a	424.262	n/a
391.834	0.497	neutral	Picture	53.808	n/a	4	11	10	n/a	90	15	1	n/a	n/a	n/a	n/a	424.792	AF25NES.jpg
392.331	0.514	Blank	Blank	53.293	n/a	4	11	10	n/a	90	n/a	1	n/a	n/a	n/a	n/a	425.29	n/a
392.862	0.497	neutral	Picture	52.78	n/a	4	11	11	n/a	91	19	1	n/a	n/a	n/a	n/a	425.82	AF31NES.jpg
393.359	0.514	Blank	Blank	52.266	n/a	4	11	11	n/a	91	n/a	1	n/a	n/a	n/a	n/a	426.317	n/a
393.89	0.497	neutral	Picture	51.752	n/a	4	11	12	n/a	92	9	1	n/a	n/a	n/a	n/a	426.848	AF17NES.jpg
394.387	0.514	Blank	Blank	51.238	n/a	4	11	12	n/a	92	n/a	1	n/a	n/a	n/a	n/a	427.345	n/a
394.918	0.497	neutral	Picture	50.724	n/a	4	11	13	n/a	93	14	1	n/a	n/a	n/a	n/a	427.876	AF23NES.jpg
395.415	0.514	Blank	Blank	50.21	n/a	4	11	13	n/a	93	n/a	1	n/a	n/a	n/a	n/a	428.373	n/a
395.945	0.498	neutral	Picture	49.696	n/a	4	11	14	n/a	94	36	1	n/a	n/a	n/a	n/a	428.903	BM24NES.jpg
396.443	0.514	Blank	Blank	49.182	n/a	4	11	14	n/a	94	n/a	1	n/a	n/a	n/a	n/a	429.401	n/a
396.974	0.497	neutral	Picture	48.668	n/a	4	11	15	n/a	95	34	1	n/a	n/a	n/a	n/a	429.932	AM22NES.jpg
397.471	0.514	Blank	Blank	48.154	n/a	4	11	15	n/a	95	n/a	1	n/a	n/a	n/a	n/a	430.429	n/a
398.001	0.497	neutral	Picture	47.64	n/a	4	11	16	n/a	96	10	1	n/a	n/a	n/a	n/a	430.96	AF18NES.jpg
398.499	0.514	Blank	Blank	47.126	n/a	4	11	16	n/a	96	n/a	1	n/a	n/a	n/a	n/a	431.457	n/a
399.029	0.497	neutral	Picture	46.612	n/a	4	11	17	n/a	97	5	1	n/a	n/a	n/a	n/a	431.988	BF07NES.jpg
399.527	0.514	Blank	Blank	46.098	n/a	4	11	17	n/a	97	n/a	1	n/a	n/a	n/a	n/a	432.485	n/a
400.057	0.497	neutral	Picture	45.584	n/a	4	11	18	n/a	98	25	1	n/a	n/a	n/a	n/a	433.015	BM06NES.jpg
400.555	0.514	Blank	Blank	45.071	n/a	4	11	18	n/a	98	n/a	1	n/a	n/a	n/a	n/a	433.513	n/a
401.085	0.497	neutral	Picture	44.556	n/a	4	11	19	n/a	99	39	1	n/a	n/a	n/a	n/a	434.043	AM28NES.jpg
401.582	0.514	Blank	Blank	44.043	n/a	4	11	19	n/a	99	n/a	1	n/a	n/a	n/a	n/a	434.541	n/a
402.113	0.497	neutral	Picture	43.529	n/a	4	11	20	n/a	100	33	1	n/a	n/a	n/a	n/a	435.071	AM21NES.jpg
402.61	0.514	Blank	Blank	43.015	n/a	4	11	20	n/a	100	n/a	1	n/a	n/a	n/a	n/a	435.568	n/a
403.141	10.014	ITI	Fixation+	32.985	n/a	4	n/a	n/a	n/a	n/a	n/a	n/a	n/a	n/a	n/a	n/a	436.099	n/a
413.171	0.497	happy	Picture	32.471	n/a	4	12	1	n/a	101	74	2	n/a	n/a	n/a	n/a	446.129	AM22HAS.jpg
413.668	0.514	Blank	Blank	31.957	n/a	4	12	1	n/a	101	n/a	2	n/a	n/a	n/a	n/a	446.627	n/a
414.199	0.497	happy	Picture	31.443	n/a	4	12	2	n/a	102	76	2	n/a	n/a	n/a	n/a	447.157	BM24HAS.jpg
414.696	0.514	Blank	Blank	30.929	n/a	4	12	2	n/a	102	n/a	2	n/a	n/a	n/a	n/a	447.654	n/a
415.227	0.497	happy	Picture	30.415	n/a	4	12	3	n/a	103	80	2	n/a	n/a	n/a	n/a	448.185	BM35HAS.jpg
415.724	0.514	Blank	Blank	29.901	n/a	4	12	3	n/a	103	n/a	2	n/a	n/a	n/a	n/a	448.682	n/a
416.255	0.497	happy	Picture	29.387	n/a	4	12	4	n/a	104	75	2	n/a	n/a	n/a	n/a	449.213	AM23HAS.jpg
416.752	0.514	Blank	Blank	28.873	n/a	4	12	4	n/a	104	n/a	2	n/a	n/a	n/a	n/a	449.71	n/a
417.283	0.497	happy	Picture	28.359	n/a	4	12	5	n/a	105	49	2	n/a	n/a	n/a	n/a	450.241	AF17HAS.jpg
417.78	0.514	Blank	Blank	27.845	n/a	4	12	5	n/a	105	n/a	2	n/a	n/a	n/a	n/a	450.738	n/a
418.31	0.497	happy	Picture	27.331	n/a	4	12	6	n/a	106	43	2	n/a	n/a	n/a	n/a	451.269	BF04HAS.jpg
418.808	0.514	Blank	Blank	26.817	n/a	4	12	6	n/a	106	n/a	2	n/a	n/a	n/a	n/a	451.766	n/a
419.338	0.497	happy	Picture	26.303	n/a	4	12	7	n/a	107	70	2	n/a	n/a	n/a	n/a	452.296	BM11HAS.jpg
419.836	0.514	Blank	Blank	25.789	n/a	4	12	7	n/a	107	n/a	2	n/a	n/a	n/a	n/a	452.794	n/a
420.366	0.497	happy	Picture	25.275	n/a	4	12	8	n/a	108	66	2	n/a	n/a	n/a	n/a	453.324	BM07HAS.jpg
420.864	0.514	Blank	Blank	24.762	n/a	4	12	8	n/a	108	n/a	2	n/a	n/a	n/a	n/a	453.822	n/a
421.394	0.497	happy	Picture	24.248	n/a	4	12	9	n/a	109	48	2	n/a	n/a	n/a	n/a	454.352	AF14HAS.jpg
421.891	0.514	Blank	Blank	23.734	n/a	4	12	9	n/a	109	n/a	2	n/a	n/a	n/a	n/a	454.85	n/a
422.422	0.497	happy	Picture	23.22	n/a	4	12	10	n/a	110	58	2	n/a	n/a	n/a	n/a	455.38	BF29HAS.jpg
422.919	0.514	Blank	Blank	22.706	n/a	4	12	10	n/a	110	n/a	2	n/a	n/a	n/a	n/a	455.877	n/a
423.45	0.497	happy	Picture	22.192	n/a	4	12	11	n/a	111	63	2	n/a	n/a	n/a	n/a	456.408	AM04HAS.jpg
423.947	0.514	Blank	Blank	21.678	n/a	4	12	11	n/a	111	n/a	2	n/a	n/a	n/a	n/a	456.905	n/a
424.478	0.497	happy	Picture	21.164	n/a	4	12	12	n/a	112	72	2	n/a	n/a	n/a	n/a	457.436	AM14HAS.jpg
424.975	0.514	Blank	Blank	20.65	n/a	4	12	12	n/a	112	n/a	2	n/a	n/a	n/a	n/a	457.933	n/a
425.506	0.497	happy	Picture	20.136	n/a	4	12	13	n/a	113	55	2	n/a	n/a	n/a	n/a	458.464	AF25HAS.jpg
426.003	0.514	Blank	Blank	19.622	n/a	4	12	13	n/a	113	n/a	2	n/a	n/a	n/a	n/a	458.961	n/a
426.533	0.497	happy	Picture	19.108	n/a	4	12	14	n/a	114	42	2	n/a	n/a	n/a	n/a	459.492	AF03HAS.jpg
427.031	0.514	Blank	Blank	18.594	n/a	4	12	14	n/a	114	n/a	2	n/a	n/a	n/a	n/a	459.989	n/a
427.561	0.497	happy	Picture	18.08	n/a	4	12	15	n/a	115	60	2	n/a	n/a	n/a	n/a	460.519	AF32HAS.jpg
428.059	0.514	Blank	Blank	17.566	n/a	4	12	15	n/a	115	n/a	2	n/a	n/a	n/a	n/a	461.017	n/a
428.589	0.497	happy	Picture	17.052	n/a	4	12	16	n/a	116	67	2	n/a	n/a	n/a	n/a	461.547	BM08HAS.jpg
429.087	0.514	Blank	Blank	16.538	n/a	4	12	16	n/a	116	n/a	2	n/a	n/a	n/a	n/a	462.045	n/a
429.617	0.497	happy	Picture	16.024	n/a	4	12	17	n/a	117	51	2	n/a	n/a	n/a	n/a	462.575	AF20HAS.jpg
430.114	0.514	Blank	Blank	15.51	n/a	4	12	17	n/a	117	n/a	2	n/a	n/a	n/a	n/a	463.073	n/a
430.645	0.497	happy	Picture	14.997	n/a	4	12	18	n/a	118	71	2	n/a	n/a	n/a	n/a	463.603	BM12HAS.jpg
431.142	0.514	Blank	Blank	14.483	n/a	4	12	18	n/a	118	n/a	2	n/a	n/a	n/a	n/a	464.101	n/a
431.673	0.497	happy	Picture	13.969	n/a	4	12	19	n/a	119	69	2	n/a	n/a	n/a	n/a	464.631	AM10HAS.jpg
432.17	0.514	Blank	Blank	13.455	n/a	4	12	19	n/a	119	n/a	2	n/a	n/a	n/a	n/a	465.128	n/a
432.701	0.497	happy	Picture	12.941	n/a	4	12	20	n/a	120	46	2	n/a	n/a	n/a	n/a	465.659	AF09HAS.jpg
433.198	0.514	Blank	Blank	12.427	n/a	4	12	20	n/a	120	n/a	2	n/a	n/a	n/a	n/a	466.156	n/a
433.729	10.014	ITI	Fixation+	2.397	n/a	4	n/a	n/a	n/a	n/a	n/a	n/a	n/a	n/a	n/a	n/a	466.687	n/a
446.139	n/a	ConfirmRating	Rate	n/a	2.387	4	n/a	n/a	0	n/a	n/a	n/a	2	Happy	50	50	479.097	n/a
448.087	n/a	ConfirmRating	Rate	n/a	1.94	4	n/a	n/a	1	n/a	n/a	n/a	3	Happy	6	49	481.045	n/a
