onset	duration	trial_type	event_type	time_until_response	response_time	trial_number	block_num_within_trial	image_seq_num_within_block	question_seq_num_within_block	image_seq_num	picture_number	condition	question_type	block_type	rating	rating_computed	onset_uncorrected	KDEV_imagefile
0.015	10.014	ITI	Fixation+	95.601	n/a	1	n/a	n/a	n/a	n/a	n/a	n/a	n/a	n/a	n/a	n/a	26.421	n/a
10.045	0.497	happy	Picture	95.087	n/a	1	1	1	n/a	1	108	3	n/a	n/a	n/a	n/a	36.451	AM09ANS.jpg
10.543	0.514	Blank	Blank	94.573	n/a	1	1	1	n/a	1	n/a	3	n/a	n/a	n/a	n/a	36.949	n/a
11.073	0.497	happy	Picture	94.059	n/a	1	1	2	n/a	2	99	3	n/a	n/a	n/a	n/a	37.479	AF31ANS.jpg
11.571	0.514	Blank	Blank	93.545	n/a	1	1	2	n/a	2	n/a	3	n/a	n/a	n/a	n/a	37.977	n/a
12.101	0.497	happy	Picture	93.031	n/a	1	1	3	n/a	3	98	3	n/a	n/a	n/a	n/a	38.507	BF29ANS.jpg
12.599	0.514	Blank	Blank	92.517	n/a	1	1	3	n/a	3	n/a	3	n/a	n/a	n/a	n/a	39.005	n/a
13.129	0.497	happy	Picture	92.004	n/a	1	1	4	n/a	4	107	3	n/a	n/a	n/a	n/a	39.535	BM08ANS.jpg
13.626	0.514	Blank	Blank	91.49	n/a	1	1	4	n/a	4	n/a	3	n/a	n/a	n/a	n/a	40.032	n/a
14.157	0.497	happy	Picture	90.976	n/a	1	1	5	n/a	5	104	3	n/a	n/a	n/a	n/a	40.563	BM05ANS.jpg
14.654	0.514	Blank	Blank	90.462	n/a	1	1	5	n/a	5	n/a	3	n/a	n/a	n/a	n/a	41.06	n/a
15.185	0.497	happy	Picture	89.948	n/a	1	1	6	n/a	6	101	3	n/a	n/a	n/a	n/a	41.591	AM01ANS.jpg
15.682	0.514	Blank	Blank	89.434	n/a	1	1	6	n/a	6	n/a	3	n/a	n/a	n/a	n/a	42.088	n/a
16.213	0.497	happy	Picture	88.92	n/a	1	1	7	n/a	7	103	3	n/a	n/a	n/a	n/a	42.619	AM04ANS.jpg
16.71	0.514	Blank	Blank	88.406	n/a	1	1	7	n/a	7	n/a	3	n/a	n/a	n/a	n/a	43.116	n/a
17.241	0.497	happy	Picture	87.892	n/a	1	1	8	n/a	8	111	3	n/a	n/a	n/a	n/a	43.647	BM12ANS.jpg
17.738	0.514	Blank	Blank	87.378	n/a	1	1	8	n/a	8	n/a	3	n/a	n/a	n/a	n/a	44.144	n/a
18.268	0.497	happy	Picture	86.864	n/a	1	1	9	n/a	9	110	3	n/a	n/a	n/a	n/a	44.674	AM11ANS.jpg
18.766	0.514	Blank	Blank	86.35	n/a	1	1	9	n/a	9	n/a	3	n/a	n/a	n/a	n/a	45.172	n/a
19.296	0.497	happy	Picture	85.836	n/a	1	1	10	n/a	10	85	3	n/a	n/a	n/a	n/a	45.702	BF07ANS.jpg
19.794	0.514	Blank	Blank	85.322	n/a	1	1	10	n/a	10	n/a	3	n/a	n/a	n/a	n/a	46.2	n/a
20.324	0.497	happy	Picture	84.808	n/a	1	1	11	n/a	11	87	3	n/a	n/a	n/a	n/a	46.73	BF11ANS.jpg
20.822	0.514	Blank	Blank	84.294	n/a	1	1	11	n/a	11	n/a	3	n/a	n/a	n/a	n/a	47.227	n/a
21.352	0.497	happy	Picture	83.78	n/a	1	1	12	n/a	12	91	3	n/a	n/a	n/a	n/a	47.758	AF20ANS.jpg
21.85	0.514	Blank	Blank	83.267	n/a	1	1	12	n/a	12	n/a	3	n/a	n/a	n/a	n/a	48.255	n/a
22.38	0.497	happy	Picture	82.753	n/a	1	1	13	n/a	13	115	3	n/a	n/a	n/a	n/a	48.786	AM23ANS.jpg
22.877	0.514	Blank	Blank	82.239	n/a	1	1	13	n/a	13	n/a	3	n/a	n/a	n/a	n/a	49.283	n/a
23.408	0.497	happy	Picture	81.725	n/a	1	1	14	n/a	14	97	3	n/a	n/a	n/a	n/a	49.814	BF28ANS.jpg
23.905	0.514	Blank	Blank	81.211	n/a	1	1	14	n/a	14	n/a	3	n/a	n/a	n/a	n/a	50.311	n/a
24.436	0.497	happy	Picture	80.697	n/a	1	1	15	n/a	15	82	3	n/a	n/a	n/a	n/a	50.842	AF03ANS.jpg
24.933	0.514	Blank	Blank	80.183	n/a	1	1	15	n/a	15	n/a	3	n/a	n/a	n/a	n/a	51.339	n/a
25.464	0.497	happy	Picture	79.669	n/a	1	1	16	n/a	16	96	3	n/a	n/a	n/a	n/a	51.87	AF26ANS.jpg
25.961	0.514	Blank	Blank	79.155	n/a	1	1	16	n/a	16	n/a	3	n/a	n/a	n/a	n/a	52.367	n/a
26.492	0.497	happy	Picture	78.641	n/a	1	1	17	n/a	17	109	3	n/a	n/a	n/a	n/a	52.898	AM10ANS.jpg
26.989	0.514	Blank	Blank	78.127	n/a	1	1	17	n/a	17	n/a	3	n/a	n/a	n/a	n/a	53.395	n/a
27.519	0.497	happy	Picture	77.613	n/a	1	1	18	n/a	18	114	3	n/a	n/a	n/a	n/a	53.925	AM22ANS.jpg
28.017	0.514	Blank	Blank	77.099	n/a	1	1	18	n/a	18	n/a	3	n/a	n/a	n/a	n/a	54.423	n/a
28.547	0.497	happy	Picture	76.585	n/a	1	1	19	n/a	19	120	3	n/a	n/a	n/a	n/a	54.953	AM35ANS.jpg
29.045	0.514	Blank	Blank	76.071	n/a	1	1	19	n/a	19	n/a	3	n/a	n/a	n/a	n/a	55.451	n/a
29.575	0.497	happy	Picture	75.557	n/a	1	1	20	n/a	20	81	3	n/a	n/a	n/a	n/a	55.981	AF01ANS.jpg
30.073	0.514	Blank	Blank	75.043	n/a	1	1	20	n/a	20	n/a	3	n/a	n/a	n/a	n/a	56.478	n/a
30.603	10.014	ITI	Fixation+	65.013	n/a	1	n/a	n/a	n/a	n/a	n/a	n/a	n/a	n/a	n/a	n/a	57.009	n/a
40.633	0.497	neutral	Picture	64.499	n/a	1	2	1	n/a	21	28	1	n/a	n/a	n/a	n/a	67.039	AM09NES.jpg
41.131	0.514	Blank	Blank	63.985	n/a	1	2	1	n/a	21	n/a	1	n/a	n/a	n/a	n/a	67.537	n/a
41.661	0.497	neutral	Picture	63.472	n/a	1	2	2	n/a	22	27	1	n/a	n/a	n/a	n/a	68.067	BM08NES.jpg
42.159	0.514	Blank	Blank	62.958	n/a	1	2	2	n/a	22	n/a	1	n/a	n/a	n/a	n/a	68.564	n/a
42.689	0.497	neutral	Picture	62.444	n/a	1	2	3	n/a	23	16	1	n/a	n/a	n/a	n/a	69.095	AF26NES.jpg
43.186	0.514	Blank	Blank	61.93	n/a	1	2	3	n/a	23	n/a	1	n/a	n/a	n/a	n/a	69.592	n/a
43.717	0.497	neutral	Picture	61.416	n/a	1	2	4	n/a	24	3	1	n/a	n/a	n/a	n/a	70.123	BF04NES.jpg
44.214	0.514	Blank	Blank	60.902	n/a	1	2	4	n/a	24	n/a	1	n/a	n/a	n/a	n/a	70.62	n/a
44.745	0.497	neutral	Picture	60.388	n/a	1	2	5	n/a	25	32	1	n/a	n/a	n/a	n/a	71.151	AM14NES.jpg
45.242	0.514	Blank	Blank	59.874	n/a	1	2	5	n/a	25	n/a	1	n/a	n/a	n/a	n/a	71.648	n/a
45.773	0.497	neutral	Picture	59.36	n/a	1	2	6	n/a	26	37	1	n/a	n/a	n/a	n/a	72.178	BM25NES.jpg
46.27	0.514	Blank	Blank	58.846	n/a	1	2	6	n/a	26	n/a	1	n/a	n/a	n/a	n/a	72.676	n/a
46.8	0.497	neutral	Picture	58.332	n/a	1	2	7	n/a	27	15	1	n/a	n/a	n/a	n/a	73.206	AF25NES.jpg
47.298	0.514	Blank	Blank	57.818	n/a	1	2	7	n/a	27	n/a	1	n/a	n/a	n/a	n/a	73.704	n/a
47.828	0.497	neutral	Picture	57.304	n/a	1	2	8	n/a	28	23	1	n/a	n/a	n/a	n/a	74.234	AM04NES.jpg
48.326	0.514	Blank	Blank	56.79	n/a	1	2	8	n/a	28	n/a	1	n/a	n/a	n/a	n/a	74.732	n/a
48.856	0.497	neutral	Picture	56.276	n/a	1	2	9	n/a	29	34	1	n/a	n/a	n/a	n/a	75.262	AM22NES.jpg
49.354	0.514	Blank	Blank	55.762	n/a	1	2	9	n/a	29	n/a	1	n/a	n/a	n/a	n/a	75.76	n/a
49.884	0.497	neutral	Picture	55.248	n/a	1	2	10	n/a	30	24	1	n/a	n/a	n/a	n/a	76.29	BM05NES.jpg
50.382	0.514	Blank	Blank	54.734	n/a	1	2	10	n/a	30	n/a	1	n/a	n/a	n/a	n/a	76.787	n/a
50.912	0.497	neutral	Picture	54.221	n/a	1	2	11	n/a	31	12	1	n/a	n/a	n/a	n/a	77.318	AF21NES.jpg
51.409	0.514	Blank	Blank	53.707	n/a	1	2	11	n/a	31	n/a	1	n/a	n/a	n/a	n/a	77.815	n/a
51.94	0.497	neutral	Picture	53.193	n/a	1	2	12	n/a	32	6	1	n/a	n/a	n/a	n/a	78.346	AF09NES.jpg
52.437	0.514	Blank	Blank	52.679	n/a	1	2	12	n/a	32	n/a	1	n/a	n/a	n/a	n/a	78.843	n/a
52.968	0.497	neutral	Picture	52.165	n/a	1	2	13	n/a	33	17	1	n/a	n/a	n/a	n/a	79.374	BF28NES.jpg
53.465	0.514	Blank	Blank	51.651	n/a	1	2	13	n/a	33	n/a	1	n/a	n/a	n/a	n/a	79.871	n/a
53.996	0.497	neutral	Picture	51.137	n/a	1	2	14	n/a	34	2	1	n/a	n/a	n/a	n/a	80.402	AF03NES.jpg
54.493	0.514	Blank	Blank	50.623	n/a	1	2	14	n/a	34	n/a	1	n/a	n/a	n/a	n/a	80.899	n/a
55.024	0.497	neutral	Picture	50.109	n/a	1	2	15	n/a	35	9	1	n/a	n/a	n/a	n/a	81.43	AF17NES.jpg
55.521	0.514	Blank	Blank	49.595	n/a	1	2	15	n/a	35	n/a	1	n/a	n/a	n/a	n/a	81.927	n/a
56.052	0.497	neutral	Picture	49.081	n/a	1	2	16	n/a	36	25	1	n/a	n/a	n/a	n/a	82.457	BM06NES.jpg
56.549	0.514	Blank	Blank	48.567	n/a	1	2	16	n/a	36	n/a	1	n/a	n/a	n/a	n/a	82.955	n/a
57.079	0.497	neutral	Picture	48.053	n/a	1	2	17	n/a	37	8	1	n/a	n/a	n/a	n/a	83.485	AF14NES.jpg
57.577	0.514	Blank	Blank	47.539	n/a	1	2	17	n/a	37	n/a	1	n/a	n/a	n/a	n/a	83.983	n/a
58.107	0.497	neutral	Picture	47.025	n/a	1	2	18	n/a	38	19	1	n/a	n/a	n/a	n/a	84.513	AF31NES.jpg
58.605	0.514	Blank	Blank	46.512	n/a	1	2	18	n/a	38	n/a	1	n/a	n/a	n/a	n/a	85.01	n/a
59.135	0.497	neutral	Picture	45.998	n/a	1	2	19	n/a	39	14	1	n/a	n/a	n/a	n/a	85.541	AF23NES.jpg
59.632	0.514	Blank	Blank	45.484	n/a	1	2	19	n/a	39	n/a	1	n/a	n/a	n/a	n/a	86.038	n/a
60.163	0.497	neutral	Picture	44.97	n/a	1	2	20	n/a	40	4	1	n/a	n/a	n/a	n/a	86.569	AF05NES.jpg
60.66	0.514	Blank	Blank	44.456	n/a	1	2	20	n/a	40	n/a	1	n/a	n/a	n/a	n/a	87.066	n/a
61.191	10.014	ITI	Fixation+	34.426	n/a	1	n/a	n/a	n/a	n/a	n/a	n/a	n/a	n/a	n/a	n/a	87.597	n/a
71.221	0.497	happy	Picture	33.912	n/a	1	3	1	n/a	41	84	3	n/a	n/a	n/a	n/a	97.627	AF05ANS.jpg
71.718	0.514	Blank	Blank	33.398	n/a	1	3	1	n/a	41	n/a	3	n/a	n/a	n/a	n/a	98.124	n/a
72.249	0.497	happy	Picture	32.884	n/a	1	3	2	n/a	42	92	3	n/a	n/a	n/a	n/a	98.655	AF21ANS.jpg
72.746	0.514	Blank	Blank	32.37	n/a	1	3	2	n/a	42	n/a	3	n/a	n/a	n/a	n/a	99.152	n/a
73.277	0.497	happy	Picture	31.856	n/a	1	3	3	n/a	43	86	3	n/a	n/a	n/a	n/a	99.683	AF09ANS.jpg
73.774	0.514	Blank	Blank	31.342	n/a	1	3	3	n/a	43	n/a	3	n/a	n/a	n/a	n/a	100.18	n/a
74.305	0.497	happy	Picture	30.828	n/a	1	3	4	n/a	44	93	3	n/a	n/a	n/a	n/a	100.711	BF22ANS.jpg
74.802	0.514	Blank	Blank	30.314	n/a	1	3	4	n/a	44	n/a	3	n/a	n/a	n/a	n/a	101.208	n/a
75.333	0.497	happy	Picture	29.8	n/a	1	3	5	n/a	45	88	3	n/a	n/a	n/a	n/a	101.739	AF14ANS.jpg
75.83	0.514	Blank	Blank	29.286	n/a	1	3	5	n/a	45	n/a	3	n/a	n/a	n/a	n/a	102.236	n/a
76.36	0.497	happy	Picture	28.772	n/a	1	3	6	n/a	46	113	3	n/a	n/a	n/a	n/a	102.766	AM21ANS.jpg
76.858	0.514	Blank	Blank	28.258	n/a	1	3	6	n/a	46	n/a	3	n/a	n/a	n/a	n/a	103.264	n/a
77.388	0.497	happy	Picture	27.744	n/a	1	3	7	n/a	47	95	3	n/a	n/a	n/a	n/a	103.794	AF25ANS.jpg
77.886	0.514	Blank	Blank	27.23	n/a	1	3	7	n/a	47	n/a	3	n/a	n/a	n/a	n/a	104.292	n/a
78.416	0.497	happy	Picture	26.716	n/a	1	3	8	n/a	48	102	3	n/a	n/a	n/a	n/a	104.822	BM03ANS.jpg
78.914	0.514	Blank	Blank	26.202	n/a	1	3	8	n/a	48	n/a	3	n/a	n/a	n/a	n/a	105.32	n/a
79.444	0.497	happy	Picture	25.689	n/a	1	3	9	n/a	49	112	3	n/a	n/a	n/a	n/a	105.85	AM14ANS.jpg
79.941	0.514	Blank	Blank	25.175	n/a	1	3	9	n/a	49	n/a	3	n/a	n/a	n/a	n/a	106.347	n/a
80.472	0.497	happy	Picture	24.661	n/a	1	3	10	n/a	50	83	3	n/a	n/a	n/a	n/a	106.878	BF04ANS.jpg
80.969	0.514	Blank	Blank	24.147	n/a	1	3	10	n/a	50	n/a	3	n/a	n/a	n/a	n/a	107.375	n/a
81.5	0.497	happy	Picture	23.633	n/a	1	3	11	n/a	51	90	3	n/a	n/a	n/a	n/a	107.906	AF18ANS.jpg
81.997	0.514	Blank	Blank	23.119	n/a	1	3	11	n/a	51	n/a	3	n/a	n/a	n/a	n/a	108.403	n/a
82.528	0.497	happy	Picture	22.605	n/a	1	3	12	n/a	52	117	3	n/a	n/a	n/a	n/a	108.934	BM25ANS.jpg
83.025	0.514	Blank	Blank	22.091	n/a	1	3	12	n/a	52	n/a	3	n/a	n/a	n/a	n/a	109.431	n/a
83.556	0.497	happy	Picture	21.577	n/a	1	3	13	n/a	53	94	3	n/a	n/a	n/a	n/a	109.962	AF23ANS.jpg
84.053	0.514	Blank	Blank	21.063	n/a	1	3	13	n/a	53	n/a	3	n/a	n/a	n/a	n/a	110.459	n/a
84.584	0.497	happy	Picture	20.549	n/a	1	3	14	n/a	54	106	3	n/a	n/a	n/a	n/a	110.989	AM07ANS.jpg
85.081	0.514	Blank	Blank	20.035	n/a	1	3	14	n/a	54	n/a	3	n/a	n/a	n/a	n/a	111.487	n/a
85.611	0.497	happy	Picture	19.521	n/a	1	3	15	n/a	55	105	3	n/a	n/a	n/a	n/a	112.017	BM06ANS.jpg
86.109	0.514	Blank	Blank	19.007	n/a	1	3	15	n/a	55	n/a	3	n/a	n/a	n/a	n/a	112.515	n/a
86.639	0.497	happy	Picture	18.493	n/a	1	3	16	n/a	56	116	3	n/a	n/a	n/a	n/a	113.045	BM24ANS.jpg
87.137	0.514	Blank	Blank	17.979	n/a	1	3	16	n/a	56	n/a	3	n/a	n/a	n/a	n/a	113.543	n/a
87.667	0.497	happy	Picture	17.466	n/a	1	3	17	n/a	57	89	3	n/a	n/a	n/a	n/a	114.073	AF17ANS.jpg
88.165	0.514	Blank	Blank	16.952	n/a	1	3	17	n/a	57	n/a	3	n/a	n/a	n/a	n/a	114.57	n/a
88.695	0.497	happy	Picture	16.438	n/a	1	3	18	n/a	58	118	3	n/a	n/a	n/a	n/a	115.101	BM26ANS.jpg
89.192	0.514	Blank	Blank	15.924	n/a	1	3	18	n/a	58	n/a	3	n/a	n/a	n/a	n/a	115.598	n/a
89.723	0.497	happy	Picture	15.41	n/a	1	3	19	n/a	59	100	3	n/a	n/a	n/a	n/a	116.129	AF32ANS.jpg
90.22	0.514	Blank	Blank	14.896	n/a	1	3	19	n/a	59	n/a	3	n/a	n/a	n/a	n/a	116.626	n/a
90.751	0.497	happy	Picture	14.382	n/a	1	3	20	n/a	60	119	3	n/a	n/a	n/a	n/a	117.157	BM28ANS.jpg
91.248	0.514	Blank	Blank	13.868	n/a	1	3	20	n/a	60	n/a	3	n/a	n/a	n/a	n/a	117.654	n/a
91.779	10.014	ITI	Fixation+	3.838	n/a	1	n/a	n/a	n/a	n/a	n/a	n/a	n/a	n/a	n/a	n/a	118.185	n/a
105.63	n/a	ConfirmRating	Rate	n/a	3.813	1	n/a	n/a	0	n/a	n/a	n/a	2	Happy	89	53	132.036	n/a
108.565	n/a	ConfirmRating	Rate	n/a	2.917	1	n/a	n/a	1	n/a	n/a	n/a	3	Happy	12	46	134.971	n/a
108.589	10.014	ITI	Fixation+	95.238	n/a	2	n/a	n/a	n/a	n/a	n/a	n/a	n/a	n/a	n/a	n/a	134.995	n/a
118.62	0.497	angry	Picture	94.724	n/a	2	4	1	n/a	61	79	2	n/a	n/a	n/a	n/a	145.026	BM28HAS.jpg
119.117	0.514	Blank	Blank	94.21	n/a	2	4	1	n/a	61	n/a	2	n/a	n/a	n/a	n/a	145.523	n/a
119.648	0.497	angry	Picture	93.696	n/a	2	4	2	n/a	62	61	2	n/a	n/a	n/a	n/a	146.053	AM01HAS.jpg
120.145	0.514	Blank	Blank	93.182	n/a	2	4	2	n/a	62	n/a	2	n/a	n/a	n/a	n/a	146.551	n/a
120.675	0.497	angry	Picture	92.668	n/a	2	4	3	n/a	63	57	2	n/a	n/a	n/a	n/a	147.081	BF28HAS.jpg
121.173	0.514	Blank	Blank	92.154	n/a	2	4	3	n/a	63	n/a	2	n/a	n/a	n/a	n/a	147.579	n/a
121.703	0.497	angry	Picture	91.64	n/a	2	4	4	n/a	64	77	2	n/a	n/a	n/a	n/a	148.109	BM25HAS.jpg
122.201	0.514	Blank	Blank	91.126	n/a	2	4	4	n/a	64	n/a	2	n/a	n/a	n/a	n/a	148.607	n/a
122.731	0.497	angry	Picture	90.612	n/a	2	4	5	n/a	65	47	2	n/a	n/a	n/a	n/a	149.137	BF11HAS.jpg
123.229	0.514	Blank	Blank	90.099	n/a	2	4	5	n/a	65	n/a	2	n/a	n/a	n/a	n/a	149.635	n/a
123.759	0.497	angry	Picture	89.585	n/a	2	4	6	n/a	66	50	2	n/a	n/a	n/a	n/a	150.165	AF18HAS.jpg
124.256	0.514	Blank	Blank	89.071	n/a	2	4	6	n/a	66	n/a	2	n/a	n/a	n/a	n/a	150.662	n/a
124.787	0.497	angry	Picture	88.557	n/a	2	4	7	n/a	67	78	2	n/a	n/a	n/a	n/a	151.193	BM26HAS.jpg
125.284	0.514	Blank	Blank	88.043	n/a	2	4	7	n/a	67	n/a	2	n/a	n/a	n/a	n/a	151.69	n/a
125.815	0.497	angry	Picture	87.529	n/a	2	4	8	n/a	68	45	2	n/a	n/a	n/a	n/a	152.221	BF07HAS.jpg
126.312	0.514	Blank	Blank	87.015	n/a	2	4	8	n/a	68	n/a	2	n/a	n/a	n/a	n/a	152.718	n/a
126.843	0.497	angry	Picture	86.501	n/a	2	4	9	n/a	69	56	2	n/a	n/a	n/a	n/a	153.249	AF26HAS.jpg
127.34	0.514	Blank	Blank	85.987	n/a	2	4	9	n/a	69	n/a	2	n/a	n/a	n/a	n/a	153.746	n/a
127.871	0.497	angry	Picture	85.473	n/a	2	4	10	n/a	70	65	2	n/a	n/a	n/a	n/a	154.276	BM06HAS.jpg
128.368	0.514	Blank	Blank	84.959	n/a	2	4	10	n/a	70	n/a	2	n/a	n/a	n/a	n/a	154.774	n/a
128.898	0.497	angry	Picture	84.445	n/a	2	4	11	n/a	71	73	2	n/a	n/a	n/a	n/a	155.304	AM21HAS.jpg
129.396	0.514	Blank	Blank	83.931	n/a	2	4	11	n/a	71	n/a	2	n/a	n/a	n/a	n/a	155.802	n/a
129.926	0.497	angry	Picture	83.417	n/a	2	4	12	n/a	72	41	2	n/a	n/a	n/a	n/a	156.332	AF01HAS.jpg
130.424	0.514	Blank	Blank	82.903	n/a	2	4	12	n/a	72	n/a	2	n/a	n/a	n/a	n/a	156.83	n/a
130.954	0.497	angry	Picture	82.389	n/a	2	4	13	n/a	73	59	2	n/a	n/a	n/a	n/a	157.36	AF31HAS.jpg
131.452	0.514	Blank	Blank	81.875	n/a	2	4	13	n/a	73	n/a	2	n/a	n/a	n/a	n/a	157.857	n/a
131.982	0.497	angry	Picture	81.362	n/a	2	4	14	n/a	74	64	2	n/a	n/a	n/a	n/a	158.388	BM05HAS.jpg
132.48	0.514	Blank	Blank	80.848	n/a	2	4	14	n/a	74	n/a	2	n/a	n/a	n/a	n/a	158.885	n/a
133.01	0.497	angry	Picture	80.334	n/a	2	4	15	n/a	75	68	2	n/a	n/a	n/a	n/a	159.416	AM09HAS.jpg
133.507	0.514	Blank	Blank	79.82	n/a	2	4	15	n/a	75	n/a	2	n/a	n/a	n/a	n/a	159.913	n/a
134.038	0.497	angry	Picture	79.306	n/a	2	4	16	n/a	76	54	2	n/a	n/a	n/a	n/a	160.444	AF23HAS.jpg
134.535	0.514	Blank	Blank	78.792	n/a	2	4	16	n/a	76	n/a	2	n/a	n/a	n/a	n/a	160.941	n/a
135.066	0.497	angry	Picture	78.278	n/a	2	4	17	n/a	77	53	2	n/a	n/a	n/a	n/a	161.472	BF22HAS.jpg
135.563	0.514	Blank	Blank	77.764	n/a	2	4	17	n/a	77	n/a	2	n/a	n/a	n/a	n/a	161.969	n/a
136.094	0.497	angry	Picture	77.25	n/a	2	4	18	n/a	78	44	2	n/a	n/a	n/a	n/a	162.5	AF05HAS.jpg
136.591	0.514	Blank	Blank	76.736	n/a	2	4	18	n/a	78	n/a	2	n/a	n/a	n/a	n/a	162.997	n/a
137.122	0.497	angry	Picture	76.222	n/a	2	4	19	n/a	79	52	2	n/a	n/a	n/a	n/a	163.528	AF21HAS.jpg
137.619	0.514	Blank	Blank	75.708	n/a	2	4	19	n/a	79	n/a	2	n/a	n/a	n/a	n/a	164.025	n/a
138.149	0.497	angry	Picture	75.194	n/a	2	4	20	n/a	80	62	2	n/a	n/a	n/a	n/a	164.555	BM03HAS.jpg
138.647	0.514	Blank	Blank	74.68	n/a	2	4	20	n/a	80	n/a	2	n/a	n/a	n/a	n/a	165.053	n/a
139.177	10.014	ITI	Fixation+	64.65	n/a	2	n/a	n/a	n/a	n/a	n/a	n/a	n/a	n/a	n/a	n/a	165.583	n/a
149.208	0.497	neutral	Picture	64.136	n/a	2	5	1	n/a	81	23	1	n/a	n/a	n/a	n/a	175.613	AM04NES.jpg
149.705	0.514	Blank	Blank	63.622	n/a	2	5	1	n/a	81	n/a	1	n/a	n/a	n/a	n/a	176.111	n/a
150.235	0.497	neutral	Picture	63.108	n/a	2	5	2	n/a	82	29	1	n/a	n/a	n/a	n/a	176.641	AM10NES.jpg
150.733	0.514	Blank	Blank	62.594	n/a	2	5	2	n/a	82	n/a	1	n/a	n/a	n/a	n/a	177.139	n/a
151.263	0.497	neutral	Picture	62.08	n/a	2	5	3	n/a	83	24	1	n/a	n/a	n/a	n/a	177.669	BM05NES.jpg
151.761	0.514	Blank	Blank	61.566	n/a	2	5	3	n/a	83	n/a	1	n/a	n/a	n/a	n/a	178.167	n/a
152.291	0.497	neutral	Picture	61.053	n/a	2	5	4	n/a	84	12	1	n/a	n/a	n/a	n/a	178.697	AF21NES.jpg
152.788	0.514	Blank	Blank	60.539	n/a	2	5	4	n/a	84	n/a	1	n/a	n/a	n/a	n/a	179.194	n/a
153.319	0.497	neutral	Picture	60.025	n/a	2	5	5	n/a	85	13	1	n/a	n/a	n/a	n/a	179.725	BF22NES.jpg
153.816	0.514	Blank	Blank	59.511	n/a	2	5	5	n/a	85	n/a	1	n/a	n/a	n/a	n/a	180.222	n/a
154.347	0.497	neutral	Picture	58.997	n/a	2	5	6	n/a	86	17	1	n/a	n/a	n/a	n/a	180.753	BF28NES.jpg
154.844	0.514	Blank	Blank	58.483	n/a	2	5	6	n/a	86	n/a	1	n/a	n/a	n/a	n/a	181.25	n/a
155.375	0.497	neutral	Picture	57.969	n/a	2	5	7	n/a	87	4	1	n/a	n/a	n/a	n/a	181.781	AF05NES.jpg
155.872	0.514	Blank	Blank	57.455	n/a	2	5	7	n/a	87	n/a	1	n/a	n/a	n/a	n/a	182.278	n/a
156.403	0.497	neutral	Picture	56.941	n/a	2	5	8	n/a	88	11	1	n/a	n/a	n/a	n/a	182.809	AF20NES.jpg
156.9	0.514	Blank	Blank	56.427	n/a	2	5	8	n/a	88	n/a	1	n/a	n/a	n/a	n/a	183.306	n/a
157.43	0.497	neutral	Picture	55.913	n/a	2	5	9	n/a	89	22	1	n/a	n/a	n/a	n/a	183.836	BM03NES.jpg
157.928	0.514	Blank	Blank	55.399	n/a	2	5	9	n/a	89	n/a	1	n/a	n/a	n/a	n/a	184.334	n/a
158.458	0.497	neutral	Picture	54.885	n/a	2	5	10	n/a	90	15	1	n/a	n/a	n/a	n/a	184.864	AF25NES.jpg
158.956	0.514	Blank	Blank	54.371	n/a	2	5	10	n/a	90	n/a	1	n/a	n/a	n/a	n/a	185.362	n/a
159.486	0.497	neutral	Picture	53.857	n/a	2	5	11	n/a	91	19	1	n/a	n/a	n/a	n/a	185.892	AF31NES.jpg
159.984	0.514	Blank	Blank	53.343	n/a	2	5	11	n/a	91	n/a	1	n/a	n/a	n/a	n/a	186.39	n/a
160.514	0.497	neutral	Picture	52.83	n/a	2	5	12	n/a	92	9	1	n/a	n/a	n/a	n/a	186.92	AF17NES.jpg
161.011	0.514	Blank	Blank	52.316	n/a	2	5	12	n/a	92	n/a	1	n/a	n/a	n/a	n/a	187.417	n/a
161.542	0.497	neutral	Picture	51.802	n/a	2	5	13	n/a	93	14	1	n/a	n/a	n/a	n/a	187.948	AF23NES.jpg
162.039	0.514	Blank	Blank	51.288	n/a	2	5	13	n/a	93	n/a	1	n/a	n/a	n/a	n/a	188.445	n/a
162.57	0.497	neutral	Picture	50.774	n/a	2	5	14	n/a	94	36	1	n/a	n/a	n/a	n/a	188.976	BM24NES.jpg
163.067	0.514	Blank	Blank	50.26	n/a	2	5	14	n/a	94	n/a	1	n/a	n/a	n/a	n/a	189.473	n/a
163.598	0.497	neutral	Picture	49.746	n/a	2	5	15	n/a	95	34	1	n/a	n/a	n/a	n/a	190.004	AM22NES.jpg
164.095	0.514	Blank	Blank	49.232	n/a	2	5	15	n/a	95	n/a	1	n/a	n/a	n/a	n/a	190.501	n/a
164.626	0.497	neutral	Picture	48.718	n/a	2	5	16	n/a	96	10	1	n/a	n/a	n/a	n/a	191.032	AF18NES.jpg
165.123	0.514	Blank	Blank	48.204	n/a	2	5	16	n/a	96	n/a	1	n/a	n/a	n/a	n/a	191.529	n/a
165.654	0.497	neutral	Picture	47.69	n/a	2	5	17	n/a	97	5	1	n/a	n/a	n/a	n/a	192.06	BF07NES.jpg
166.151	0.514	Blank	Blank	47.176	n/a	2	5	17	n/a	97	n/a	1	n/a	n/a	n/a	n/a	192.557	n/a
166.681	0.497	neutral	Picture	46.662	n/a	2	5	18	n/a	98	25	1	n/a	n/a	n/a	n/a	193.087	BM06NES.jpg
167.179	0.514	Blank	Blank	46.148	n/a	2	5	18	n/a	98	n/a	1	n/a	n/a	n/a	n/a	193.585	n/a
167.709	0.497	neutral	Picture	45.634	n/a	2	5	19	n/a	99	39	1	n/a	n/a	n/a	n/a	194.115	AM28NES.jpg
168.207	0.514	Blank	Blank	45.12	n/a	2	5	19	n/a	99	n/a	1	n/a	n/a	n/a	n/a	194.613	n/a
168.737	0.497	neutral	Picture	44.606	n/a	2	5	20	n/a	100	33	1	n/a	n/a	n/a	n/a	195.143	AM21NES.jpg
169.235	0.514	Blank	Blank	44.093	n/a	2	5	20	n/a	100	n/a	1	n/a	n/a	n/a	n/a	195.641	n/a
169.765	10.014	ITI	Fixation+	34.062	n/a	2	n/a	n/a	n/a	n/a	n/a	n/a	n/a	n/a	n/a	n/a	196.171	n/a
179.795	0.497	angry	Picture	33.548	n/a	2	6	1	n/a	101	74	2	n/a	n/a	n/a	n/a	206.201	AM22HAS.jpg
180.293	0.514	Blank	Blank	33.034	n/a	2	6	1	n/a	101	n/a	2	n/a	n/a	n/a	n/a	206.698	n/a
180.823	0.497	angry	Picture	32.52	n/a	2	6	2	n/a	102	76	2	n/a	n/a	n/a	n/a	207.229	BM24HAS.jpg
181.321	0.514	Blank	Blank	32.007	n/a	2	6	2	n/a	102	n/a	2	n/a	n/a	n/a	n/a	207.726	n/a
181.851	0.497	angry	Picture	31.493	n/a	2	6	3	n/a	103	80	2	n/a	n/a	n/a	n/a	208.257	BM35HAS.jpg
182.348	0.514	Blank	Blank	30.979	n/a	2	6	3	n/a	103	n/a	2	n/a	n/a	n/a	n/a	208.754	n/a
182.879	0.497	angry	Picture	30.465	n/a	2	6	4	n/a	104	75	2	n/a	n/a	n/a	n/a	209.285	AM23HAS.jpg
183.376	0.514	Blank	Blank	29.951	n/a	2	6	4	n/a	104	n/a	2	n/a	n/a	n/a	n/a	209.782	n/a
183.907	0.497	angry	Picture	29.437	n/a	2	6	5	n/a	105	49	2	n/a	n/a	n/a	n/a	210.313	AF17HAS.jpg
184.404	0.514	Blank	Blank	28.923	n/a	2	6	5	n/a	105	n/a	2	n/a	n/a	n/a	n/a	210.81	n/a
184.935	0.497	angry	Picture	28.409	n/a	2	6	6	n/a	106	43	2	n/a	n/a	n/a	n/a	211.341	BF04HAS.jpg
185.432	0.514	Blank	Blank	27.895	n/a	2	6	6	n/a	106	n/a	2	n/a	n/a	n/a	n/a	211.838	n/a
185.963	0.497	angry	Picture	27.381	n/a	2	6	7	n/a	107	70	2	n/a	n/a	n/a	n/a	212.369	BM11HAS.jpg
186.46	0.514	Blank	Blank	26.867	n/a	2	6	7	n/a	107	n/a	2	n/a	n/a	n/a	n/a	212.866	n/a
186.99	0.497	angry	Picture	26.353	n/a	2	6	8	n/a	108	66	2	n/a	n/a	n/a	n/a	213.396	BM07HAS.jpg
187.488	0.514	Blank	Blank	25.839	n/a	2	6	8	n/a	108	n/a	2	n/a	n/a	n/a	n/a	213.894	n/a
188.018	0.497	angry	Picture	25.325	n/a	2	6	9	n/a	109	48	2	n/a	n/a	n/a	n/a	214.424	AF14HAS.jpg
188.516	0.514	Blank	Blank	24.811	n/a	2	6	9	n/a	109	n/a	2	n/a	n/a	n/a	n/a	214.922	n/a
189.046	0.497	angry	Picture	24.297	n/a	2	6	10	n/a	110	58	2	n/a	n/a	n/a	n/a	215.452	BF29HAS.jpg
189.544	0.514	Blank	Blank	23.784	n/a	2	6	10	n/a	110	n/a	2	n/a	n/a	n/a	n/a	215.95	n/a
190.074	0.497	angry	Picture	23.27	n/a	2	6	11	n/a	111	63	2	n/a	n/a	n/a	n/a	216.48	AM04HAS.jpg
190.571	0.514	Blank	Blank	22.756	n/a	2	6	11	n/a	111	n/a	2	n/a	n/a	n/a	n/a	216.977	n/a
191.102	0.497	angry	Picture	22.242	n/a	2	6	12	n/a	112	72	2	n/a	n/a	n/a	n/a	217.508	AM14HAS.jpg
191.599	0.514	Blank	Blank	21.728	n/a	2	6	12	n/a	112	n/a	2	n/a	n/a	n/a	n/a	218.005	n/a
192.13	0.497	angry	Picture	21.214	n/a	2	6	13	n/a	113	55	2	n/a	n/a	n/a	n/a	218.536	AF25HAS.jpg
192.627	0.514	Blank	Blank	20.7	n/a	2	6	13	n/a	113	n/a	2	n/a	n/a	n/a	n/a	219.033	n/a
193.158	0.497	angry	Picture	20.186	n/a	2	6	14	n/a	114	42	2	n/a	n/a	n/a	n/a	219.564	AF03HAS.jpg
193.655	0.514	Blank	Blank	19.672	n/a	2	6	14	n/a	114	n/a	2	n/a	n/a	n/a	n/a	220.061	n/a
194.186	0.497	angry	Picture	19.158	n/a	2	6	15	n/a	115	60	2	n/a	n/a	n/a	n/a	220.591	AF32HAS.jpg
194.683	0.514	Blank	Blank	18.644	n/a	2	6	15	n/a	115	n/a	2	n/a	n/a	n/a	n/a	221.089	n/a
195.214	0.497	angry	Picture	18.13	n/a	2	6	16	n/a	116	67	2	n/a	n/a	n/a	n/a	221.619	BM08HAS.jpg
195.711	0.514	Blank	Blank	17.616	n/a	2	6	16	n/a	116	n/a	2	n/a	n/a	n/a	n/a	222.117	n/a
196.241	0.497	angry	Picture	17.102	n/a	2	6	17	n/a	117	51	2	n/a	n/a	n/a	n/a	222.647	AF20HAS.jpg
196.739	0.514	Blank	Blank	16.588	n/a	2	6	17	n/a	117	n/a	2	n/a	n/a	n/a	n/a	223.145	n/a
197.269	0.497	angry	Picture	16.074	n/a	2	6	18	n/a	118	71	2	n/a	n/a	n/a	n/a	223.675	BM12HAS.jpg
197.767	0.514	Blank	Blank	15.56	n/a	2	6	18	n/a	118	n/a	2	n/a	n/a	n/a	n/a	224.173	n/a
198.297	0.497	angry	Picture	15.047	n/a	2	6	19	n/a	119	69	2	n/a	n/a	n/a	n/a	224.703	AM10HAS.jpg
198.794	0.514	Blank	Blank	14.533	n/a	2	6	19	n/a	119	n/a	2	n/a	n/a	n/a	n/a	225.2	n/a
199.325	0.497	angry	Picture	14.019	n/a	2	6	20	n/a	120	46	2	n/a	n/a	n/a	n/a	225.731	AF09HAS.jpg
199.822	0.514	Blank	Blank	13.505	n/a	2	6	20	n/a	120	n/a	2	n/a	n/a	n/a	n/a	226.228	n/a
200.353	10.014	ITI	Fixation+	3.475	n/a	2	n/a	n/a	n/a	n/a	n/a	n/a	n/a	n/a	n/a	n/a	226.759	n/a
213.841	n/a	ConfirmRating	Rate	n/a	3.464	2	n/a	n/a	0	n/a	n/a	n/a	2	Angry	55	51	240.247	n/a
215.212	n/a	ConfirmRating	Rate	n/a	1.36	2	n/a	n/a	1	n/a	n/a	n/a	3	Angry	61	51	241.618	n/a
215.241	15.004	Rest	Picture	n/a	n/a	n/a	n/a	n/a	n/a	n/a	n/a	n/a	0	n/a	0	0	241.647	n/a
230.261	10.014	ITI	Fixation+	95.097	n/a	3	n/a	n/a	n/a	n/a	n/a	n/a	n/a	n/a	n/a	n/a	256.667	n/a
240.291	0.497	happy	Picture	94.583	n/a	3	7	1	n/a	1	108	3	n/a	n/a	n/a	n/a	266.697	AM09ANS.jpg
240.788	0.514	Blank	Blank	94.069	n/a	3	7	1	n/a	1	n/a	3	n/a	n/a	n/a	n/a	267.194	n/a
241.319	0.497	happy	Picture	93.555	n/a	3	7	2	n/a	2	99	3	n/a	n/a	n/a	n/a	267.725	AF31ANS.jpg
241.816	0.514	Blank	Blank	93.041	n/a	3	7	2	n/a	2	n/a	3	n/a	n/a	n/a	n/a	268.222	n/a
242.347	0.497	happy	Picture	92.528	n/a	3	7	3	n/a	3	98	3	n/a	n/a	n/a	n/a	268.753	BF29ANS.jpg
242.844	0.514	Blank	Blank	92.014	n/a	3	7	3	n/a	3	n/a	3	n/a	n/a	n/a	n/a	269.25	n/a
243.375	0.497	happy	Picture	91.5	n/a	3	7	4	n/a	4	107	3	n/a	n/a	n/a	n/a	269.781	BM08ANS.jpg
243.872	0.514	Blank	Blank	90.986	n/a	3	7	4	n/a	4	n/a	3	n/a	n/a	n/a	n/a	270.278	n/a
244.403	0.497	happy	Picture	90.472	n/a	3	7	5	n/a	5	104	3	n/a	n/a	n/a	n/a	270.808	BM05ANS.jpg
244.9	0.514	Blank	Blank	89.958	n/a	3	7	5	n/a	5	n/a	3	n/a	n/a	n/a	n/a	271.306	n/a
245.431	0.497	happy	Picture	89.444	n/a	3	7	6	n/a	6	101	3	n/a	n/a	n/a	n/a	271.836	AM01ANS.jpg
245.928	0.514	Blank	Blank	88.93	n/a	3	7	6	n/a	6	n/a	3	n/a	n/a	n/a	n/a	272.334	n/a
246.458	0.497	happy	Picture	88.416	n/a	3	7	7	n/a	7	103	3	n/a	n/a	n/a	n/a	272.864	AM04ANS.jpg
246.956	0.514	Blank	Blank	87.902	n/a	3	7	7	n/a	7	n/a	3	n/a	n/a	n/a	n/a	273.362	n/a
247.486	0.497	happy	Picture	87.388	n/a	3	7	8	n/a	8	111	3	n/a	n/a	n/a	n/a	273.892	BM12ANS.jpg
247.984	0.514	Blank	Blank	86.874	n/a	3	7	8	n/a	8	n/a	3	n/a	n/a	n/a	n/a	274.39	n/a
248.514	0.497	happy	Picture	86.36	n/a	3	7	9	n/a	9	110	3	n/a	n/a	n/a	n/a	274.92	AM11ANS.jpg
249.011	0.514	Blank	Blank	85.846	n/a	3	7	9	n/a	9	n/a	3	n/a	n/a	n/a	n/a	275.417	n/a
249.542	0.497	happy	Picture	85.332	n/a	3	7	10	n/a	10	85	3	n/a	n/a	n/a	n/a	275.948	BF07ANS.jpg
250.039	0.514	Blank	Blank	84.818	n/a	3	7	10	n/a	10	n/a	3	n/a	n/a	n/a	n/a	276.445	n/a
250.57	0.497	happy	Picture	84.305	n/a	3	7	11	n/a	11	87	3	n/a	n/a	n/a	n/a	276.976	BF11ANS.jpg
251.067	0.514	Blank	Blank	83.791	n/a	3	7	11	n/a	11	n/a	3	n/a	n/a	n/a	n/a	277.473	n/a
251.598	0.497	happy	Picture	83.277	n/a	3	7	12	n/a	12	91	3	n/a	n/a	n/a	n/a	278.004	AF20ANS.jpg
252.095	0.514	Blank	Blank	82.763	n/a	3	7	12	n/a	12	n/a	3	n/a	n/a	n/a	n/a	278.501	n/a
252.626	0.497	happy	Picture	82.249	n/a	3	7	13	n/a	13	115	3	n/a	n/a	n/a	n/a	279.032	AM23ANS.jpg
253.123	0.514	Blank	Blank	81.735	n/a	3	7	13	n/a	13	n/a	3	n/a	n/a	n/a	n/a	279.529	n/a
253.654	0.497	happy	Picture	81.221	n/a	3	7	14	n/a	14	97	3	n/a	n/a	n/a	n/a	280.06	BF28ANS.jpg
254.151	0.514	Blank	Blank	80.707	n/a	3	7	14	n/a	14	n/a	3	n/a	n/a	n/a	n/a	280.557	n/a
254.681	0.497	happy	Picture	80.193	n/a	3	7	15	n/a	15	82	3	n/a	n/a	n/a	n/a	281.087	AF03ANS.jpg
255.179	0.514	Blank	Blank	79.679	n/a	3	7	15	n/a	15	n/a	3	n/a	n/a	n/a	n/a	281.585	n/a
255.709	0.497	happy	Picture	79.165	n/a	3	7	16	n/a	16	96	3	n/a	n/a	n/a	n/a	282.115	AF26ANS.jpg
256.207	0.514	Blank	Blank	78.651	n/a	3	7	16	n/a	16	n/a	3	n/a	n/a	n/a	n/a	282.613	n/a
256.737	0.497	happy	Picture	78.137	n/a	3	7	17	n/a	17	109	3	n/a	n/a	n/a	n/a	283.143	AM10ANS.jpg
257.235	0.514	Blank	Blank	77.623	n/a	3	7	17	n/a	17	n/a	3	n/a	n/a	n/a	n/a	283.64	n/a
257.765	0.497	happy	Picture	77.109	n/a	3	7	18	n/a	18	114	3	n/a	n/a	n/a	n/a	284.171	AM22ANS.jpg
258.263	0.514	Blank	Blank	76.595	n/a	3	7	18	n/a	18	n/a	3	n/a	n/a	n/a	n/a	284.668	n/a
258.793	0.497	happy	Picture	76.081	n/a	3	7	19	n/a	19	120	3	n/a	n/a	n/a	n/a	285.199	AM35ANS.jpg
259.29	0.514	Blank	Blank	75.567	n/a	3	7	19	n/a	19	n/a	3	n/a	n/a	n/a	n/a	285.696	n/a
259.821	0.497	happy	Picture	75.054	n/a	3	7	20	n/a	20	81	3	n/a	n/a	n/a	n/a	286.227	AF01ANS.jpg
260.318	0.514	Blank	Blank	74.54	n/a	3	7	20	n/a	20	n/a	3	n/a	n/a	n/a	n/a	286.724	n/a
260.849	10.014	ITI	Fixation+	64.509	n/a	3	n/a	n/a	n/a	n/a	n/a	n/a	n/a	n/a	n/a	n/a	287.255	n/a
270.879	0.497	neutral	Picture	63.995	n/a	3	8	1	n/a	21	28	1	n/a	n/a	n/a	n/a	297.285	AM09NES.jpg
271.376	0.514	Blank	Blank	63.482	n/a	3	8	1	n/a	21	n/a	1	n/a	n/a	n/a	n/a	297.782	n/a
271.907	0.497	neutral	Picture	62.968	n/a	3	8	2	n/a	22	27	1	n/a	n/a	n/a	n/a	298.313	BM08NES.jpg
272.404	0.514	Blank	Blank	62.454	n/a	3	8	2	n/a	22	n/a	1	n/a	n/a	n/a	n/a	298.81	n/a
272.935	0.497	neutral	Picture	61.94	n/a	3	8	3	n/a	23	16	1	n/a	n/a	n/a	n/a	299.341	AF26NES.jpg
273.432	0.514	Blank	Blank	61.426	n/a	3	8	3	n/a	23	n/a	1	n/a	n/a	n/a	n/a	299.838	n/a
273.963	0.497	neutral	Picture	60.912	n/a	3	8	4	n/a	24	3	1	n/a	n/a	n/a	n/a	300.368	BF04NES.jpg
274.46	0.514	Blank	Blank	60.398	n/a	3	8	4	n/a	24	n/a	1	n/a	n/a	n/a	n/a	300.866	n/a
274.99	0.497	neutral	Picture	59.884	n/a	3	8	5	n/a	25	32	1	n/a	n/a	n/a	n/a	301.396	AM14NES.jpg
275.488	0.514	Blank	Blank	59.37	n/a	3	8	5	n/a	25	n/a	1	n/a	n/a	n/a	n/a	301.894	n/a
276.018	0.497	neutral	Picture	58.856	n/a	3	8	6	n/a	26	37	1	n/a	n/a	n/a	n/a	302.424	BM25NES.jpg
276.516	0.514	Blank	Blank	58.342	n/a	3	8	6	n/a	26	n/a	1	n/a	n/a	n/a	n/a	302.922	n/a
277.046	0.497	neutral	Picture	57.828	n/a	3	8	7	n/a	27	15	1	n/a	n/a	n/a	n/a	303.452	AF25NES.jpg
277.544	0.514	Blank	Blank	57.314	n/a	3	8	7	n/a	27	n/a	1	n/a	n/a	n/a	n/a	303.95	n/a
278.074	0.497	neutral	Picture	56.8	n/a	3	8	8	n/a	28	23	1	n/a	n/a	n/a	n/a	304.48	AM04NES.jpg
278.572	0.514	Blank	Blank	56.286	n/a	3	8	8	n/a	28	n/a	1	n/a	n/a	n/a	n/a	304.977	n/a
279.102	0.497	neutral	Picture	55.772	n/a	3	8	9	n/a	29	34	1	n/a	n/a	n/a	n/a	305.508	AM22NES.jpg
279.599	0.514	Blank	Blank	55.258	n/a	3	8	9	n/a	29	n/a	1	n/a	n/a	n/a	n/a	306.005	n/a
280.13	0.497	neutral	Picture	54.745	n/a	3	8	10	n/a	30	24	1	n/a	n/a	n/a	n/a	306.536	BM05NES.jpg
280.627	0.514	Blank	Blank	54.231	n/a	3	8	10	n/a	30	n/a	1	n/a	n/a	n/a	n/a	307.033	n/a
281.158	0.497	neutral	Picture	53.717	n/a	3	8	11	n/a	31	12	1	n/a	n/a	n/a	n/a	307.564	AF21NES.jpg
281.655	0.514	Blank	Blank	53.203	n/a	3	8	11	n/a	31	n/a	1	n/a	n/a	n/a	n/a	308.061	n/a
282.186	0.497	neutral	Picture	52.689	n/a	3	8	12	n/a	32	6	1	n/a	n/a	n/a	n/a	308.591	AF09NES.jpg
282.683	0.514	Blank	Blank	52.175	n/a	3	8	12	n/a	32	n/a	1	n/a	n/a	n/a	n/a	309.089	n/a
283.214	0.497	neutral	Picture	51.661	n/a	3	8	13	n/a	33	17	1	n/a	n/a	n/a	n/a	309.619	BF28NES.jpg
283.711	0.514	Blank	Blank	51.147	n/a	3	8	13	n/a	33	n/a	1	n/a	n/a	n/a	n/a	310.117	n/a
284.241	0.497	neutral	Picture	50.633	n/a	3	8	14	n/a	34	2	1	n/a	n/a	n/a	n/a	310.647	AF03NES.jpg
284.739	0.514	Blank	Blank	50.119	n/a	3	8	14	n/a	34	n/a	1	n/a	n/a	n/a	n/a	311.145	n/a
285.269	0.497	neutral	Picture	49.605	n/a	3	8	15	n/a	35	9	1	n/a	n/a	n/a	n/a	311.675	AF17NES.jpg
285.767	0.514	Blank	Blank	49.091	n/a	3	8	15	n/a	35	n/a	1	n/a	n/a	n/a	n/a	312.173	n/a
286.297	0.497	neutral	Picture	48.577	n/a	3	8	16	n/a	36	25	1	n/a	n/a	n/a	n/a	312.703	BM06NES.jpg
286.795	0.514	Blank	Blank	48.063	n/a	3	8	16	n/a	36	n/a	1	n/a	n/a	n/a	n/a	313.2	n/a
287.325	0.497	neutral	Picture	47.549	n/a	3	8	17	n/a	37	8	1	n/a	n/a	n/a	n/a	313.731	AF14NES.jpg
287.822	0.514	Blank	Blank	47.036	n/a	3	8	17	n/a	37	n/a	1	n/a	n/a	n/a	n/a	314.228	n/a
288.353	0.497	neutral	Picture	46.521	n/a	3	8	18	n/a	38	19	1	n/a	n/a	n/a	n/a	314.759	AF31NES.jpg
288.85	0.514	Blank	Blank	46.008	n/a	3	8	18	n/a	38	n/a	1	n/a	n/a	n/a	n/a	315.256	n/a
289.381	0.497	neutral	Picture	45.494	n/a	3	8	19	n/a	39	14	1	n/a	n/a	n/a	n/a	315.787	AF23NES.jpg
289.878	0.514	Blank	Blank	44.98	n/a	3	8	19	n/a	39	n/a	1	n/a	n/a	n/a	n/a	316.284	n/a
290.409	0.497	neutral	Picture	44.466	n/a	3	8	20	n/a	40	4	1	n/a	n/a	n/a	n/a	316.815	AF05NES.jpg
290.906	0.514	Blank	Blank	43.952	n/a	3	8	20	n/a	40	n/a	1	n/a	n/a	n/a	n/a	317.312	n/a
291.437	10.014	ITI	Fixation+	33.922	n/a	3	n/a	n/a	n/a	n/a	n/a	n/a	n/a	n/a	n/a	n/a	317.842	n/a
301.467	0.497	happy	Picture	33.408	n/a	3	9	1	n/a	41	84	3	n/a	n/a	n/a	n/a	327.873	AF05ANS.jpg
301.964	0.514	Blank	Blank	32.894	n/a	3	9	1	n/a	41	n/a	3	n/a	n/a	n/a	n/a	328.37	n/a
302.495	0.497	happy	Picture	32.38	n/a	3	9	2	n/a	42	92	3	n/a	n/a	n/a	n/a	328.901	AF21ANS.jpg
302.992	0.514	Blank	Blank	31.866	n/a	3	9	2	n/a	42	n/a	3	n/a	n/a	n/a	n/a	329.398	n/a
303.523	0.497	happy	Picture	31.352	n/a	3	9	3	n/a	43	86	3	n/a	n/a	n/a	n/a	329.928	AF09ANS.jpg
304.02	0.514	Blank	Blank	30.838	n/a	3	9	3	n/a	43	n/a	3	n/a	n/a	n/a	n/a	330.426	n/a
304.55	0.497	happy	Picture	30.324	n/a	3	9	4	n/a	44	93	3	n/a	n/a	n/a	n/a	330.956	BF22ANS.jpg
305.048	0.514	Blank	Blank	29.81	n/a	3	9	4	n/a	44	n/a	3	n/a	n/a	n/a	n/a	331.454	n/a
305.578	0.497	happy	Picture	29.296	n/a	3	9	5	n/a	45	88	3	n/a	n/a	n/a	n/a	331.984	AF14ANS.jpg
306.076	0.514	Blank	Blank	28.782	n/a	3	9	5	n/a	45	n/a	3	n/a	n/a	n/a	n/a	332.481	n/a
306.606	0.497	happy	Picture	28.268	n/a	3	9	6	n/a	46	113	3	n/a	n/a	n/a	n/a	333.012	AM21ANS.jpg
307.104	0.514	Blank	Blank	27.754	n/a	3	9	6	n/a	46	n/a	3	n/a	n/a	n/a	n/a	333.509	n/a
307.634	0.497	happy	Picture	27.24	n/a	3	9	7	n/a	47	95	3	n/a	n/a	n/a	n/a	334.04	AF25ANS.jpg
308.131	0.514	Blank	Blank	26.726	n/a	3	9	7	n/a	47	n/a	3	n/a	n/a	n/a	n/a	334.537	n/a
308.662	0.497	happy	Picture	26.213	n/a	3	9	8	n/a	48	102	3	n/a	n/a	n/a	n/a	335.068	BM03ANS.jpg
309.159	0.514	Blank	Blank	25.699	n/a	3	9	8	n/a	48	n/a	3	n/a	n/a	n/a	n/a	335.565	n/a
309.69	0.497	happy	Picture	25.185	n/a	3	9	9	n/a	49	112	3	n/a	n/a	n/a	n/a	336.096	AM14ANS.jpg
310.187	0.514	Blank	Blank	24.671	n/a	3	9	9	n/a	49	n/a	3	n/a	n/a	n/a	n/a	336.593	n/a
310.718	0.497	happy	Picture	24.157	n/a	3	9	10	n/a	50	83	3	n/a	n/a	n/a	n/a	337.123	BF04ANS.jpg
311.215	0.514	Blank	Blank	23.643	n/a	3	9	10	n/a	50	n/a	3	n/a	n/a	n/a	n/a	337.621	n/a
311.746	0.497	happy	Picture	23.129	n/a	3	9	11	n/a	51	90	3	n/a	n/a	n/a	n/a	338.151	AF18ANS.jpg
312.243	0.514	Blank	Blank	22.615	n/a	3	9	11	n/a	51	n/a	3	n/a	n/a	n/a	n/a	338.649	n/a
312.773	0.497	happy	Picture	22.101	n/a	3	9	12	n/a	52	117	3	n/a	n/a	n/a	n/a	339.179	BM25ANS.jpg
313.271	0.514	Blank	Blank	21.587	n/a	3	9	12	n/a	52	n/a	3	n/a	n/a	n/a	n/a	339.677	n/a
313.801	0.497	happy	Picture	21.073	n/a	3	9	13	n/a	53	94	3	n/a	n/a	n/a	n/a	340.207	AF23ANS.jpg
314.299	0.514	Blank	Blank	20.559	n/a	3	9	13	n/a	53	n/a	3	n/a	n/a	n/a	n/a	340.705	n/a
314.829	0.497	happy	Picture	20.045	n/a	3	9	14	n/a	54	106	3	n/a	n/a	n/a	n/a	341.235	AM07ANS.jpg
315.327	0.514	Blank	Blank	19.531	n/a	3	9	14	n/a	54	n/a	3	n/a	n/a	n/a	n/a	341.732	n/a
315.857	0.497	happy	Picture	19.017	n/a	3	9	15	n/a	55	105	3	n/a	n/a	n/a	n/a	342.263	BM06ANS.jpg
316.354	0.514	Blank	Blank	18.503	n/a	3	9	15	n/a	55	n/a	3	n/a	n/a	n/a	n/a	342.76	n/a
316.885	0.497	happy	Picture	17.989	n/a	3	9	16	n/a	56	116	3	n/a	n/a	n/a	n/a	343.291	BM24ANS.jpg
317.382	0.514	Blank	Blank	17.476	n/a	3	9	16	n/a	56	n/a	3	n/a	n/a	n/a	n/a	343.788	n/a
317.913	0.497	happy	Picture	16.962	n/a	3	9	17	n/a	57	89	3	n/a	n/a	n/a	n/a	344.319	AF17ANS.jpg
318.41	0.514	Blank	Blank	16.448	n/a	3	9	17	n/a	57	n/a	3	n/a	n/a	n/a	n/a	344.816	n/a
318.941	0.497	happy	Picture	15.934	n/a	3	9	18	n/a	58	118	3	n/a	n/a	n/a	n/a	345.347	BM26ANS.jpg
319.438	0.514	Blank	Blank	15.42	n/a	3	9	18	n/a	58	n/a	3	n/a	n/a	n/a	n/a	345.844	n/a
319.969	0.497	happy	Picture	14.906	n/a	3	9	19	n/a	59	100	3	n/a	n/a	n/a	n/a	346.375	AF32ANS.jpg
320.466	0.514	Blank	Blank	14.392	n/a	3	9	19	n/a	59	n/a	3	n/a	n/a	n/a	n/a	346.872	n/a
320.997	0.497	happy	Picture	13.878	n/a	3	9	20	n/a	60	119	3	n/a	n/a	n/a	n/a	347.402	BM28ANS.jpg
321.494	0.514	Blank	Blank	13.364	n/a	3	9	20	n/a	60	n/a	3	n/a	n/a	n/a	n/a	347.9	n/a
322.024	10.014	ITI	Fixation+	3.334	n/a	3	n/a	n/a	n/a	n/a	n/a	n/a	n/a	n/a	n/a	n/a	348.43	n/a
335.372	n/a	ConfirmRating	Rate	n/a	3.332	3	n/a	n/a	0	n/a	n/a	n/a	2	Happy	77	54	361.778	n/a
337.136	n/a	ConfirmRating	Rate	n/a	1.741	3	n/a	n/a	1	n/a	n/a	n/a	3	Happy	21	47	363.542	n/a
337.161	10.014	ITI	Fixation+	96.025	n/a	4	n/a	n/a	n/a	n/a	n/a	n/a	n/a	n/a	n/a	n/a	363.567	n/a
347.191	0.497	angry	Picture	95.512	n/a	4	10	1	n/a	61	79	2	n/a	n/a	n/a	n/a	373.597	BM28HAS.jpg
347.688	0.514	Blank	Blank	94.998	n/a	4	10	1	n/a	61	n/a	2	n/a	n/a	n/a	n/a	374.094	n/a
348.219	0.497	angry	Picture	94.484	n/a	4	10	2	n/a	62	61	2	n/a	n/a	n/a	n/a	374.625	AM01HAS.jpg
348.716	0.514	Blank	Blank	93.97	n/a	4	10	2	n/a	62	n/a	2	n/a	n/a	n/a	n/a	375.122	n/a
349.247	0.497	angry	Picture	93.456	n/a	4	10	3	n/a	63	57	2	n/a	n/a	n/a	n/a	375.653	BF28HAS.jpg
349.744	0.514	Blank	Blank	92.942	n/a	4	10	3	n/a	63	n/a	2	n/a	n/a	n/a	n/a	376.15	n/a
350.275	0.497	angry	Picture	92.428	n/a	4	10	4	n/a	64	77	2	n/a	n/a	n/a	n/a	376.68	BM25HAS.jpg
350.772	0.514	Blank	Blank	91.914	n/a	4	10	4	n/a	64	n/a	2	n/a	n/a	n/a	n/a	377.178	n/a
351.302	0.497	angry	Picture	91.4	n/a	4	10	5	n/a	65	47	2	n/a	n/a	n/a	n/a	377.708	BF11HAS.jpg
351.8	0.514	Blank	Blank	90.886	n/a	4	10	5	n/a	65	n/a	2	n/a	n/a	n/a	n/a	378.206	n/a
352.33	0.497	angry	Picture	90.372	n/a	4	10	6	n/a	66	50	2	n/a	n/a	n/a	n/a	378.736	AF18HAS.jpg
352.828	0.514	Blank	Blank	89.858	n/a	4	10	6	n/a	66	n/a	2	n/a	n/a	n/a	n/a	379.234	n/a
353.358	0.497	angry	Picture	89.344	n/a	4	10	7	n/a	67	78	2	n/a	n/a	n/a	n/a	379.764	BM26HAS.jpg
353.856	0.514	Blank	Blank	88.83	n/a	4	10	7	n/a	67	n/a	2	n/a	n/a	n/a	n/a	380.262	n/a
354.386	0.497	angry	Picture	88.316	n/a	4	10	8	n/a	68	45	2	n/a	n/a	n/a	n/a	380.792	BF07HAS.jpg
354.883	0.514	Blank	Blank	87.802	n/a	4	10	8	n/a	68	n/a	2	n/a	n/a	n/a	n/a	381.289	n/a
355.414	0.497	angry	Picture	87.288	n/a	4	10	9	n/a	69	56	2	n/a	n/a	n/a	n/a	381.82	AF26HAS.jpg
355.911	0.514	Blank	Blank	86.774	n/a	4	10	9	n/a	69	n/a	2	n/a	n/a	n/a	n/a	382.317	n/a
356.442	0.497	angry	Picture	86.261	n/a	4	10	10	n/a	70	65	2	n/a	n/a	n/a	n/a	382.848	BM06HAS.jpg
356.939	0.514	Blank	Blank	85.747	n/a	4	10	10	n/a	70	n/a	2	n/a	n/a	n/a	n/a	383.345	n/a
357.47	0.497	angry	Picture	85.233	n/a	4	10	11	n/a	71	73	2	n/a	n/a	n/a	n/a	383.876	AM21HAS.jpg
357.967	0.514	Blank	Blank	84.719	n/a	4	10	11	n/a	71	n/a	2	n/a	n/a	n/a	n/a	384.373	n/a
358.498	0.497	angry	Picture	84.205	n/a	4	10	12	n/a	72	41	2	n/a	n/a	n/a	n/a	384.904	AF01HAS.jpg
358.995	0.514	Blank	Blank	83.691	n/a	4	10	12	n/a	72	n/a	2	n/a	n/a	n/a	n/a	385.401	n/a
359.526	0.497	angry	Picture	83.177	n/a	4	10	13	n/a	73	59	2	n/a	n/a	n/a	n/a	385.931	AF31HAS.jpg
360.023	0.514	Blank	Blank	82.663	n/a	4	10	13	n/a	73	n/a	2	n/a	n/a	n/a	n/a	386.429	n/a
360.553	0.497	angry	Picture	82.149	n/a	4	10	14	n/a	74	64	2	n/a	n/a	n/a	n/a	386.959	BM05HAS.jpg
361.051	0.514	Blank	Blank	81.635	n/a	4	10	14	n/a	74	n/a	2	n/a	n/a	n/a	n/a	387.457	n/a
361.581	0.497	angry	Picture	81.121	n/a	4	10	15	n/a	75	68	2	n/a	n/a	n/a	n/a	387.987	AM09HAS.jpg
362.079	0.514	Blank	Blank	80.607	n/a	4	10	15	n/a	75	n/a	2	n/a	n/a	n/a	n/a	388.485	n/a
362.609	0.497	angry	Picture	80.093	n/a	4	10	16	n/a	76	54	2	n/a	n/a	n/a	n/a	389.015	AF23HAS.jpg
363.107	0.514	Blank	Blank	79.579	n/a	4	10	16	n/a	76	n/a	2	n/a	n/a	n/a	n/a	389.512	n/a
363.637	0.497	angry	Picture	79.065	n/a	4	10	17	n/a	77	53	2	n/a	n/a	n/a	n/a	390.043	BF22HAS.jpg
364.134	0.514	Blank	Blank	78.552	n/a	4	10	17	n/a	77	n/a	2	n/a	n/a	n/a	n/a	390.54	n/a
364.665	0.497	angry	Picture	78.037	n/a	4	10	18	n/a	78	44	2	n/a	n/a	n/a	n/a	391.071	AF05HAS.jpg
365.162	0.514	Blank	Blank	77.524	n/a	4	10	18	n/a	78	n/a	2	n/a	n/a	n/a	n/a	391.568	n/a
365.693	0.497	angry	Picture	77.01	n/a	4	10	19	n/a	79	52	2	n/a	n/a	n/a	n/a	392.099	AF21HAS.jpg
366.19	0.514	Blank	Blank	76.496	n/a	4	10	19	n/a	79	n/a	2	n/a	n/a	n/a	n/a	392.596	n/a
366.721	0.497	angry	Picture	75.982	n/a	4	10	20	n/a	80	62	2	n/a	n/a	n/a	n/a	393.127	BM03HAS.jpg
367.218	0.514	Blank	Blank	75.468	n/a	4	10	20	n/a	80	n/a	2	n/a	n/a	n/a	n/a	393.624	n/a
367.749	10.014	ITI	Fixation+	65.438	n/a	4	n/a	n/a	n/a	n/a	n/a	n/a	n/a	n/a	n/a	n/a	394.154	n/a
377.779	0.497	neutral	Picture	64.924	n/a	4	11	1	n/a	81	23	1	n/a	n/a	n/a	n/a	404.185	AM04NES.jpg
378.276	0.514	Blank	Blank	64.41	n/a	4	11	1	n/a	81	n/a	1	n/a	n/a	n/a	n/a	404.682	n/a
378.807	0.497	neutral	Picture	63.896	n/a	4	11	2	n/a	82	29	1	n/a	n/a	n/a	n/a	405.212	AM10NES.jpg
379.304	0.514	Blank	Blank	63.382	n/a	4	11	2	n/a	82	n/a	1	n/a	n/a	n/a	n/a	405.71	n/a
379.835	0.497	neutral	Picture	62.868	n/a	4	11	3	n/a	83	24	1	n/a	n/a	n/a	n/a	406.24	BM05NES.jpg
380.332	0.514	Blank	Blank	62.354	n/a	4	11	3	n/a	83	n/a	1	n/a	n/a	n/a	n/a	406.738	n/a
380.862	0.497	neutral	Picture	61.84	n/a	4	11	4	n/a	84	12	1	n/a	n/a	n/a	n/a	407.268	AF21NES.jpg
381.36	0.514	Blank	Blank	61.326	n/a	4	11	4	n/a	84	n/a	1	n/a	n/a	n/a	n/a	407.766	n/a
381.89	0.497	neutral	Picture	60.812	n/a	4	11	5	n/a	85	13	1	n/a	n/a	n/a	n/a	408.296	BF22NES.jpg
382.388	0.514	Blank	Blank	60.298	n/a	4	11	5	n/a	85	n/a	1	n/a	n/a	n/a	n/a	408.793	n/a
382.918	0.497	neutral	Picture	59.784	n/a	4	11	6	n/a	86	17	1	n/a	n/a	n/a	n/a	409.324	BF28NES.jpg
383.416	0.514	Blank	Blank	59.27	n/a	4	11	6	n/a	86	n/a	1	n/a	n/a	n/a	n/a	409.821	n/a
383.946	0.497	neutral	Picture	58.757	n/a	4	11	7	n/a	87	4	1	n/a	n/a	n/a	n/a	410.352	AF05NES.jpg
384.443	0.514	Blank	Blank	58.243	n/a	4	11	7	n/a	87	n/a	1	n/a	n/a	n/a	n/a	410.849	n/a
384.974	0.497	neutral	Picture	57.729	n/a	4	11	8	n/a	88	11	1	n/a	n/a	n/a	n/a	411.38	AF20NES.jpg
385.471	0.514	Blank	Blank	57.215	n/a	4	11	8	n/a	88	n/a	1	n/a	n/a	n/a	n/a	411.877	n/a
386.002	0.497	neutral	Picture	56.701	n/a	4	11	9	n/a	89	22	1	n/a	n/a	n/a	n/a	412.408	BM03NES.jpg
386.499	0.514	Blank	Blank	56.187	n/a	4	11	9	n/a	89	n/a	1	n/a	n/a	n/a	n/a	412.905	n/a
387.03	0.497	neutral	Picture	55.673	n/a	4	11	10	n/a	90	15	1	n/a	n/a	n/a	n/a	413.435	AF25NES.jpg
387.527	0.514	Blank	Blank	55.159	n/a	4	11	10	n/a	90	n/a	1	n/a	n/a	n/a	n/a	413.933	n/a
388.058	0.497	neutral	Picture	54.645	n/a	4	11	11	n/a	91	19	1	n/a	n/a	n/a	n/a	414.463	AF31NES.jpg
388.555	0.514	Blank	Blank	54.131	n/a	4	11	11	n/a	91	n/a	1	n/a	n/a	n/a	n/a	414.961	n/a
389.085	0.497	neutral	Picture	53.617	n/a	4	11	12	n/a	92	9	1	n/a	n/a	n/a	n/a	415.491	AF17NES.jpg
389.583	0.514	Blank	Blank	53.103	n/a	4	11	12	n/a	92	n/a	1	n/a	n/a	n/a	n/a	415.989	n/a
390.113	0.497	neutral	Picture	52.589	n/a	4	11	13	n/a	93	14	1	n/a	n/a	n/a	n/a	416.519	AF23NES.jpg
390.611	0.514	Blank	Blank	52.075	n/a	4	11	13	n/a	93	n/a	1	n/a	n/a	n/a	n/a	417.017	n/a
391.141	0.497	neutral	Picture	51.561	n/a	4	11	14	n/a	94	36	1	n/a	n/a	n/a	n/a	417.547	BM24NES.jpg
391.639	0.514	Blank	Blank	51.047	n/a	4	11	14	n/a	94	n/a	1	n/a	n/a	n/a	n/a	418.044	n/a
392.169	0.497	neutral	Picture	50.533	n/a	4	11	15	n/a	95	34	1	n/a	n/a	n/a	n/a	418.575	AM22NES.jpg
392.666	0.514	Blank	Blank	50.02	n/a	4	11	15	n/a	95	n/a	1	n/a	n/a	n/a	n/a	419.072	n/a
393.197	0.497	neutral	Picture	49.505	n/a	4	11	16	n/a	96	10	1	n/a	n/a	n/a	n/a	419.603	AF18NES.jpg
393.694	0.514	Blank	Blank	48.992	n/a	4	11	16	n/a	96	n/a	1	n/a	n/a	n/a	n/a	420.1	n/a
394.225	0.497	neutral	Picture	48.478	n/a	4	11	17	n/a	97	5	1	n/a	n/a	n/a	n/a	420.631	BF07NES.jpg
394.722	0.514	Blank	Blank	47.964	n/a	4	11	17	n/a	97	n/a	1	n/a	n/a	n/a	n/a	421.128	n/a
395.253	0.497	neutral	Picture	47.45	n/a	4	11	18	n/a	98	25	1	n/a	n/a	n/a	n/a	421.659	BM06NES.jpg
395.75	0.514	Blank	Blank	46.936	n/a	4	11	18	n/a	98	n/a	1	n/a	n/a	n/a	n/a	422.156	n/a
396.281	0.497	neutral	Picture	46.422	n/a	4	11	19	n/a	99	39	1	n/a	n/a	n/a	n/a	422.687	AM28NES.jpg
396.778	0.514	Blank	Blank	45.908	n/a	4	11	19	n/a	99	n/a	1	n/a	n/a	n/a	n/a	423.184	n/a
397.309	0.497	neutral	Picture	45.394	n/a	4	11	20	n/a	100	33	1	n/a	n/a	n/a	n/a	423.714	AM21NES.jpg
397.806	0.514	Blank	Blank	44.88	n/a	4	11	20	n/a	100	n/a	1	n/a	n/a	n/a	n/a	424.212	n/a
398.336	10.014	ITI	Fixation+	34.85	n/a	4	n/a	n/a	n/a	n/a	n/a	n/a	n/a	n/a	n/a	n/a	424.742	n/a
408.367	0.497	angry	Picture	34.336	n/a	4	12	1	n/a	101	74	2	n/a	n/a	n/a	n/a	434.772	AM22HAS.jpg
408.864	0.514	Blank	Blank	33.822	n/a	4	12	1	n/a	101	n/a	2	n/a	n/a	n/a	n/a	435.27	n/a
409.394	0.497	angry	Picture	33.308	n/a	4	12	2	n/a	102	76	2	n/a	n/a	n/a	n/a	435.8	BM24HAS.jpg
409.892	0.514	Blank	Blank	32.794	n/a	4	12	2	n/a	102	n/a	2	n/a	n/a	n/a	n/a	436.298	n/a
410.422	0.497	angry	Picture	32.28	n/a	4	12	3	n/a	103	80	2	n/a	n/a	n/a	n/a	436.828	BM35HAS.jpg
410.92	0.514	Blank	Blank	31.766	n/a	4	12	3	n/a	103	n/a	2	n/a	n/a	n/a	n/a	437.325	n/a
411.45	0.497	angry	Picture	31.252	n/a	4	12	4	n/a	104	75	2	n/a	n/a	n/a	n/a	437.856	AM23HAS.jpg
411.948	0.514	Blank	Blank	30.738	n/a	4	12	4	n/a	104	n/a	2	n/a	n/a	n/a	n/a	438.353	n/a
412.478	0.497	angry	Picture	30.224	n/a	4	12	5	n/a	105	49	2	n/a	n/a	n/a	n/a	438.884	AF17HAS.jpg
412.975	0.514	Blank	Blank	29.711	n/a	4	12	5	n/a	105	n/a	2	n/a	n/a	n/a	n/a	439.381	n/a
413.506	0.497	angry	Picture	29.196	n/a	4	12	6	n/a	106	43	2	n/a	n/a	n/a	n/a	439.912	BF04HAS.jpg
414.003	0.514	Blank	Blank	28.683	n/a	4	12	6	n/a	106	n/a	2	n/a	n/a	n/a	n/a	440.409	n/a
414.534	0.497	angry	Picture	28.169	n/a	4	12	7	n/a	107	70	2	n/a	n/a	n/a	n/a	440.94	BM11HAS.jpg
415.031	0.514	Blank	Blank	27.655	n/a	4	12	7	n/a	107	n/a	2	n/a	n/a	n/a	n/a	441.437	n/a
415.562	0.497	angry	Picture	27.141	n/a	4	12	8	n/a	108	66	2	n/a	n/a	n/a	n/a	441.968	BM07HAS.jpg
416.059	0.514	Blank	Blank	26.627	n/a	4	12	8	n/a	108	n/a	2	n/a	n/a	n/a	n/a	442.465	n/a
416.59	0.497	angry	Picture	26.113	n/a	4	12	9	n/a	109	48	2	n/a	n/a	n/a	n/a	442.995	AF14HAS.jpg
417.087	0.514	Blank	Blank	25.599	n/a	4	12	9	n/a	109	n/a	2	n/a	n/a	n/a	n/a	443.493	n/a
417.617	0.497	angry	Picture	25.085	n/a	4	12	10	n/a	110	58	2	n/a	n/a	n/a	n/a	444.023	BF29HAS.jpg
418.115	0.514	Blank	Blank	24.571	n/a	4	12	10	n/a	110	n/a	2	n/a	n/a	n/a	n/a	444.521	n/a
418.645	0.497	angry	Picture	24.057	n/a	4	12	11	n/a	111	63	2	n/a	n/a	n/a	n/a	445.051	AM04HAS.jpg
419.143	0.514	Blank	Blank	23.543	n/a	4	12	11	n/a	111	n/a	2	n/a	n/a	n/a	n/a	445.549	n/a
419.673	0.497	angry	Picture	23.029	n/a	4	12	12	n/a	112	72	2	n/a	n/a	n/a	n/a	446.079	AM14HAS.jpg
420.171	0.514	Blank	Blank	22.515	n/a	4	12	12	n/a	112	n/a	2	n/a	n/a	n/a	n/a	446.577	n/a
420.701	0.497	angry	Picture	22.001	n/a	4	12	13	n/a	113	55	2	n/a	n/a	n/a	n/a	447.107	AF25HAS.jpg
421.198	0.514	Blank	Blank	21.487	n/a	4	12	13	n/a	113	n/a	2	n/a	n/a	n/a	n/a	447.604	n/a
421.729	0.497	angry	Picture	20.974	n/a	4	12	14	n/a	114	42	2	n/a	n/a	n/a	n/a	448.135	AF03HAS.jpg
422.226	0.514	Blank	Blank	20.459	n/a	4	12	14	n/a	114	n/a	2	n/a	n/a	n/a	n/a	448.632	n/a
422.757	0.497	angry	Picture	19.946	n/a	4	12	15	n/a	115	60	2	n/a	n/a	n/a	n/a	449.163	AF32HAS.jpg
423.254	0.514	Blank	Blank	19.432	n/a	4	12	15	n/a	115	n/a	2	n/a	n/a	n/a	n/a	449.66	n/a
423.785	0.497	angry	Picture	18.918	n/a	4	12	16	n/a	116	67	2	n/a	n/a	n/a	n/a	450.191	BM08HAS.jpg
424.282	0.514	Blank	Blank	18.404	n/a	4	12	16	n/a	116	n/a	2	n/a	n/a	n/a	n/a	450.688	n/a
424.813	0.497	angry	Picture	17.89	n/a	4	12	17	n/a	117	51	2	n/a	n/a	n/a	n/a	451.219	AF20HAS.jpg
425.31	0.514	Blank	Blank	17.376	n/a	4	12	17	n/a	117	n/a	2	n/a	n/a	n/a	n/a	451.716	n/a
425.841	0.497	angry	Picture	16.862	n/a	4	12	18	n/a	118	71	2	n/a	n/a	n/a	n/a	452.246	BM12HAS.jpg
426.338	0.514	Blank	Blank	16.348	n/a	4	12	18	n/a	118	n/a	2	n/a	n/a	n/a	n/a	452.744	n/a
426.868	0.497	angry	Picture	15.834	n/a	4	12	19	n/a	119	69	2	n/a	n/a	n/a	n/a	453.274	AM10HAS.jpg
427.366	0.514	Blank	Blank	15.32	n/a	4	12	19	n/a	119	n/a	2	n/a	n/a	n/a	n/a	453.772	n/a
427.896	0.497	angry	Picture	14.806	n/a	4	12	20	n/a	120	46	2	n/a	n/a	n/a	n/a	454.302	AF09HAS.jpg
428.394	0.514	Blank	Blank	14.292	n/a	4	12	20	n/a	120	n/a	2	n/a	n/a	n/a	n/a	454.8	n/a
428.924	10.014	ITI	Fixation+	4.262	n/a	4	n/a	n/a	n/a	n/a	n/a	n/a	n/a	n/a	n/a	n/a	455.33	n/a
443.2	n/a	ConfirmRating	Rate	n/a	4.26	4	n/a	n/a	0	n/a	n/a	n/a	2	Angry	61	51	469.606	n/a
444.725	n/a	ConfirmRating	Rate	n/a	1.509	4	n/a	n/a	1	n/a	n/a	n/a	3	Angry	34	49	471.131	n/a
