onset	duration	trial_type	event_type	time_until_response	response_time	trial_number	block_num_within_trial	image_seq_num_within_block	question_seq_num_within_block	image_seq_num	picture_number	condition	question_type	block_type	rating	rating_computed	onset_uncorrected	KDEV_imagefile
0.006	10.014	ITI	Fixation+	97.165	n/a	1	n/a	n/a	n/a	n/a	n/a	n/a	n/a	n/a	n/a	n/a	31.71	n/a
10.036	0.497	happy	Picture	96.651	n/a	1	1	1	n/a	1	108	3	n/a	n/a	n/a	n/a	41.74	AM09ANS.jpg
10.534	0.514	Blank	Blank	96.137	n/a	1	1	1	n/a	1	n/a	3	n/a	n/a	n/a	n/a	42.238	n/a
11.064	0.497	happy	Picture	95.623	n/a	1	1	2	n/a	2	99	3	n/a	n/a	n/a	n/a	42.768	AF31ANS.jpg
11.562	0.514	Blank	Blank	95.109	n/a	1	1	2	n/a	2	n/a	3	n/a	n/a	n/a	n/a	43.266	n/a
12.092	0.497	happy	Picture	94.595	n/a	1	1	3	n/a	3	98	3	n/a	n/a	n/a	n/a	43.796	BF29ANS.jpg
12.589	0.514	Blank	Blank	94.081	n/a	1	1	3	n/a	3	n/a	3	n/a	n/a	n/a	n/a	44.293	n/a
13.12	0.497	happy	Picture	93.567	n/a	1	1	4	n/a	4	107	3	n/a	n/a	n/a	n/a	44.824	BM08ANS.jpg
13.617	0.514	Blank	Blank	93.053	n/a	1	1	4	n/a	4	n/a	3	n/a	n/a	n/a	n/a	45.321	n/a
14.148	0.497	happy	Picture	92.539	n/a	1	1	5	n/a	5	104	3	n/a	n/a	n/a	n/a	45.852	BM05ANS.jpg
14.645	0.514	Blank	Blank	92.025	n/a	1	1	5	n/a	5	n/a	3	n/a	n/a	n/a	n/a	46.349	n/a
15.176	0.497	happy	Picture	91.511	n/a	1	1	6	n/a	6	101	3	n/a	n/a	n/a	n/a	46.88	AM01ANS.jpg
15.673	0.514	Blank	Blank	90.997	n/a	1	1	6	n/a	6	n/a	3	n/a	n/a	n/a	n/a	47.377	n/a
16.204	0.497	happy	Picture	90.483	n/a	1	1	7	n/a	7	103	3	n/a	n/a	n/a	n/a	47.908	AM04ANS.jpg
16.701	0.514	Blank	Blank	89.969	n/a	1	1	7	n/a	7	n/a	3	n/a	n/a	n/a	n/a	48.405	n/a
17.232	0.497	happy	Picture	89.455	n/a	1	1	8	n/a	8	111	3	n/a	n/a	n/a	n/a	48.935	BM12ANS.jpg
17.729	0.514	Blank	Blank	88.941	n/a	1	1	8	n/a	8	n/a	3	n/a	n/a	n/a	n/a	49.433	n/a
18.259	0.497	happy	Picture	88.427	n/a	1	1	9	n/a	9	110	3	n/a	n/a	n/a	n/a	49.963	AM11ANS.jpg
18.757	0.514	Blank	Blank	87.914	n/a	1	1	9	n/a	9	n/a	3	n/a	n/a	n/a	n/a	50.461	n/a
19.287	0.497	happy	Picture	87.4	n/a	1	1	10	n/a	10	85	3	n/a	n/a	n/a	n/a	50.991	BF07ANS.jpg
19.785	0.514	Blank	Blank	86.886	n/a	1	1	10	n/a	10	n/a	3	n/a	n/a	n/a	n/a	51.489	n/a
20.315	0.497	happy	Picture	86.372	n/a	1	1	11	n/a	11	87	3	n/a	n/a	n/a	n/a	52.019	BF11ANS.jpg
20.813	0.514	Blank	Blank	85.858	n/a	1	1	11	n/a	11	n/a	3	n/a	n/a	n/a	n/a	52.517	n/a
21.343	0.497	happy	Picture	85.344	n/a	1	1	12	n/a	12	91	3	n/a	n/a	n/a	n/a	53.047	AF20ANS.jpg
21.841	0.514	Blank	Blank	84.83	n/a	1	1	12	n/a	12	n/a	3	n/a	n/a	n/a	n/a	53.544	n/a
22.371	0.497	happy	Picture	84.316	n/a	1	1	13	n/a	13	115	3	n/a	n/a	n/a	n/a	54.075	AM23ANS.jpg
22.868	0.514	Blank	Blank	83.802	n/a	1	1	13	n/a	13	n/a	3	n/a	n/a	n/a	n/a	54.572	n/a
23.399	0.497	happy	Picture	83.288	n/a	1	1	14	n/a	14	97	3	n/a	n/a	n/a	n/a	55.103	BF28ANS.jpg
23.896	0.514	Blank	Blank	82.774	n/a	1	1	14	n/a	14	n/a	3	n/a	n/a	n/a	n/a	55.6	n/a
24.427	0.497	happy	Picture	82.26	n/a	1	1	15	n/a	15	82	3	n/a	n/a	n/a	n/a	56.131	AF03ANS.jpg
24.924	0.514	Blank	Blank	81.746	n/a	1	1	15	n/a	15	n/a	3	n/a	n/a	n/a	n/a	56.628	n/a
25.455	0.497	happy	Picture	81.232	n/a	1	1	16	n/a	16	96	3	n/a	n/a	n/a	n/a	57.159	AF26ANS.jpg
25.952	0.514	Blank	Blank	80.718	n/a	1	1	16	n/a	16	n/a	3	n/a	n/a	n/a	n/a	57.656	n/a
26.483	0.497	happy	Picture	80.204	n/a	1	1	17	n/a	17	109	3	n/a	n/a	n/a	n/a	58.187	AM10ANS.jpg
26.98	0.514	Blank	Blank	79.69	n/a	1	1	17	n/a	17	n/a	3	n/a	n/a	n/a	n/a	58.684	n/a
27.51	0.497	happy	Picture	79.176	n/a	1	1	18	n/a	18	114	3	n/a	n/a	n/a	n/a	59.214	AM22ANS.jpg
28.008	0.514	Blank	Blank	78.663	n/a	1	1	18	n/a	18	n/a	3	n/a	n/a	n/a	n/a	59.712	n/a
28.538	0.497	happy	Picture	78.149	n/a	1	1	19	n/a	19	120	3	n/a	n/a	n/a	n/a	60.242	AM35ANS.jpg
29.036	0.514	Blank	Blank	77.635	n/a	1	1	19	n/a	19	n/a	3	n/a	n/a	n/a	n/a	60.74	n/a
29.566	0.497	happy	Picture	77.121	n/a	1	1	20	n/a	20	81	3	n/a	n/a	n/a	n/a	61.27	AF01ANS.jpg
30.064	0.514	Blank	Blank	76.607	n/a	1	1	20	n/a	20	n/a	3	n/a	n/a	n/a	n/a	61.768	n/a
30.594	10.014	ITI	Fixation+	66.577	n/a	1	n/a	n/a	n/a	n/a	n/a	n/a	n/a	n/a	n/a	n/a	62.298	n/a
40.624	0.497	neutral	Picture	66.063	n/a	1	2	1	n/a	21	28	1	n/a	n/a	n/a	n/a	72.328	AM09NES.jpg
41.122	0.514	Blank	Blank	65.549	n/a	1	2	1	n/a	21	n/a	1	n/a	n/a	n/a	n/a	72.826	n/a
41.652	0.497	neutral	Picture	65.035	n/a	1	2	2	n/a	22	27	1	n/a	n/a	n/a	n/a	73.356	BM08NES.jpg
42.15	0.514	Blank	Blank	64.521	n/a	1	2	2	n/a	22	n/a	1	n/a	n/a	n/a	n/a	73.854	n/a
42.68	0.497	neutral	Picture	64.007	n/a	1	2	3	n/a	23	16	1	n/a	n/a	n/a	n/a	74.384	AF26NES.jpg
43.178	0.514	Blank	Blank	63.493	n/a	1	2	3	n/a	23	n/a	1	n/a	n/a	n/a	n/a	74.882	n/a
43.708	0.497	neutral	Picture	62.979	n/a	1	2	4	n/a	24	3	1	n/a	n/a	n/a	n/a	75.412	BF04NES.jpg
44.205	0.514	Blank	Blank	62.465	n/a	1	2	4	n/a	24	n/a	1	n/a	n/a	n/a	n/a	75.909	n/a
44.736	0.497	neutral	Picture	61.951	n/a	1	2	5	n/a	25	32	1	n/a	n/a	n/a	n/a	76.44	AM14NES.jpg
45.233	0.514	Blank	Blank	61.437	n/a	1	2	5	n/a	25	n/a	1	n/a	n/a	n/a	n/a	76.937	n/a
45.764	0.497	neutral	Picture	60.923	n/a	1	2	6	n/a	26	37	1	n/a	n/a	n/a	n/a	77.468	BM25NES.jpg
46.261	0.514	Blank	Blank	60.409	n/a	1	2	6	n/a	26	n/a	1	n/a	n/a	n/a	n/a	77.965	n/a
46.792	0.497	neutral	Picture	59.895	n/a	1	2	7	n/a	27	15	1	n/a	n/a	n/a	n/a	78.496	AF25NES.jpg
47.289	0.514	Blank	Blank	59.381	n/a	1	2	7	n/a	27	n/a	1	n/a	n/a	n/a	n/a	78.993	n/a
47.82	0.497	neutral	Picture	58.867	n/a	1	2	8	n/a	28	23	1	n/a	n/a	n/a	n/a	79.523	AM04NES.jpg
48.317	0.514	Blank	Blank	58.353	n/a	1	2	8	n/a	28	n/a	1	n/a	n/a	n/a	n/a	80.021	n/a
48.847	0.497	neutral	Picture	57.839	n/a	1	2	9	n/a	29	34	1	n/a	n/a	n/a	n/a	80.551	AM22NES.jpg
49.345	0.514	Blank	Blank	57.326	n/a	1	2	9	n/a	29	n/a	1	n/a	n/a	n/a	n/a	81.049	n/a
49.875	0.497	neutral	Picture	56.812	n/a	1	2	10	n/a	30	24	1	n/a	n/a	n/a	n/a	81.579	BM05NES.jpg
50.373	0.514	Blank	Blank	56.298	n/a	1	2	10	n/a	30	n/a	1	n/a	n/a	n/a	n/a	82.077	n/a
50.903	0.497	neutral	Picture	55.784	n/a	1	2	11	n/a	31	12	1	n/a	n/a	n/a	n/a	82.607	AF21NES.jpg
51.401	0.514	Blank	Blank	55.27	n/a	1	2	11	n/a	31	n/a	1	n/a	n/a	n/a	n/a	83.105	n/a
51.931	0.497	neutral	Picture	54.756	n/a	1	2	12	n/a	32	6	1	n/a	n/a	n/a	n/a	83.635	AF09NES.jpg
52.429	0.514	Blank	Blank	54.242	n/a	1	2	12	n/a	32	n/a	1	n/a	n/a	n/a	n/a	84.132	n/a
52.959	0.497	neutral	Picture	53.728	n/a	1	2	13	n/a	33	17	1	n/a	n/a	n/a	n/a	84.663	BF28NES.jpg
53.456	0.514	Blank	Blank	53.214	n/a	1	2	13	n/a	33	n/a	1	n/a	n/a	n/a	n/a	85.16	n/a
53.987	0.497	neutral	Picture	52.7	n/a	1	2	14	n/a	34	2	1	n/a	n/a	n/a	n/a	85.691	AF03NES.jpg
54.484	0.514	Blank	Blank	52.186	n/a	1	2	14	n/a	34	n/a	1	n/a	n/a	n/a	n/a	86.188	n/a
55.015	0.497	neutral	Picture	51.672	n/a	1	2	15	n/a	35	9	1	n/a	n/a	n/a	n/a	86.719	AF17NES.jpg
55.512	0.514	Blank	Blank	51.158	n/a	1	2	15	n/a	35	n/a	1	n/a	n/a	n/a	n/a	87.216	n/a
56.043	0.497	neutral	Picture	50.644	n/a	1	2	16	n/a	36	25	1	n/a	n/a	n/a	n/a	87.747	BM06NES.jpg
56.54	0.514	Blank	Blank	50.13	n/a	1	2	16	n/a	36	n/a	1	n/a	n/a	n/a	n/a	88.244	n/a
57.071	0.497	neutral	Picture	49.616	n/a	1	2	17	n/a	37	8	1	n/a	n/a	n/a	n/a	88.775	AF14NES.jpg
57.568	0.514	Blank	Blank	49.102	n/a	1	2	17	n/a	37	n/a	1	n/a	n/a	n/a	n/a	89.272	n/a
58.099	0.497	neutral	Picture	48.588	n/a	1	2	18	n/a	38	19	1	n/a	n/a	n/a	n/a	89.802	AF31NES.jpg
58.596	0.514	Blank	Blank	48.074	n/a	1	2	18	n/a	38	n/a	1	n/a	n/a	n/a	n/a	90.3	n/a
59.126	0.497	neutral	Picture	47.561	n/a	1	2	19	n/a	39	14	1	n/a	n/a	n/a	n/a	90.83	AF23NES.jpg
59.624	0.514	Blank	Blank	47.047	n/a	1	2	19	n/a	39	n/a	1	n/a	n/a	n/a	n/a	91.328	n/a
60.154	0.497	neutral	Picture	46.533	n/a	1	2	20	n/a	40	4	1	n/a	n/a	n/a	n/a	91.858	AF05NES.jpg
60.652	0.514	Blank	Blank	46.019	n/a	1	2	20	n/a	40	n/a	1	n/a	n/a	n/a	n/a	92.356	n/a
61.182	10.014	ITI	Fixation+	35.988	n/a	1	n/a	n/a	n/a	n/a	n/a	n/a	n/a	n/a	n/a	n/a	92.886	n/a
71.212	0.497	happy	Picture	35.475	n/a	1	3	1	n/a	41	84	3	n/a	n/a	n/a	n/a	102.916	AF05ANS.jpg
71.71	0.514	Blank	Blank	34.961	n/a	1	3	1	n/a	41	n/a	3	n/a	n/a	n/a	n/a	103.414	n/a
72.24	0.497	happy	Picture	34.447	n/a	1	3	2	n/a	42	92	3	n/a	n/a	n/a	n/a	103.944	AF21ANS.jpg
72.738	0.514	Blank	Blank	33.933	n/a	1	3	2	n/a	42	n/a	3	n/a	n/a	n/a	n/a	104.442	n/a
73.268	0.497	happy	Picture	33.419	n/a	1	3	3	n/a	43	86	3	n/a	n/a	n/a	n/a	104.972	AF09ANS.jpg
73.766	0.514	Blank	Blank	32.905	n/a	1	3	3	n/a	43	n/a	3	n/a	n/a	n/a	n/a	105.469	n/a
74.296	0.497	happy	Picture	32.391	n/a	1	3	4	n/a	44	93	3	n/a	n/a	n/a	n/a	106.0	BF22ANS.jpg
74.793	0.514	Blank	Blank	31.877	n/a	1	3	4	n/a	44	n/a	3	n/a	n/a	n/a	n/a	106.497	n/a
75.324	0.497	happy	Picture	31.363	n/a	1	3	5	n/a	45	88	3	n/a	n/a	n/a	n/a	107.028	AF14ANS.jpg
75.821	0.514	Blank	Blank	30.849	n/a	1	3	5	n/a	45	n/a	3	n/a	n/a	n/a	n/a	107.525	n/a
76.352	0.497	happy	Picture	30.335	n/a	1	3	6	n/a	46	113	3	n/a	n/a	n/a	n/a	108.056	AM21ANS.jpg
76.849	0.514	Blank	Blank	29.821	n/a	1	3	6	n/a	46	n/a	3	n/a	n/a	n/a	n/a	108.553	n/a
77.38	0.497	happy	Picture	29.307	n/a	1	3	7	n/a	47	95	3	n/a	n/a	n/a	n/a	109.084	AF25ANS.jpg
77.877	0.514	Blank	Blank	28.793	n/a	1	3	7	n/a	47	n/a	3	n/a	n/a	n/a	n/a	109.581	n/a
78.408	0.497	happy	Picture	28.279	n/a	1	3	8	n/a	48	102	3	n/a	n/a	n/a	n/a	110.112	BM03ANS.jpg
78.905	0.514	Blank	Blank	27.765	n/a	1	3	8	n/a	48	n/a	3	n/a	n/a	n/a	n/a	110.609	n/a
79.436	0.497	happy	Picture	27.251	n/a	1	3	9	n/a	49	112	3	n/a	n/a	n/a	n/a	111.139	AM14ANS.jpg
79.933	0.514	Blank	Blank	26.737	n/a	1	3	9	n/a	49	n/a	3	n/a	n/a	n/a	n/a	111.637	n/a
80.463	0.497	happy	Picture	26.224	n/a	1	3	10	n/a	50	83	3	n/a	n/a	n/a	n/a	112.167	BF04ANS.jpg
80.961	0.514	Blank	Blank	25.71	n/a	1	3	10	n/a	50	n/a	3	n/a	n/a	n/a	n/a	112.665	n/a
81.491	0.497	happy	Picture	25.196	n/a	1	3	11	n/a	51	90	3	n/a	n/a	n/a	n/a	113.195	AF18ANS.jpg
81.989	0.514	Blank	Blank	24.682	n/a	1	3	11	n/a	51	n/a	3	n/a	n/a	n/a	n/a	113.693	n/a
82.519	0.497	happy	Picture	24.168	n/a	1	3	12	n/a	52	117	3	n/a	n/a	n/a	n/a	114.223	BM25ANS.jpg
83.017	0.514	Blank	Blank	23.654	n/a	1	3	12	n/a	52	n/a	3	n/a	n/a	n/a	n/a	114.721	n/a
83.547	0.497	happy	Picture	23.14	n/a	1	3	13	n/a	53	94	3	n/a	n/a	n/a	n/a	115.251	AF23ANS.jpg
84.044	0.514	Blank	Blank	22.626	n/a	1	3	13	n/a	53	n/a	3	n/a	n/a	n/a	n/a	115.748	n/a
84.575	0.497	happy	Picture	22.112	n/a	1	3	14	n/a	54	106	3	n/a	n/a	n/a	n/a	116.279	AM07ANS.jpg
85.072	0.514	Blank	Blank	21.598	n/a	1	3	14	n/a	54	n/a	3	n/a	n/a	n/a	n/a	116.776	n/a
85.603	0.497	happy	Picture	21.084	n/a	1	3	15	n/a	55	105	3	n/a	n/a	n/a	n/a	117.307	BM06ANS.jpg
86.1	0.514	Blank	Blank	20.57	n/a	1	3	15	n/a	55	n/a	3	n/a	n/a	n/a	n/a	117.804	n/a
86.631	0.497	happy	Picture	20.056	n/a	1	3	16	n/a	56	116	3	n/a	n/a	n/a	n/a	118.335	BM24ANS.jpg
87.128	0.514	Blank	Blank	19.542	n/a	1	3	16	n/a	56	n/a	3	n/a	n/a	n/a	n/a	118.832	n/a
87.659	0.497	happy	Picture	19.028	n/a	1	3	17	n/a	57	89	3	n/a	n/a	n/a	n/a	119.363	AF17ANS.jpg
88.156	0.514	Blank	Blank	18.514	n/a	1	3	17	n/a	57	n/a	3	n/a	n/a	n/a	n/a	119.86	n/a
88.687	0.497	happy	Picture	18.0	n/a	1	3	18	n/a	58	118	3	n/a	n/a	n/a	n/a	120.391	BM26ANS.jpg
89.184	0.514	Blank	Blank	17.486	n/a	1	3	18	n/a	58	n/a	3	n/a	n/a	n/a	n/a	120.888	n/a
89.715	0.497	happy	Picture	16.973	n/a	1	3	19	n/a	59	100	3	n/a	n/a	n/a	n/a	121.418	AF32ANS.jpg
90.212	0.514	Blank	Blank	16.459	n/a	1	3	19	n/a	59	n/a	3	n/a	n/a	n/a	n/a	121.916	n/a
90.742	0.497	happy	Picture	15.945	n/a	1	3	20	n/a	60	119	3	n/a	n/a	n/a	n/a	122.446	BM28ANS.jpg
91.24	0.514	Blank	Blank	15.431	n/a	1	3	20	n/a	60	n/a	3	n/a	n/a	n/a	n/a	122.944	n/a
91.77	10.014	ITI	Fixation+	5.4	n/a	1	n/a	n/a	n/a	n/a	n/a	n/a	n/a	n/a	n/a	n/a	123.474	n/a
107.184	n/a	ConfirmRating	Rate	n/a	5.388	1	n/a	n/a	0	n/a	n/a	n/a	2	Happy	94	56	138.888	n/a
110.726	n/a	ConfirmRating	Rate	n/a	3.531	1	n/a	n/a	1	n/a	n/a	n/a	3	Happy	0	44	142.43	n/a
110.753	10.014	ITI	Fixation+	94.869	n/a	2	n/a	n/a	n/a	n/a	n/a	n/a	n/a	n/a	n/a	n/a	142.457	n/a
120.783	0.497	angry	Picture	94.355	n/a	2	4	1	n/a	61	79	2	n/a	n/a	n/a	n/a	152.487	BM28HAS.jpg
121.281	0.514	Blank	Blank	93.841	n/a	2	4	1	n/a	61	n/a	2	n/a	n/a	n/a	n/a	152.984	n/a
121.811	0.497	angry	Picture	93.327	n/a	2	4	2	n/a	62	61	2	n/a	n/a	n/a	n/a	153.515	AM01HAS.jpg
122.309	0.514	Blank	Blank	92.813	n/a	2	4	2	n/a	62	n/a	2	n/a	n/a	n/a	n/a	154.012	n/a
122.839	0.497	angry	Picture	92.299	n/a	2	4	3	n/a	63	57	2	n/a	n/a	n/a	n/a	154.543	BF28HAS.jpg
123.336	0.514	Blank	Blank	91.785	n/a	2	4	3	n/a	63	n/a	2	n/a	n/a	n/a	n/a	155.04	n/a
123.867	0.497	angry	Picture	91.271	n/a	2	4	4	n/a	64	77	2	n/a	n/a	n/a	n/a	155.571	BM25HAS.jpg
124.364	0.514	Blank	Blank	90.757	n/a	2	4	4	n/a	64	n/a	2	n/a	n/a	n/a	n/a	156.068	n/a
124.895	0.497	angry	Picture	90.243	n/a	2	4	5	n/a	65	47	2	n/a	n/a	n/a	n/a	156.599	BF11HAS.jpg
125.392	0.514	Blank	Blank	89.729	n/a	2	4	5	n/a	65	n/a	2	n/a	n/a	n/a	n/a	157.096	n/a
125.923	0.497	angry	Picture	89.215	n/a	2	4	6	n/a	66	50	2	n/a	n/a	n/a	n/a	157.627	AF18HAS.jpg
126.42	0.514	Blank	Blank	88.701	n/a	2	4	6	n/a	66	n/a	2	n/a	n/a	n/a	n/a	158.124	n/a
126.951	0.497	angry	Picture	88.187	n/a	2	4	7	n/a	67	78	2	n/a	n/a	n/a	n/a	158.655	BM26HAS.jpg
127.448	0.514	Blank	Blank	87.673	n/a	2	4	7	n/a	67	n/a	2	n/a	n/a	n/a	n/a	159.152	n/a
127.978	0.497	angry	Picture	87.159	n/a	2	4	8	n/a	68	45	2	n/a	n/a	n/a	n/a	159.682	BF07HAS.jpg
128.476	0.514	Blank	Blank	86.645	n/a	2	4	8	n/a	68	n/a	2	n/a	n/a	n/a	n/a	160.18	n/a
129.006	0.497	angry	Picture	86.131	n/a	2	4	9	n/a	69	56	2	n/a	n/a	n/a	n/a	160.71	AF26HAS.jpg
129.504	0.514	Blank	Blank	85.618	n/a	2	4	9	n/a	69	n/a	2	n/a	n/a	n/a	n/a	161.208	n/a
130.034	0.497	angry	Picture	85.103	n/a	2	4	10	n/a	70	65	2	n/a	n/a	n/a	n/a	161.738	BM06HAS.jpg
130.532	0.514	Blank	Blank	84.59	n/a	2	4	10	n/a	70	n/a	2	n/a	n/a	n/a	n/a	162.236	n/a
131.062	0.497	angry	Picture	84.076	n/a	2	4	11	n/a	71	73	2	n/a	n/a	n/a	n/a	162.766	AM21HAS.jpg
131.56	0.514	Blank	Blank	83.562	n/a	2	4	11	n/a	71	n/a	2	n/a	n/a	n/a	n/a	163.263	n/a
132.09	0.497	angry	Picture	83.048	n/a	2	4	12	n/a	72	41	2	n/a	n/a	n/a	n/a	163.794	AF01HAS.jpg
132.587	0.514	Blank	Blank	82.534	n/a	2	4	12	n/a	72	n/a	2	n/a	n/a	n/a	n/a	164.291	n/a
133.118	0.497	angry	Picture	82.02	n/a	2	4	13	n/a	73	59	2	n/a	n/a	n/a	n/a	164.822	AF31HAS.jpg
133.615	0.514	Blank	Blank	81.506	n/a	2	4	13	n/a	73	n/a	2	n/a	n/a	n/a	n/a	165.319	n/a
134.146	0.497	angry	Picture	80.992	n/a	2	4	14	n/a	74	64	2	n/a	n/a	n/a	n/a	165.85	BM05HAS.jpg
134.643	0.514	Blank	Blank	80.478	n/a	2	4	14	n/a	74	n/a	2	n/a	n/a	n/a	n/a	166.347	n/a
135.174	0.497	angry	Picture	79.964	n/a	2	4	15	n/a	75	68	2	n/a	n/a	n/a	n/a	166.878	AM09HAS.jpg
135.671	0.514	Blank	Blank	79.45	n/a	2	4	15	n/a	75	n/a	2	n/a	n/a	n/a	n/a	167.375	n/a
136.202	0.497	angry	Picture	78.936	n/a	2	4	16	n/a	76	54	2	n/a	n/a	n/a	n/a	167.905	AF23HAS.jpg
136.699	0.514	Blank	Blank	78.422	n/a	2	4	16	n/a	76	n/a	2	n/a	n/a	n/a	n/a	168.403	n/a
137.23	0.497	angry	Picture	77.908	n/a	2	4	17	n/a	77	53	2	n/a	n/a	n/a	n/a	168.933	BF22HAS.jpg
137.727	0.514	Blank	Blank	77.394	n/a	2	4	17	n/a	77	n/a	2	n/a	n/a	n/a	n/a	169.431	n/a
138.257	0.497	angry	Picture	76.88	n/a	2	4	18	n/a	78	44	2	n/a	n/a	n/a	n/a	169.961	AF05HAS.jpg
138.755	0.514	Blank	Blank	76.367	n/a	2	4	18	n/a	78	n/a	2	n/a	n/a	n/a	n/a	170.459	n/a
139.285	0.497	angry	Picture	75.852	n/a	2	4	19	n/a	79	52	2	n/a	n/a	n/a	n/a	170.989	AF21HAS.jpg
139.783	0.514	Blank	Blank	75.339	n/a	2	4	19	n/a	79	n/a	2	n/a	n/a	n/a	n/a	171.487	n/a
140.313	0.497	angry	Picture	74.825	n/a	2	4	20	n/a	80	62	2	n/a	n/a	n/a	n/a	172.017	BM03HAS.jpg
140.811	0.514	Blank	Blank	74.311	n/a	2	4	20	n/a	80	n/a	2	n/a	n/a	n/a	n/a	172.514	n/a
141.341	10.014	ITI	Fixation+	64.281	n/a	2	n/a	n/a	n/a	n/a	n/a	n/a	n/a	n/a	n/a	n/a	173.045	n/a
151.371	0.497	neutral	Picture	63.767	n/a	2	5	1	n/a	81	23	1	n/a	n/a	n/a	n/a	183.075	AM04NES.jpg
151.869	0.514	Blank	Blank	63.253	n/a	2	5	1	n/a	81	n/a	1	n/a	n/a	n/a	n/a	183.573	n/a
152.399	0.497	neutral	Picture	62.739	n/a	2	5	2	n/a	82	29	1	n/a	n/a	n/a	n/a	184.103	AM10NES.jpg
152.897	0.514	Blank	Blank	62.225	n/a	2	5	2	n/a	82	n/a	1	n/a	n/a	n/a	n/a	184.601	n/a
153.427	0.497	neutral	Picture	61.711	n/a	2	5	3	n/a	83	24	1	n/a	n/a	n/a	n/a	185.131	BM05NES.jpg
153.924	0.514	Blank	Blank	61.197	n/a	2	5	3	n/a	83	n/a	1	n/a	n/a	n/a	n/a	185.628	n/a
154.455	0.497	neutral	Picture	60.683	n/a	2	5	4	n/a	84	12	1	n/a	n/a	n/a	n/a	186.159	AF21NES.jpg
154.952	0.514	Blank	Blank	60.169	n/a	2	5	4	n/a	84	n/a	1	n/a	n/a	n/a	n/a	186.656	n/a
155.483	0.497	neutral	Picture	59.655	n/a	2	5	5	n/a	85	13	1	n/a	n/a	n/a	n/a	187.187	BF22NES.jpg
155.98	0.514	Blank	Blank	59.141	n/a	2	5	5	n/a	85	n/a	1	n/a	n/a	n/a	n/a	187.684	n/a
156.511	0.497	neutral	Picture	58.627	n/a	2	5	6	n/a	86	17	1	n/a	n/a	n/a	n/a	188.215	BF28NES.jpg
157.008	0.514	Blank	Blank	58.113	n/a	2	5	6	n/a	86	n/a	1	n/a	n/a	n/a	n/a	188.712	n/a
157.539	0.497	neutral	Picture	57.599	n/a	2	5	7	n/a	87	4	1	n/a	n/a	n/a	n/a	189.243	AF05NES.jpg
158.036	0.514	Blank	Blank	57.085	n/a	2	5	7	n/a	87	n/a	1	n/a	n/a	n/a	n/a	189.74	n/a
158.566	0.497	neutral	Picture	56.571	n/a	2	5	8	n/a	88	11	1	n/a	n/a	n/a	n/a	190.27	AF20NES.jpg
159.064	0.514	Blank	Blank	56.057	n/a	2	5	8	n/a	88	n/a	1	n/a	n/a	n/a	n/a	190.768	n/a
159.594	0.497	neutral	Picture	55.543	n/a	2	5	9	n/a	89	22	1	n/a	n/a	n/a	n/a	191.298	BM03NES.jpg
160.092	0.514	Blank	Blank	55.029	n/a	2	5	9	n/a	89	n/a	1	n/a	n/a	n/a	n/a	191.796	n/a
160.622	0.497	neutral	Picture	54.516	n/a	2	5	10	n/a	90	15	1	n/a	n/a	n/a	n/a	192.326	AF25NES.jpg
161.12	0.514	Blank	Blank	54.002	n/a	2	5	10	n/a	90	n/a	1	n/a	n/a	n/a	n/a	192.824	n/a
161.65	0.497	neutral	Picture	53.488	n/a	2	5	11	n/a	91	19	1	n/a	n/a	n/a	n/a	193.354	AF31NES.jpg
162.148	0.514	Blank	Blank	52.974	n/a	2	5	11	n/a	91	n/a	1	n/a	n/a	n/a	n/a	193.851	n/a
162.678	0.497	neutral	Picture	52.46	n/a	2	5	12	n/a	92	9	1	n/a	n/a	n/a	n/a	194.382	AF17NES.jpg
163.175	0.514	Blank	Blank	51.946	n/a	2	5	12	n/a	92	n/a	1	n/a	n/a	n/a	n/a	194.879	n/a
163.706	0.497	neutral	Picture	51.432	n/a	2	5	13	n/a	93	14	1	n/a	n/a	n/a	n/a	195.41	AF23NES.jpg
164.203	0.514	Blank	Blank	50.918	n/a	2	5	13	n/a	93	n/a	1	n/a	n/a	n/a	n/a	195.907	n/a
164.734	0.497	neutral	Picture	50.404	n/a	2	5	14	n/a	94	36	1	n/a	n/a	n/a	n/a	196.438	BM24NES.jpg
165.231	0.514	Blank	Blank	49.89	n/a	2	5	14	n/a	94	n/a	1	n/a	n/a	n/a	n/a	196.935	n/a
165.762	0.497	neutral	Picture	49.376	n/a	2	5	15	n/a	95	34	1	n/a	n/a	n/a	n/a	197.466	AM22NES.jpg
166.259	0.514	Blank	Blank	48.862	n/a	2	5	15	n/a	95	n/a	1	n/a	n/a	n/a	n/a	197.963	n/a
166.79	0.497	neutral	Picture	48.348	n/a	2	5	16	n/a	96	10	1	n/a	n/a	n/a	n/a	198.494	AF18NES.jpg
167.287	0.514	Blank	Blank	47.834	n/a	2	5	16	n/a	96	n/a	1	n/a	n/a	n/a	n/a	198.991	n/a
167.818	0.497	neutral	Picture	47.32	n/a	2	5	17	n/a	97	5	1	n/a	n/a	n/a	n/a	199.522	BF07NES.jpg
168.315	0.514	Blank	Blank	46.806	n/a	2	5	17	n/a	97	n/a	1	n/a	n/a	n/a	n/a	200.019	n/a
168.845	0.497	neutral	Picture	46.292	n/a	2	5	18	n/a	98	25	1	n/a	n/a	n/a	n/a	200.549	BM06NES.jpg
169.343	0.514	Blank	Blank	45.778	n/a	2	5	18	n/a	98	n/a	1	n/a	n/a	n/a	n/a	201.047	n/a
169.873	0.497	neutral	Picture	45.264	n/a	2	5	19	n/a	99	39	1	n/a	n/a	n/a	n/a	201.577	AM28NES.jpg
170.371	0.514	Blank	Blank	44.751	n/a	2	5	19	n/a	99	n/a	1	n/a	n/a	n/a	n/a	202.075	n/a
170.901	0.497	neutral	Picture	44.237	n/a	2	5	20	n/a	100	33	1	n/a	n/a	n/a	n/a	202.605	AM21NES.jpg
171.399	0.514	Blank	Blank	43.723	n/a	2	5	20	n/a	100	n/a	1	n/a	n/a	n/a	n/a	203.102	n/a
171.929	10.014	ITI	Fixation+	33.692	n/a	2	n/a	n/a	n/a	n/a	n/a	n/a	n/a	n/a	n/a	n/a	203.633	n/a
181.959	0.497	angry	Picture	33.179	n/a	2	6	1	n/a	101	74	2	n/a	n/a	n/a	n/a	213.663	AM22HAS.jpg
182.457	0.514	Blank	Blank	32.665	n/a	2	6	1	n/a	101	n/a	2	n/a	n/a	n/a	n/a	214.161	n/a
182.987	0.497	angry	Picture	32.151	n/a	2	6	2	n/a	102	76	2	n/a	n/a	n/a	n/a	214.691	BM24HAS.jpg
183.485	0.514	Blank	Blank	31.637	n/a	2	6	2	n/a	102	n/a	2	n/a	n/a	n/a	n/a	215.189	n/a
184.015	0.497	angry	Picture	31.123	n/a	2	6	3	n/a	103	80	2	n/a	n/a	n/a	n/a	215.719	BM35HAS.jpg
184.512	0.514	Blank	Blank	30.609	n/a	2	6	3	n/a	103	n/a	2	n/a	n/a	n/a	n/a	216.216	n/a
185.043	0.497	angry	Picture	30.095	n/a	2	6	4	n/a	104	75	2	n/a	n/a	n/a	n/a	216.747	AM23HAS.jpg
185.54	0.514	Blank	Blank	29.581	n/a	2	6	4	n/a	104	n/a	2	n/a	n/a	n/a	n/a	217.244	n/a
186.071	0.497	angry	Picture	29.067	n/a	2	6	5	n/a	105	49	2	n/a	n/a	n/a	n/a	217.775	AF17HAS.jpg
186.568	0.514	Blank	Blank	28.553	n/a	2	6	5	n/a	105	n/a	2	n/a	n/a	n/a	n/a	218.272	n/a
187.099	0.497	angry	Picture	28.039	n/a	2	6	6	n/a	106	43	2	n/a	n/a	n/a	n/a	218.803	BF04HAS.jpg
187.596	0.514	Blank	Blank	27.525	n/a	2	6	6	n/a	106	n/a	2	n/a	n/a	n/a	n/a	219.3	n/a
188.127	0.497	angry	Picture	27.011	n/a	2	6	7	n/a	107	70	2	n/a	n/a	n/a	n/a	219.831	BM11HAS.jpg
188.624	0.514	Blank	Blank	26.497	n/a	2	6	7	n/a	107	n/a	2	n/a	n/a	n/a	n/a	220.328	n/a
189.155	0.497	angry	Picture	25.983	n/a	2	6	8	n/a	108	66	2	n/a	n/a	n/a	n/a	220.858	BM07HAS.jpg
189.652	0.514	Blank	Blank	25.469	n/a	2	6	8	n/a	108	n/a	2	n/a	n/a	n/a	n/a	221.356	n/a
190.183	0.497	angry	Picture	24.955	n/a	2	6	9	n/a	109	48	2	n/a	n/a	n/a	n/a	221.886	AF14HAS.jpg
190.68	0.514	Blank	Blank	24.441	n/a	2	6	9	n/a	109	n/a	2	n/a	n/a	n/a	n/a	222.384	n/a
191.21	0.497	angry	Picture	23.928	n/a	2	6	10	n/a	110	58	2	n/a	n/a	n/a	n/a	222.914	BF29HAS.jpg
191.708	0.514	Blank	Blank	23.413	n/a	2	6	10	n/a	110	n/a	2	n/a	n/a	n/a	n/a	223.412	n/a
192.238	0.497	angry	Picture	22.9	n/a	2	6	11	n/a	111	63	2	n/a	n/a	n/a	n/a	223.942	AM04HAS.jpg
192.736	0.514	Blank	Blank	22.386	n/a	2	6	11	n/a	111	n/a	2	n/a	n/a	n/a	n/a	224.44	n/a
193.266	0.497	angry	Picture	21.872	n/a	2	6	12	n/a	112	72	2	n/a	n/a	n/a	n/a	224.97	AM14HAS.jpg
193.763	0.514	Blank	Blank	21.358	n/a	2	6	12	n/a	112	n/a	2	n/a	n/a	n/a	n/a	225.467	n/a
194.294	0.497	angry	Picture	20.844	n/a	2	6	13	n/a	113	55	2	n/a	n/a	n/a	n/a	225.998	AF25HAS.jpg
194.791	0.514	Blank	Blank	20.33	n/a	2	6	13	n/a	113	n/a	2	n/a	n/a	n/a	n/a	226.495	n/a
195.322	0.497	angry	Picture	19.816	n/a	2	6	14	n/a	114	42	2	n/a	n/a	n/a	n/a	227.026	AF03HAS.jpg
195.819	0.514	Blank	Blank	19.302	n/a	2	6	14	n/a	114	n/a	2	n/a	n/a	n/a	n/a	227.523	n/a
196.35	0.497	angry	Picture	18.788	n/a	2	6	15	n/a	115	60	2	n/a	n/a	n/a	n/a	228.054	AF32HAS.jpg
196.847	0.514	Blank	Blank	18.274	n/a	2	6	15	n/a	115	n/a	2	n/a	n/a	n/a	n/a	228.551	n/a
197.378	0.497	angry	Picture	17.76	n/a	2	6	16	n/a	116	67	2	n/a	n/a	n/a	n/a	229.082	BM08HAS.jpg
197.875	0.514	Blank	Blank	17.246	n/a	2	6	16	n/a	116	n/a	2	n/a	n/a	n/a	n/a	229.579	n/a
198.406	0.497	angry	Picture	16.732	n/a	2	6	17	n/a	117	51	2	n/a	n/a	n/a	n/a	230.109	AF20HAS.jpg
198.903	0.514	Blank	Blank	16.218	n/a	2	6	17	n/a	117	n/a	2	n/a	n/a	n/a	n/a	230.607	n/a
199.434	0.497	angry	Picture	15.704	n/a	2	6	18	n/a	118	71	2	n/a	n/a	n/a	n/a	231.137	BM12HAS.jpg
199.931	0.514	Blank	Blank	15.19	n/a	2	6	18	n/a	118	n/a	2	n/a	n/a	n/a	n/a	231.635	n/a
200.461	0.497	angry	Picture	14.677	n/a	2	6	19	n/a	119	69	2	n/a	n/a	n/a	n/a	232.165	AM10HAS.jpg
200.959	0.514	Blank	Blank	14.162	n/a	2	6	19	n/a	119	n/a	2	n/a	n/a	n/a	n/a	232.663	n/a
201.489	0.497	angry	Picture	13.649	n/a	2	6	20	n/a	120	46	2	n/a	n/a	n/a	n/a	233.193	AF09HAS.jpg
201.987	0.514	Blank	Blank	13.135	n/a	2	6	20	n/a	120	n/a	2	n/a	n/a	n/a	n/a	233.69	n/a
202.517	10.014	ITI	Fixation+	3.104	n/a	2	n/a	n/a	n/a	n/a	n/a	n/a	n/a	n/a	n/a	n/a	234.221	n/a
215.635	n/a	ConfirmRating	Rate	n/a	3.1	2	n/a	n/a	0	n/a	n/a	n/a	2	Angry	75	53	247.339	n/a
218.595	n/a	ConfirmRating	Rate	n/a	2.934	2	n/a	n/a	1	n/a	n/a	n/a	3	Angry	41	49	250.299	n/a
218.615	15.004	Rest	Picture	n/a	n/a	n/a	n/a	n/a	n/a	n/a	n/a	n/a	0	n/a	0	0	250.319	n/a
233.636	10.014	ITI	Fixation+	93.608	n/a	3	n/a	n/a	n/a	n/a	n/a	n/a	n/a	n/a	n/a	n/a	265.34	n/a
243.666	0.497	happy	Picture	93.094	n/a	3	7	1	n/a	1	108	3	n/a	n/a	n/a	n/a	275.37	AM09ANS.jpg
244.163	0.514	Blank	Blank	92.58	n/a	3	7	1	n/a	1	n/a	3	n/a	n/a	n/a	n/a	275.867	n/a
244.694	0.497	happy	Picture	92.066	n/a	3	7	2	n/a	2	99	3	n/a	n/a	n/a	n/a	276.398	AF31ANS.jpg
245.191	0.514	Blank	Blank	91.552	n/a	3	7	2	n/a	2	n/a	3	n/a	n/a	n/a	n/a	276.895	n/a
245.722	0.497	happy	Picture	91.038	n/a	3	7	3	n/a	3	98	3	n/a	n/a	n/a	n/a	277.426	BF29ANS.jpg
246.219	0.514	Blank	Blank	90.524	n/a	3	7	3	n/a	3	n/a	3	n/a	n/a	n/a	n/a	277.923	n/a
246.75	0.497	happy	Picture	90.01	n/a	3	7	4	n/a	4	107	3	n/a	n/a	n/a	n/a	278.454	BM08ANS.jpg
247.247	0.514	Blank	Blank	89.496	n/a	3	7	4	n/a	4	n/a	3	n/a	n/a	n/a	n/a	278.951	n/a
247.778	0.497	happy	Picture	88.982	n/a	3	7	5	n/a	5	104	3	n/a	n/a	n/a	n/a	279.481	BM05ANS.jpg
248.275	0.514	Blank	Blank	88.468	n/a	3	7	5	n/a	5	n/a	3	n/a	n/a	n/a	n/a	279.979	n/a
248.805	0.497	happy	Picture	87.954	n/a	3	7	6	n/a	6	101	3	n/a	n/a	n/a	n/a	280.509	AM01ANS.jpg
249.303	0.514	Blank	Blank	87.44	n/a	3	7	6	n/a	6	n/a	3	n/a	n/a	n/a	n/a	281.007	n/a
249.833	0.497	happy	Picture	86.926	n/a	3	7	7	n/a	7	103	3	n/a	n/a	n/a	n/a	281.537	AM04ANS.jpg
250.331	0.514	Blank	Blank	86.412	n/a	3	7	7	n/a	7	n/a	3	n/a	n/a	n/a	n/a	282.034	n/a
250.861	0.497	happy	Picture	85.898	n/a	3	7	8	n/a	8	111	3	n/a	n/a	n/a	n/a	282.565	BM12ANS.jpg
251.359	0.514	Blank	Blank	85.384	n/a	3	7	8	n/a	8	n/a	3	n/a	n/a	n/a	n/a	283.062	n/a
251.889	0.497	happy	Picture	84.871	n/a	3	7	9	n/a	9	110	3	n/a	n/a	n/a	n/a	283.593	AM11ANS.jpg
252.386	0.514	Blank	Blank	84.357	n/a	3	7	9	n/a	9	n/a	3	n/a	n/a	n/a	n/a	284.09	n/a
252.917	0.497	happy	Picture	83.843	n/a	3	7	10	n/a	10	85	3	n/a	n/a	n/a	n/a	284.621	BF07ANS.jpg
253.414	0.514	Blank	Blank	83.329	n/a	3	7	10	n/a	10	n/a	3	n/a	n/a	n/a	n/a	285.118	n/a
253.945	0.497	happy	Picture	82.815	n/a	3	7	11	n/a	11	87	3	n/a	n/a	n/a	n/a	285.649	BF11ANS.jpg
254.442	0.514	Blank	Blank	82.301	n/a	3	7	11	n/a	11	n/a	3	n/a	n/a	n/a	n/a	286.146	n/a
254.973	0.497	happy	Picture	81.787	n/a	3	7	12	n/a	12	91	3	n/a	n/a	n/a	n/a	286.677	AF20ANS.jpg
255.47	0.514	Blank	Blank	81.273	n/a	3	7	12	n/a	12	n/a	3	n/a	n/a	n/a	n/a	287.174	n/a
256.001	0.497	happy	Picture	80.759	n/a	3	7	13	n/a	13	115	3	n/a	n/a	n/a	n/a	287.704	AM23ANS.jpg
256.498	0.514	Blank	Blank	80.245	n/a	3	7	13	n/a	13	n/a	3	n/a	n/a	n/a	n/a	288.202	n/a
257.029	0.497	happy	Picture	79.731	n/a	3	7	14	n/a	14	97	3	n/a	n/a	n/a	n/a	288.732	BF28ANS.jpg
257.526	0.514	Blank	Blank	79.217	n/a	3	7	14	n/a	14	n/a	3	n/a	n/a	n/a	n/a	289.23	n/a
258.056	0.497	happy	Picture	78.703	n/a	3	7	15	n/a	15	82	3	n/a	n/a	n/a	n/a	289.76	AF03ANS.jpg
258.554	0.514	Blank	Blank	78.189	n/a	3	7	15	n/a	15	n/a	3	n/a	n/a	n/a	n/a	290.258	n/a
259.084	0.497	happy	Picture	77.675	n/a	3	7	16	n/a	16	96	3	n/a	n/a	n/a	n/a	290.788	AF26ANS.jpg
259.582	0.514	Blank	Blank	77.161	n/a	3	7	16	n/a	16	n/a	3	n/a	n/a	n/a	n/a	291.286	n/a
260.112	0.497	happy	Picture	76.647	n/a	3	7	17	n/a	17	109	3	n/a	n/a	n/a	n/a	291.816	AM10ANS.jpg
260.61	0.514	Blank	Blank	76.133	n/a	3	7	17	n/a	17	n/a	3	n/a	n/a	n/a	n/a	292.313	n/a
261.14	0.497	happy	Picture	75.62	n/a	3	7	18	n/a	18	114	3	n/a	n/a	n/a	n/a	292.844	AM22ANS.jpg
261.637	0.514	Blank	Blank	75.106	n/a	3	7	18	n/a	18	n/a	3	n/a	n/a	n/a	n/a	293.341	n/a
262.168	0.497	happy	Picture	74.592	n/a	3	7	19	n/a	19	120	3	n/a	n/a	n/a	n/a	293.872	AM35ANS.jpg
262.665	0.514	Blank	Blank	74.078	n/a	3	7	19	n/a	19	n/a	3	n/a	n/a	n/a	n/a	294.369	n/a
263.196	0.497	happy	Picture	73.564	n/a	3	7	20	n/a	20	81	3	n/a	n/a	n/a	n/a	294.9	AF01ANS.jpg
263.693	0.514	Blank	Blank	73.05	n/a	3	7	20	n/a	20	n/a	3	n/a	n/a	n/a	n/a	295.397	n/a
264.224	10.014	ITI	Fixation+	63.02	n/a	3	n/a	n/a	n/a	n/a	n/a	n/a	n/a	n/a	n/a	n/a	295.928	n/a
274.254	0.497	neutral	Picture	62.506	n/a	3	8	1	n/a	21	28	1	n/a	n/a	n/a	n/a	305.958	AM09NES.jpg
274.751	0.514	Blank	Blank	61.992	n/a	3	8	1	n/a	21	n/a	1	n/a	n/a	n/a	n/a	306.455	n/a
275.282	0.497	neutral	Picture	61.478	n/a	3	8	2	n/a	22	27	1	n/a	n/a	n/a	n/a	306.986	BM08NES.jpg
275.779	0.514	Blank	Blank	60.964	n/a	3	8	2	n/a	22	n/a	1	n/a	n/a	n/a	n/a	307.483	n/a
276.31	0.497	neutral	Picture	60.45	n/a	3	8	3	n/a	23	16	1	n/a	n/a	n/a	n/a	308.014	AF26NES.jpg
276.807	0.514	Blank	Blank	59.936	n/a	3	8	3	n/a	23	n/a	1	n/a	n/a	n/a	n/a	308.511	n/a
277.338	0.497	neutral	Picture	59.422	n/a	3	8	4	n/a	24	3	1	n/a	n/a	n/a	n/a	309.041	BF04NES.jpg
277.835	0.514	Blank	Blank	58.908	n/a	3	8	4	n/a	24	n/a	1	n/a	n/a	n/a	n/a	309.539	n/a
278.365	0.497	neutral	Picture	58.394	n/a	3	8	5	n/a	25	32	1	n/a	n/a	n/a	n/a	310.069	AM14NES.jpg
278.863	0.514	Blank	Blank	57.88	n/a	3	8	5	n/a	25	n/a	1	n/a	n/a	n/a	n/a	310.567	n/a
279.393	0.497	neutral	Picture	57.366	n/a	3	8	6	n/a	26	37	1	n/a	n/a	n/a	n/a	311.097	BM25NES.jpg
279.891	0.514	Blank	Blank	56.852	n/a	3	8	6	n/a	26	n/a	1	n/a	n/a	n/a	n/a	311.595	n/a
280.421	0.497	neutral	Picture	56.338	n/a	3	8	7	n/a	27	15	1	n/a	n/a	n/a	n/a	312.125	AF25NES.jpg
280.919	0.514	Blank	Blank	55.824	n/a	3	8	7	n/a	27	n/a	1	n/a	n/a	n/a	n/a	312.623	n/a
281.449	0.497	neutral	Picture	55.31	n/a	3	8	8	n/a	28	23	1	n/a	n/a	n/a	n/a	313.153	AM04NES.jpg
281.947	0.514	Blank	Blank	54.796	n/a	3	8	8	n/a	28	n/a	1	n/a	n/a	n/a	n/a	313.65	n/a
282.477	0.497	neutral	Picture	54.283	n/a	3	8	9	n/a	29	34	1	n/a	n/a	n/a	n/a	314.181	AM22NES.jpg
282.974	0.514	Blank	Blank	53.769	n/a	3	8	9	n/a	29	n/a	1	n/a	n/a	n/a	n/a	314.678	n/a
283.505	0.497	neutral	Picture	53.255	n/a	3	8	10	n/a	30	24	1	n/a	n/a	n/a	n/a	315.209	BM05NES.jpg
284.002	0.514	Blank	Blank	52.741	n/a	3	8	10	n/a	30	n/a	1	n/a	n/a	n/a	n/a	315.706	n/a
284.533	0.497	neutral	Picture	52.227	n/a	3	8	11	n/a	31	12	1	n/a	n/a	n/a	n/a	316.237	AF21NES.jpg
285.03	0.514	Blank	Blank	51.713	n/a	3	8	11	n/a	31	n/a	1	n/a	n/a	n/a	n/a	316.734	n/a
285.561	0.497	neutral	Picture	51.199	n/a	3	8	12	n/a	32	6	1	n/a	n/a	n/a	n/a	317.265	AF09NES.jpg
286.058	0.514	Blank	Blank	50.685	n/a	3	8	12	n/a	32	n/a	1	n/a	n/a	n/a	n/a	317.762	n/a
286.589	0.497	neutral	Picture	50.171	n/a	3	8	13	n/a	33	17	1	n/a	n/a	n/a	n/a	318.293	BF28NES.jpg
287.086	0.514	Blank	Blank	49.657	n/a	3	8	13	n/a	33	n/a	1	n/a	n/a	n/a	n/a	318.79	n/a
287.617	0.497	neutral	Picture	49.143	n/a	3	8	14	n/a	34	2	1	n/a	n/a	n/a	n/a	319.32	AF03NES.jpg
288.114	0.514	Blank	Blank	48.629	n/a	3	8	14	n/a	34	n/a	1	n/a	n/a	n/a	n/a	319.818	n/a
288.644	0.497	neutral	Picture	48.115	n/a	3	8	15	n/a	35	9	1	n/a	n/a	n/a	n/a	320.348	AF17NES.jpg
289.142	0.514	Blank	Blank	47.601	n/a	3	8	15	n/a	35	n/a	1	n/a	n/a	n/a	n/a	320.846	n/a
289.672	0.497	neutral	Picture	47.087	n/a	3	8	16	n/a	36	25	1	n/a	n/a	n/a	n/a	321.376	BM06NES.jpg
290.17	0.514	Blank	Blank	46.573	n/a	3	8	16	n/a	36	n/a	1	n/a	n/a	n/a	n/a	321.874	n/a
290.7	0.497	neutral	Picture	46.059	n/a	3	8	17	n/a	37	8	1	n/a	n/a	n/a	n/a	322.404	AF14NES.jpg
291.198	0.514	Blank	Blank	45.545	n/a	3	8	17	n/a	37	n/a	1	n/a	n/a	n/a	n/a	322.901	n/a
291.728	0.497	neutral	Picture	45.031	n/a	3	8	18	n/a	38	19	1	n/a	n/a	n/a	n/a	323.432	AF31NES.jpg
292.225	0.514	Blank	Blank	44.517	n/a	3	8	18	n/a	38	n/a	1	n/a	n/a	n/a	n/a	323.929	n/a
292.756	0.497	neutral	Picture	44.004	n/a	3	8	19	n/a	39	14	1	n/a	n/a	n/a	n/a	324.46	AF23NES.jpg
293.253	0.514	Blank	Blank	43.49	n/a	3	8	19	n/a	39	n/a	1	n/a	n/a	n/a	n/a	324.957	n/a
293.784	0.497	neutral	Picture	42.976	n/a	3	8	20	n/a	40	4	1	n/a	n/a	n/a	n/a	325.488	AF05NES.jpg
294.281	0.514	Blank	Blank	42.462	n/a	3	8	20	n/a	40	n/a	1	n/a	n/a	n/a	n/a	325.985	n/a
294.812	10.014	ITI	Fixation+	32.432	n/a	3	n/a	n/a	n/a	n/a	n/a	n/a	n/a	n/a	n/a	n/a	326.516	n/a
304.842	0.497	happy	Picture	31.918	n/a	3	9	1	n/a	41	84	3	n/a	n/a	n/a	n/a	336.546	AF05ANS.jpg
305.339	0.514	Blank	Blank	31.404	n/a	3	9	1	n/a	41	n/a	3	n/a	n/a	n/a	n/a	337.043	n/a
305.87	0.497	happy	Picture	30.89	n/a	3	9	2	n/a	42	92	3	n/a	n/a	n/a	n/a	337.574	AF21ANS.jpg
306.367	0.514	Blank	Blank	30.376	n/a	3	9	2	n/a	42	n/a	3	n/a	n/a	n/a	n/a	338.071	n/a
306.898	0.497	happy	Picture	29.862	n/a	3	9	3	n/a	43	86	3	n/a	n/a	n/a	n/a	338.602	AF09ANS.jpg
307.395	0.514	Blank	Blank	29.348	n/a	3	9	3	n/a	43	n/a	3	n/a	n/a	n/a	n/a	339.099	n/a
307.926	0.497	happy	Picture	28.834	n/a	3	9	4	n/a	44	93	3	n/a	n/a	n/a	n/a	339.63	BF22ANS.jpg
308.423	0.514	Blank	Blank	28.32	n/a	3	9	4	n/a	44	n/a	3	n/a	n/a	n/a	n/a	340.127	n/a
308.954	0.497	happy	Picture	27.806	n/a	3	9	5	n/a	45	88	3	n/a	n/a	n/a	n/a	340.657	AF14ANS.jpg
309.451	0.514	Blank	Blank	27.292	n/a	3	9	5	n/a	45	n/a	3	n/a	n/a	n/a	n/a	341.155	n/a
309.981	0.497	happy	Picture	26.778	n/a	3	9	6	n/a	46	113	3	n/a	n/a	n/a	n/a	341.685	AM21ANS.jpg
310.479	0.514	Blank	Blank	26.264	n/a	3	9	6	n/a	46	n/a	3	n/a	n/a	n/a	n/a	342.183	n/a
311.009	0.497	happy	Picture	25.75	n/a	3	9	7	n/a	47	95	3	n/a	n/a	n/a	n/a	342.713	AF25ANS.jpg
311.507	0.514	Blank	Blank	25.236	n/a	3	9	7	n/a	47	n/a	3	n/a	n/a	n/a	n/a	343.211	n/a
312.037	0.497	happy	Picture	24.722	n/a	3	9	8	n/a	48	102	3	n/a	n/a	n/a	n/a	343.741	BM03ANS.jpg
312.535	0.514	Blank	Blank	24.208	n/a	3	9	8	n/a	48	n/a	3	n/a	n/a	n/a	n/a	344.238	n/a
313.065	0.497	happy	Picture	23.694	n/a	3	9	9	n/a	49	112	3	n/a	n/a	n/a	n/a	344.769	AM14ANS.jpg
313.563	0.514	Blank	Blank	23.181	n/a	3	9	9	n/a	49	n/a	3	n/a	n/a	n/a	n/a	345.266	n/a
314.093	0.497	happy	Picture	22.666	n/a	3	9	10	n/a	50	83	3	n/a	n/a	n/a	n/a	345.797	BF04ANS.jpg
314.59	0.514	Blank	Blank	22.153	n/a	3	9	10	n/a	50	n/a	3	n/a	n/a	n/a	n/a	346.294	n/a
315.121	0.497	happy	Picture	21.639	n/a	3	9	11	n/a	51	90	3	n/a	n/a	n/a	n/a	346.825	AF18ANS.jpg
315.618	0.514	Blank	Blank	21.125	n/a	3	9	11	n/a	51	n/a	3	n/a	n/a	n/a	n/a	347.322	n/a
316.149	0.497	happy	Picture	20.611	n/a	3	9	12	n/a	52	117	3	n/a	n/a	n/a	n/a	347.853	BM25ANS.jpg
316.646	0.514	Blank	Blank	20.097	n/a	3	9	12	n/a	52	n/a	3	n/a	n/a	n/a	n/a	348.35	n/a
317.177	0.497	happy	Picture	19.583	n/a	3	9	13	n/a	53	94	3	n/a	n/a	n/a	n/a	348.881	AF23ANS.jpg
317.674	0.514	Blank	Blank	19.069	n/a	3	9	13	n/a	53	n/a	3	n/a	n/a	n/a	n/a	349.378	n/a
318.205	0.497	happy	Picture	18.555	n/a	3	9	14	n/a	54	106	3	n/a	n/a	n/a	n/a	349.909	AM07ANS.jpg
318.702	0.514	Blank	Blank	18.041	n/a	3	9	14	n/a	54	n/a	3	n/a	n/a	n/a	n/a	350.406	n/a
319.232	0.497	happy	Picture	17.527	n/a	3	9	15	n/a	55	105	3	n/a	n/a	n/a	n/a	350.936	BM06ANS.jpg
319.73	0.514	Blank	Blank	17.013	n/a	3	9	15	n/a	55	n/a	3	n/a	n/a	n/a	n/a	351.434	n/a
320.26	0.497	happy	Picture	16.499	n/a	3	9	16	n/a	56	116	3	n/a	n/a	n/a	n/a	351.964	BM24ANS.jpg
320.758	0.514	Blank	Blank	15.985	n/a	3	9	16	n/a	56	n/a	3	n/a	n/a	n/a	n/a	352.462	n/a
321.288	0.497	happy	Picture	15.471	n/a	3	9	17	n/a	57	89	3	n/a	n/a	n/a	n/a	352.992	AF17ANS.jpg
321.786	0.514	Blank	Blank	14.957	n/a	3	9	17	n/a	57	n/a	3	n/a	n/a	n/a	n/a	353.49	n/a
322.316	0.497	happy	Picture	14.443	n/a	3	9	18	n/a	58	118	3	n/a	n/a	n/a	n/a	354.02	BM26ANS.jpg
322.814	0.514	Blank	Blank	13.93	n/a	3	9	18	n/a	58	n/a	3	n/a	n/a	n/a	n/a	354.517	n/a
323.344	0.497	happy	Picture	13.415	n/a	3	9	19	n/a	59	100	3	n/a	n/a	n/a	n/a	355.048	AF32ANS.jpg
323.841	0.514	Blank	Blank	12.902	n/a	3	9	19	n/a	59	n/a	3	n/a	n/a	n/a	n/a	355.545	n/a
324.372	0.497	happy	Picture	12.388	n/a	3	9	20	n/a	60	119	3	n/a	n/a	n/a	n/a	356.076	BM28ANS.jpg
324.869	0.514	Blank	Blank	11.874	n/a	3	9	20	n/a	60	n/a	3	n/a	n/a	n/a	n/a	356.573	n/a
325.4	10.014	ITI	Fixation+	1.844	n/a	3	n/a	n/a	n/a	n/a	n/a	n/a	n/a	n/a	n/a	n/a	357.104	n/a
337.257	n/a	ConfirmRating	Rate	n/a	1.841	3	n/a	n/a	0	n/a	n/a	n/a	2	Happy	100	51	368.961	n/a
340.79	n/a	ConfirmRating	Rate	n/a	3.515	3	n/a	n/a	1	n/a	n/a	n/a	3	Happy	0	49	372.494	n/a
340.818	10.014	ITI	Fixation+	96.412	n/a	4	n/a	n/a	n/a	n/a	n/a	n/a	n/a	n/a	n/a	n/a	372.522	n/a
350.848	0.497	angry	Picture	95.898	n/a	4	10	1	n/a	61	79	2	n/a	n/a	n/a	n/a	382.552	BM28HAS.jpg
351.346	0.514	Blank	Blank	95.384	n/a	4	10	1	n/a	61	n/a	2	n/a	n/a	n/a	n/a	383.05	n/a
351.876	0.497	angry	Picture	94.87	n/a	4	10	2	n/a	62	61	2	n/a	n/a	n/a	n/a	383.58	AM01HAS.jpg
352.374	0.514	Blank	Blank	94.356	n/a	4	10	2	n/a	62	n/a	2	n/a	n/a	n/a	n/a	384.077	n/a
352.904	0.497	angry	Picture	93.842	n/a	4	10	3	n/a	63	57	2	n/a	n/a	n/a	n/a	384.608	BF28HAS.jpg
353.401	0.514	Blank	Blank	93.328	n/a	4	10	3	n/a	63	n/a	2	n/a	n/a	n/a	n/a	385.105	n/a
353.932	0.497	angry	Picture	92.814	n/a	4	10	4	n/a	64	77	2	n/a	n/a	n/a	n/a	385.636	BM25HAS.jpg
354.429	0.514	Blank	Blank	92.3	n/a	4	10	4	n/a	64	n/a	2	n/a	n/a	n/a	n/a	386.133	n/a
354.96	0.497	angry	Picture	91.786	n/a	4	10	5	n/a	65	47	2	n/a	n/a	n/a	n/a	386.664	BF11HAS.jpg
355.457	0.514	Blank	Blank	91.273	n/a	4	10	5	n/a	65	n/a	2	n/a	n/a	n/a	n/a	387.161	n/a
355.988	0.497	angry	Picture	90.759	n/a	4	10	6	n/a	66	50	2	n/a	n/a	n/a	n/a	387.692	AF18HAS.jpg
356.485	0.514	Blank	Blank	90.245	n/a	4	10	6	n/a	66	n/a	2	n/a	n/a	n/a	n/a	388.189	n/a
357.016	0.497	angry	Picture	89.731	n/a	4	10	7	n/a	67	78	2	n/a	n/a	n/a	n/a	388.72	BM26HAS.jpg
357.513	0.514	Blank	Blank	89.217	n/a	4	10	7	n/a	67	n/a	2	n/a	n/a	n/a	n/a	389.217	n/a
358.044	0.497	angry	Picture	88.703	n/a	4	10	8	n/a	68	45	2	n/a	n/a	n/a	n/a	389.748	BF07HAS.jpg
358.541	0.514	Blank	Blank	88.189	n/a	4	10	8	n/a	68	n/a	2	n/a	n/a	n/a	n/a	390.245	n/a
359.072	0.497	angry	Picture	87.675	n/a	4	10	9	n/a	69	56	2	n/a	n/a	n/a	n/a	390.775	AF26HAS.jpg
359.569	0.514	Blank	Blank	87.161	n/a	4	10	9	n/a	69	n/a	2	n/a	n/a	n/a	n/a	391.273	n/a
360.099	0.497	angry	Picture	86.647	n/a	4	10	10	n/a	70	65	2	n/a	n/a	n/a	n/a	391.803	BM06HAS.jpg
360.597	0.514	Blank	Blank	86.133	n/a	4	10	10	n/a	70	n/a	2	n/a	n/a	n/a	n/a	392.301	n/a
361.127	0.497	angry	Picture	85.619	n/a	4	10	11	n/a	71	73	2	n/a	n/a	n/a	n/a	392.831	AM21HAS.jpg
361.625	0.514	Blank	Blank	85.105	n/a	4	10	11	n/a	71	n/a	2	n/a	n/a	n/a	n/a	393.329	n/a
362.155	0.497	angry	Picture	84.591	n/a	4	10	12	n/a	72	41	2	n/a	n/a	n/a	n/a	393.859	AF01HAS.jpg
362.653	0.514	Blank	Blank	84.077	n/a	4	10	12	n/a	72	n/a	2	n/a	n/a	n/a	n/a	394.356	n/a
363.183	0.497	angry	Picture	83.563	n/a	4	10	13	n/a	73	59	2	n/a	n/a	n/a	n/a	394.887	AF31HAS.jpg
363.68	0.514	Blank	Blank	83.049	n/a	4	10	13	n/a	73	n/a	2	n/a	n/a	n/a	n/a	395.384	n/a
364.211	0.497	angry	Picture	82.535	n/a	4	10	14	n/a	74	64	2	n/a	n/a	n/a	n/a	395.915	BM05HAS.jpg
364.708	0.514	Blank	Blank	82.022	n/a	4	10	14	n/a	74	n/a	2	n/a	n/a	n/a	n/a	396.412	n/a
365.239	0.497	angry	Picture	81.508	n/a	4	10	15	n/a	75	68	2	n/a	n/a	n/a	n/a	396.943	AM09HAS.jpg
365.736	0.514	Blank	Blank	80.994	n/a	4	10	15	n/a	75	n/a	2	n/a	n/a	n/a	n/a	397.44	n/a
366.267	0.497	angry	Picture	80.48	n/a	4	10	16	n/a	76	54	2	n/a	n/a	n/a	n/a	397.971	AF23HAS.jpg
366.764	0.514	Blank	Blank	79.966	n/a	4	10	16	n/a	76	n/a	2	n/a	n/a	n/a	n/a	398.468	n/a
367.295	0.497	angry	Picture	79.452	n/a	4	10	17	n/a	77	53	2	n/a	n/a	n/a	n/a	398.998	BF22HAS.jpg
367.792	0.514	Blank	Blank	78.938	n/a	4	10	17	n/a	77	n/a	2	n/a	n/a	n/a	n/a	399.496	n/a
368.323	0.497	angry	Picture	78.424	n/a	4	10	18	n/a	78	44	2	n/a	n/a	n/a	n/a	400.026	AF05HAS.jpg
368.82	0.514	Blank	Blank	77.91	n/a	4	10	18	n/a	78	n/a	2	n/a	n/a	n/a	n/a	400.524	n/a
369.35	0.497	angry	Picture	77.396	n/a	4	10	19	n/a	79	52	2	n/a	n/a	n/a	n/a	401.054	AF21HAS.jpg
369.848	0.514	Blank	Blank	76.882	n/a	4	10	19	n/a	79	n/a	2	n/a	n/a	n/a	n/a	401.552	n/a
370.378	0.497	angry	Picture	76.368	n/a	4	10	20	n/a	80	62	2	n/a	n/a	n/a	n/a	402.082	BM03HAS.jpg
370.876	0.514	Blank	Blank	75.854	n/a	4	10	20	n/a	80	n/a	2	n/a	n/a	n/a	n/a	402.579	n/a
371.406	10.014	ITI	Fixation+	65.824	n/a	4	n/a	n/a	n/a	n/a	n/a	n/a	n/a	n/a	n/a	n/a	403.11	n/a
381.436	0.497	neutral	Picture	65.31	n/a	4	11	1	n/a	81	23	1	n/a	n/a	n/a	n/a	413.14	AM04NES.jpg
381.934	0.514	Blank	Blank	64.796	n/a	4	11	1	n/a	81	n/a	1	n/a	n/a	n/a	n/a	413.638	n/a
382.464	0.497	neutral	Picture	64.282	n/a	4	11	2	n/a	82	29	1	n/a	n/a	n/a	n/a	414.168	AM10NES.jpg
382.962	0.514	Blank	Blank	63.768	n/a	4	11	2	n/a	82	n/a	1	n/a	n/a	n/a	n/a	414.666	n/a
383.492	0.497	neutral	Picture	63.254	n/a	4	11	3	n/a	83	24	1	n/a	n/a	n/a	n/a	415.196	BM05NES.jpg
383.99	0.514	Blank	Blank	62.74	n/a	4	11	3	n/a	83	n/a	1	n/a	n/a	n/a	n/a	415.693	n/a
384.52	0.497	neutral	Picture	62.226	n/a	4	11	4	n/a	84	12	1	n/a	n/a	n/a	n/a	416.224	AF21NES.jpg
385.017	0.514	Blank	Blank	61.712	n/a	4	11	4	n/a	84	n/a	1	n/a	n/a	n/a	n/a	416.721	n/a
385.548	0.497	neutral	Picture	61.198	n/a	4	11	5	n/a	85	13	1	n/a	n/a	n/a	n/a	417.252	BF22NES.jpg
386.045	0.514	Blank	Blank	60.685	n/a	4	11	5	n/a	85	n/a	1	n/a	n/a	n/a	n/a	417.749	n/a
386.576	0.497	neutral	Picture	60.171	n/a	4	11	6	n/a	86	17	1	n/a	n/a	n/a	n/a	418.28	BF28NES.jpg
387.073	0.514	Blank	Blank	59.657	n/a	4	11	6	n/a	86	n/a	1	n/a	n/a	n/a	n/a	418.777	n/a
387.604	0.497	neutral	Picture	59.143	n/a	4	11	7	n/a	87	4	1	n/a	n/a	n/a	n/a	419.308	AF05NES.jpg
388.101	0.514	Blank	Blank	58.629	n/a	4	11	7	n/a	87	n/a	1	n/a	n/a	n/a	n/a	419.805	n/a
388.632	0.497	neutral	Picture	58.115	n/a	4	11	8	n/a	88	11	1	n/a	n/a	n/a	n/a	420.336	AF20NES.jpg
389.129	0.514	Blank	Blank	57.601	n/a	4	11	8	n/a	88	n/a	1	n/a	n/a	n/a	n/a	420.833	n/a
389.66	0.497	neutral	Picture	57.087	n/a	4	11	9	n/a	89	22	1	n/a	n/a	n/a	n/a	421.363	BM03NES.jpg
390.157	0.514	Blank	Blank	56.573	n/a	4	11	9	n/a	89	n/a	1	n/a	n/a	n/a	n/a	421.861	n/a
390.687	0.497	neutral	Picture	56.059	n/a	4	11	10	n/a	90	15	1	n/a	n/a	n/a	n/a	422.391	AF25NES.jpg
391.185	0.514	Blank	Blank	55.545	n/a	4	11	10	n/a	90	n/a	1	n/a	n/a	n/a	n/a	422.889	n/a
391.715	0.497	neutral	Picture	55.031	n/a	4	11	11	n/a	91	19	1	n/a	n/a	n/a	n/a	423.419	AF31NES.jpg
392.213	0.514	Blank	Blank	54.517	n/a	4	11	11	n/a	91	n/a	1	n/a	n/a	n/a	n/a	423.917	n/a
392.743	0.497	neutral	Picture	54.003	n/a	4	11	12	n/a	92	9	1	n/a	n/a	n/a	n/a	424.447	AF17NES.jpg
393.24	0.514	Blank	Blank	53.489	n/a	4	11	12	n/a	92	n/a	1	n/a	n/a	n/a	n/a	424.944	n/a
393.771	0.497	neutral	Picture	52.975	n/a	4	11	13	n/a	93	14	1	n/a	n/a	n/a	n/a	425.475	AF23NES.jpg
394.268	0.514	Blank	Blank	52.461	n/a	4	11	13	n/a	93	n/a	1	n/a	n/a	n/a	n/a	425.972	n/a
394.799	0.497	neutral	Picture	51.947	n/a	4	11	14	n/a	94	36	1	n/a	n/a	n/a	n/a	426.503	BM24NES.jpg
395.296	0.514	Blank	Blank	51.433	n/a	4	11	14	n/a	94	n/a	1	n/a	n/a	n/a	n/a	427.0	n/a
395.827	0.497	neutral	Picture	50.92	n/a	4	11	15	n/a	95	34	1	n/a	n/a	n/a	n/a	427.531	AM22NES.jpg
396.324	0.514	Blank	Blank	50.406	n/a	4	11	15	n/a	95	n/a	1	n/a	n/a	n/a	n/a	428.028	n/a
396.855	0.497	neutral	Picture	49.892	n/a	4	11	16	n/a	96	10	1	n/a	n/a	n/a	n/a	428.559	AF18NES.jpg
397.352	0.514	Blank	Blank	49.378	n/a	4	11	16	n/a	96	n/a	1	n/a	n/a	n/a	n/a	429.056	n/a
397.883	0.497	neutral	Picture	48.864	n/a	4	11	17	n/a	97	5	1	n/a	n/a	n/a	n/a	429.587	BF07NES.jpg
398.38	0.514	Blank	Blank	48.35	n/a	4	11	17	n/a	97	n/a	1	n/a	n/a	n/a	n/a	430.084	n/a
398.911	0.497	neutral	Picture	47.836	n/a	4	11	18	n/a	98	25	1	n/a	n/a	n/a	n/a	430.614	BM06NES.jpg
399.408	0.514	Blank	Blank	47.322	n/a	4	11	18	n/a	98	n/a	1	n/a	n/a	n/a	n/a	431.112	n/a
399.938	0.497	neutral	Picture	46.808	n/a	4	11	19	n/a	99	39	1	n/a	n/a	n/a	n/a	431.642	AM28NES.jpg
400.436	0.514	Blank	Blank	46.294	n/a	4	11	19	n/a	99	n/a	1	n/a	n/a	n/a	n/a	432.14	n/a
400.966	0.497	neutral	Picture	45.78	n/a	4	11	20	n/a	100	33	1	n/a	n/a	n/a	n/a	432.67	AM21NES.jpg
401.464	0.514	Blank	Blank	45.266	n/a	4	11	20	n/a	100	n/a	1	n/a	n/a	n/a	n/a	433.168	n/a
401.994	10.014	ITI	Fixation+	35.236	n/a	4	n/a	n/a	n/a	n/a	n/a	n/a	n/a	n/a	n/a	n/a	433.698	n/a
412.024	0.497	angry	Picture	34.722	n/a	4	12	1	n/a	101	74	2	n/a	n/a	n/a	n/a	443.728	AM22HAS.jpg
412.522	0.514	Blank	Blank	34.208	n/a	4	12	1	n/a	101	n/a	2	n/a	n/a	n/a	n/a	444.226	n/a
413.052	0.497	angry	Picture	33.694	n/a	4	12	2	n/a	102	76	2	n/a	n/a	n/a	n/a	444.756	BM24HAS.jpg
413.55	0.514	Blank	Blank	33.18	n/a	4	12	2	n/a	102	n/a	2	n/a	n/a	n/a	n/a	445.254	n/a
414.08	0.497	angry	Picture	32.666	n/a	4	12	3	n/a	103	80	2	n/a	n/a	n/a	n/a	445.784	BM35HAS.jpg
414.578	0.514	Blank	Blank	32.152	n/a	4	12	3	n/a	103	n/a	2	n/a	n/a	n/a	n/a	446.281	n/a
415.108	0.497	angry	Picture	31.638	n/a	4	12	4	n/a	104	75	2	n/a	n/a	n/a	n/a	446.812	AM23HAS.jpg
415.606	0.514	Blank	Blank	31.124	n/a	4	12	4	n/a	104	n/a	2	n/a	n/a	n/a	n/a	447.309	n/a
416.136	0.497	angry	Picture	30.611	n/a	4	12	5	n/a	105	49	2	n/a	n/a	n/a	n/a	447.84	AF17HAS.jpg
416.633	0.514	Blank	Blank	30.096	n/a	4	12	5	n/a	105	n/a	2	n/a	n/a	n/a	n/a	448.337	n/a
417.164	0.497	angry	Picture	29.583	n/a	4	12	6	n/a	106	43	2	n/a	n/a	n/a	n/a	448.868	BF04HAS.jpg
417.661	0.514	Blank	Blank	29.069	n/a	4	12	6	n/a	106	n/a	2	n/a	n/a	n/a	n/a	449.365	n/a
418.192	0.497	angry	Picture	28.555	n/a	4	12	7	n/a	107	70	2	n/a	n/a	n/a	n/a	449.896	BM11HAS.jpg
418.689	0.514	Blank	Blank	28.041	n/a	4	12	7	n/a	107	n/a	2	n/a	n/a	n/a	n/a	450.393	n/a
419.22	0.497	angry	Picture	27.527	n/a	4	12	8	n/a	108	66	2	n/a	n/a	n/a	n/a	450.923	BM07HAS.jpg
419.717	0.514	Blank	Blank	27.013	n/a	4	12	8	n/a	108	n/a	2	n/a	n/a	n/a	n/a	451.421	n/a
420.248	0.497	angry	Picture	26.499	n/a	4	12	9	n/a	109	48	2	n/a	n/a	n/a	n/a	451.951	AF14HAS.jpg
420.745	0.514	Blank	Blank	25.985	n/a	4	12	9	n/a	109	n/a	2	n/a	n/a	n/a	n/a	452.449	n/a
421.275	0.497	angry	Picture	25.471	n/a	4	12	10	n/a	110	58	2	n/a	n/a	n/a	n/a	452.979	BF29HAS.jpg
421.773	0.514	Blank	Blank	24.957	n/a	4	12	10	n/a	110	n/a	2	n/a	n/a	n/a	n/a	453.477	n/a
422.303	0.497	angry	Picture	24.443	n/a	4	12	11	n/a	111	63	2	n/a	n/a	n/a	n/a	454.007	AM04HAS.jpg
422.801	0.514	Blank	Blank	23.929	n/a	4	12	11	n/a	111	n/a	2	n/a	n/a	n/a	n/a	454.505	n/a
423.331	0.497	angry	Picture	23.415	n/a	4	12	12	n/a	112	72	2	n/a	n/a	n/a	n/a	455.035	AM14HAS.jpg
423.829	0.514	Blank	Blank	22.901	n/a	4	12	12	n/a	112	n/a	2	n/a	n/a	n/a	n/a	455.533	n/a
424.359	0.497	angry	Picture	22.387	n/a	4	12	13	n/a	113	55	2	n/a	n/a	n/a	n/a	456.063	AF25HAS.jpg
424.857	0.514	Blank	Blank	21.873	n/a	4	12	13	n/a	113	n/a	2	n/a	n/a	n/a	n/a	456.56	n/a
425.387	0.497	angry	Picture	21.359	n/a	4	12	14	n/a	114	42	2	n/a	n/a	n/a	n/a	457.091	AF03HAS.jpg
425.884	0.514	Blank	Blank	20.846	n/a	4	12	14	n/a	114	n/a	2	n/a	n/a	n/a	n/a	457.588	n/a
426.415	0.497	angry	Picture	20.332	n/a	4	12	15	n/a	115	60	2	n/a	n/a	n/a	n/a	458.119	AF32HAS.jpg
426.912	0.514	Blank	Blank	19.818	n/a	4	12	15	n/a	115	n/a	2	n/a	n/a	n/a	n/a	458.616	n/a
427.443	0.497	angry	Picture	19.304	n/a	4	12	16	n/a	116	67	2	n/a	n/a	n/a	n/a	459.147	BM08HAS.jpg
427.94	0.514	Blank	Blank	18.79	n/a	4	12	16	n/a	116	n/a	2	n/a	n/a	n/a	n/a	459.644	n/a
428.471	0.497	angry	Picture	18.276	n/a	4	12	17	n/a	117	51	2	n/a	n/a	n/a	n/a	460.175	AF20HAS.jpg
428.968	0.514	Blank	Blank	17.762	n/a	4	12	17	n/a	117	n/a	2	n/a	n/a	n/a	n/a	460.672	n/a
429.499	0.497	angry	Picture	17.248	n/a	4	12	18	n/a	118	71	2	n/a	n/a	n/a	n/a	461.202	BM12HAS.jpg
429.996	0.514	Blank	Blank	16.734	n/a	4	12	18	n/a	118	n/a	2	n/a	n/a	n/a	n/a	461.7	n/a
430.526	0.497	angry	Picture	16.22	n/a	4	12	19	n/a	119	69	2	n/a	n/a	n/a	n/a	462.23	AM10HAS.jpg
431.024	0.514	Blank	Blank	15.706	n/a	4	12	19	n/a	119	n/a	2	n/a	n/a	n/a	n/a	462.728	n/a
431.554	0.497	angry	Picture	15.192	n/a	4	12	20	n/a	120	46	2	n/a	n/a	n/a	n/a	463.258	AF09HAS.jpg
432.052	0.514	Blank	Blank	14.678	n/a	4	12	20	n/a	120	n/a	2	n/a	n/a	n/a	n/a	463.756	n/a
432.582	10.014	ITI	Fixation+	4.648	n/a	4	n/a	n/a	n/a	n/a	n/a	n/a	n/a	n/a	n/a	n/a	464.286	n/a
447.244	n/a	ConfirmRating	Rate	n/a	4.642	4	n/a	n/a	0	n/a	n/a	n/a	2	Angry	56	50	478.948	n/a
455.844	n/a	ConfirmRating	Rate	n/a	8.587	4	n/a	n/a	1	n/a	n/a	n/a	3	Angry	34	50	487.548	n/a
