onset	duration	trial_type	event_type	time_until_response	response_time	trial_number	block_num_within_trial	image_seq_num_within_block	question_seq_num_within_block	image_seq_num	picture_number	condition	question_type	block_type	rating	rating_computed	onset_uncorrected	KDEV_imagefile
0.016	10.014	ITI	Fixation+	99.474	n/a	1	n/a	n/a	n/a	n/a	n/a	n/a	n/a	n/a	n/a	n/a	32.025	n/a
10.046	0.497	angry	Picture	98.96	n/a	1	1	1	n/a	1	108	3	n/a	n/a	n/a	n/a	42.055	AM09ANS.jpg
10.544	0.514	Blank	Blank	98.446	n/a	1	1	1	n/a	1	n/a	3	n/a	n/a	n/a	n/a	42.552	n/a
11.074	0.497	angry	Picture	97.932	n/a	1	1	2	n/a	2	99	3	n/a	n/a	n/a	n/a	43.083	AF31ANS.jpg
11.572	0.514	Blank	Blank	97.418	n/a	1	1	2	n/a	2	n/a	3	n/a	n/a	n/a	n/a	43.58	n/a
12.102	0.497	angry	Picture	96.904	n/a	1	1	3	n/a	3	98	3	n/a	n/a	n/a	n/a	44.111	BF29ANS.jpg
12.599	0.514	Blank	Blank	96.39	n/a	1	1	3	n/a	3	n/a	3	n/a	n/a	n/a	n/a	44.608	n/a
13.13	0.497	angry	Picture	95.876	n/a	1	1	4	n/a	4	107	3	n/a	n/a	n/a	n/a	45.139	BM08ANS.jpg
13.627	0.514	Blank	Blank	95.362	n/a	1	1	4	n/a	4	n/a	3	n/a	n/a	n/a	n/a	45.636	n/a
14.158	0.497	angry	Picture	94.848	n/a	1	1	5	n/a	5	104	3	n/a	n/a	n/a	n/a	46.166	BM05ANS.jpg
14.655	0.514	Blank	Blank	94.335	n/a	1	1	5	n/a	5	n/a	3	n/a	n/a	n/a	n/a	46.664	n/a
15.186	0.497	angry	Picture	93.82	n/a	1	1	6	n/a	6	101	3	n/a	n/a	n/a	n/a	47.194	AM01ANS.jpg
15.683	0.514	Blank	Blank	93.307	n/a	1	1	6	n/a	6	n/a	3	n/a	n/a	n/a	n/a	47.692	n/a
16.214	0.497	angry	Picture	92.793	n/a	1	1	7	n/a	7	103	3	n/a	n/a	n/a	n/a	48.222	AM04ANS.jpg
16.711	0.514	Blank	Blank	92.279	n/a	1	1	7	n/a	7	n/a	3	n/a	n/a	n/a	n/a	48.72	n/a
17.242	0.497	angry	Picture	91.765	n/a	1	1	8	n/a	8	111	3	n/a	n/a	n/a	n/a	49.25	BM12ANS.jpg
17.739	0.514	Blank	Blank	91.251	n/a	1	1	8	n/a	8	n/a	3	n/a	n/a	n/a	n/a	49.748	n/a
18.269	0.497	angry	Picture	90.737	n/a	1	1	9	n/a	9	110	3	n/a	n/a	n/a	n/a	50.278	AM11ANS.jpg
18.767	0.514	Blank	Blank	90.223	n/a	1	1	9	n/a	9	n/a	3	n/a	n/a	n/a	n/a	50.775	n/a
19.297	0.497	angry	Picture	89.709	n/a	1	1	10	n/a	10	85	3	n/a	n/a	n/a	n/a	51.306	BF07ANS.jpg
19.795	0.514	Blank	Blank	89.195	n/a	1	1	10	n/a	10	n/a	3	n/a	n/a	n/a	n/a	51.803	n/a
20.325	0.497	angry	Picture	88.681	n/a	1	1	11	n/a	11	87	3	n/a	n/a	n/a	n/a	52.334	BF11ANS.jpg
20.823	0.514	Blank	Blank	88.167	n/a	1	1	11	n/a	11	n/a	3	n/a	n/a	n/a	n/a	52.831	n/a
21.353	0.497	angry	Picture	87.653	n/a	1	1	12	n/a	12	91	3	n/a	n/a	n/a	n/a	53.362	AF20ANS.jpg
21.85	0.514	Blank	Blank	87.139	n/a	1	1	12	n/a	12	n/a	3	n/a	n/a	n/a	n/a	53.859	n/a
22.381	0.497	angry	Picture	86.625	n/a	1	1	13	n/a	13	115	3	n/a	n/a	n/a	n/a	54.39	AM23ANS.jpg
22.878	0.514	Blank	Blank	86.111	n/a	1	1	13	n/a	13	n/a	3	n/a	n/a	n/a	n/a	54.887	n/a
23.409	0.497	angry	Picture	85.597	n/a	1	1	14	n/a	14	97	3	n/a	n/a	n/a	n/a	55.417	BF28ANS.jpg
23.906	0.514	Blank	Blank	85.084	n/a	1	1	14	n/a	14	n/a	3	n/a	n/a	n/a	n/a	55.915	n/a
24.437	0.497	angry	Picture	84.57	n/a	1	1	15	n/a	15	82	3	n/a	n/a	n/a	n/a	56.445	AF03ANS.jpg
24.934	0.514	Blank	Blank	84.056	n/a	1	1	15	n/a	15	n/a	3	n/a	n/a	n/a	n/a	56.943	n/a
25.465	0.497	angry	Picture	83.542	n/a	1	1	16	n/a	16	96	3	n/a	n/a	n/a	n/a	57.473	AF26ANS.jpg
25.962	0.514	Blank	Blank	83.028	n/a	1	1	16	n/a	16	n/a	3	n/a	n/a	n/a	n/a	57.971	n/a
26.492	0.497	angry	Picture	82.514	n/a	1	1	17	n/a	17	109	3	n/a	n/a	n/a	n/a	58.501	AM10ANS.jpg
26.99	0.514	Blank	Blank	82.0	n/a	1	1	17	n/a	17	n/a	3	n/a	n/a	n/a	n/a	58.998	n/a
27.52	0.497	angry	Picture	81.486	n/a	1	1	18	n/a	18	114	3	n/a	n/a	n/a	n/a	59.529	AM22ANS.jpg
28.018	0.514	Blank	Blank	80.972	n/a	1	1	18	n/a	18	n/a	3	n/a	n/a	n/a	n/a	60.026	n/a
28.548	0.497	angry	Picture	80.458	n/a	1	1	19	n/a	19	120	3	n/a	n/a	n/a	n/a	60.557	AM35ANS.jpg
29.046	0.514	Blank	Blank	79.944	n/a	1	1	19	n/a	19	n/a	3	n/a	n/a	n/a	n/a	61.054	n/a
29.576	0.497	angry	Picture	79.43	n/a	1	1	20	n/a	20	81	3	n/a	n/a	n/a	n/a	61.585	AF01ANS.jpg
30.073	0.514	Blank	Blank	78.916	n/a	1	1	20	n/a	20	n/a	3	n/a	n/a	n/a	n/a	62.082	n/a
30.604	10.014	ITI	Fixation+	68.886	n/a	1	n/a	n/a	n/a	n/a	n/a	n/a	n/a	n/a	n/a	n/a	62.613	n/a
40.634	0.497	neutral	Picture	68.372	n/a	1	2	1	n/a	21	28	1	n/a	n/a	n/a	n/a	72.643	AM09NES.jpg
41.131	0.514	Blank	Blank	67.858	n/a	1	2	1	n/a	21	n/a	1	n/a	n/a	n/a	n/a	73.14	n/a
41.662	0.497	neutral	Picture	67.344	n/a	1	2	2	n/a	22	27	1	n/a	n/a	n/a	n/a	73.671	BM08NES.jpg
42.159	0.514	Blank	Blank	66.83	n/a	1	2	2	n/a	22	n/a	1	n/a	n/a	n/a	n/a	74.168	n/a
42.69	0.497	neutral	Picture	66.316	n/a	1	2	3	n/a	23	16	1	n/a	n/a	n/a	n/a	74.699	AF26NES.jpg
43.187	0.514	Blank	Blank	65.802	n/a	1	2	3	n/a	23	n/a	1	n/a	n/a	n/a	n/a	75.196	n/a
43.718	0.497	neutral	Picture	65.288	n/a	1	2	4	n/a	24	3	1	n/a	n/a	n/a	n/a	75.727	BF04NES.jpg
44.215	0.514	Blank	Blank	64.775	n/a	1	2	4	n/a	24	n/a	1	n/a	n/a	n/a	n/a	76.224	n/a
44.746	0.497	neutral	Picture	64.261	n/a	1	2	5	n/a	25	32	1	n/a	n/a	n/a	n/a	76.754	AM14NES.jpg
45.243	0.514	Blank	Blank	63.747	n/a	1	2	5	n/a	25	n/a	1	n/a	n/a	n/a	n/a	77.252	n/a
45.774	0.497	neutral	Picture	63.233	n/a	1	2	6	n/a	26	37	1	n/a	n/a	n/a	n/a	77.782	BM25NES.jpg
46.271	0.514	Blank	Blank	62.719	n/a	1	2	6	n/a	26	n/a	1	n/a	n/a	n/a	n/a	78.28	n/a
46.801	0.497	neutral	Picture	62.205	n/a	1	2	7	n/a	27	15	1	n/a	n/a	n/a	n/a	78.81	AF25NES.jpg
47.299	0.514	Blank	Blank	61.691	n/a	1	2	7	n/a	27	n/a	1	n/a	n/a	n/a	n/a	79.308	n/a
47.829	0.497	neutral	Picture	61.177	n/a	1	2	8	n/a	28	23	1	n/a	n/a	n/a	n/a	79.838	AM04NES.jpg
48.327	0.514	Blank	Blank	60.663	n/a	1	2	8	n/a	28	n/a	1	n/a	n/a	n/a	n/a	80.335	n/a
48.857	0.497	neutral	Picture	60.149	n/a	1	2	9	n/a	29	34	1	n/a	n/a	n/a	n/a	80.866	AM22NES.jpg
49.355	0.514	Blank	Blank	59.635	n/a	1	2	9	n/a	29	n/a	1	n/a	n/a	n/a	n/a	81.363	n/a
49.885	0.497	neutral	Picture	59.121	n/a	1	2	10	n/a	30	24	1	n/a	n/a	n/a	n/a	81.894	BM05NES.jpg
50.382	0.514	Blank	Blank	58.607	n/a	1	2	10	n/a	30	n/a	1	n/a	n/a	n/a	n/a	82.391	n/a
50.913	0.497	neutral	Picture	58.093	n/a	1	2	11	n/a	31	12	1	n/a	n/a	n/a	n/a	82.922	AF21NES.jpg
51.41	0.514	Blank	Blank	57.579	n/a	1	2	11	n/a	31	n/a	1	n/a	n/a	n/a	n/a	83.419	n/a
51.941	0.497	neutral	Picture	57.065	n/a	1	2	12	n/a	32	6	1	n/a	n/a	n/a	n/a	83.95	AF09NES.jpg
52.438	0.514	Blank	Blank	56.552	n/a	1	2	12	n/a	32	n/a	1	n/a	n/a	n/a	n/a	84.447	n/a
52.969	0.497	neutral	Picture	56.038	n/a	1	2	13	n/a	33	17	1	n/a	n/a	n/a	n/a	84.977	BF28NES.jpg
53.466	0.514	Blank	Blank	55.524	n/a	1	2	13	n/a	33	n/a	1	n/a	n/a	n/a	n/a	85.475	n/a
53.997	0.497	neutral	Picture	55.01	n/a	1	2	14	n/a	34	2	1	n/a	n/a	n/a	n/a	86.005	AF03NES.jpg
54.494	0.514	Blank	Blank	54.496	n/a	1	2	14	n/a	34	n/a	1	n/a	n/a	n/a	n/a	86.503	n/a
55.024	0.497	neutral	Picture	53.982	n/a	1	2	15	n/a	35	9	1	n/a	n/a	n/a	n/a	87.033	AF17NES.jpg
55.522	0.514	Blank	Blank	53.468	n/a	1	2	15	n/a	35	n/a	1	n/a	n/a	n/a	n/a	87.531	n/a
56.052	0.497	neutral	Picture	52.954	n/a	1	2	16	n/a	36	25	1	n/a	n/a	n/a	n/a	88.061	BM06NES.jpg
56.55	0.514	Blank	Blank	52.44	n/a	1	2	16	n/a	36	n/a	1	n/a	n/a	n/a	n/a	88.558	n/a
57.08	0.497	neutral	Picture	51.926	n/a	1	2	17	n/a	37	8	1	n/a	n/a	n/a	n/a	89.089	AF14NES.jpg
57.578	0.514	Blank	Blank	51.412	n/a	1	2	17	n/a	37	n/a	1	n/a	n/a	n/a	n/a	89.586	n/a
58.108	0.497	neutral	Picture	50.898	n/a	1	2	18	n/a	38	19	1	n/a	n/a	n/a	n/a	90.117	AF31NES.jpg
58.605	0.514	Blank	Blank	50.384	n/a	1	2	18	n/a	38	n/a	1	n/a	n/a	n/a	n/a	90.614	n/a
59.136	0.497	neutral	Picture	49.87	n/a	1	2	19	n/a	39	14	1	n/a	n/a	n/a	n/a	91.145	AF23NES.jpg
59.633	0.514	Blank	Blank	49.356	n/a	1	2	19	n/a	39	n/a	1	n/a	n/a	n/a	n/a	91.642	n/a
60.164	0.497	neutral	Picture	48.842	n/a	1	2	20	n/a	40	4	1	n/a	n/a	n/a	n/a	92.173	AF05NES.jpg
60.661	0.514	Blank	Blank	48.328	n/a	1	2	20	n/a	40	n/a	1	n/a	n/a	n/a	n/a	92.67	n/a
61.192	10.014	ITI	Fixation+	38.298	n/a	1	n/a	n/a	n/a	n/a	n/a	n/a	n/a	n/a	n/a	n/a	93.201	n/a
71.222	0.497	angry	Picture	37.784	n/a	1	3	1	n/a	41	84	3	n/a	n/a	n/a	n/a	103.231	AF05ANS.jpg
71.719	0.514	Blank	Blank	37.27	n/a	1	3	1	n/a	41	n/a	3	n/a	n/a	n/a	n/a	103.728	n/a
72.25	0.497	angry	Picture	36.756	n/a	1	3	2	n/a	42	92	3	n/a	n/a	n/a	n/a	104.258	AF21ANS.jpg
72.747	0.514	Blank	Blank	36.243	n/a	1	3	2	n/a	42	n/a	3	n/a	n/a	n/a	n/a	104.756	n/a
73.278	0.497	angry	Picture	35.729	n/a	1	3	3	n/a	43	86	3	n/a	n/a	n/a	n/a	105.286	AF09ANS.jpg
73.775	0.514	Blank	Blank	35.215	n/a	1	3	3	n/a	43	n/a	3	n/a	n/a	n/a	n/a	105.784	n/a
74.306	0.497	angry	Picture	34.701	n/a	1	3	4	n/a	44	93	3	n/a	n/a	n/a	n/a	106.314	BF22ANS.jpg
74.803	0.514	Blank	Blank	34.187	n/a	1	3	4	n/a	44	n/a	3	n/a	n/a	n/a	n/a	106.812	n/a
75.334	0.497	angry	Picture	33.673	n/a	1	3	5	n/a	45	88	3	n/a	n/a	n/a	n/a	107.342	AF14ANS.jpg
75.831	0.514	Blank	Blank	33.159	n/a	1	3	5	n/a	45	n/a	3	n/a	n/a	n/a	n/a	107.84	n/a
76.361	0.497	angry	Picture	32.645	n/a	1	3	6	n/a	46	113	3	n/a	n/a	n/a	n/a	108.37	AM21ANS.jpg
76.859	0.514	Blank	Blank	32.131	n/a	1	3	6	n/a	46	n/a	3	n/a	n/a	n/a	n/a	108.867	n/a
77.389	0.497	angry	Picture	31.617	n/a	1	3	7	n/a	47	95	3	n/a	n/a	n/a	n/a	109.398	AF25ANS.jpg
77.887	0.514	Blank	Blank	31.103	n/a	1	3	7	n/a	47	n/a	3	n/a	n/a	n/a	n/a	109.895	n/a
78.417	0.497	angry	Picture	30.589	n/a	1	3	8	n/a	48	102	3	n/a	n/a	n/a	n/a	110.426	BM03ANS.jpg
78.915	0.514	Blank	Blank	30.075	n/a	1	3	8	n/a	48	n/a	3	n/a	n/a	n/a	n/a	110.923	n/a
79.445	0.497	angry	Picture	29.561	n/a	1	3	9	n/a	49	112	3	n/a	n/a	n/a	n/a	111.454	AM14ANS.jpg
79.942	0.514	Blank	Blank	29.047	n/a	1	3	9	n/a	49	n/a	3	n/a	n/a	n/a	n/a	111.951	n/a
80.473	0.497	angry	Picture	28.533	n/a	1	3	10	n/a	50	83	3	n/a	n/a	n/a	n/a	112.482	BF04ANS.jpg
80.97	0.514	Blank	Blank	28.019	n/a	1	3	10	n/a	50	n/a	3	n/a	n/a	n/a	n/a	112.979	n/a
81.501	0.497	angry	Picture	27.506	n/a	1	3	11	n/a	51	90	3	n/a	n/a	n/a	n/a	113.51	AF18ANS.jpg
81.998	0.514	Blank	Blank	26.992	n/a	1	3	11	n/a	51	n/a	3	n/a	n/a	n/a	n/a	114.007	n/a
82.529	0.497	angry	Picture	26.478	n/a	1	3	12	n/a	52	117	3	n/a	n/a	n/a	n/a	114.537	BM25ANS.jpg
83.026	0.514	Blank	Blank	25.964	n/a	1	3	12	n/a	52	n/a	3	n/a	n/a	n/a	n/a	115.035	n/a
83.556	0.497	angry	Picture	25.45	n/a	1	3	13	n/a	53	94	3	n/a	n/a	n/a	n/a	115.565	AF23ANS.jpg
84.054	0.514	Blank	Blank	24.936	n/a	1	3	13	n/a	53	n/a	3	n/a	n/a	n/a	n/a	116.063	n/a
84.584	0.497	angry	Picture	24.422	n/a	1	3	14	n/a	54	106	3	n/a	n/a	n/a	n/a	116.593	AM07ANS.jpg
85.082	0.514	Blank	Blank	23.908	n/a	1	3	14	n/a	54	n/a	3	n/a	n/a	n/a	n/a	117.091	n/a
85.612	0.497	angry	Picture	23.394	n/a	1	3	15	n/a	55	105	3	n/a	n/a	n/a	n/a	117.621	BM06ANS.jpg
86.11	0.514	Blank	Blank	22.88	n/a	1	3	15	n/a	55	n/a	3	n/a	n/a	n/a	n/a	118.118	n/a
86.64	0.497	angry	Picture	22.366	n/a	1	3	16	n/a	56	116	3	n/a	n/a	n/a	n/a	118.649	BM24ANS.jpg
87.137	0.514	Blank	Blank	21.852	n/a	1	3	16	n/a	56	n/a	3	n/a	n/a	n/a	n/a	119.146	n/a
87.668	0.497	angry	Picture	21.338	n/a	1	3	17	n/a	57	89	3	n/a	n/a	n/a	n/a	119.677	AF17ANS.jpg
88.165	0.514	Blank	Blank	20.824	n/a	1	3	17	n/a	57	n/a	3	n/a	n/a	n/a	n/a	120.174	n/a
88.696	0.497	angry	Picture	20.31	n/a	1	3	18	n/a	58	118	3	n/a	n/a	n/a	n/a	120.705	BM26ANS.jpg
89.193	0.514	Blank	Blank	19.796	n/a	1	3	18	n/a	58	n/a	3	n/a	n/a	n/a	n/a	121.202	n/a
89.724	0.497	angry	Picture	19.282	n/a	1	3	19	n/a	59	100	3	n/a	n/a	n/a	n/a	121.733	AF32ANS.jpg
90.221	0.514	Blank	Blank	18.768	n/a	1	3	19	n/a	59	n/a	3	n/a	n/a	n/a	n/a	122.23	n/a
90.752	0.497	angry	Picture	18.255	n/a	1	3	20	n/a	60	119	3	n/a	n/a	n/a	n/a	122.76	BM28ANS.jpg
91.249	0.514	Blank	Blank	17.741	n/a	1	3	20	n/a	60	n/a	3	n/a	n/a	n/a	n/a	123.258	n/a
91.78	10.014	ITI	Fixation+	7.71	n/a	1	n/a	n/a	n/a	n/a	n/a	n/a	n/a	n/a	n/a	n/a	123.788	n/a
109.504	n/a	ConfirmRating	Rate	n/a	7.692	1	n/a	n/a	0	n/a	n/a	n/a	2	Angry	37	49	141.512	n/a
114.127	n/a	ConfirmRating	Rate	n/a	4.592	1	n/a	n/a	1	n/a	n/a	n/a	3	Angry	31	50	146.136	n/a
114.144	10.014	ITI	Fixation+	94.805	n/a	2	n/a	n/a	n/a	n/a	n/a	n/a	n/a	n/a	n/a	n/a	146.153	n/a
124.174	0.497	happy	Picture	94.291	n/a	2	4	1	n/a	61	79	2	n/a	n/a	n/a	n/a	156.183	BM28HAS.jpg
124.672	0.514	Blank	Blank	93.777	n/a	2	4	1	n/a	61	n/a	2	n/a	n/a	n/a	n/a	156.681	n/a
125.202	0.497	happy	Picture	93.263	n/a	2	4	2	n/a	62	61	2	n/a	n/a	n/a	n/a	157.211	AM01HAS.jpg
125.7	0.514	Blank	Blank	92.749	n/a	2	4	2	n/a	62	n/a	2	n/a	n/a	n/a	n/a	157.708	n/a
126.23	0.497	happy	Picture	92.235	n/a	2	4	3	n/a	63	57	2	n/a	n/a	n/a	n/a	158.239	BF28HAS.jpg
126.728	0.514	Blank	Blank	91.721	n/a	2	4	3	n/a	63	n/a	2	n/a	n/a	n/a	n/a	158.736	n/a
127.258	0.497	happy	Picture	91.208	n/a	2	4	4	n/a	64	77	2	n/a	n/a	n/a	n/a	159.267	BM25HAS.jpg
127.755	0.514	Blank	Blank	90.694	n/a	2	4	4	n/a	64	n/a	2	n/a	n/a	n/a	n/a	159.764	n/a
128.286	0.497	happy	Picture	90.18	n/a	2	4	5	n/a	65	47	2	n/a	n/a	n/a	n/a	160.295	BF11HAS.jpg
128.783	0.514	Blank	Blank	89.666	n/a	2	4	5	n/a	65	n/a	2	n/a	n/a	n/a	n/a	160.792	n/a
129.314	0.497	happy	Picture	89.152	n/a	2	4	6	n/a	66	50	2	n/a	n/a	n/a	n/a	161.323	AF18HAS.jpg
129.811	0.514	Blank	Blank	88.638	n/a	2	4	6	n/a	66	n/a	2	n/a	n/a	n/a	n/a	161.82	n/a
130.342	0.497	happy	Picture	88.124	n/a	2	4	7	n/a	67	78	2	n/a	n/a	n/a	n/a	162.351	BM26HAS.jpg
130.839	0.514	Blank	Blank	87.61	n/a	2	4	7	n/a	67	n/a	2	n/a	n/a	n/a	n/a	162.848	n/a
131.37	0.497	happy	Picture	87.096	n/a	2	4	8	n/a	68	45	2	n/a	n/a	n/a	n/a	163.378	BF07HAS.jpg
131.867	0.514	Blank	Blank	86.582	n/a	2	4	8	n/a	68	n/a	2	n/a	n/a	n/a	n/a	163.876	n/a
132.398	0.497	happy	Picture	86.068	n/a	2	4	9	n/a	69	56	2	n/a	n/a	n/a	n/a	164.406	AF26HAS.jpg
132.895	0.514	Blank	Blank	85.554	n/a	2	4	9	n/a	69	n/a	2	n/a	n/a	n/a	n/a	164.904	n/a
133.425	0.497	happy	Picture	85.04	n/a	2	4	10	n/a	70	65	2	n/a	n/a	n/a	n/a	165.434	BM06HAS.jpg
133.923	0.514	Blank	Blank	84.526	n/a	2	4	10	n/a	70	n/a	2	n/a	n/a	n/a	n/a	165.931	n/a
134.453	0.498	happy	Picture	84.012	n/a	2	4	11	n/a	71	73	2	n/a	n/a	n/a	n/a	166.461	AM21HAS.jpg
134.951	0.514	Blank	Blank	83.498	n/a	2	4	11	n/a	71	n/a	2	n/a	n/a	n/a	n/a	166.959	n/a
135.481	0.497	happy	Picture	82.984	n/a	2	4	12	n/a	72	41	2	n/a	n/a	n/a	n/a	167.49	AF01HAS.jpg
135.979	0.514	Blank	Blank	82.47	n/a	2	4	12	n/a	72	n/a	2	n/a	n/a	n/a	n/a	167.987	n/a
136.509	0.497	happy	Picture	81.957	n/a	2	4	13	n/a	73	59	2	n/a	n/a	n/a	n/a	168.518	AF31HAS.jpg
137.006	0.514	Blank	Blank	81.443	n/a	2	4	13	n/a	73	n/a	2	n/a	n/a	n/a	n/a	169.015	n/a
137.537	0.497	happy	Picture	80.929	n/a	2	4	14	n/a	74	64	2	n/a	n/a	n/a	n/a	169.546	BM05HAS.jpg
138.034	0.514	Blank	Blank	80.415	n/a	2	4	14	n/a	74	n/a	2	n/a	n/a	n/a	n/a	170.043	n/a
138.565	0.497	happy	Picture	79.901	n/a	2	4	15	n/a	75	68	2	n/a	n/a	n/a	n/a	170.574	AM09HAS.jpg
139.062	0.514	Blank	Blank	79.387	n/a	2	4	15	n/a	75	n/a	2	n/a	n/a	n/a	n/a	171.071	n/a
139.593	0.497	happy	Picture	78.873	n/a	2	4	16	n/a	76	54	2	n/a	n/a	n/a	n/a	171.601	AF23HAS.jpg
140.09	0.514	Blank	Blank	78.359	n/a	2	4	16	n/a	76	n/a	2	n/a	n/a	n/a	n/a	172.099	n/a
140.621	0.497	happy	Picture	77.845	n/a	2	4	17	n/a	77	53	2	n/a	n/a	n/a	n/a	172.629	BF22HAS.jpg
141.118	0.514	Blank	Blank	77.331	n/a	2	4	17	n/a	77	n/a	2	n/a	n/a	n/a	n/a	173.127	n/a
141.648	0.497	happy	Picture	76.817	n/a	2	4	18	n/a	78	44	2	n/a	n/a	n/a	n/a	173.657	AF05HAS.jpg
142.146	0.514	Blank	Blank	76.303	n/a	2	4	18	n/a	78	n/a	2	n/a	n/a	n/a	n/a	174.155	n/a
142.676	0.497	happy	Picture	75.789	n/a	2	4	19	n/a	79	52	2	n/a	n/a	n/a	n/a	174.685	AF21HAS.jpg
143.174	0.514	Blank	Blank	75.275	n/a	2	4	19	n/a	79	n/a	2	n/a	n/a	n/a	n/a	175.183	n/a
143.704	0.497	happy	Picture	74.761	n/a	2	4	20	n/a	80	62	2	n/a	n/a	n/a	n/a	175.713	BM03HAS.jpg
144.202	0.514	Blank	Blank	74.247	n/a	2	4	20	n/a	80	n/a	2	n/a	n/a	n/a	n/a	176.21	n/a
144.732	10.014	ITI	Fixation+	64.217	n/a	2	n/a	n/a	n/a	n/a	n/a	n/a	n/a	n/a	n/a	n/a	176.741	n/a
154.762	0.497	neutral	Picture	63.703	n/a	2	5	1	n/a	81	23	1	n/a	n/a	n/a	n/a	186.771	AM04NES.jpg
155.26	0.514	Blank	Blank	63.189	n/a	2	5	1	n/a	81	n/a	1	n/a	n/a	n/a	n/a	187.268	n/a
155.79	0.497	neutral	Picture	62.675	n/a	2	5	2	n/a	82	29	1	n/a	n/a	n/a	n/a	187.799	AM10NES.jpg
156.288	0.514	Blank	Blank	62.161	n/a	2	5	2	n/a	82	n/a	1	n/a	n/a	n/a	n/a	188.296	n/a
156.818	0.497	neutral	Picture	61.648	n/a	2	5	3	n/a	83	24	1	n/a	n/a	n/a	n/a	188.827	BM05NES.jpg
157.315	0.514	Blank	Blank	61.134	n/a	2	5	3	n/a	83	n/a	1	n/a	n/a	n/a	n/a	189.324	n/a
157.846	0.497	neutral	Picture	60.62	n/a	2	5	4	n/a	84	12	1	n/a	n/a	n/a	n/a	189.855	AF21NES.jpg
158.343	0.514	Blank	Blank	60.106	n/a	2	5	4	n/a	84	n/a	1	n/a	n/a	n/a	n/a	190.352	n/a
158.874	0.497	neutral	Picture	59.592	n/a	2	5	5	n/a	85	13	1	n/a	n/a	n/a	n/a	190.882	BF22NES.jpg
159.371	0.514	Blank	Blank	59.078	n/a	2	5	5	n/a	85	n/a	1	n/a	n/a	n/a	n/a	191.38	n/a
159.902	0.497	neutral	Picture	58.564	n/a	2	5	6	n/a	86	17	1	n/a	n/a	n/a	n/a	191.91	BF28NES.jpg
160.399	0.514	Blank	Blank	58.05	n/a	2	5	6	n/a	86	n/a	1	n/a	n/a	n/a	n/a	192.408	n/a
160.93	0.497	neutral	Picture	57.536	n/a	2	5	7	n/a	87	4	1	n/a	n/a	n/a	n/a	192.938	AF05NES.jpg
161.427	0.514	Blank	Blank	57.022	n/a	2	5	7	n/a	87	n/a	1	n/a	n/a	n/a	n/a	193.436	n/a
161.957	0.497	neutral	Picture	56.509	n/a	2	5	8	n/a	88	11	1	n/a	n/a	n/a	n/a	193.966	AF20NES.jpg
162.454	0.515	Blank	Blank	55.994	n/a	2	5	8	n/a	88	n/a	1	n/a	n/a	n/a	n/a	194.463	n/a
162.985	0.497	neutral	Picture	55.48	n/a	2	5	9	n/a	89	22	1	n/a	n/a	n/a	n/a	194.994	BM03NES.jpg
163.483	0.514	Blank	Blank	54.966	n/a	2	5	9	n/a	89	n/a	1	n/a	n/a	n/a	n/a	195.491	n/a
164.013	0.497	neutral	Picture	54.452	n/a	2	5	10	n/a	90	15	1	n/a	n/a	n/a	n/a	196.022	AF25NES.jpg
164.511	0.514	Blank	Blank	53.938	n/a	2	5	10	n/a	90	n/a	1	n/a	n/a	n/a	n/a	196.519	n/a
165.041	0.497	neutral	Picture	53.424	n/a	2	5	11	n/a	91	19	1	n/a	n/a	n/a	n/a	197.05	AF31NES.jpg
165.538	0.514	Blank	Blank	52.911	n/a	2	5	11	n/a	91	n/a	1	n/a	n/a	n/a	n/a	197.547	n/a
166.069	0.497	neutral	Picture	52.397	n/a	2	5	12	n/a	92	9	1	n/a	n/a	n/a	n/a	198.078	AF17NES.jpg
166.566	0.514	Blank	Blank	51.883	n/a	2	5	12	n/a	92	n/a	1	n/a	n/a	n/a	n/a	198.575	n/a
167.097	0.497	neutral	Picture	51.369	n/a	2	5	13	n/a	93	14	1	n/a	n/a	n/a	n/a	199.106	AF23NES.jpg
167.594	0.514	Blank	Blank	50.855	n/a	2	5	13	n/a	93	n/a	1	n/a	n/a	n/a	n/a	199.603	n/a
168.125	0.497	neutral	Picture	50.341	n/a	2	5	14	n/a	94	36	1	n/a	n/a	n/a	n/a	200.133	BM24NES.jpg
168.622	0.514	Blank	Blank	49.827	n/a	2	5	14	n/a	94	n/a	1	n/a	n/a	n/a	n/a	200.631	n/a
169.153	0.497	neutral	Picture	49.313	n/a	2	5	15	n/a	95	34	1	n/a	n/a	n/a	n/a	201.161	AM22NES.jpg
169.65	0.514	Blank	Blank	48.799	n/a	2	5	15	n/a	95	n/a	1	n/a	n/a	n/a	n/a	201.659	n/a
170.181	0.497	neutral	Picture	48.285	n/a	2	5	16	n/a	96	10	1	n/a	n/a	n/a	n/a	202.189	AF18NES.jpg
170.678	0.514	Blank	Blank	47.771	n/a	2	5	16	n/a	96	n/a	1	n/a	n/a	n/a	n/a	202.687	n/a
171.208	0.497	neutral	Picture	47.257	n/a	2	5	17	n/a	97	5	1	n/a	n/a	n/a	n/a	203.217	BF07NES.jpg
171.706	0.514	Blank	Blank	46.743	n/a	2	5	17	n/a	97	n/a	1	n/a	n/a	n/a	n/a	203.714	n/a
172.236	0.497	neutral	Picture	46.229	n/a	2	5	18	n/a	98	25	1	n/a	n/a	n/a	n/a	204.245	BM06NES.jpg
172.734	0.514	Blank	Blank	45.715	n/a	2	5	18	n/a	98	n/a	1	n/a	n/a	n/a	n/a	204.742	n/a
173.264	0.497	neutral	Picture	45.201	n/a	2	5	19	n/a	99	39	1	n/a	n/a	n/a	n/a	205.273	AM28NES.jpg
173.762	0.514	Blank	Blank	44.688	n/a	2	5	19	n/a	99	n/a	1	n/a	n/a	n/a	n/a	205.77	n/a
174.292	0.497	neutral	Picture	44.173	n/a	2	5	20	n/a	100	33	1	n/a	n/a	n/a	n/a	206.301	AM21NES.jpg
174.79	0.514	Blank	Blank	43.66	n/a	2	5	20	n/a	100	n/a	1	n/a	n/a	n/a	n/a	206.798	n/a
175.32	10.014	ITI	Fixation+	33.629	n/a	2	n/a	n/a	n/a	n/a	n/a	n/a	n/a	n/a	n/a	n/a	207.329	n/a
185.35	0.497	happy	Picture	33.115	n/a	2	6	1	n/a	101	74	2	n/a	n/a	n/a	n/a	217.359	AM22HAS.jpg
185.847	0.514	Blank	Blank	32.602	n/a	2	6	1	n/a	101	n/a	2	n/a	n/a	n/a	n/a	217.856	n/a
186.378	0.497	happy	Picture	32.088	n/a	2	6	2	n/a	102	76	2	n/a	n/a	n/a	n/a	218.387	BM24HAS.jpg
186.875	0.514	Blank	Blank	31.574	n/a	2	6	2	n/a	102	n/a	2	n/a	n/a	n/a	n/a	218.884	n/a
187.406	0.497	happy	Picture	31.06	n/a	2	6	3	n/a	103	80	2	n/a	n/a	n/a	n/a	219.415	BM35HAS.jpg
187.903	0.514	Blank	Blank	30.546	n/a	2	6	3	n/a	103	n/a	2	n/a	n/a	n/a	n/a	219.912	n/a
188.434	0.497	happy	Picture	30.032	n/a	2	6	4	n/a	104	75	2	n/a	n/a	n/a	n/a	220.442	AM23HAS.jpg
188.931	0.514	Blank	Blank	29.518	n/a	2	6	4	n/a	104	n/a	2	n/a	n/a	n/a	n/a	220.94	n/a
189.462	0.497	happy	Picture	29.004	n/a	2	6	5	n/a	105	49	2	n/a	n/a	n/a	n/a	221.47	AF17HAS.jpg
189.959	0.514	Blank	Blank	28.49	n/a	2	6	5	n/a	105	n/a	2	n/a	n/a	n/a	n/a	221.968	n/a
190.489	0.497	happy	Picture	27.976	n/a	2	6	6	n/a	106	43	2	n/a	n/a	n/a	n/a	222.498	BF04HAS.jpg
190.987	0.514	Blank	Blank	27.462	n/a	2	6	6	n/a	106	n/a	2	n/a	n/a	n/a	n/a	222.996	n/a
191.517	0.497	happy	Picture	26.948	n/a	2	6	7	n/a	107	70	2	n/a	n/a	n/a	n/a	223.526	BM11HAS.jpg
192.015	0.514	Blank	Blank	26.434	n/a	2	6	7	n/a	107	n/a	2	n/a	n/a	n/a	n/a	224.024	n/a
192.545	0.497	happy	Picture	25.92	n/a	2	6	8	n/a	108	66	2	n/a	n/a	n/a	n/a	224.554	BM07HAS.jpg
193.043	0.514	Blank	Blank	25.406	n/a	2	6	8	n/a	108	n/a	2	n/a	n/a	n/a	n/a	225.051	n/a
193.573	0.497	happy	Picture	24.892	n/a	2	6	9	n/a	109	48	2	n/a	n/a	n/a	n/a	225.582	AF14HAS.jpg
194.071	0.514	Blank	Blank	24.379	n/a	2	6	9	n/a	109	n/a	2	n/a	n/a	n/a	n/a	226.079	n/a
194.601	0.497	happy	Picture	23.865	n/a	2	6	10	n/a	110	58	2	n/a	n/a	n/a	n/a	226.61	BF29HAS.jpg
195.098	0.514	Blank	Blank	23.351	n/a	2	6	10	n/a	110	n/a	2	n/a	n/a	n/a	n/a	227.107	n/a
195.629	0.497	happy	Picture	22.837	n/a	2	6	11	n/a	111	63	2	n/a	n/a	n/a	n/a	227.638	AM04HAS.jpg
196.126	0.514	Blank	Blank	22.323	n/a	2	6	11	n/a	111	n/a	2	n/a	n/a	n/a	n/a	228.135	n/a
196.657	0.497	happy	Picture	21.809	n/a	2	6	12	n/a	112	72	2	n/a	n/a	n/a	n/a	228.666	AM14HAS.jpg
197.154	0.514	Blank	Blank	21.295	n/a	2	6	12	n/a	112	n/a	2	n/a	n/a	n/a	n/a	229.163	n/a
197.685	0.497	happy	Picture	20.781	n/a	2	6	13	n/a	113	55	2	n/a	n/a	n/a	n/a	229.693	AF25HAS.jpg
198.182	0.514	Blank	Blank	20.267	n/a	2	6	13	n/a	113	n/a	2	n/a	n/a	n/a	n/a	230.191	n/a
198.713	0.497	happy	Picture	19.753	n/a	2	6	14	n/a	114	42	2	n/a	n/a	n/a	n/a	230.721	AF03HAS.jpg
199.21	0.514	Blank	Blank	19.239	n/a	2	6	14	n/a	114	n/a	2	n/a	n/a	n/a	n/a	231.219	n/a
199.74	0.497	happy	Picture	18.725	n/a	2	6	15	n/a	115	60	2	n/a	n/a	n/a	n/a	231.749	AF32HAS.jpg
200.238	0.514	Blank	Blank	18.211	n/a	2	6	15	n/a	115	n/a	2	n/a	n/a	n/a	n/a	232.247	n/a
200.768	0.497	happy	Picture	17.697	n/a	2	6	16	n/a	116	67	2	n/a	n/a	n/a	n/a	232.777	BM08HAS.jpg
201.266	0.514	Blank	Blank	17.183	n/a	2	6	16	n/a	116	n/a	2	n/a	n/a	n/a	n/a	233.274	n/a
201.796	0.497	happy	Picture	16.669	n/a	2	6	17	n/a	117	51	2	n/a	n/a	n/a	n/a	233.805	AF20HAS.jpg
202.294	0.514	Blank	Blank	16.155	n/a	2	6	17	n/a	117	n/a	2	n/a	n/a	n/a	n/a	234.302	n/a
202.824	0.497	happy	Picture	15.642	n/a	2	6	18	n/a	118	71	2	n/a	n/a	n/a	n/a	234.833	BM12HAS.jpg
203.321	0.514	Blank	Blank	15.127	n/a	2	6	18	n/a	118	n/a	2	n/a	n/a	n/a	n/a	235.33	n/a
203.852	0.497	happy	Picture	14.614	n/a	2	6	19	n/a	119	69	2	n/a	n/a	n/a	n/a	235.861	AM10HAS.jpg
204.349	0.514	Blank	Blank	14.1	n/a	2	6	19	n/a	119	n/a	2	n/a	n/a	n/a	n/a	236.358	n/a
204.88	0.497	happy	Picture	13.586	n/a	2	6	20	n/a	120	46	2	n/a	n/a	n/a	n/a	236.889	AF09HAS.jpg
205.377	0.514	Blank	Blank	13.072	n/a	2	6	20	n/a	120	n/a	2	n/a	n/a	n/a	n/a	237.386	n/a
205.908	10.014	ITI	Fixation+	3.042	n/a	2	n/a	n/a	n/a	n/a	n/a	n/a	n/a	n/a	n/a	n/a	237.917	n/a
218.963	n/a	ConfirmRating	Rate	n/a	3.034	2	n/a	n/a	0	n/a	n/a	n/a	2	Happy	40	49	250.972	n/a
222.557	n/a	ConfirmRating	Rate	n/a	3.581	2	n/a	n/a	1	n/a	n/a	n/a	3	Happy	10	48	254.566	n/a
222.586	15.004	Rest	Picture	n/a	n/a	n/a	n/a	n/a	n/a	n/a	n/a	n/a	0	n/a	0	0	254.595	n/a
237.606	10.014	ITI	Fixation+	94.529	n/a	3	n/a	n/a	n/a	n/a	n/a	n/a	n/a	n/a	n/a	n/a	269.615	n/a
247.636	0.497	angry	Picture	94.015	n/a	3	7	1	n/a	1	108	3	n/a	n/a	n/a	n/a	279.645	AM09ANS.jpg
248.134	0.514	Blank	Blank	93.501	n/a	3	7	1	n/a	1	n/a	3	n/a	n/a	n/a	n/a	280.143	n/a
248.664	0.497	angry	Picture	92.987	n/a	3	7	2	n/a	2	99	3	n/a	n/a	n/a	n/a	280.673	AF31ANS.jpg
249.162	0.514	Blank	Blank	92.474	n/a	3	7	2	n/a	2	n/a	3	n/a	n/a	n/a	n/a	281.171	n/a
249.692	0.497	angry	Picture	91.959	n/a	3	7	3	n/a	3	98	3	n/a	n/a	n/a	n/a	281.701	BF29ANS.jpg
250.19	0.514	Blank	Blank	91.446	n/a	3	7	3	n/a	3	n/a	3	n/a	n/a	n/a	n/a	282.198	n/a
250.72	0.497	angry	Picture	90.932	n/a	3	7	4	n/a	4	107	3	n/a	n/a	n/a	n/a	282.729	BM08ANS.jpg
251.218	0.514	Blank	Blank	90.418	n/a	3	7	4	n/a	4	n/a	3	n/a	n/a	n/a	n/a	283.226	n/a
251.748	0.497	angry	Picture	89.904	n/a	3	7	5	n/a	5	104	3	n/a	n/a	n/a	n/a	283.757	BM05ANS.jpg
252.245	0.514	Blank	Blank	89.39	n/a	3	7	5	n/a	5	n/a	3	n/a	n/a	n/a	n/a	284.254	n/a
252.776	0.497	angry	Picture	88.876	n/a	3	7	6	n/a	6	101	3	n/a	n/a	n/a	n/a	284.785	AM01ANS.jpg
253.273	0.514	Blank	Blank	88.362	n/a	3	7	6	n/a	6	n/a	3	n/a	n/a	n/a	n/a	285.282	n/a
253.804	0.497	angry	Picture	87.848	n/a	3	7	7	n/a	7	103	3	n/a	n/a	n/a	n/a	285.813	AM04ANS.jpg
254.301	0.514	Blank	Blank	87.334	n/a	3	7	7	n/a	7	n/a	3	n/a	n/a	n/a	n/a	286.31	n/a
254.832	0.497	angry	Picture	86.82	n/a	3	7	8	n/a	8	111	3	n/a	n/a	n/a	n/a	286.84	BM12ANS.jpg
255.329	0.514	Blank	Blank	86.306	n/a	3	7	8	n/a	8	n/a	3	n/a	n/a	n/a	n/a	287.338	n/a
255.86	0.497	angry	Picture	85.792	n/a	3	7	9	n/a	9	110	3	n/a	n/a	n/a	n/a	287.868	AM11ANS.jpg
256.357	0.514	Blank	Blank	85.278	n/a	3	7	9	n/a	9	n/a	3	n/a	n/a	n/a	n/a	288.366	n/a
256.888	0.497	angry	Picture	84.764	n/a	3	7	10	n/a	10	85	3	n/a	n/a	n/a	n/a	288.896	BF07ANS.jpg
257.385	0.514	Blank	Blank	84.25	n/a	3	7	10	n/a	10	n/a	3	n/a	n/a	n/a	n/a	289.394	n/a
257.915	0.497	angry	Picture	83.736	n/a	3	7	11	n/a	11	87	3	n/a	n/a	n/a	n/a	289.924	BF11ANS.jpg
258.413	0.514	Blank	Blank	83.222	n/a	3	7	11	n/a	11	n/a	3	n/a	n/a	n/a	n/a	290.421	n/a
258.943	0.497	angry	Picture	82.709	n/a	3	7	12	n/a	12	91	3	n/a	n/a	n/a	n/a	290.952	AF20ANS.jpg
259.441	0.514	Blank	Blank	82.195	n/a	3	7	12	n/a	12	n/a	3	n/a	n/a	n/a	n/a	291.449	n/a
259.971	0.497	angry	Picture	81.681	n/a	3	7	13	n/a	13	115	3	n/a	n/a	n/a	n/a	291.98	AM23ANS.jpg
260.469	0.514	Blank	Blank	81.167	n/a	3	7	13	n/a	13	n/a	3	n/a	n/a	n/a	n/a	292.477	n/a
260.999	0.497	angry	Picture	80.653	n/a	3	7	14	n/a	14	97	3	n/a	n/a	n/a	n/a	293.008	BF28ANS.jpg
261.496	0.514	Blank	Blank	80.139	n/a	3	7	14	n/a	14	n/a	3	n/a	n/a	n/a	n/a	293.505	n/a
262.027	0.497	angry	Picture	79.625	n/a	3	7	15	n/a	15	82	3	n/a	n/a	n/a	n/a	294.036	AF03ANS.jpg
262.524	0.514	Blank	Blank	79.111	n/a	3	7	15	n/a	15	n/a	3	n/a	n/a	n/a	n/a	294.533	n/a
263.055	0.497	angry	Picture	78.597	n/a	3	7	16	n/a	16	96	3	n/a	n/a	n/a	n/a	295.063	AF26ANS.jpg
263.552	0.514	Blank	Blank	78.083	n/a	3	7	16	n/a	16	n/a	3	n/a	n/a	n/a	n/a	295.561	n/a
264.083	0.497	angry	Picture	77.569	n/a	3	7	17	n/a	17	109	3	n/a	n/a	n/a	n/a	296.091	AM10ANS.jpg
264.58	0.514	Blank	Blank	77.055	n/a	3	7	17	n/a	17	n/a	3	n/a	n/a	n/a	n/a	296.589	n/a
265.111	0.497	angry	Picture	76.541	n/a	3	7	18	n/a	18	114	3	n/a	n/a	n/a	n/a	297.119	AM22ANS.jpg
265.608	0.514	Blank	Blank	76.027	n/a	3	7	18	n/a	18	n/a	3	n/a	n/a	n/a	n/a	297.617	n/a
266.138	0.497	angry	Picture	75.513	n/a	3	7	19	n/a	19	120	3	n/a	n/a	n/a	n/a	298.147	AM35ANS.jpg
266.636	0.514	Blank	Blank	74.999	n/a	3	7	19	n/a	19	n/a	3	n/a	n/a	n/a	n/a	298.644	n/a
267.166	0.497	angry	Picture	74.485	n/a	3	7	20	n/a	20	81	3	n/a	n/a	n/a	n/a	299.175	AF01ANS.jpg
267.664	0.514	Blank	Blank	73.972	n/a	3	7	20	n/a	20	n/a	3	n/a	n/a	n/a	n/a	299.672	n/a
268.194	10.014	ITI	Fixation+	63.941	n/a	3	n/a	n/a	n/a	n/a	n/a	n/a	n/a	n/a	n/a	n/a	300.203	n/a
278.224	0.497	neutral	Picture	63.428	n/a	3	8	1	n/a	21	28	1	n/a	n/a	n/a	n/a	310.233	AM09NES.jpg
278.722	0.514	Blank	Blank	62.913	n/a	3	8	1	n/a	21	n/a	1	n/a	n/a	n/a	n/a	310.73	n/a
279.252	0.497	neutral	Picture	62.4	n/a	3	8	2	n/a	22	27	1	n/a	n/a	n/a	n/a	311.261	BM08NES.jpg
279.75	0.514	Blank	Blank	61.886	n/a	3	8	2	n/a	22	n/a	1	n/a	n/a	n/a	n/a	311.758	n/a
280.28	0.497	neutral	Picture	61.372	n/a	3	8	3	n/a	23	16	1	n/a	n/a	n/a	n/a	312.289	AF26NES.jpg
280.778	0.514	Blank	Blank	60.858	n/a	3	8	3	n/a	23	n/a	1	n/a	n/a	n/a	n/a	312.786	n/a
281.308	0.497	neutral	Picture	60.344	n/a	3	8	4	n/a	24	3	1	n/a	n/a	n/a	n/a	313.317	BF04NES.jpg
281.805	0.514	Blank	Blank	59.83	n/a	3	8	4	n/a	24	n/a	1	n/a	n/a	n/a	n/a	313.814	n/a
282.336	0.497	neutral	Picture	59.316	n/a	3	8	5	n/a	25	32	1	n/a	n/a	n/a	n/a	314.345	AM14NES.jpg
282.833	0.514	Blank	Blank	58.802	n/a	3	8	5	n/a	25	n/a	1	n/a	n/a	n/a	n/a	314.842	n/a
283.364	0.497	neutral	Picture	58.288	n/a	3	8	6	n/a	26	37	1	n/a	n/a	n/a	n/a	315.373	BM25NES.jpg
283.861	0.514	Blank	Blank	57.774	n/a	3	8	6	n/a	26	n/a	1	n/a	n/a	n/a	n/a	315.87	n/a
284.392	0.497	neutral	Picture	57.26	n/a	3	8	7	n/a	27	15	1	n/a	n/a	n/a	n/a	316.4	AF25NES.jpg
284.889	0.514	Blank	Blank	56.746	n/a	3	8	7	n/a	27	n/a	1	n/a	n/a	n/a	n/a	316.898	n/a
285.42	0.497	neutral	Picture	56.232	n/a	3	8	8	n/a	28	23	1	n/a	n/a	n/a	n/a	317.428	AM04NES.jpg
285.917	0.514	Blank	Blank	55.718	n/a	3	8	8	n/a	28	n/a	1	n/a	n/a	n/a	n/a	317.926	n/a
286.447	0.497	neutral	Picture	55.204	n/a	3	8	9	n/a	29	34	1	n/a	n/a	n/a	n/a	318.456	AM22NES.jpg
286.945	0.514	Blank	Blank	54.69	n/a	3	8	9	n/a	29	n/a	1	n/a	n/a	n/a	n/a	318.954	n/a
287.475	0.497	neutral	Picture	54.176	n/a	3	8	10	n/a	30	24	1	n/a	n/a	n/a	n/a	319.484	BM05NES.jpg
287.973	0.514	Blank	Blank	53.663	n/a	3	8	10	n/a	30	n/a	1	n/a	n/a	n/a	n/a	319.981	n/a
288.503	0.497	neutral	Picture	53.149	n/a	3	8	11	n/a	31	12	1	n/a	n/a	n/a	n/a	320.512	AF21NES.jpg
289.001	0.514	Blank	Blank	52.635	n/a	3	8	11	n/a	31	n/a	1	n/a	n/a	n/a	n/a	321.009	n/a
289.531	0.497	neutral	Picture	52.121	n/a	3	8	12	n/a	32	6	1	n/a	n/a	n/a	n/a	321.54	AF09NES.jpg
290.028	0.514	Blank	Blank	51.607	n/a	3	8	12	n/a	32	n/a	1	n/a	n/a	n/a	n/a	322.037	n/a
290.559	0.497	neutral	Picture	51.093	n/a	3	8	13	n/a	33	17	1	n/a	n/a	n/a	n/a	322.568	BF28NES.jpg
291.056	0.514	Blank	Blank	50.579	n/a	3	8	13	n/a	33	n/a	1	n/a	n/a	n/a	n/a	323.065	n/a
291.587	0.497	neutral	Picture	50.065	n/a	3	8	14	n/a	34	2	1	n/a	n/a	n/a	n/a	323.596	AF03NES.jpg
292.084	0.514	Blank	Blank	49.551	n/a	3	8	14	n/a	34	n/a	1	n/a	n/a	n/a	n/a	324.093	n/a
292.615	0.497	neutral	Picture	49.037	n/a	3	8	15	n/a	35	9	1	n/a	n/a	n/a	n/a	324.623	AF17NES.jpg
293.112	0.514	Blank	Blank	48.523	n/a	3	8	15	n/a	35	n/a	1	n/a	n/a	n/a	n/a	325.121	n/a
293.643	0.497	neutral	Picture	48.009	n/a	3	8	16	n/a	36	25	1	n/a	n/a	n/a	n/a	325.651	BM06NES.jpg
294.14	0.514	Blank	Blank	47.495	n/a	3	8	16	n/a	36	n/a	1	n/a	n/a	n/a	n/a	326.149	n/a
294.671	0.497	neutral	Picture	46.981	n/a	3	8	17	n/a	37	8	1	n/a	n/a	n/a	n/a	326.679	AF14NES.jpg
295.168	0.514	Blank	Blank	46.467	n/a	3	8	17	n/a	37	n/a	1	n/a	n/a	n/a	n/a	327.177	n/a
295.698	0.497	neutral	Picture	45.953	n/a	3	8	18	n/a	38	19	1	n/a	n/a	n/a	n/a	327.707	AF31NES.jpg
296.196	0.514	Blank	Blank	45.439	n/a	3	8	18	n/a	38	n/a	1	n/a	n/a	n/a	n/a	328.204	n/a
296.726	0.497	neutral	Picture	44.926	n/a	3	8	19	n/a	39	14	1	n/a	n/a	n/a	n/a	328.735	AF23NES.jpg
297.224	0.514	Blank	Blank	44.412	n/a	3	8	19	n/a	39	n/a	1	n/a	n/a	n/a	n/a	329.232	n/a
297.754	0.497	neutral	Picture	43.898	n/a	3	8	20	n/a	40	4	1	n/a	n/a	n/a	n/a	329.763	AF05NES.jpg
298.252	0.514	Blank	Blank	43.384	n/a	3	8	20	n/a	40	n/a	1	n/a	n/a	n/a	n/a	330.26	n/a
298.782	10.014	ITI	Fixation+	33.354	n/a	3	n/a	n/a	n/a	n/a	n/a	n/a	n/a	n/a	n/a	n/a	330.791	n/a
308.812	0.497	angry	Picture	32.84	n/a	3	9	1	n/a	41	84	3	n/a	n/a	n/a	n/a	340.821	AF05ANS.jpg
309.31	0.514	Blank	Blank	32.326	n/a	3	9	1	n/a	41	n/a	3	n/a	n/a	n/a	n/a	341.318	n/a
309.84	0.497	angry	Picture	31.812	n/a	3	9	2	n/a	42	92	3	n/a	n/a	n/a	n/a	341.849	AF21ANS.jpg
310.337	0.514	Blank	Blank	31.298	n/a	3	9	2	n/a	42	n/a	3	n/a	n/a	n/a	n/a	342.346	n/a
310.868	0.497	angry	Picture	30.784	n/a	3	9	3	n/a	43	86	3	n/a	n/a	n/a	n/a	342.877	AF09ANS.jpg
311.365	0.514	Blank	Blank	30.27	n/a	3	9	3	n/a	43	n/a	3	n/a	n/a	n/a	n/a	343.374	n/a
311.896	0.497	angry	Picture	29.756	n/a	3	9	4	n/a	44	93	3	n/a	n/a	n/a	n/a	343.904	BF22ANS.jpg
312.393	0.514	Blank	Blank	29.242	n/a	3	9	4	n/a	44	n/a	3	n/a	n/a	n/a	n/a	344.402	n/a
312.924	0.497	angry	Picture	28.728	n/a	3	9	5	n/a	45	88	3	n/a	n/a	n/a	n/a	344.932	AF14ANS.jpg
313.421	0.514	Blank	Blank	28.214	n/a	3	9	5	n/a	45	n/a	3	n/a	n/a	n/a	n/a	345.43	n/a
313.952	0.497	angry	Picture	27.7	n/a	3	9	6	n/a	46	113	3	n/a	n/a	n/a	n/a	345.96	AM21ANS.jpg
314.449	0.514	Blank	Blank	27.186	n/a	3	9	6	n/a	46	n/a	3	n/a	n/a	n/a	n/a	346.458	n/a
314.98	0.497	angry	Picture	26.672	n/a	3	9	7	n/a	47	95	3	n/a	n/a	n/a	n/a	346.988	AF25ANS.jpg
315.477	0.514	Blank	Blank	26.158	n/a	3	9	7	n/a	47	n/a	3	n/a	n/a	n/a	n/a	347.486	n/a
316.007	0.497	angry	Picture	25.644	n/a	3	9	8	n/a	48	102	3	n/a	n/a	n/a	n/a	348.016	BM03ANS.jpg
316.505	0.514	Blank	Blank	25.13	n/a	3	9	8	n/a	48	n/a	3	n/a	n/a	n/a	n/a	348.513	n/a
317.035	0.497	angry	Picture	24.617	n/a	3	9	9	n/a	49	112	3	n/a	n/a	n/a	n/a	349.044	AM14ANS.jpg
317.533	0.514	Blank	Blank	24.103	n/a	3	9	9	n/a	49	n/a	3	n/a	n/a	n/a	n/a	349.541	n/a
318.063	0.497	angry	Picture	23.589	n/a	3	9	10	n/a	50	83	3	n/a	n/a	n/a	n/a	350.072	BF04ANS.jpg
318.561	0.514	Blank	Blank	23.075	n/a	3	9	10	n/a	50	n/a	3	n/a	n/a	n/a	n/a	350.569	n/a
319.091	0.497	angry	Picture	22.561	n/a	3	9	11	n/a	51	90	3	n/a	n/a	n/a	n/a	351.1	AF18ANS.jpg
319.588	0.514	Blank	Blank	22.047	n/a	3	9	11	n/a	51	n/a	3	n/a	n/a	n/a	n/a	351.597	n/a
320.119	0.497	angry	Picture	21.533	n/a	3	9	12	n/a	52	117	3	n/a	n/a	n/a	n/a	352.128	BM25ANS.jpg
320.616	0.514	Blank	Blank	21.019	n/a	3	9	12	n/a	52	n/a	3	n/a	n/a	n/a	n/a	352.625	n/a
321.147	0.497	angry	Picture	20.505	n/a	3	9	13	n/a	53	94	3	n/a	n/a	n/a	n/a	353.156	AF23ANS.jpg
321.644	0.514	Blank	Blank	19.991	n/a	3	9	13	n/a	53	n/a	3	n/a	n/a	n/a	n/a	353.653	n/a
322.175	0.497	angry	Picture	19.477	n/a	3	9	14	n/a	54	106	3	n/a	n/a	n/a	n/a	354.183	AM07ANS.jpg
322.672	0.514	Blank	Blank	18.963	n/a	3	9	14	n/a	54	n/a	3	n/a	n/a	n/a	n/a	354.681	n/a
323.203	0.497	angry	Picture	18.449	n/a	3	9	15	n/a	55	105	3	n/a	n/a	n/a	n/a	355.211	BM06ANS.jpg
323.7	0.514	Blank	Blank	17.935	n/a	3	9	15	n/a	55	n/a	3	n/a	n/a	n/a	n/a	355.709	n/a
324.23	0.497	angry	Picture	17.421	n/a	3	9	16	n/a	56	116	3	n/a	n/a	n/a	n/a	356.239	BM24ANS.jpg
324.728	0.514	Blank	Blank	16.908	n/a	3	9	16	n/a	56	n/a	3	n/a	n/a	n/a	n/a	356.736	n/a
325.258	0.497	angry	Picture	16.393	n/a	3	9	17	n/a	57	89	3	n/a	n/a	n/a	n/a	357.267	AF17ANS.jpg
325.756	0.514	Blank	Blank	15.88	n/a	3	9	17	n/a	57	n/a	3	n/a	n/a	n/a	n/a	357.764	n/a
326.286	0.497	angry	Picture	15.366	n/a	3	9	18	n/a	58	118	3	n/a	n/a	n/a	n/a	358.295	BM26ANS.jpg
326.784	0.514	Blank	Blank	14.852	n/a	3	9	18	n/a	58	n/a	3	n/a	n/a	n/a	n/a	358.792	n/a
327.314	0.497	angry	Picture	14.338	n/a	3	9	19	n/a	59	100	3	n/a	n/a	n/a	n/a	359.323	AF32ANS.jpg
327.811	0.514	Blank	Blank	13.824	n/a	3	9	19	n/a	59	n/a	3	n/a	n/a	n/a	n/a	359.82	n/a
328.342	0.497	angry	Picture	13.31	n/a	3	9	20	n/a	60	119	3	n/a	n/a	n/a	n/a	360.351	BM28ANS.jpg
328.839	0.514	Blank	Blank	12.796	n/a	3	9	20	n/a	60	n/a	3	n/a	n/a	n/a	n/a	360.848	n/a
329.37	10.014	ITI	Fixation+	2.766	n/a	3	n/a	n/a	n/a	n/a	n/a	n/a	n/a	n/a	n/a	n/a	361.379	n/a
342.149	n/a	ConfirmRating	Rate	n/a	2.752	3	n/a	n/a	0	n/a	n/a	n/a	2	Angry	15	47	374.158	n/a
345.613	n/a	ConfirmRating	Rate	n/a	3.448	3	n/a	n/a	1	n/a	n/a	n/a	3	Angry	13	48	377.622	n/a
345.634	10.014	ITI	Fixation+	95.838	n/a	4	n/a	n/a	n/a	n/a	n/a	n/a	n/a	n/a	n/a	n/a	377.642	n/a
355.664	0.497	happy	Picture	95.325	n/a	4	10	1	n/a	61	79	2	n/a	n/a	n/a	n/a	387.673	BM28HAS.jpg
356.161	0.514	Blank	Blank	94.81	n/a	4	10	1	n/a	61	n/a	2	n/a	n/a	n/a	n/a	388.17	n/a
356.692	0.497	happy	Picture	94.297	n/a	4	10	2	n/a	62	61	2	n/a	n/a	n/a	n/a	388.7	AM01HAS.jpg
357.189	0.514	Blank	Blank	93.783	n/a	4	10	2	n/a	62	n/a	2	n/a	n/a	n/a	n/a	389.198	n/a
357.72	0.497	happy	Picture	93.269	n/a	4	10	3	n/a	63	57	2	n/a	n/a	n/a	n/a	389.728	BF28HAS.jpg
358.217	0.514	Blank	Blank	92.755	n/a	4	10	3	n/a	63	n/a	2	n/a	n/a	n/a	n/a	390.226	n/a
358.747	0.497	happy	Picture	92.241	n/a	4	10	4	n/a	64	77	2	n/a	n/a	n/a	n/a	390.756	BM25HAS.jpg
359.245	0.514	Blank	Blank	91.727	n/a	4	10	4	n/a	64	n/a	2	n/a	n/a	n/a	n/a	391.253	n/a
359.775	0.497	happy	Picture	91.213	n/a	4	10	5	n/a	65	47	2	n/a	n/a	n/a	n/a	391.784	BF11HAS.jpg
360.273	0.514	Blank	Blank	90.699	n/a	4	10	5	n/a	65	n/a	2	n/a	n/a	n/a	n/a	392.281	n/a
360.803	0.497	happy	Picture	90.185	n/a	4	10	6	n/a	66	50	2	n/a	n/a	n/a	n/a	392.812	AF18HAS.jpg
361.301	0.514	Blank	Blank	89.671	n/a	4	10	6	n/a	66	n/a	2	n/a	n/a	n/a	n/a	393.309	n/a
361.831	0.497	happy	Picture	89.157	n/a	4	10	7	n/a	67	78	2	n/a	n/a	n/a	n/a	393.84	BM26HAS.jpg
362.328	0.514	Blank	Blank	88.643	n/a	4	10	7	n/a	67	n/a	2	n/a	n/a	n/a	n/a	394.337	n/a
362.859	0.497	happy	Picture	88.129	n/a	4	10	8	n/a	68	45	2	n/a	n/a	n/a	n/a	394.868	BF07HAS.jpg
363.356	0.514	Blank	Blank	87.615	n/a	4	10	8	n/a	68	n/a	2	n/a	n/a	n/a	n/a	395.365	n/a
363.887	0.497	happy	Picture	87.101	n/a	4	10	9	n/a	69	56	2	n/a	n/a	n/a	n/a	395.896	AF26HAS.jpg
364.384	0.514	Blank	Blank	86.588	n/a	4	10	9	n/a	69	n/a	2	n/a	n/a	n/a	n/a	396.393	n/a
364.915	0.497	happy	Picture	86.073	n/a	4	10	10	n/a	70	65	2	n/a	n/a	n/a	n/a	396.923	BM06HAS.jpg
365.412	0.514	Blank	Blank	85.56	n/a	4	10	10	n/a	70	n/a	2	n/a	n/a	n/a	n/a	397.421	n/a
365.943	0.497	happy	Picture	85.046	n/a	4	10	11	n/a	71	73	2	n/a	n/a	n/a	n/a	397.951	AM21HAS.jpg
366.44	0.514	Blank	Blank	84.532	n/a	4	10	11	n/a	71	n/a	2	n/a	n/a	n/a	n/a	398.449	n/a
366.971	0.497	happy	Picture	84.018	n/a	4	10	12	n/a	72	41	2	n/a	n/a	n/a	n/a	398.979	AF01HAS.jpg
367.468	0.514	Blank	Blank	83.504	n/a	4	10	12	n/a	72	n/a	2	n/a	n/a	n/a	n/a	399.476	n/a
367.998	0.497	happy	Picture	82.99	n/a	4	10	13	n/a	73	59	2	n/a	n/a	n/a	n/a	400.007	AF31HAS.jpg
368.496	0.514	Blank	Blank	82.476	n/a	4	10	13	n/a	73	n/a	2	n/a	n/a	n/a	n/a	400.504	n/a
369.026	0.497	happy	Picture	81.962	n/a	4	10	14	n/a	74	64	2	n/a	n/a	n/a	n/a	401.035	BM05HAS.jpg
369.524	0.514	Blank	Blank	81.448	n/a	4	10	14	n/a	74	n/a	2	n/a	n/a	n/a	n/a	401.532	n/a
370.054	0.497	happy	Picture	80.934	n/a	4	10	15	n/a	75	68	2	n/a	n/a	n/a	n/a	402.063	AM09HAS.jpg
370.552	0.514	Blank	Blank	80.42	n/a	4	10	15	n/a	75	n/a	2	n/a	n/a	n/a	n/a	402.56	n/a
371.082	0.497	happy	Picture	79.906	n/a	4	10	16	n/a	76	54	2	n/a	n/a	n/a	n/a	403.091	AF23HAS.jpg
371.579	0.514	Blank	Blank	79.392	n/a	4	10	16	n/a	76	n/a	2	n/a	n/a	n/a	n/a	403.588	n/a
372.11	0.497	happy	Picture	78.878	n/a	4	10	17	n/a	77	53	2	n/a	n/a	n/a	n/a	404.119	BF22HAS.jpg
372.607	0.514	Blank	Blank	78.364	n/a	4	10	17	n/a	77	n/a	2	n/a	n/a	n/a	n/a	404.616	n/a
373.138	0.497	happy	Picture	77.85	n/a	4	10	18	n/a	78	44	2	n/a	n/a	n/a	n/a	405.147	AF05HAS.jpg
373.635	0.514	Blank	Blank	77.337	n/a	4	10	18	n/a	78	n/a	2	n/a	n/a	n/a	n/a	405.644	n/a
374.166	0.497	happy	Picture	76.823	n/a	4	10	19	n/a	79	52	2	n/a	n/a	n/a	n/a	406.174	AF21HAS.jpg
374.663	0.514	Blank	Blank	76.309	n/a	4	10	19	n/a	79	n/a	2	n/a	n/a	n/a	n/a	406.672	n/a
375.194	0.497	happy	Picture	75.795	n/a	4	10	20	n/a	80	62	2	n/a	n/a	n/a	n/a	407.202	BM03HAS.jpg
375.691	0.514	Blank	Blank	75.281	n/a	4	10	20	n/a	80	n/a	2	n/a	n/a	n/a	n/a	407.7	n/a
376.221	10.014	ITI	Fixation+	65.251	n/a	4	n/a	n/a	n/a	n/a	n/a	n/a	n/a	n/a	n/a	n/a	408.23	n/a
386.252	0.497	neutral	Picture	64.737	n/a	4	11	1	n/a	81	23	1	n/a	n/a	n/a	n/a	418.26	AM04NES.jpg
386.749	0.514	Blank	Blank	64.223	n/a	4	11	1	n/a	81	n/a	1	n/a	n/a	n/a	n/a	418.758	n/a
387.28	0.497	neutral	Picture	63.709	n/a	4	11	2	n/a	82	29	1	n/a	n/a	n/a	n/a	419.288	AM10NES.jpg
387.777	0.514	Blank	Blank	63.195	n/a	4	11	2	n/a	82	n/a	1	n/a	n/a	n/a	n/a	419.786	n/a
388.307	0.497	neutral	Picture	62.681	n/a	4	11	3	n/a	83	24	1	n/a	n/a	n/a	n/a	420.316	BM05NES.jpg
388.805	0.514	Blank	Blank	62.167	n/a	4	11	3	n/a	83	n/a	1	n/a	n/a	n/a	n/a	420.813	n/a
389.335	0.497	neutral	Picture	61.653	n/a	4	11	4	n/a	84	12	1	n/a	n/a	n/a	n/a	421.344	AF21NES.jpg
389.833	0.514	Blank	Blank	61.139	n/a	4	11	4	n/a	84	n/a	1	n/a	n/a	n/a	n/a	421.841	n/a
390.363	0.497	neutral	Picture	60.625	n/a	4	11	5	n/a	85	13	1	n/a	n/a	n/a	n/a	422.372	BF22NES.jpg
390.861	0.514	Blank	Blank	60.111	n/a	4	11	5	n/a	85	n/a	1	n/a	n/a	n/a	n/a	422.869	n/a
391.391	0.497	neutral	Picture	59.597	n/a	4	11	6	n/a	86	17	1	n/a	n/a	n/a	n/a	423.4	BF28NES.jpg
391.888	0.514	Blank	Blank	59.083	n/a	4	11	6	n/a	86	n/a	1	n/a	n/a	n/a	n/a	423.897	n/a
392.419	0.497	neutral	Picture	58.569	n/a	4	11	7	n/a	87	4	1	n/a	n/a	n/a	n/a	424.428	AF05NES.jpg
392.916	0.514	Blank	Blank	58.055	n/a	4	11	7	n/a	87	n/a	1	n/a	n/a	n/a	n/a	424.925	n/a
393.446	0.498	neutral	Picture	57.542	n/a	4	11	8	n/a	88	11	1	n/a	n/a	n/a	n/a	425.455	AF20NES.jpg
393.944	0.514	Blank	Blank	57.027	n/a	4	11	8	n/a	88	n/a	1	n/a	n/a	n/a	n/a	425.953	n/a
394.475	0.497	neutral	Picture	56.514	n/a	4	11	9	n/a	89	22	1	n/a	n/a	n/a	n/a	426.483	BM03NES.jpg
394.972	0.514	Blank	Blank	56.0	n/a	4	11	9	n/a	89	n/a	1	n/a	n/a	n/a	n/a	426.981	n/a
395.502	0.497	neutral	Picture	55.486	n/a	4	11	10	n/a	90	15	1	n/a	n/a	n/a	n/a	427.511	AF25NES.jpg
396.0	0.514	Blank	Blank	54.972	n/a	4	11	10	n/a	90	n/a	1	n/a	n/a	n/a	n/a	428.009	n/a
396.53	0.497	neutral	Picture	54.458	n/a	4	11	11	n/a	91	19	1	n/a	n/a	n/a	n/a	428.539	AF31NES.jpg
397.028	0.514	Blank	Blank	53.944	n/a	4	11	11	n/a	91	n/a	1	n/a	n/a	n/a	n/a	429.036	n/a
397.558	0.497	neutral	Picture	53.43	n/a	4	11	12	n/a	92	9	1	n/a	n/a	n/a	n/a	429.567	AF17NES.jpg
398.056	0.514	Blank	Blank	52.916	n/a	4	11	12	n/a	92	n/a	1	n/a	n/a	n/a	n/a	430.064	n/a
398.586	0.497	neutral	Picture	52.402	n/a	4	11	13	n/a	93	14	1	n/a	n/a	n/a	n/a	430.595	AF23NES.jpg
399.084	0.514	Blank	Blank	51.888	n/a	4	11	13	n/a	93	n/a	1	n/a	n/a	n/a	n/a	431.092	n/a
399.614	0.497	neutral	Picture	51.374	n/a	4	11	14	n/a	94	36	1	n/a	n/a	n/a	n/a	431.623	BM24NES.jpg
400.111	0.514	Blank	Blank	50.86	n/a	4	11	14	n/a	94	n/a	1	n/a	n/a	n/a	n/a	432.12	n/a
400.642	0.497	neutral	Picture	50.346	n/a	4	11	15	n/a	95	34	1	n/a	n/a	n/a	n/a	432.651	AM22NES.jpg
401.139	0.514	Blank	Blank	49.832	n/a	4	11	15	n/a	95	n/a	1	n/a	n/a	n/a	n/a	433.148	n/a
401.67	0.497	neutral	Picture	49.318	n/a	4	11	16	n/a	96	10	1	n/a	n/a	n/a	n/a	433.678	AF18NES.jpg
402.167	0.514	Blank	Blank	48.805	n/a	4	11	16	n/a	96	n/a	1	n/a	n/a	n/a	n/a	434.176	n/a
402.698	0.497	neutral	Picture	48.291	n/a	4	11	17	n/a	97	5	1	n/a	n/a	n/a	n/a	434.706	BF07NES.jpg
403.195	0.514	Blank	Blank	47.777	n/a	4	11	17	n/a	97	n/a	1	n/a	n/a	n/a	n/a	435.204	n/a
403.726	0.497	neutral	Picture	47.263	n/a	4	11	18	n/a	98	25	1	n/a	n/a	n/a	n/a	435.734	BM06NES.jpg
404.223	0.514	Blank	Blank	46.749	n/a	4	11	18	n/a	98	n/a	1	n/a	n/a	n/a	n/a	436.232	n/a
404.754	0.497	neutral	Picture	46.235	n/a	4	11	19	n/a	99	39	1	n/a	n/a	n/a	n/a	436.762	AM28NES.jpg
405.251	0.514	Blank	Blank	45.721	n/a	4	11	19	n/a	99	n/a	1	n/a	n/a	n/a	n/a	437.26	n/a
405.781	0.497	neutral	Picture	45.207	n/a	4	11	20	n/a	100	33	1	n/a	n/a	n/a	n/a	437.79	AM21NES.jpg
406.279	0.514	Blank	Blank	44.693	n/a	4	11	20	n/a	100	n/a	1	n/a	n/a	n/a	n/a	438.287	n/a
406.809	10.014	ITI	Fixation+	34.663	n/a	4	n/a	n/a	n/a	n/a	n/a	n/a	n/a	n/a	n/a	n/a	438.818	n/a
416.839	0.497	happy	Picture	34.149	n/a	4	12	1	n/a	101	74	2	n/a	n/a	n/a	n/a	448.848	AM22HAS.jpg
417.337	0.514	Blank	Blank	33.635	n/a	4	12	1	n/a	101	n/a	2	n/a	n/a	n/a	n/a	449.346	n/a
417.867	0.497	happy	Picture	33.121	n/a	4	12	2	n/a	102	76	2	n/a	n/a	n/a	n/a	449.876	BM24HAS.jpg
418.365	0.514	Blank	Blank	32.607	n/a	4	12	2	n/a	102	n/a	2	n/a	n/a	n/a	n/a	450.373	n/a
418.895	0.497	happy	Picture	32.093	n/a	4	12	3	n/a	103	80	2	n/a	n/a	n/a	n/a	450.904	BM35HAS.jpg
419.393	0.514	Blank	Blank	31.579	n/a	4	12	3	n/a	103	n/a	2	n/a	n/a	n/a	n/a	451.401	n/a
419.923	0.497	happy	Picture	31.065	n/a	4	12	4	n/a	104	75	2	n/a	n/a	n/a	n/a	451.932	AM23HAS.jpg
420.42	0.514	Blank	Blank	30.551	n/a	4	12	4	n/a	104	n/a	2	n/a	n/a	n/a	n/a	452.429	n/a
420.951	0.497	happy	Picture	30.037	n/a	4	12	5	n/a	105	49	2	n/a	n/a	n/a	n/a	452.96	AF17HAS.jpg
421.448	0.514	Blank	Blank	29.523	n/a	4	12	5	n/a	105	n/a	2	n/a	n/a	n/a	n/a	453.457	n/a
421.979	0.497	happy	Picture	29.009	n/a	4	12	6	n/a	106	43	2	n/a	n/a	n/a	n/a	453.988	BF04HAS.jpg
422.476	0.514	Blank	Blank	28.496	n/a	4	12	6	n/a	106	n/a	2	n/a	n/a	n/a	n/a	454.485	n/a
423.007	0.497	happy	Picture	27.981	n/a	4	12	7	n/a	107	70	2	n/a	n/a	n/a	n/a	455.015	BM11HAS.jpg
423.504	0.514	Blank	Blank	27.468	n/a	4	12	7	n/a	107	n/a	2	n/a	n/a	n/a	n/a	455.513	n/a
424.035	0.497	happy	Picture	26.954	n/a	4	12	8	n/a	108	66	2	n/a	n/a	n/a	n/a	456.043	BM07HAS.jpg
424.532	0.514	Blank	Blank	26.44	n/a	4	12	8	n/a	108	n/a	2	n/a	n/a	n/a	n/a	456.541	n/a
425.063	0.497	happy	Picture	25.926	n/a	4	12	9	n/a	109	48	2	n/a	n/a	n/a	n/a	457.071	AF14HAS.jpg
425.56	0.514	Blank	Blank	25.412	n/a	4	12	9	n/a	109	n/a	2	n/a	n/a	n/a	n/a	457.568	n/a
426.09	0.497	happy	Picture	24.898	n/a	4	12	10	n/a	110	58	2	n/a	n/a	n/a	n/a	458.099	BF29HAS.jpg
426.588	0.514	Blank	Blank	24.384	n/a	4	12	10	n/a	110	n/a	2	n/a	n/a	n/a	n/a	458.596	n/a
427.118	0.497	happy	Picture	23.87	n/a	4	12	11	n/a	111	63	2	n/a	n/a	n/a	n/a	459.127	AM04HAS.jpg
427.616	0.514	Blank	Blank	23.356	n/a	4	12	11	n/a	111	n/a	2	n/a	n/a	n/a	n/a	459.624	n/a
428.146	0.497	happy	Picture	22.842	n/a	4	12	12	n/a	112	72	2	n/a	n/a	n/a	n/a	460.155	AM14HAS.jpg
428.644	0.514	Blank	Blank	22.328	n/a	4	12	12	n/a	112	n/a	2	n/a	n/a	n/a	n/a	460.652	n/a
429.174	0.497	happy	Picture	21.814	n/a	4	12	13	n/a	113	55	2	n/a	n/a	n/a	n/a	461.183	AF25HAS.jpg
429.671	0.514	Blank	Blank	21.3	n/a	4	12	13	n/a	113	n/a	2	n/a	n/a	n/a	n/a	461.68	n/a
430.202	0.497	happy	Picture	20.786	n/a	4	12	14	n/a	114	42	2	n/a	n/a	n/a	n/a	462.211	AF03HAS.jpg
430.699	0.514	Blank	Blank	20.272	n/a	4	12	14	n/a	114	n/a	2	n/a	n/a	n/a	n/a	462.708	n/a
431.23	0.497	happy	Picture	19.759	n/a	4	12	15	n/a	115	60	2	n/a	n/a	n/a	n/a	463.238	AF32HAS.jpg
431.727	0.514	Blank	Blank	19.245	n/a	4	12	15	n/a	115	n/a	2	n/a	n/a	n/a	n/a	463.736	n/a
432.258	0.497	happy	Picture	18.731	n/a	4	12	16	n/a	116	67	2	n/a	n/a	n/a	n/a	464.266	BM08HAS.jpg
432.755	0.514	Blank	Blank	18.217	n/a	4	12	16	n/a	116	n/a	2	n/a	n/a	n/a	n/a	464.764	n/a
433.286	0.497	happy	Picture	17.703	n/a	4	12	17	n/a	117	51	2	n/a	n/a	n/a	n/a	465.294	AF20HAS.jpg
433.783	0.514	Blank	Blank	17.189	n/a	4	12	17	n/a	117	n/a	2	n/a	n/a	n/a	n/a	465.792	n/a
434.313	0.497	happy	Picture	16.675	n/a	4	12	18	n/a	118	71	2	n/a	n/a	n/a	n/a	466.322	BM12HAS.jpg
434.811	0.514	Blank	Blank	16.161	n/a	4	12	18	n/a	118	n/a	2	n/a	n/a	n/a	n/a	466.82	n/a
435.341	0.497	happy	Picture	15.647	n/a	4	12	19	n/a	119	69	2	n/a	n/a	n/a	n/a	467.35	AM10HAS.jpg
435.839	0.514	Blank	Blank	15.133	n/a	4	12	19	n/a	119	n/a	2	n/a	n/a	n/a	n/a	467.847	n/a
436.369	0.497	happy	Picture	14.619	n/a	4	12	20	n/a	120	46	2	n/a	n/a	n/a	n/a	468.378	AF09HAS.jpg
436.867	0.514	Blank	Blank	14.105	n/a	4	12	20	n/a	120	n/a	2	n/a	n/a	n/a	n/a	468.875	n/a
437.397	10.014	ITI	Fixation+	4.075	n/a	4	n/a	n/a	n/a	n/a	n/a	n/a	n/a	n/a	n/a	n/a	469.406	n/a
451.486	n/a	ConfirmRating	Rate	n/a	4.061	4	n/a	n/a	0	n/a	n/a	n/a	2	Happy	11	48	483.494	n/a
453.919	n/a	ConfirmRating	Rate	n/a	2.42	4	n/a	n/a	1	n/a	n/a	n/a	3	Happy	7	48	485.927	n/a
