onset	duration	trial_type	event_type	time_until_response	response_time	trial_number	block_num_within_trial	image_seq_num_within_block	question_seq_num_within_block	image_seq_num	picture_number	condition	question_type	block_type	rating	rating_computed	onset_uncorrected	KDEV_imagefile
0.018	10.014	ITI	Fixation+	98.059	n/a	1	n/a	n/a	n/a	n/a	n/a	n/a	n/a	n/a	n/a	n/a	30.898	n/a
10.048	0.497	angry	Picture	97.545	n/a	1	1	1	n/a	1	46	2	n/a	n/a	n/a	n/a	40.928	AF09HAS.jpg
10.546	0.514	Blank	Blank	97.031	n/a	1	1	1	n/a	1	n/a	2	n/a	n/a	n/a	n/a	41.425	n/a
11.076	0.497	angry	Picture	96.517	n/a	1	1	2	n/a	2	69	2	n/a	n/a	n/a	n/a	41.956	AM10HAS.jpg
11.574	0.514	Blank	Blank	96.003	n/a	1	1	2	n/a	2	n/a	2	n/a	n/a	n/a	n/a	42.453	n/a
12.104	0.497	angry	Picture	95.489	n/a	1	1	3	n/a	3	71	2	n/a	n/a	n/a	n/a	42.984	BM12HAS.jpg
12.601	0.514	Blank	Blank	94.975	n/a	1	1	3	n/a	3	n/a	2	n/a	n/a	n/a	n/a	43.481	n/a
13.132	0.497	angry	Picture	94.461	n/a	1	1	4	n/a	4	51	2	n/a	n/a	n/a	n/a	44.012	AF20HAS.jpg
13.629	0.514	Blank	Blank	93.947	n/a	1	1	4	n/a	4	n/a	2	n/a	n/a	n/a	n/a	44.509	n/a
14.16	0.497	angry	Picture	93.433	n/a	1	1	5	n/a	5	67	2	n/a	n/a	n/a	n/a	45.039	BM08HAS.jpg
14.657	0.514	Blank	Blank	92.919	n/a	1	1	5	n/a	5	n/a	2	n/a	n/a	n/a	n/a	45.537	n/a
15.188	0.497	angry	Picture	92.405	n/a	1	1	6	n/a	6	60	2	n/a	n/a	n/a	n/a	46.067	AF32HAS.jpg
15.685	0.514	Blank	Blank	91.891	n/a	1	1	6	n/a	6	n/a	2	n/a	n/a	n/a	n/a	46.565	n/a
16.215	0.497	angry	Picture	91.377	n/a	1	1	7	n/a	7	42	2	n/a	n/a	n/a	n/a	47.095	AF03HAS.jpg
16.713	0.514	Blank	Blank	90.864	n/a	1	1	7	n/a	7	n/a	2	n/a	n/a	n/a	n/a	47.593	n/a
17.243	0.497	angry	Picture	90.35	n/a	1	1	8	n/a	8	55	2	n/a	n/a	n/a	n/a	48.123	AF25HAS.jpg
17.741	0.514	Blank	Blank	89.836	n/a	1	1	8	n/a	8	n/a	2	n/a	n/a	n/a	n/a	48.62	n/a
18.271	0.497	angry	Picture	89.322	n/a	1	1	9	n/a	9	72	2	n/a	n/a	n/a	n/a	49.151	AM14HAS.jpg
18.769	0.514	Blank	Blank	88.808	n/a	1	1	9	n/a	9	n/a	2	n/a	n/a	n/a	n/a	49.648	n/a
19.299	0.497	angry	Picture	88.294	n/a	1	1	10	n/a	10	63	2	n/a	n/a	n/a	n/a	50.179	AM04HAS.jpg
19.797	0.514	Blank	Blank	87.78	n/a	1	1	10	n/a	10	n/a	2	n/a	n/a	n/a	n/a	50.676	n/a
20.327	0.497	angry	Picture	87.266	n/a	1	1	11	n/a	11	58	2	n/a	n/a	n/a	n/a	51.207	BF29HAS.jpg
20.825	0.514	Blank	Blank	86.752	n/a	1	1	11	n/a	11	n/a	2	n/a	n/a	n/a	n/a	51.704	n/a
21.355	0.497	angry	Picture	86.238	n/a	1	1	12	n/a	12	48	2	n/a	n/a	n/a	n/a	52.235	AF14HAS.jpg
21.852	0.514	Blank	Blank	85.724	n/a	1	1	12	n/a	12	n/a	2	n/a	n/a	n/a	n/a	52.732	n/a
22.383	0.497	angry	Picture	85.21	n/a	1	1	13	n/a	13	66	2	n/a	n/a	n/a	n/a	53.263	BM07HAS.jpg
22.88	0.514	Blank	Blank	84.696	n/a	1	1	13	n/a	13	n/a	2	n/a	n/a	n/a	n/a	53.76	n/a
23.411	0.497	angry	Picture	84.182	n/a	1	1	14	n/a	14	70	2	n/a	n/a	n/a	n/a	54.291	BM11HAS.jpg
23.908	0.514	Blank	Blank	83.668	n/a	1	1	14	n/a	14	n/a	2	n/a	n/a	n/a	n/a	54.788	n/a
24.439	0.497	angry	Picture	83.154	n/a	1	1	15	n/a	15	43	2	n/a	n/a	n/a	n/a	55.318	BF04HAS.jpg
24.936	0.514	Blank	Blank	82.64	n/a	1	1	15	n/a	15	n/a	2	n/a	n/a	n/a	n/a	55.816	n/a
25.467	0.497	angry	Picture	82.127	n/a	1	1	16	n/a	16	49	2	n/a	n/a	n/a	n/a	56.346	AF17HAS.jpg
25.964	0.514	Blank	Blank	81.612	n/a	1	1	16	n/a	16	n/a	2	n/a	n/a	n/a	n/a	56.844	n/a
26.494	0.497	angry	Picture	81.099	n/a	1	1	17	n/a	17	75	2	n/a	n/a	n/a	n/a	57.374	AM23HAS.jpg
26.992	0.514	Blank	Blank	80.585	n/a	1	1	17	n/a	17	n/a	2	n/a	n/a	n/a	n/a	57.871	n/a
27.522	0.497	angry	Picture	80.071	n/a	1	1	18	n/a	18	80	2	n/a	n/a	n/a	n/a	58.402	BM35HAS.jpg
28.02	0.514	Blank	Blank	79.557	n/a	1	1	18	n/a	18	n/a	2	n/a	n/a	n/a	n/a	58.899	n/a
28.55	0.497	angry	Picture	79.043	n/a	1	1	19	n/a	19	76	2	n/a	n/a	n/a	n/a	59.43	BM24HAS.jpg
29.048	0.514	Blank	Blank	78.529	n/a	1	1	19	n/a	19	n/a	2	n/a	n/a	n/a	n/a	59.927	n/a
29.578	0.497	angry	Picture	78.015	n/a	1	1	20	n/a	20	74	2	n/a	n/a	n/a	n/a	60.458	AM22HAS.jpg
30.075	0.514	Blank	Blank	77.501	n/a	1	1	20	n/a	20	n/a	2	n/a	n/a	n/a	n/a	60.955	n/a
30.606	10.014	ITI	Fixation+	67.471	n/a	1	n/a	n/a	n/a	n/a	n/a	n/a	n/a	n/a	n/a	n/a	61.486	n/a
40.636	0.497	neutral	Picture	66.957	n/a	1	2	1	n/a	21	33	1	n/a	n/a	n/a	n/a	71.516	AM21NES.jpg
41.134	0.514	Blank	Blank	66.443	n/a	1	2	1	n/a	21	n/a	1	n/a	n/a	n/a	n/a	72.013	n/a
41.664	0.497	neutral	Picture	65.929	n/a	1	2	2	n/a	22	39	1	n/a	n/a	n/a	n/a	72.544	AM28NES.jpg
42.162	0.514	Blank	Blank	65.415	n/a	1	2	2	n/a	22	n/a	1	n/a	n/a	n/a	n/a	73.041	n/a
42.692	0.497	neutral	Picture	64.901	n/a	1	2	3	n/a	23	25	1	n/a	n/a	n/a	n/a	73.572	BM06NES.jpg
43.189	0.514	Blank	Blank	64.387	n/a	1	2	3	n/a	23	n/a	1	n/a	n/a	n/a	n/a	74.069	n/a
43.72	0.497	neutral	Picture	63.873	n/a	1	2	4	n/a	24	5	1	n/a	n/a	n/a	n/a	74.6	BF07NES.jpg
44.217	0.514	Blank	Blank	63.359	n/a	1	2	4	n/a	24	n/a	1	n/a	n/a	n/a	n/a	75.097	n/a
44.748	0.497	neutral	Picture	62.845	n/a	1	2	5	n/a	25	10	1	n/a	n/a	n/a	n/a	75.627	AF18NES.jpg
45.245	0.514	Blank	Blank	62.331	n/a	1	2	5	n/a	25	n/a	1	n/a	n/a	n/a	n/a	76.125	n/a
45.776	0.497	neutral	Picture	61.817	n/a	1	2	6	n/a	26	34	1	n/a	n/a	n/a	n/a	76.655	AM22NES.jpg
46.273	0.514	Blank	Blank	61.303	n/a	1	2	6	n/a	26	n/a	1	n/a	n/a	n/a	n/a	77.153	n/a
46.804	0.497	neutral	Picture	60.789	n/a	1	2	7	n/a	27	36	1	n/a	n/a	n/a	n/a	77.683	BM24NES.jpg
47.301	0.514	Blank	Blank	60.276	n/a	1	2	7	n/a	27	n/a	1	n/a	n/a	n/a	n/a	78.181	n/a
47.832	0.497	neutral	Picture	59.762	n/a	1	2	8	n/a	28	14	1	n/a	n/a	n/a	n/a	78.711	AF23NES.jpg
48.329	0.514	Blank	Blank	59.248	n/a	1	2	8	n/a	28	n/a	1	n/a	n/a	n/a	n/a	79.209	n/a
48.859	0.497	neutral	Picture	58.734	n/a	1	2	9	n/a	29	9	1	n/a	n/a	n/a	n/a	79.739	AF17NES.jpg
49.357	0.514	Blank	Blank	58.22	n/a	1	2	9	n/a	29	n/a	1	n/a	n/a	n/a	n/a	80.236	n/a
49.887	0.497	neutral	Picture	57.706	n/a	1	2	10	n/a	30	19	1	n/a	n/a	n/a	n/a	80.767	AF31NES.jpg
50.385	0.514	Blank	Blank	57.192	n/a	1	2	10	n/a	30	n/a	1	n/a	n/a	n/a	n/a	81.264	n/a
50.915	0.497	neutral	Picture	56.678	n/a	1	2	11	n/a	31	15	1	n/a	n/a	n/a	n/a	81.795	AF25NES.jpg
51.412	0.514	Blank	Blank	56.164	n/a	1	2	11	n/a	31	n/a	1	n/a	n/a	n/a	n/a	82.292	n/a
51.943	0.497	neutral	Picture	55.65	n/a	1	2	12	n/a	32	22	1	n/a	n/a	n/a	n/a	82.823	BM03NES.jpg
52.44	0.514	Blank	Blank	55.136	n/a	1	2	12	n/a	32	n/a	1	n/a	n/a	n/a	n/a	83.32	n/a
52.971	0.497	neutral	Picture	54.622	n/a	1	2	13	n/a	33	11	1	n/a	n/a	n/a	n/a	83.851	AF20NES.jpg
53.468	0.514	Blank	Blank	54.108	n/a	1	2	13	n/a	33	n/a	1	n/a	n/a	n/a	n/a	84.348	n/a
53.999	0.497	neutral	Picture	53.594	n/a	1	2	14	n/a	34	4	1	n/a	n/a	n/a	n/a	84.879	AF05NES.jpg
54.496	0.514	Blank	Blank	53.08	n/a	1	2	14	n/a	34	n/a	1	n/a	n/a	n/a	n/a	85.376	n/a
55.027	0.497	neutral	Picture	52.566	n/a	1	2	15	n/a	35	17	1	n/a	n/a	n/a	n/a	85.906	BF28NES.jpg
55.524	0.514	Blank	Blank	52.052	n/a	1	2	15	n/a	35	n/a	1	n/a	n/a	n/a	n/a	86.404	n/a
56.055	0.497	neutral	Picture	51.539	n/a	1	2	16	n/a	36	13	1	n/a	n/a	n/a	n/a	86.934	BF22NES.jpg
56.552	0.514	Blank	Blank	51.024	n/a	1	2	16	n/a	36	n/a	1	n/a	n/a	n/a	n/a	87.432	n/a
57.082	0.497	neutral	Picture	50.511	n/a	1	2	17	n/a	37	12	1	n/a	n/a	n/a	n/a	87.962	AF21NES.jpg
57.58	0.514	Blank	Blank	49.997	n/a	1	2	17	n/a	37	n/a	1	n/a	n/a	n/a	n/a	88.46	n/a
58.11	0.497	neutral	Picture	49.483	n/a	1	2	18	n/a	38	24	1	n/a	n/a	n/a	n/a	88.99	BM05NES.jpg
58.608	0.514	Blank	Blank	48.969	n/a	1	2	18	n/a	38	n/a	1	n/a	n/a	n/a	n/a	89.487	n/a
59.138	0.497	neutral	Picture	48.455	n/a	1	2	19	n/a	39	29	1	n/a	n/a	n/a	n/a	90.018	AM10NES.jpg
59.636	0.514	Blank	Blank	47.941	n/a	1	2	19	n/a	39	n/a	1	n/a	n/a	n/a	n/a	90.515	n/a
60.166	0.497	neutral	Picture	47.427	n/a	1	2	20	n/a	40	23	1	n/a	n/a	n/a	n/a	91.046	AM04NES.jpg
60.663	0.514	Blank	Blank	46.913	n/a	1	2	20	n/a	40	n/a	1	n/a	n/a	n/a	n/a	91.543	n/a
61.194	10.014	ITI	Fixation+	36.883	n/a	1	n/a	n/a	n/a	n/a	n/a	n/a	n/a	n/a	n/a	n/a	92.074	n/a
71.224	0.497	angry	Picture	36.369	n/a	1	3	1	n/a	41	62	2	n/a	n/a	n/a	n/a	102.104	BM03HAS.jpg
71.722	0.514	Blank	Blank	35.855	n/a	1	3	1	n/a	41	n/a	2	n/a	n/a	n/a	n/a	102.601	n/a
72.252	0.497	angry	Picture	35.341	n/a	1	3	2	n/a	42	52	2	n/a	n/a	n/a	n/a	103.132	AF21HAS.jpg
72.749	0.514	Blank	Blank	34.827	n/a	1	3	2	n/a	42	n/a	2	n/a	n/a	n/a	n/a	103.629	n/a
73.28	0.497	angry	Picture	34.313	n/a	1	3	3	n/a	43	44	2	n/a	n/a	n/a	n/a	104.16	AF05HAS.jpg
73.777	0.514	Blank	Blank	33.799	n/a	1	3	3	n/a	43	n/a	2	n/a	n/a	n/a	n/a	104.657	n/a
74.308	0.497	angry	Picture	33.285	n/a	1	3	4	n/a	44	53	2	n/a	n/a	n/a	n/a	105.188	BF22HAS.jpg
74.805	0.514	Blank	Blank	32.771	n/a	1	3	4	n/a	44	n/a	2	n/a	n/a	n/a	n/a	105.685	n/a
75.336	0.497	angry	Picture	32.257	n/a	1	3	5	n/a	45	54	2	n/a	n/a	n/a	n/a	106.216	AF23HAS.jpg
75.833	0.514	Blank	Blank	31.743	n/a	1	3	5	n/a	45	n/a	2	n/a	n/a	n/a	n/a	106.713	n/a
76.364	0.497	angry	Picture	31.229	n/a	1	3	6	n/a	46	68	2	n/a	n/a	n/a	n/a	107.243	AM09HAS.jpg
76.861	0.514	Blank	Blank	30.715	n/a	1	3	6	n/a	46	n/a	2	n/a	n/a	n/a	n/a	107.741	n/a
77.392	0.497	angry	Picture	30.201	n/a	1	3	7	n/a	47	64	2	n/a	n/a	n/a	n/a	108.271	BM05HAS.jpg
77.889	0.514	Blank	Blank	29.688	n/a	1	3	7	n/a	47	n/a	2	n/a	n/a	n/a	n/a	108.769	n/a
78.419	0.497	angry	Picture	29.174	n/a	1	3	8	n/a	48	59	2	n/a	n/a	n/a	n/a	109.299	AF31HAS.jpg
78.917	0.514	Blank	Blank	28.66	n/a	1	3	8	n/a	48	n/a	2	n/a	n/a	n/a	n/a	109.796	n/a
79.447	0.497	angry	Picture	28.146	n/a	1	3	9	n/a	49	41	2	n/a	n/a	n/a	n/a	110.327	AF01HAS.jpg
79.945	0.514	Blank	Blank	27.632	n/a	1	3	9	n/a	49	n/a	2	n/a	n/a	n/a	n/a	110.824	n/a
80.475	0.497	angry	Picture	27.118	n/a	1	3	10	n/a	50	73	2	n/a	n/a	n/a	n/a	111.355	AM21HAS.jpg
80.973	0.514	Blank	Blank	26.604	n/a	1	3	10	n/a	50	n/a	2	n/a	n/a	n/a	n/a	111.852	n/a
81.503	0.497	angry	Picture	26.09	n/a	1	3	11	n/a	51	65	2	n/a	n/a	n/a	n/a	112.383	BM06HAS.jpg
82.001	0.514	Blank	Blank	25.576	n/a	1	3	11	n/a	51	n/a	2	n/a	n/a	n/a	n/a	112.88	n/a
82.531	0.497	angry	Picture	25.062	n/a	1	3	12	n/a	52	56	2	n/a	n/a	n/a	n/a	113.411	AF26HAS.jpg
83.028	0.514	Blank	Blank	24.548	n/a	1	3	12	n/a	52	n/a	2	n/a	n/a	n/a	n/a	113.908	n/a
83.559	0.497	angry	Picture	24.034	n/a	1	3	13	n/a	53	45	2	n/a	n/a	n/a	n/a	114.439	BF07HAS.jpg
84.056	0.514	Blank	Blank	23.52	n/a	1	3	13	n/a	53	n/a	2	n/a	n/a	n/a	n/a	114.936	n/a
84.587	0.497	angry	Picture	23.006	n/a	1	3	14	n/a	54	78	2	n/a	n/a	n/a	n/a	115.466	BM26HAS.jpg
85.084	0.514	Blank	Blank	22.492	n/a	1	3	14	n/a	54	n/a	2	n/a	n/a	n/a	n/a	115.964	n/a
85.615	0.497	angry	Picture	21.978	n/a	1	3	15	n/a	55	50	2	n/a	n/a	n/a	n/a	116.494	AF18HAS.jpg
86.112	0.514	Blank	Blank	21.464	n/a	1	3	15	n/a	55	n/a	2	n/a	n/a	n/a	n/a	116.992	n/a
86.643	0.497	angry	Picture	20.95	n/a	1	3	16	n/a	56	47	2	n/a	n/a	n/a	n/a	117.522	BF11HAS.jpg
87.14	0.514	Blank	Blank	20.436	n/a	1	3	16	n/a	56	n/a	2	n/a	n/a	n/a	n/a	118.02	n/a
87.671	0.497	angry	Picture	19.922	n/a	1	3	17	n/a	57	77	2	n/a	n/a	n/a	n/a	118.55	BM25HAS.jpg
88.168	0.514	Blank	Blank	19.409	n/a	1	3	17	n/a	57	n/a	2	n/a	n/a	n/a	n/a	119.048	n/a
88.698	0.497	angry	Picture	18.895	n/a	1	3	18	n/a	58	57	2	n/a	n/a	n/a	n/a	119.578	BF28HAS.jpg
89.196	0.514	Blank	Blank	18.381	n/a	1	3	18	n/a	58	n/a	2	n/a	n/a	n/a	n/a	120.075	n/a
89.726	0.497	angry	Picture	17.867	n/a	1	3	19	n/a	59	61	2	n/a	n/a	n/a	n/a	120.606	AM01HAS.jpg
90.224	0.514	Blank	Blank	17.353	n/a	1	3	19	n/a	59	n/a	2	n/a	n/a	n/a	n/a	121.103	n/a
90.754	0.497	angry	Picture	16.839	n/a	1	3	20	n/a	60	79	2	n/a	n/a	n/a	n/a	121.634	BM28HAS.jpg
91.252	0.514	Blank	Blank	16.325	n/a	1	3	20	n/a	60	n/a	2	n/a	n/a	n/a	n/a	122.131	n/a
91.782	10.014	ITI	Fixation+	6.295	n/a	1	n/a	n/a	n/a	n/a	n/a	n/a	n/a	n/a	n/a	n/a	122.662	n/a
108.09	n/a	ConfirmRating	Rate	n/a	6.283	1	n/a	n/a	0	n/a	n/a	n/a	2	Angry	75	51	138.97	n/a
122.493	n/a	ConfirmRating	Rate	n/a	14.39	1	n/a	n/a	1	n/a	n/a	n/a	3	Angry	31	49	153.373	n/a
122.519	10.014	ITI	Fixation+	95.874	n/a	2	n/a	n/a	n/a	n/a	n/a	n/a	n/a	n/a	n/a	n/a	153.399	n/a
132.55	0.497	happy	Picture	95.36	n/a	2	4	1	n/a	61	119	3	n/a	n/a	n/a	n/a	163.429	BM28ANS.jpg
133.047	0.514	Blank	Blank	94.846	n/a	2	4	1	n/a	61	n/a	3	n/a	n/a	n/a	n/a	163.927	n/a
133.577	0.497	happy	Picture	94.332	n/a	2	4	2	n/a	62	100	3	n/a	n/a	n/a	n/a	164.457	AF32ANS.jpg
134.075	0.514	Blank	Blank	93.819	n/a	2	4	2	n/a	62	n/a	3	n/a	n/a	n/a	n/a	164.954	n/a
134.605	0.497	happy	Picture	93.305	n/a	2	4	3	n/a	63	118	3	n/a	n/a	n/a	n/a	165.485	BM26ANS.jpg
135.103	0.514	Blank	Blank	92.791	n/a	2	4	3	n/a	63	n/a	3	n/a	n/a	n/a	n/a	165.982	n/a
135.633	0.497	happy	Picture	92.277	n/a	2	4	4	n/a	64	89	3	n/a	n/a	n/a	n/a	166.513	AF17ANS.jpg
136.13	0.514	Blank	Blank	91.763	n/a	2	4	4	n/a	64	n/a	3	n/a	n/a	n/a	n/a	167.01	n/a
136.661	0.497	happy	Picture	91.249	n/a	2	4	5	n/a	65	116	3	n/a	n/a	n/a	n/a	167.541	BM24ANS.jpg
137.158	0.514	Blank	Blank	90.735	n/a	2	4	5	n/a	65	n/a	3	n/a	n/a	n/a	n/a	168.038	n/a
137.689	0.497	happy	Picture	90.221	n/a	2	4	6	n/a	66	105	3	n/a	n/a	n/a	n/a	168.569	BM06ANS.jpg
138.186	0.514	Blank	Blank	89.707	n/a	2	4	6	n/a	66	n/a	3	n/a	n/a	n/a	n/a	169.066	n/a
138.717	0.497	happy	Picture	89.193	n/a	2	4	7	n/a	67	106	3	n/a	n/a	n/a	n/a	169.596	AM07ANS.jpg
139.214	0.514	Blank	Blank	88.679	n/a	2	4	7	n/a	67	n/a	3	n/a	n/a	n/a	n/a	170.094	n/a
139.745	0.497	happy	Picture	88.165	n/a	2	4	8	n/a	68	94	3	n/a	n/a	n/a	n/a	170.624	AF23ANS.jpg
140.242	0.514	Blank	Blank	87.651	n/a	2	4	8	n/a	68	n/a	3	n/a	n/a	n/a	n/a	171.122	n/a
140.773	0.497	happy	Picture	87.137	n/a	2	4	9	n/a	69	117	3	n/a	n/a	n/a	n/a	171.652	BM25ANS.jpg
141.27	0.514	Blank	Blank	86.623	n/a	2	4	9	n/a	69	n/a	3	n/a	n/a	n/a	n/a	172.15	n/a
141.8	0.497	happy	Picture	86.109	n/a	2	4	10	n/a	70	90	3	n/a	n/a	n/a	n/a	172.68	AF18ANS.jpg
142.298	0.514	Blank	Blank	85.595	n/a	2	4	10	n/a	70	n/a	3	n/a	n/a	n/a	n/a	173.178	n/a
142.828	0.497	happy	Picture	85.081	n/a	2	4	11	n/a	71	83	3	n/a	n/a	n/a	n/a	173.708	BF04ANS.jpg
143.326	0.514	Blank	Blank	84.567	n/a	2	4	11	n/a	71	n/a	3	n/a	n/a	n/a	n/a	174.206	n/a
143.856	0.497	happy	Picture	84.054	n/a	2	4	12	n/a	72	112	3	n/a	n/a	n/a	n/a	174.736	AM14ANS.jpg
144.354	0.514	Blank	Blank	83.54	n/a	2	4	12	n/a	72	n/a	3	n/a	n/a	n/a	n/a	175.233	n/a
144.884	0.497	happy	Picture	83.026	n/a	2	4	13	n/a	73	102	3	n/a	n/a	n/a	n/a	175.764	BM03ANS.jpg
145.382	0.514	Blank	Blank	82.512	n/a	2	4	13	n/a	73	n/a	3	n/a	n/a	n/a	n/a	176.261	n/a
145.912	0.497	happy	Picture	81.998	n/a	2	4	14	n/a	74	95	3	n/a	n/a	n/a	n/a	176.792	AF25ANS.jpg
146.409	0.514	Blank	Blank	81.484	n/a	2	4	14	n/a	74	n/a	3	n/a	n/a	n/a	n/a	177.289	n/a
146.94	0.497	happy	Picture	80.97	n/a	2	4	15	n/a	75	113	3	n/a	n/a	n/a	n/a	177.82	AM21ANS.jpg
147.437	0.514	Blank	Blank	80.456	n/a	2	4	15	n/a	75	n/a	3	n/a	n/a	n/a	n/a	178.317	n/a
147.968	0.497	happy	Picture	79.942	n/a	2	4	16	n/a	76	88	3	n/a	n/a	n/a	n/a	178.847	AF14ANS.jpg
148.465	0.514	Blank	Blank	79.428	n/a	2	4	16	n/a	76	n/a	3	n/a	n/a	n/a	n/a	179.345	n/a
148.996	0.497	happy	Picture	78.914	n/a	2	4	17	n/a	77	93	3	n/a	n/a	n/a	n/a	179.875	BF22ANS.jpg
149.493	0.514	Blank	Blank	78.4	n/a	2	4	17	n/a	77	n/a	3	n/a	n/a	n/a	n/a	180.373	n/a
150.024	0.497	happy	Picture	77.886	n/a	2	4	18	n/a	78	86	3	n/a	n/a	n/a	n/a	180.903	AF09ANS.jpg
150.521	0.514	Blank	Blank	77.372	n/a	2	4	18	n/a	78	n/a	3	n/a	n/a	n/a	n/a	181.401	n/a
151.051	0.497	happy	Picture	76.858	n/a	2	4	19	n/a	79	92	3	n/a	n/a	n/a	n/a	181.931	AF21ANS.jpg
151.549	0.514	Blank	Blank	76.344	n/a	2	4	19	n/a	79	n/a	3	n/a	n/a	n/a	n/a	182.429	n/a
152.079	0.497	happy	Picture	75.83	n/a	2	4	20	n/a	80	84	3	n/a	n/a	n/a	n/a	182.959	AF05ANS.jpg
152.577	0.514	Blank	Blank	75.316	n/a	2	4	20	n/a	80	n/a	3	n/a	n/a	n/a	n/a	183.457	n/a
153.107	10.014	ITI	Fixation+	65.286	n/a	2	n/a	n/a	n/a	n/a	n/a	n/a	n/a	n/a	n/a	n/a	183.987	n/a
163.137	0.497	neutral	Picture	64.772	n/a	2	5	1	n/a	81	4	1	n/a	n/a	n/a	n/a	194.017	AF05NES.jpg
163.635	0.514	Blank	Blank	64.258	n/a	2	5	1	n/a	81	n/a	1	n/a	n/a	n/a	n/a	194.515	n/a
164.165	0.497	neutral	Picture	63.744	n/a	2	5	2	n/a	82	14	1	n/a	n/a	n/a	n/a	195.045	AF23NES.jpg
164.663	0.514	Blank	Blank	63.23	n/a	2	5	2	n/a	82	n/a	1	n/a	n/a	n/a	n/a	195.542	n/a
165.193	0.497	neutral	Picture	62.716	n/a	2	5	3	n/a	83	19	1	n/a	n/a	n/a	n/a	196.073	AF31NES.jpg
165.691	0.514	Blank	Blank	62.203	n/a	2	5	3	n/a	83	n/a	1	n/a	n/a	n/a	n/a	196.57	n/a
166.221	0.497	neutral	Picture	61.689	n/a	2	5	4	n/a	84	8	1	n/a	n/a	n/a	n/a	197.101	AF14NES.jpg
166.719	0.514	Blank	Blank	61.175	n/a	2	5	4	n/a	84	n/a	1	n/a	n/a	n/a	n/a	197.598	n/a
167.249	0.497	neutral	Picture	60.661	n/a	2	5	5	n/a	85	25	1	n/a	n/a	n/a	n/a	198.129	BM06NES.jpg
167.746	0.514	Blank	Blank	60.147	n/a	2	5	5	n/a	85	n/a	1	n/a	n/a	n/a	n/a	198.626	n/a
168.277	0.497	neutral	Picture	59.633	n/a	2	5	6	n/a	86	9	1	n/a	n/a	n/a	n/a	199.157	AF17NES.jpg
168.774	0.514	Blank	Blank	59.119	n/a	2	5	6	n/a	86	n/a	1	n/a	n/a	n/a	n/a	199.654	n/a
169.305	0.497	neutral	Picture	58.605	n/a	2	5	7	n/a	87	2	1	n/a	n/a	n/a	n/a	200.185	AF03NES.jpg
169.802	0.514	Blank	Blank	58.091	n/a	2	5	7	n/a	87	n/a	1	n/a	n/a	n/a	n/a	200.682	n/a
170.333	0.497	neutral	Picture	57.577	n/a	2	5	8	n/a	88	17	1	n/a	n/a	n/a	n/a	201.213	BF28NES.jpg
170.83	0.514	Blank	Blank	57.063	n/a	2	5	8	n/a	88	n/a	1	n/a	n/a	n/a	n/a	201.71	n/a
171.361	0.497	neutral	Picture	56.549	n/a	2	5	9	n/a	89	6	1	n/a	n/a	n/a	n/a	202.24	AF09NES.jpg
171.858	0.514	Blank	Blank	56.035	n/a	2	5	9	n/a	89	n/a	1	n/a	n/a	n/a	n/a	202.738	n/a
172.389	0.497	neutral	Picture	55.521	n/a	2	5	10	n/a	90	12	1	n/a	n/a	n/a	n/a	203.268	AF21NES.jpg
172.886	0.514	Blank	Blank	55.007	n/a	2	5	10	n/a	90	n/a	1	n/a	n/a	n/a	n/a	203.766	n/a
173.416	0.497	neutral	Picture	54.493	n/a	2	5	11	n/a	91	24	1	n/a	n/a	n/a	n/a	204.296	BM05NES.jpg
173.914	0.514	Blank	Blank	53.98	n/a	2	5	11	n/a	91	n/a	1	n/a	n/a	n/a	n/a	204.793	n/a
174.444	0.497	neutral	Picture	53.465	n/a	2	5	12	n/a	92	34	1	n/a	n/a	n/a	n/a	205.324	AM22NES.jpg
174.942	0.514	Blank	Blank	52.952	n/a	2	5	12	n/a	92	n/a	1	n/a	n/a	n/a	n/a	205.821	n/a
175.472	0.497	neutral	Picture	52.438	n/a	2	5	13	n/a	93	23	1	n/a	n/a	n/a	n/a	206.352	AM04NES.jpg
175.97	0.514	Blank	Blank	51.924	n/a	2	5	13	n/a	93	n/a	1	n/a	n/a	n/a	n/a	206.849	n/a
176.5	0.497	neutral	Picture	51.41	n/a	2	5	14	n/a	94	15	1	n/a	n/a	n/a	n/a	207.38	AF25NES.jpg
176.998	0.514	Blank	Blank	50.896	n/a	2	5	14	n/a	94	n/a	1	n/a	n/a	n/a	n/a	207.877	n/a
177.528	0.497	neutral	Picture	50.382	n/a	2	5	15	n/a	95	37	1	n/a	n/a	n/a	n/a	208.408	BM25NES.jpg
178.025	0.514	Blank	Blank	49.868	n/a	2	5	15	n/a	95	n/a	1	n/a	n/a	n/a	n/a	208.905	n/a
178.556	0.497	neutral	Picture	49.354	n/a	2	5	16	n/a	96	32	1	n/a	n/a	n/a	n/a	209.436	AM14NES.jpg
179.053	0.514	Blank	Blank	48.84	n/a	2	5	16	n/a	96	n/a	1	n/a	n/a	n/a	n/a	209.933	n/a
179.584	0.497	neutral	Picture	48.326	n/a	2	5	17	n/a	97	3	1	n/a	n/a	n/a	n/a	210.464	BF04NES.jpg
180.081	0.514	Blank	Blank	47.812	n/a	2	5	17	n/a	97	n/a	1	n/a	n/a	n/a	n/a	210.961	n/a
180.612	0.497	neutral	Picture	47.298	n/a	2	5	18	n/a	98	16	1	n/a	n/a	n/a	n/a	211.491	AF26NES.jpg
181.109	0.514	Blank	Blank	46.784	n/a	2	5	18	n/a	98	n/a	1	n/a	n/a	n/a	n/a	211.989	n/a
181.639	0.497	neutral	Picture	46.27	n/a	2	5	19	n/a	99	27	1	n/a	n/a	n/a	n/a	212.519	BM08NES.jpg
182.137	0.514	Blank	Blank	45.756	n/a	2	5	19	n/a	99	n/a	1	n/a	n/a	n/a	n/a	213.017	n/a
182.667	0.497	neutral	Picture	45.242	n/a	2	5	20	n/a	100	28	1	n/a	n/a	n/a	n/a	213.547	AM09NES.jpg
183.165	0.514	Blank	Blank	44.728	n/a	2	5	20	n/a	100	n/a	1	n/a	n/a	n/a	n/a	214.044	n/a
183.695	10.014	ITI	Fixation+	34.698	n/a	2	n/a	n/a	n/a	n/a	n/a	n/a	n/a	n/a	n/a	n/a	214.575	n/a
193.726	0.497	happy	Picture	34.184	n/a	2	6	1	n/a	101	81	3	n/a	n/a	n/a	n/a	224.605	AF01ANS.jpg
194.223	0.514	Blank	Blank	33.67	n/a	2	6	1	n/a	101	n/a	3	n/a	n/a	n/a	n/a	225.103	n/a
194.753	0.497	happy	Picture	33.156	n/a	2	6	2	n/a	102	120	3	n/a	n/a	n/a	n/a	225.633	AM35ANS.jpg
195.251	0.514	Blank	Blank	32.642	n/a	2	6	2	n/a	102	n/a	3	n/a	n/a	n/a	n/a	226.131	n/a
195.781	0.497	happy	Picture	32.129	n/a	2	6	3	n/a	103	114	3	n/a	n/a	n/a	n/a	226.661	AM22ANS.jpg
196.279	0.514	Blank	Blank	31.615	n/a	2	6	3	n/a	103	n/a	3	n/a	n/a	n/a	n/a	227.158	n/a
196.809	0.497	happy	Picture	31.101	n/a	2	6	4	n/a	104	109	3	n/a	n/a	n/a	n/a	227.689	AM10ANS.jpg
197.307	0.514	Blank	Blank	30.587	n/a	2	6	4	n/a	104	n/a	3	n/a	n/a	n/a	n/a	228.186	n/a
197.837	0.497	happy	Picture	30.073	n/a	2	6	5	n/a	105	96	3	n/a	n/a	n/a	n/a	228.717	AF26ANS.jpg
198.334	0.514	Blank	Blank	29.559	n/a	2	6	5	n/a	105	n/a	3	n/a	n/a	n/a	n/a	229.214	n/a
198.865	0.497	happy	Picture	29.045	n/a	2	6	6	n/a	106	82	3	n/a	n/a	n/a	n/a	229.745	AF03ANS.jpg
199.362	0.514	Blank	Blank	28.531	n/a	2	6	6	n/a	106	n/a	3	n/a	n/a	n/a	n/a	230.242	n/a
199.893	0.497	happy	Picture	28.017	n/a	2	6	7	n/a	107	97	3	n/a	n/a	n/a	n/a	230.773	BF28ANS.jpg
200.39	0.514	Blank	Blank	27.503	n/a	2	6	7	n/a	107	n/a	3	n/a	n/a	n/a	n/a	231.27	n/a
200.921	0.497	happy	Picture	26.989	n/a	2	6	8	n/a	108	115	3	n/a	n/a	n/a	n/a	231.8	AM23ANS.jpg
201.418	0.514	Blank	Blank	26.475	n/a	2	6	8	n/a	108	n/a	3	n/a	n/a	n/a	n/a	232.298	n/a
201.949	0.497	happy	Picture	25.961	n/a	2	6	9	n/a	109	91	3	n/a	n/a	n/a	n/a	232.828	AF20ANS.jpg
202.446	0.514	Blank	Blank	25.447	n/a	2	6	9	n/a	109	n/a	3	n/a	n/a	n/a	n/a	233.326	n/a
202.977	0.497	happy	Picture	24.933	n/a	2	6	10	n/a	110	87	3	n/a	n/a	n/a	n/a	233.856	BF11ANS.jpg
203.474	0.514	Blank	Blank	24.419	n/a	2	6	10	n/a	110	n/a	3	n/a	n/a	n/a	n/a	234.354	n/a
204.004	0.497	happy	Picture	23.905	n/a	2	6	11	n/a	111	85	3	n/a	n/a	n/a	n/a	234.884	BF07ANS.jpg
204.502	0.514	Blank	Blank	23.391	n/a	2	6	11	n/a	111	n/a	3	n/a	n/a	n/a	n/a	235.381	n/a
205.032	0.497	happy	Picture	22.877	n/a	2	6	12	n/a	112	110	3	n/a	n/a	n/a	n/a	235.912	AM11ANS.jpg
205.53	0.514	Blank	Blank	22.364	n/a	2	6	12	n/a	112	n/a	3	n/a	n/a	n/a	n/a	236.409	n/a
206.06	0.497	happy	Picture	21.85	n/a	2	6	13	n/a	113	111	3	n/a	n/a	n/a	n/a	236.94	BM12ANS.jpg
206.558	0.514	Blank	Blank	21.336	n/a	2	6	13	n/a	113	n/a	3	n/a	n/a	n/a	n/a	237.437	n/a
207.088	0.497	happy	Picture	20.822	n/a	2	6	14	n/a	114	103	3	n/a	n/a	n/a	n/a	237.968	AM04ANS.jpg
207.586	0.514	Blank	Blank	20.308	n/a	2	6	14	n/a	114	n/a	3	n/a	n/a	n/a	n/a	238.465	n/a
208.116	0.497	happy	Picture	19.794	n/a	2	6	15	n/a	115	101	3	n/a	n/a	n/a	n/a	238.996	AM01ANS.jpg
208.613	0.514	Blank	Blank	19.28	n/a	2	6	15	n/a	115	n/a	3	n/a	n/a	n/a	n/a	239.493	n/a
209.144	0.497	happy	Picture	18.766	n/a	2	6	16	n/a	116	104	3	n/a	n/a	n/a	n/a	240.024	BM05ANS.jpg
209.641	0.514	Blank	Blank	18.252	n/a	2	6	16	n/a	116	n/a	3	n/a	n/a	n/a	n/a	240.521	n/a
210.172	0.497	happy	Picture	17.738	n/a	2	6	17	n/a	117	107	3	n/a	n/a	n/a	n/a	241.052	BM08ANS.jpg
210.669	0.514	Blank	Blank	17.224	n/a	2	6	17	n/a	117	n/a	3	n/a	n/a	n/a	n/a	241.549	n/a
211.2	0.497	happy	Picture	16.71	n/a	2	6	18	n/a	118	98	3	n/a	n/a	n/a	n/a	242.079	BF29ANS.jpg
211.697	0.514	Blank	Blank	16.196	n/a	2	6	18	n/a	118	n/a	3	n/a	n/a	n/a	n/a	242.577	n/a
212.228	0.497	happy	Picture	15.682	n/a	2	6	19	n/a	119	99	3	n/a	n/a	n/a	n/a	243.107	AF31ANS.jpg
212.725	0.514	Blank	Blank	15.168	n/a	2	6	19	n/a	119	n/a	3	n/a	n/a	n/a	n/a	243.605	n/a
213.255	0.497	happy	Picture	14.654	n/a	2	6	20	n/a	120	108	3	n/a	n/a	n/a	n/a	244.135	AM09ANS.jpg
213.753	0.514	Blank	Blank	14.14	n/a	2	6	20	n/a	120	n/a	3	n/a	n/a	n/a	n/a	244.632	n/a
214.283	10.014	ITI	Fixation+	4.11	n/a	2	n/a	n/a	n/a	n/a	n/a	n/a	n/a	n/a	n/a	n/a	245.163	n/a
228.407	n/a	ConfirmRating	Rate	n/a	4.095	2	n/a	n/a	0	n/a	n/a	n/a	2	Happy	30	49	259.287	n/a
240.535	n/a	ConfirmRating	Rate	n/a	12.12	2	n/a	n/a	1	n/a	n/a	n/a	3	Happy	50	50	271.415	n/a
240.561	15.004	Rest	Picture	n/a	n/a	n/a	n/a	n/a	n/a	n/a	n/a	n/a	0	n/a	0	0	271.441	n/a
255.581	10.014	ITI	Fixation+	98.209	n/a	3	n/a	n/a	n/a	n/a	n/a	n/a	n/a	n/a	n/a	n/a	286.461	n/a
265.611	0.497	angry	Picture	97.695	n/a	3	7	1	n/a	1	46	2	n/a	n/a	n/a	n/a	296.491	AF09HAS.jpg
266.109	0.514	Blank	Blank	97.181	n/a	3	7	1	n/a	1	n/a	2	n/a	n/a	n/a	n/a	296.989	n/a
266.639	0.497	angry	Picture	96.667	n/a	3	7	2	n/a	2	69	2	n/a	n/a	n/a	n/a	297.519	AM10HAS.jpg
267.137	0.514	Blank	Blank	96.153	n/a	3	7	2	n/a	2	n/a	2	n/a	n/a	n/a	n/a	298.017	n/a
267.667	0.497	angry	Picture	95.639	n/a	3	7	3	n/a	3	71	2	n/a	n/a	n/a	n/a	298.547	BM12HAS.jpg
268.165	0.514	Blank	Blank	95.125	n/a	3	7	3	n/a	3	n/a	2	n/a	n/a	n/a	n/a	299.044	n/a
268.695	0.497	angry	Picture	94.611	n/a	3	7	4	n/a	4	51	2	n/a	n/a	n/a	n/a	299.575	AF20HAS.jpg
269.193	0.514	Blank	Blank	94.097	n/a	3	7	4	n/a	4	n/a	2	n/a	n/a	n/a	n/a	300.072	n/a
269.723	0.497	angry	Picture	93.583	n/a	3	7	5	n/a	5	67	2	n/a	n/a	n/a	n/a	300.603	BM08HAS.jpg
270.22	0.514	Blank	Blank	93.069	n/a	3	7	5	n/a	5	n/a	2	n/a	n/a	n/a	n/a	301.1	n/a
270.751	0.497	angry	Picture	92.555	n/a	3	7	6	n/a	6	60	2	n/a	n/a	n/a	n/a	301.631	AF32HAS.jpg
271.248	0.514	Blank	Blank	92.041	n/a	3	7	6	n/a	6	n/a	2	n/a	n/a	n/a	n/a	302.128	n/a
271.779	0.497	angry	Picture	91.528	n/a	3	7	7	n/a	7	42	2	n/a	n/a	n/a	n/a	302.659	AF03HAS.jpg
272.276	0.514	Blank	Blank	91.014	n/a	3	7	7	n/a	7	n/a	2	n/a	n/a	n/a	n/a	303.156	n/a
272.807	0.497	angry	Picture	90.5	n/a	3	7	8	n/a	8	55	2	n/a	n/a	n/a	n/a	303.687	AF25HAS.jpg
273.304	0.514	Blank	Blank	89.986	n/a	3	7	8	n/a	8	n/a	2	n/a	n/a	n/a	n/a	304.184	n/a
273.835	0.497	angry	Picture	89.472	n/a	3	7	9	n/a	9	72	2	n/a	n/a	n/a	n/a	304.714	AM14HAS.jpg
274.332	0.514	Blank	Blank	88.958	n/a	3	7	9	n/a	9	n/a	2	n/a	n/a	n/a	n/a	305.212	n/a
274.863	0.497	angry	Picture	88.444	n/a	3	7	10	n/a	10	63	2	n/a	n/a	n/a	n/a	305.742	AM04HAS.jpg
275.36	0.514	Blank	Blank	87.93	n/a	3	7	10	n/a	10	n/a	2	n/a	n/a	n/a	n/a	306.24	n/a
275.89	0.497	angry	Picture	87.416	n/a	3	7	11	n/a	11	58	2	n/a	n/a	n/a	n/a	306.77	BF29HAS.jpg
276.388	0.514	Blank	Blank	86.902	n/a	3	7	11	n/a	11	n/a	2	n/a	n/a	n/a	n/a	307.267	n/a
276.918	0.497	angry	Picture	86.388	n/a	3	7	12	n/a	12	48	2	n/a	n/a	n/a	n/a	307.798	AF14HAS.jpg
277.416	0.514	Blank	Blank	85.874	n/a	3	7	12	n/a	12	n/a	2	n/a	n/a	n/a	n/a	308.295	n/a
277.946	0.497	angry	Picture	85.36	n/a	3	7	13	n/a	13	66	2	n/a	n/a	n/a	n/a	308.826	BM07HAS.jpg
278.444	0.514	Blank	Blank	84.846	n/a	3	7	13	n/a	13	n/a	2	n/a	n/a	n/a	n/a	309.323	n/a
278.974	0.497	angry	Picture	84.332	n/a	3	7	14	n/a	14	70	2	n/a	n/a	n/a	n/a	309.854	BM11HAS.jpg
279.471	0.514	Blank	Blank	83.818	n/a	3	7	14	n/a	14	n/a	2	n/a	n/a	n/a	n/a	310.351	n/a
280.002	0.497	angry	Picture	83.304	n/a	3	7	15	n/a	15	43	2	n/a	n/a	n/a	n/a	310.882	BF04HAS.jpg
280.499	0.514	Blank	Blank	82.79	n/a	3	7	15	n/a	15	n/a	2	n/a	n/a	n/a	n/a	311.379	n/a
281.03	0.497	angry	Picture	82.276	n/a	3	7	16	n/a	16	49	2	n/a	n/a	n/a	n/a	311.91	AF17HAS.jpg
281.527	0.514	Blank	Blank	81.763	n/a	3	7	16	n/a	16	n/a	2	n/a	n/a	n/a	n/a	312.407	n/a
282.058	0.497	angry	Picture	81.249	n/a	3	7	17	n/a	17	75	2	n/a	n/a	n/a	n/a	312.938	AM23HAS.jpg
282.555	0.514	Blank	Blank	80.735	n/a	3	7	17	n/a	17	n/a	2	n/a	n/a	n/a	n/a	313.435	n/a
283.086	0.497	angry	Picture	80.221	n/a	3	7	18	n/a	18	80	2	n/a	n/a	n/a	n/a	313.965	BM35HAS.jpg
283.583	0.514	Blank	Blank	79.707	n/a	3	7	18	n/a	18	n/a	2	n/a	n/a	n/a	n/a	314.463	n/a
284.114	0.497	angry	Picture	79.193	n/a	3	7	19	n/a	19	76	2	n/a	n/a	n/a	n/a	314.993	BM24HAS.jpg
284.611	0.514	Blank	Blank	78.679	n/a	3	7	19	n/a	19	n/a	2	n/a	n/a	n/a	n/a	315.491	n/a
285.141	0.497	angry	Picture	78.165	n/a	3	7	20	n/a	20	74	2	n/a	n/a	n/a	n/a	316.021	AM22HAS.jpg
285.639	0.514	Blank	Blank	77.651	n/a	3	7	20	n/a	20	n/a	2	n/a	n/a	n/a	n/a	316.519	n/a
286.169	10.014	ITI	Fixation+	67.621	n/a	3	n/a	n/a	n/a	n/a	n/a	n/a	n/a	n/a	n/a	n/a	317.049	n/a
296.2	0.497	neutral	Picture	67.107	n/a	3	8	1	n/a	21	33	1	n/a	n/a	n/a	n/a	327.079	AM21NES.jpg
296.697	0.514	Blank	Blank	66.593	n/a	3	8	1	n/a	21	n/a	1	n/a	n/a	n/a	n/a	327.577	n/a
297.227	0.497	neutral	Picture	66.079	n/a	3	8	2	n/a	22	39	1	n/a	n/a	n/a	n/a	328.107	AM28NES.jpg
297.725	0.514	Blank	Blank	65.565	n/a	3	8	2	n/a	22	n/a	1	n/a	n/a	n/a	n/a	328.604	n/a
298.255	0.497	neutral	Picture	65.051	n/a	3	8	3	n/a	23	25	1	n/a	n/a	n/a	n/a	329.135	BM06NES.jpg
298.753	0.514	Blank	Blank	64.537	n/a	3	8	3	n/a	23	n/a	1	n/a	n/a	n/a	n/a	329.632	n/a
299.283	0.497	neutral	Picture	64.023	n/a	3	8	4	n/a	24	5	1	n/a	n/a	n/a	n/a	330.163	BF07NES.jpg
299.781	0.514	Blank	Blank	63.509	n/a	3	8	4	n/a	24	n/a	1	n/a	n/a	n/a	n/a	330.66	n/a
300.311	0.497	neutral	Picture	62.995	n/a	3	8	5	n/a	25	10	1	n/a	n/a	n/a	n/a	331.191	AF18NES.jpg
300.808	0.514	Blank	Blank	62.481	n/a	3	8	5	n/a	25	n/a	1	n/a	n/a	n/a	n/a	331.688	n/a
301.339	0.497	neutral	Picture	61.967	n/a	3	8	6	n/a	26	34	1	n/a	n/a	n/a	n/a	332.219	AM22NES.jpg
301.836	0.514	Blank	Blank	61.453	n/a	3	8	6	n/a	26	n/a	1	n/a	n/a	n/a	n/a	332.716	n/a
302.367	0.497	neutral	Picture	60.939	n/a	3	8	7	n/a	27	36	1	n/a	n/a	n/a	n/a	333.247	BM24NES.jpg
302.864	0.514	Blank	Blank	60.425	n/a	3	8	7	n/a	27	n/a	1	n/a	n/a	n/a	n/a	333.744	n/a
303.395	0.497	neutral	Picture	59.911	n/a	3	8	8	n/a	28	14	1	n/a	n/a	n/a	n/a	334.274	AF23NES.jpg
303.892	0.514	Blank	Blank	59.398	n/a	3	8	8	n/a	28	n/a	1	n/a	n/a	n/a	n/a	334.772	n/a
304.423	0.497	neutral	Picture	58.884	n/a	3	8	9	n/a	29	9	1	n/a	n/a	n/a	n/a	335.302	AF17NES.jpg
304.92	0.514	Blank	Blank	58.37	n/a	3	8	9	n/a	29	n/a	1	n/a	n/a	n/a	n/a	335.8	n/a
305.451	0.497	neutral	Picture	57.856	n/a	3	8	10	n/a	30	19	1	n/a	n/a	n/a	n/a	336.33	AF31NES.jpg
305.948	0.514	Blank	Blank	57.342	n/a	3	8	10	n/a	30	n/a	1	n/a	n/a	n/a	n/a	336.828	n/a
306.478	0.497	neutral	Picture	56.828	n/a	3	8	11	n/a	31	15	1	n/a	n/a	n/a	n/a	337.358	AF25NES.jpg
306.976	0.514	Blank	Blank	56.314	n/a	3	8	11	n/a	31	n/a	1	n/a	n/a	n/a	n/a	337.856	n/a
307.506	0.497	neutral	Picture	55.8	n/a	3	8	12	n/a	32	22	1	n/a	n/a	n/a	n/a	338.386	BM03NES.jpg
308.004	0.514	Blank	Blank	55.286	n/a	3	8	12	n/a	32	n/a	1	n/a	n/a	n/a	n/a	338.883	n/a
308.534	0.497	neutral	Picture	54.772	n/a	3	8	13	n/a	33	11	1	n/a	n/a	n/a	n/a	339.414	AF20NES.jpg
309.032	0.514	Blank	Blank	54.258	n/a	3	8	13	n/a	33	n/a	1	n/a	n/a	n/a	n/a	339.911	n/a
309.562	0.497	neutral	Picture	53.744	n/a	3	8	14	n/a	34	4	1	n/a	n/a	n/a	n/a	340.442	AF05NES.jpg
310.06	0.514	Blank	Blank	53.23	n/a	3	8	14	n/a	34	n/a	1	n/a	n/a	n/a	n/a	340.939	n/a
310.59	0.497	neutral	Picture	52.716	n/a	3	8	15	n/a	35	17	1	n/a	n/a	n/a	n/a	341.47	BF28NES.jpg
311.087	0.514	Blank	Blank	52.202	n/a	3	8	15	n/a	35	n/a	1	n/a	n/a	n/a	n/a	341.967	n/a
311.618	0.497	neutral	Picture	51.688	n/a	3	8	16	n/a	36	13	1	n/a	n/a	n/a	n/a	342.498	BF22NES.jpg
312.115	0.514	Blank	Blank	51.175	n/a	3	8	16	n/a	36	n/a	1	n/a	n/a	n/a	n/a	342.995	n/a
312.646	0.497	neutral	Picture	50.66	n/a	3	8	17	n/a	37	12	1	n/a	n/a	n/a	n/a	343.526	AF21NES.jpg
313.143	0.514	Blank	Blank	50.147	n/a	3	8	17	n/a	37	n/a	1	n/a	n/a	n/a	n/a	344.023	n/a
313.674	0.497	neutral	Picture	49.633	n/a	3	8	18	n/a	38	24	1	n/a	n/a	n/a	n/a	344.553	BM05NES.jpg
314.171	0.514	Blank	Blank	49.119	n/a	3	8	18	n/a	38	n/a	1	n/a	n/a	n/a	n/a	345.051	n/a
314.702	0.497	neutral	Picture	48.605	n/a	3	8	19	n/a	39	29	1	n/a	n/a	n/a	n/a	345.581	AM10NES.jpg
315.199	0.514	Blank	Blank	48.091	n/a	3	8	19	n/a	39	n/a	1	n/a	n/a	n/a	n/a	346.079	n/a
315.729	0.497	neutral	Picture	47.577	n/a	3	8	20	n/a	40	23	1	n/a	n/a	n/a	n/a	346.609	AM04NES.jpg
316.227	0.514	Blank	Blank	47.063	n/a	3	8	20	n/a	40	n/a	1	n/a	n/a	n/a	n/a	347.106	n/a
316.757	10.014	ITI	Fixation+	37.033	n/a	3	n/a	n/a	n/a	n/a	n/a	n/a	n/a	n/a	n/a	n/a	347.637	n/a
326.788	0.497	angry	Picture	36.519	n/a	3	9	1	n/a	41	62	2	n/a	n/a	n/a	n/a	357.667	BM03HAS.jpg
327.285	0.514	Blank	Blank	36.005	n/a	3	9	1	n/a	41	n/a	2	n/a	n/a	n/a	n/a	358.165	n/a
327.815	0.497	angry	Picture	35.491	n/a	3	9	2	n/a	42	52	2	n/a	n/a	n/a	n/a	358.695	AF21HAS.jpg
328.313	0.514	Blank	Blank	34.977	n/a	3	9	2	n/a	42	n/a	2	n/a	n/a	n/a	n/a	359.192	n/a
328.843	0.497	angry	Picture	34.463	n/a	3	9	3	n/a	43	44	2	n/a	n/a	n/a	n/a	359.723	AF05HAS.jpg
329.341	0.514	Blank	Blank	33.949	n/a	3	9	3	n/a	43	n/a	2	n/a	n/a	n/a	n/a	360.22	n/a
329.871	0.497	angry	Picture	33.435	n/a	3	9	4	n/a	44	53	2	n/a	n/a	n/a	n/a	360.751	BF22HAS.jpg
330.369	0.514	Blank	Blank	32.921	n/a	3	9	4	n/a	44	n/a	2	n/a	n/a	n/a	n/a	361.248	n/a
330.899	0.497	angry	Picture	32.407	n/a	3	9	5	n/a	45	54	2	n/a	n/a	n/a	n/a	361.779	AF23HAS.jpg
331.397	0.514	Blank	Blank	31.893	n/a	3	9	5	n/a	45	n/a	2	n/a	n/a	n/a	n/a	362.276	n/a
331.927	0.497	angry	Picture	31.379	n/a	3	9	6	n/a	46	68	2	n/a	n/a	n/a	n/a	362.807	AM09HAS.jpg
332.424	0.514	Blank	Blank	30.865	n/a	3	9	6	n/a	46	n/a	2	n/a	n/a	n/a	n/a	363.304	n/a
332.955	0.497	angry	Picture	30.351	n/a	3	9	7	n/a	47	64	2	n/a	n/a	n/a	n/a	363.835	BM05HAS.jpg
333.452	0.514	Blank	Blank	29.838	n/a	3	9	7	n/a	47	n/a	2	n/a	n/a	n/a	n/a	364.332	n/a
333.983	0.497	angry	Picture	29.323	n/a	3	9	8	n/a	48	59	2	n/a	n/a	n/a	n/a	364.863	AF31HAS.jpg
334.48	0.514	Blank	Blank	28.81	n/a	3	9	8	n/a	48	n/a	2	n/a	n/a	n/a	n/a	365.36	n/a
335.011	0.497	angry	Picture	28.296	n/a	3	9	9	n/a	49	41	2	n/a	n/a	n/a	n/a	365.89	AF01HAS.jpg
335.508	0.514	Blank	Blank	27.782	n/a	3	9	9	n/a	49	n/a	2	n/a	n/a	n/a	n/a	366.388	n/a
336.039	0.497	angry	Picture	27.268	n/a	3	9	10	n/a	50	73	2	n/a	n/a	n/a	n/a	366.918	AM21HAS.jpg
336.536	0.514	Blank	Blank	26.754	n/a	3	9	10	n/a	50	n/a	2	n/a	n/a	n/a	n/a	367.416	n/a
337.066	0.497	angry	Picture	26.24	n/a	3	9	11	n/a	51	65	2	n/a	n/a	n/a	n/a	367.946	BM06HAS.jpg
337.564	0.514	Blank	Blank	25.726	n/a	3	9	11	n/a	51	n/a	2	n/a	n/a	n/a	n/a	368.443	n/a
338.094	0.497	angry	Picture	25.212	n/a	3	9	12	n/a	52	56	2	n/a	n/a	n/a	n/a	368.974	AF26HAS.jpg
338.592	0.514	Blank	Blank	24.698	n/a	3	9	12	n/a	52	n/a	2	n/a	n/a	n/a	n/a	369.471	n/a
339.122	0.497	angry	Picture	24.184	n/a	3	9	13	n/a	53	45	2	n/a	n/a	n/a	n/a	370.002	BF07HAS.jpg
339.62	0.514	Blank	Blank	23.67	n/a	3	9	13	n/a	53	n/a	2	n/a	n/a	n/a	n/a	370.499	n/a
340.15	0.497	angry	Picture	23.156	n/a	3	9	14	n/a	54	78	2	n/a	n/a	n/a	n/a	371.03	BM26HAS.jpg
340.647	0.514	Blank	Blank	22.642	n/a	3	9	14	n/a	54	n/a	2	n/a	n/a	n/a	n/a	371.527	n/a
341.178	0.497	angry	Picture	22.128	n/a	3	9	15	n/a	55	50	2	n/a	n/a	n/a	n/a	372.058	AF18HAS.jpg
341.675	0.514	Blank	Blank	21.614	n/a	3	9	15	n/a	55	n/a	2	n/a	n/a	n/a	n/a	372.555	n/a
342.206	0.497	angry	Picture	21.1	n/a	3	9	16	n/a	56	47	2	n/a	n/a	n/a	n/a	373.086	BF11HAS.jpg
342.703	0.514	Blank	Blank	20.587	n/a	3	9	16	n/a	56	n/a	2	n/a	n/a	n/a	n/a	373.583	n/a
343.234	0.497	angry	Picture	20.072	n/a	3	9	17	n/a	57	77	2	n/a	n/a	n/a	n/a	374.113	BM25HAS.jpg
343.731	0.514	Blank	Blank	19.559	n/a	3	9	17	n/a	57	n/a	2	n/a	n/a	n/a	n/a	374.611	n/a
344.262	0.497	angry	Picture	19.045	n/a	3	9	18	n/a	58	57	2	n/a	n/a	n/a	n/a	375.141	BF28HAS.jpg
344.759	0.514	Blank	Blank	18.531	n/a	3	9	18	n/a	58	n/a	2	n/a	n/a	n/a	n/a	375.639	n/a
345.29	0.497	angry	Picture	18.017	n/a	3	9	19	n/a	59	61	2	n/a	n/a	n/a	n/a	376.169	AM01HAS.jpg
345.787	0.514	Blank	Blank	17.503	n/a	3	9	19	n/a	59	n/a	2	n/a	n/a	n/a	n/a	376.667	n/a
346.317	0.497	angry	Picture	16.989	n/a	3	9	20	n/a	60	79	2	n/a	n/a	n/a	n/a	377.197	BM28HAS.jpg
346.815	0.514	Blank	Blank	16.475	n/a	3	9	20	n/a	60	n/a	2	n/a	n/a	n/a	n/a	377.695	n/a
347.345	10.014	ITI	Fixation+	6.445	n/a	3	n/a	n/a	n/a	n/a	n/a	n/a	n/a	n/a	n/a	n/a	378.225	n/a
363.804	n/a	ConfirmRating	Rate	n/a	6.432	3	n/a	n/a	0	n/a	n/a	n/a	2	Angry	26	49	394.683	n/a
372.569	n/a	ConfirmRating	Rate	n/a	8.754	3	n/a	n/a	1	n/a	n/a	n/a	3	Angry	27	49	403.448	n/a
372.595	10.014	ITI	Fixation+	97.701	n/a	4	n/a	n/a	n/a	n/a	n/a	n/a	n/a	n/a	n/a	n/a	403.475	n/a
382.625	0.497	happy	Picture	97.187	n/a	4	10	1	n/a	61	119	3	n/a	n/a	n/a	n/a	413.505	BM28ANS.jpg
383.123	0.514	Blank	Blank	96.673	n/a	4	10	1	n/a	61	n/a	3	n/a	n/a	n/a	n/a	414.002	n/a
383.653	0.497	happy	Picture	96.159	n/a	4	10	2	n/a	62	100	3	n/a	n/a	n/a	n/a	414.533	AF32ANS.jpg
384.15	0.514	Blank	Blank	95.645	n/a	4	10	2	n/a	62	n/a	3	n/a	n/a	n/a	n/a	415.03	n/a
384.681	0.497	happy	Picture	95.131	n/a	4	10	3	n/a	63	118	3	n/a	n/a	n/a	n/a	415.561	BM26ANS.jpg
385.178	0.514	Blank	Blank	94.617	n/a	4	10	3	n/a	63	n/a	3	n/a	n/a	n/a	n/a	416.058	n/a
385.709	0.497	happy	Picture	94.103	n/a	4	10	4	n/a	64	89	3	n/a	n/a	n/a	n/a	416.589	AF17ANS.jpg
386.206	0.514	Blank	Blank	93.589	n/a	4	10	4	n/a	64	n/a	3	n/a	n/a	n/a	n/a	417.086	n/a
386.737	0.497	happy	Picture	93.075	n/a	4	10	5	n/a	65	116	3	n/a	n/a	n/a	n/a	417.616	BM24ANS.jpg
387.234	0.514	Blank	Blank	92.561	n/a	4	10	5	n/a	65	n/a	3	n/a	n/a	n/a	n/a	418.114	n/a
387.765	0.497	happy	Picture	92.048	n/a	4	10	6	n/a	66	105	3	n/a	n/a	n/a	n/a	418.644	BM06ANS.jpg
388.262	0.514	Blank	Blank	91.534	n/a	4	10	6	n/a	66	n/a	3	n/a	n/a	n/a	n/a	419.142	n/a
388.793	0.497	happy	Picture	91.02	n/a	4	10	7	n/a	67	106	3	n/a	n/a	n/a	n/a	419.672	AM07ANS.jpg
389.29	0.514	Blank	Blank	90.506	n/a	4	10	7	n/a	67	n/a	3	n/a	n/a	n/a	n/a	420.17	n/a
389.82	0.497	happy	Picture	89.992	n/a	4	10	8	n/a	68	94	3	n/a	n/a	n/a	n/a	420.7	AF23ANS.jpg
390.318	0.514	Blank	Blank	89.478	n/a	4	10	8	n/a	68	n/a	3	n/a	n/a	n/a	n/a	421.197	n/a
390.848	0.497	happy	Picture	88.964	n/a	4	10	9	n/a	69	117	3	n/a	n/a	n/a	n/a	421.728	BM25ANS.jpg
391.346	0.514	Blank	Blank	88.45	n/a	4	10	9	n/a	69	n/a	3	n/a	n/a	n/a	n/a	422.225	n/a
391.876	0.497	happy	Picture	87.936	n/a	4	10	10	n/a	70	90	3	n/a	n/a	n/a	n/a	422.756	AF18ANS.jpg
392.374	0.514	Blank	Blank	87.422	n/a	4	10	10	n/a	70	n/a	3	n/a	n/a	n/a	n/a	423.253	n/a
392.904	0.497	happy	Picture	86.908	n/a	4	10	11	n/a	71	83	3	n/a	n/a	n/a	n/a	423.784	BF04ANS.jpg
393.401	0.514	Blank	Blank	86.394	n/a	4	10	11	n/a	71	n/a	3	n/a	n/a	n/a	n/a	424.281	n/a
393.932	0.497	happy	Picture	85.88	n/a	4	10	12	n/a	72	112	3	n/a	n/a	n/a	n/a	424.812	AM14ANS.jpg
394.429	0.514	Blank	Blank	85.366	n/a	4	10	12	n/a	72	n/a	3	n/a	n/a	n/a	n/a	425.309	n/a
394.96	0.497	happy	Picture	84.852	n/a	4	10	13	n/a	73	102	3	n/a	n/a	n/a	n/a	425.84	BM03ANS.jpg
395.457	0.514	Blank	Blank	84.338	n/a	4	10	13	n/a	73	n/a	3	n/a	n/a	n/a	n/a	426.337	n/a
395.988	0.497	happy	Picture	83.824	n/a	4	10	14	n/a	74	95	3	n/a	n/a	n/a	n/a	426.868	AF25ANS.jpg
396.485	0.514	Blank	Blank	83.31	n/a	4	10	14	n/a	74	n/a	3	n/a	n/a	n/a	n/a	427.365	n/a
397.016	0.497	happy	Picture	82.796	n/a	4	10	15	n/a	75	113	3	n/a	n/a	n/a	n/a	427.895	AM21ANS.jpg
397.513	0.514	Blank	Blank	82.283	n/a	4	10	15	n/a	75	n/a	3	n/a	n/a	n/a	n/a	428.393	n/a
398.044	0.497	happy	Picture	81.769	n/a	4	10	16	n/a	76	88	3	n/a	n/a	n/a	n/a	428.923	AF14ANS.jpg
398.541	0.514	Blank	Blank	81.255	n/a	4	10	16	n/a	76	n/a	3	n/a	n/a	n/a	n/a	429.421	n/a
399.071	0.497	happy	Picture	80.741	n/a	4	10	17	n/a	77	93	3	n/a	n/a	n/a	n/a	429.951	BF22ANS.jpg
399.569	0.514	Blank	Blank	80.227	n/a	4	10	17	n/a	77	n/a	3	n/a	n/a	n/a	n/a	430.449	n/a
400.099	0.497	happy	Picture	79.713	n/a	4	10	18	n/a	78	86	3	n/a	n/a	n/a	n/a	430.979	AF09ANS.jpg
400.597	0.514	Blank	Blank	79.199	n/a	4	10	18	n/a	78	n/a	3	n/a	n/a	n/a	n/a	431.476	n/a
401.127	0.497	happy	Picture	78.685	n/a	4	10	19	n/a	79	92	3	n/a	n/a	n/a	n/a	432.007	AF21ANS.jpg
401.625	0.514	Blank	Blank	78.171	n/a	4	10	19	n/a	79	n/a	3	n/a	n/a	n/a	n/a	432.504	n/a
402.155	0.497	happy	Picture	77.657	n/a	4	10	20	n/a	80	84	3	n/a	n/a	n/a	n/a	433.035	AF05ANS.jpg
402.652	0.514	Blank	Blank	77.143	n/a	4	10	20	n/a	80	n/a	3	n/a	n/a	n/a	n/a	433.532	n/a
403.183	10.014	ITI	Fixation+	67.113	n/a	4	n/a	n/a	n/a	n/a	n/a	n/a	n/a	n/a	n/a	n/a	434.063	n/a
413.213	0.497	neutral	Picture	66.599	n/a	4	11	1	n/a	81	4	1	n/a	n/a	n/a	n/a	444.093	AF05NES.jpg
413.711	0.514	Blank	Blank	66.085	n/a	4	11	1	n/a	81	n/a	1	n/a	n/a	n/a	n/a	444.59	n/a
414.241	0.497	neutral	Picture	65.571	n/a	4	11	2	n/a	82	14	1	n/a	n/a	n/a	n/a	445.121	AF23NES.jpg
414.738	0.514	Blank	Blank	65.057	n/a	4	11	2	n/a	82	n/a	1	n/a	n/a	n/a	n/a	445.618	n/a
415.269	0.497	neutral	Picture	64.543	n/a	4	11	3	n/a	83	19	1	n/a	n/a	n/a	n/a	446.149	AF31NES.jpg
415.766	0.514	Blank	Blank	64.029	n/a	4	11	3	n/a	83	n/a	1	n/a	n/a	n/a	n/a	446.646	n/a
416.297	0.497	neutral	Picture	63.515	n/a	4	11	4	n/a	84	8	1	n/a	n/a	n/a	n/a	447.177	AF14NES.jpg
416.794	0.514	Blank	Blank	63.001	n/a	4	11	4	n/a	84	n/a	1	n/a	n/a	n/a	n/a	447.674	n/a
417.325	0.497	neutral	Picture	62.487	n/a	4	11	5	n/a	85	25	1	n/a	n/a	n/a	n/a	448.204	BM06NES.jpg
417.822	0.514	Blank	Blank	61.973	n/a	4	11	5	n/a	85	n/a	1	n/a	n/a	n/a	n/a	448.702	n/a
418.353	0.497	neutral	Picture	61.459	n/a	4	11	6	n/a	86	9	1	n/a	n/a	n/a	n/a	449.232	AF17NES.jpg
418.85	0.514	Blank	Blank	60.946	n/a	4	11	6	n/a	86	n/a	1	n/a	n/a	n/a	n/a	449.73	n/a
419.381	0.497	neutral	Picture	60.432	n/a	4	11	7	n/a	87	2	1	n/a	n/a	n/a	n/a	450.26	AF03NES.jpg
419.878	0.514	Blank	Blank	59.918	n/a	4	11	7	n/a	87	n/a	1	n/a	n/a	n/a	n/a	450.758	n/a
420.409	0.497	neutral	Picture	59.404	n/a	4	11	8	n/a	88	17	1	n/a	n/a	n/a	n/a	451.288	BF28NES.jpg
420.906	0.514	Blank	Blank	58.89	n/a	4	11	8	n/a	88	n/a	1	n/a	n/a	n/a	n/a	451.786	n/a
421.436	0.497	neutral	Picture	58.376	n/a	4	11	9	n/a	89	6	1	n/a	n/a	n/a	n/a	452.316	AF09NES.jpg
421.934	0.514	Blank	Blank	57.862	n/a	4	11	9	n/a	89	n/a	1	n/a	n/a	n/a	n/a	452.813	n/a
422.464	0.497	neutral	Picture	57.348	n/a	4	11	10	n/a	90	12	1	n/a	n/a	n/a	n/a	453.344	AF21NES.jpg
422.962	0.514	Blank	Blank	56.834	n/a	4	11	10	n/a	90	n/a	1	n/a	n/a	n/a	n/a	453.841	n/a
423.492	0.497	neutral	Picture	56.32	n/a	4	11	11	n/a	91	24	1	n/a	n/a	n/a	n/a	454.372	BM05NES.jpg
423.989	0.514	Blank	Blank	55.806	n/a	4	11	11	n/a	91	n/a	1	n/a	n/a	n/a	n/a	454.869	n/a
424.52	0.497	neutral	Picture	55.292	n/a	4	11	12	n/a	92	34	1	n/a	n/a	n/a	n/a	455.4	AM22NES.jpg
425.017	0.514	Blank	Blank	54.778	n/a	4	11	12	n/a	92	n/a	1	n/a	n/a	n/a	n/a	455.897	n/a
425.548	0.497	neutral	Picture	54.264	n/a	4	11	13	n/a	93	23	1	n/a	n/a	n/a	n/a	456.428	AM04NES.jpg
426.045	0.514	Blank	Blank	53.75	n/a	4	11	13	n/a	93	n/a	1	n/a	n/a	n/a	n/a	456.925	n/a
426.576	0.497	neutral	Picture	53.236	n/a	4	11	14	n/a	94	15	1	n/a	n/a	n/a	n/a	457.455	AF25NES.jpg
427.073	0.514	Blank	Blank	52.722	n/a	4	11	14	n/a	94	n/a	1	n/a	n/a	n/a	n/a	457.953	n/a
427.604	0.497	neutral	Picture	52.208	n/a	4	11	15	n/a	95	37	1	n/a	n/a	n/a	n/a	458.483	BM25NES.jpg
428.101	0.514	Blank	Blank	51.695	n/a	4	11	15	n/a	95	n/a	1	n/a	n/a	n/a	n/a	458.981	n/a
428.632	0.497	neutral	Picture	51.18	n/a	4	11	16	n/a	96	32	1	n/a	n/a	n/a	n/a	459.511	AM14NES.jpg
429.129	0.514	Blank	Blank	50.667	n/a	4	11	16	n/a	96	n/a	1	n/a	n/a	n/a	n/a	460.009	n/a
429.659	0.497	neutral	Picture	50.153	n/a	4	11	17	n/a	97	3	1	n/a	n/a	n/a	n/a	460.539	BF04NES.jpg
430.157	0.514	Blank	Blank	49.639	n/a	4	11	17	n/a	97	n/a	1	n/a	n/a	n/a	n/a	461.036	n/a
430.687	0.497	neutral	Picture	49.125	n/a	4	11	18	n/a	98	16	1	n/a	n/a	n/a	n/a	461.567	AF26NES.jpg
431.185	0.514	Blank	Blank	48.611	n/a	4	11	18	n/a	98	n/a	1	n/a	n/a	n/a	n/a	462.064	n/a
431.715	0.497	neutral	Picture	48.097	n/a	4	11	19	n/a	99	27	1	n/a	n/a	n/a	n/a	462.595	BM08NES.jpg
432.213	0.514	Blank	Blank	47.583	n/a	4	11	19	n/a	99	n/a	1	n/a	n/a	n/a	n/a	463.092	n/a
432.743	0.497	neutral	Picture	47.069	n/a	4	11	20	n/a	100	28	1	n/a	n/a	n/a	n/a	463.623	AM09NES.jpg
433.24	0.514	Blank	Blank	46.555	n/a	4	11	20	n/a	100	n/a	1	n/a	n/a	n/a	n/a	464.12	n/a
433.771	10.014	ITI	Fixation+	36.525	n/a	4	n/a	n/a	n/a	n/a	n/a	n/a	n/a	n/a	n/a	n/a	464.651	n/a
443.801	0.497	happy	Picture	36.011	n/a	4	12	1	n/a	101	81	3	n/a	n/a	n/a	n/a	474.681	AF01ANS.jpg
444.299	0.514	Blank	Blank	35.497	n/a	4	12	1	n/a	101	n/a	3	n/a	n/a	n/a	n/a	475.178	n/a
444.829	0.497	happy	Picture	34.983	n/a	4	12	2	n/a	102	120	3	n/a	n/a	n/a	n/a	475.709	AM35ANS.jpg
445.327	0.514	Blank	Blank	34.469	n/a	4	12	2	n/a	102	n/a	3	n/a	n/a	n/a	n/a	476.206	n/a
445.857	0.497	happy	Picture	33.955	n/a	4	12	3	n/a	103	114	3	n/a	n/a	n/a	n/a	476.737	AM22ANS.jpg
446.354	0.514	Blank	Blank	33.441	n/a	4	12	3	n/a	103	n/a	3	n/a	n/a	n/a	n/a	477.234	n/a
446.885	0.497	happy	Picture	32.927	n/a	4	12	4	n/a	104	109	3	n/a	n/a	n/a	n/a	477.765	AM10ANS.jpg
447.382	0.514	Blank	Blank	32.413	n/a	4	12	4	n/a	104	n/a	3	n/a	n/a	n/a	n/a	478.262	n/a
447.913	0.497	happy	Picture	31.899	n/a	4	12	5	n/a	105	96	3	n/a	n/a	n/a	n/a	478.793	AF26ANS.jpg
448.41	0.514	Blank	Blank	31.385	n/a	4	12	5	n/a	105	n/a	3	n/a	n/a	n/a	n/a	479.29	n/a
448.941	0.497	happy	Picture	30.871	n/a	4	12	6	n/a	106	82	3	n/a	n/a	n/a	n/a	479.82	AF03ANS.jpg
449.438	0.514	Blank	Blank	30.358	n/a	4	12	6	n/a	106	n/a	3	n/a	n/a	n/a	n/a	480.318	n/a
449.969	0.497	happy	Picture	29.844	n/a	4	12	7	n/a	107	97	3	n/a	n/a	n/a	n/a	480.848	BF28ANS.jpg
450.466	0.514	Blank	Blank	29.33	n/a	4	12	7	n/a	107	n/a	3	n/a	n/a	n/a	n/a	481.346	n/a
450.996	0.497	happy	Picture	28.816	n/a	4	12	8	n/a	108	115	3	n/a	n/a	n/a	n/a	481.876	AM23ANS.jpg
451.494	0.514	Blank	Blank	28.302	n/a	4	12	8	n/a	108	n/a	3	n/a	n/a	n/a	n/a	482.374	n/a
452.024	0.497	happy	Picture	27.788	n/a	4	12	9	n/a	109	91	3	n/a	n/a	n/a	n/a	482.904	AF20ANS.jpg
452.522	0.514	Blank	Blank	27.274	n/a	4	12	9	n/a	109	n/a	3	n/a	n/a	n/a	n/a	483.401	n/a
453.052	0.497	happy	Picture	26.76	n/a	4	12	10	n/a	110	87	3	n/a	n/a	n/a	n/a	483.932	BF11ANS.jpg
453.55	0.514	Blank	Blank	26.246	n/a	4	12	10	n/a	110	n/a	3	n/a	n/a	n/a	n/a	484.429	n/a
454.08	0.497	happy	Picture	25.732	n/a	4	12	11	n/a	111	85	3	n/a	n/a	n/a	n/a	484.96	BF07ANS.jpg
454.577	0.514	Blank	Blank	25.218	n/a	4	12	11	n/a	111	n/a	3	n/a	n/a	n/a	n/a	485.457	n/a
455.108	0.497	happy	Picture	24.704	n/a	4	12	12	n/a	112	110	3	n/a	n/a	n/a	n/a	485.988	AM11ANS.jpg
455.605	0.514	Blank	Blank	24.19	n/a	4	12	12	n/a	112	n/a	3	n/a	n/a	n/a	n/a	486.485	n/a
456.136	0.497	happy	Picture	23.676	n/a	4	12	13	n/a	113	111	3	n/a	n/a	n/a	n/a	487.016	BM12ANS.jpg
456.633	0.514	Blank	Blank	23.162	n/a	4	12	13	n/a	113	n/a	3	n/a	n/a	n/a	n/a	487.513	n/a
457.164	0.497	happy	Picture	22.648	n/a	4	12	14	n/a	114	103	3	n/a	n/a	n/a	n/a	488.043	AM04ANS.jpg
457.661	0.514	Blank	Blank	22.134	n/a	4	12	14	n/a	114	n/a	3	n/a	n/a	n/a	n/a	488.541	n/a
458.192	0.497	happy	Picture	21.62	n/a	4	12	15	n/a	115	101	3	n/a	n/a	n/a	n/a	489.071	AM01ANS.jpg
458.689	0.514	Blank	Blank	21.107	n/a	4	12	15	n/a	115	n/a	3	n/a	n/a	n/a	n/a	489.569	n/a
459.22	0.497	happy	Picture	20.592	n/a	4	12	16	n/a	116	104	3	n/a	n/a	n/a	n/a	490.099	BM05ANS.jpg
459.717	0.514	Blank	Blank	20.079	n/a	4	12	16	n/a	116	n/a	3	n/a	n/a	n/a	n/a	490.597	n/a
460.248	0.497	happy	Picture	19.565	n/a	4	12	17	n/a	117	107	3	n/a	n/a	n/a	n/a	491.127	BM08ANS.jpg
460.745	0.514	Blank	Blank	19.051	n/a	4	12	17	n/a	117	n/a	3	n/a	n/a	n/a	n/a	491.625	n/a
461.275	0.497	happy	Picture	18.537	n/a	4	12	18	n/a	118	98	3	n/a	n/a	n/a	n/a	492.155	BF29ANS.jpg
461.773	0.514	Blank	Blank	18.023	n/a	4	12	18	n/a	118	n/a	3	n/a	n/a	n/a	n/a	492.652	n/a
462.303	0.497	happy	Picture	17.509	n/a	4	12	19	n/a	119	99	3	n/a	n/a	n/a	n/a	493.183	AF31ANS.jpg
462.801	0.514	Blank	Blank	16.995	n/a	4	12	19	n/a	119	n/a	3	n/a	n/a	n/a	n/a	493.68	n/a
463.331	0.497	happy	Picture	16.481	n/a	4	12	20	n/a	120	108	3	n/a	n/a	n/a	n/a	494.211	AM09ANS.jpg
463.828	0.514	Blank	Blank	15.967	n/a	4	12	20	n/a	120	n/a	3	n/a	n/a	n/a	n/a	494.708	n/a
464.359	10.014	ITI	Fixation+	5.937	n/a	4	n/a	n/a	n/a	n/a	n/a	n/a	n/a	n/a	n/a	n/a	495.239	n/a
480.31	n/a	ConfirmRating	Rate	n/a	5.935	4	n/a	n/a	0	n/a	n/a	n/a	2	Happy	30	49	511.189	n/a
489.474	n/a	ConfirmRating	Rate	n/a	9.135	4	n/a	n/a	1	n/a	n/a	n/a	3	Happy	31	49	520.354	n/a
