onset	duration	trial_type	event_type	time_until_response	response_time	trial_number	block_num_within_trial	image_seq_num_within_block	question_seq_num_within_block	image_seq_num	picture_number	condition	question_type	block_type	rating	rating_computed	onset_uncorrected	KDEV_imagefile
0.009	10.014	ITI	Fixation+	97.81	n/a	1	n/a	n/a	n/a	n/a	n/a	n/a	n/a	n/a	n/a	n/a	47.592	n/a
10.039	0.497	happy	Picture	97.296	n/a	1	1	1	n/a	1	108	3	n/a	n/a	n/a	n/a	57.622	AM09ANS.jpg
10.536	0.514	Blank	Blank	96.782	n/a	1	1	1	n/a	1	n/a	3	n/a	n/a	n/a	n/a	58.12	n/a
11.067	0.497	happy	Picture	96.268	n/a	1	1	2	n/a	2	99	3	n/a	n/a	n/a	n/a	58.65	AF31ANS.jpg
11.564	0.514	Blank	Blank	95.754	n/a	1	1	2	n/a	2	n/a	3	n/a	n/a	n/a	n/a	59.147	n/a
12.095	0.497	happy	Picture	95.24	n/a	1	1	3	n/a	3	98	3	n/a	n/a	n/a	n/a	59.678	BF29ANS.jpg
12.592	0.514	Blank	Blank	94.726	n/a	1	1	3	n/a	3	n/a	3	n/a	n/a	n/a	n/a	60.175	n/a
13.123	0.497	happy	Picture	94.212	n/a	1	1	4	n/a	4	107	3	n/a	n/a	n/a	n/a	60.706	BM08ANS.jpg
13.62	0.514	Blank	Blank	93.698	n/a	1	1	4	n/a	4	n/a	3	n/a	n/a	n/a	n/a	61.203	n/a
14.15	0.497	happy	Picture	93.184	n/a	1	1	5	n/a	5	104	3	n/a	n/a	n/a	n/a	61.734	BM05ANS.jpg
14.648	0.514	Blank	Blank	92.671	n/a	1	1	5	n/a	5	n/a	3	n/a	n/a	n/a	n/a	62.231	n/a
15.178	0.497	happy	Picture	92.156	n/a	1	1	6	n/a	6	101	3	n/a	n/a	n/a	n/a	62.762	AM01ANS.jpg
15.676	0.514	Blank	Blank	91.643	n/a	1	1	6	n/a	6	n/a	3	n/a	n/a	n/a	n/a	63.259	n/a
16.206	0.497	happy	Picture	91.129	n/a	1	1	7	n/a	7	103	3	n/a	n/a	n/a	n/a	63.789	AM04ANS.jpg
16.703	0.514	Blank	Blank	90.615	n/a	1	1	7	n/a	7	n/a	3	n/a	n/a	n/a	n/a	64.287	n/a
17.234	0.497	happy	Picture	90.101	n/a	1	1	8	n/a	8	111	3	n/a	n/a	n/a	n/a	64.817	BM12ANS.jpg
17.731	0.514	Blank	Blank	89.587	n/a	1	1	8	n/a	8	n/a	3	n/a	n/a	n/a	n/a	65.315	n/a
18.262	0.497	happy	Picture	89.073	n/a	1	1	9	n/a	9	110	3	n/a	n/a	n/a	n/a	65.845	AM11ANS.jpg
18.759	0.514	Blank	Blank	88.559	n/a	1	1	9	n/a	9	n/a	3	n/a	n/a	n/a	n/a	66.343	n/a
19.29	0.497	happy	Picture	88.045	n/a	1	1	10	n/a	10	85	3	n/a	n/a	n/a	n/a	66.873	BF07ANS.jpg
19.787	0.514	Blank	Blank	87.531	n/a	1	1	10	n/a	10	n/a	3	n/a	n/a	n/a	n/a	67.371	n/a
20.318	0.497	happy	Picture	87.017	n/a	1	1	11	n/a	11	87	3	n/a	n/a	n/a	n/a	67.901	BF11ANS.jpg
20.815	0.514	Blank	Blank	86.503	n/a	1	1	11	n/a	11	n/a	3	n/a	n/a	n/a	n/a	68.398	n/a
21.346	0.497	happy	Picture	85.989	n/a	1	1	12	n/a	12	91	3	n/a	n/a	n/a	n/a	68.929	AF20ANS.jpg
21.843	0.514	Blank	Blank	85.475	n/a	1	1	12	n/a	12	n/a	3	n/a	n/a	n/a	n/a	69.426	n/a
22.373	0.497	happy	Picture	84.961	n/a	1	1	13	n/a	13	115	3	n/a	n/a	n/a	n/a	69.957	AM23ANS.jpg
22.871	0.514	Blank	Blank	84.447	n/a	1	1	13	n/a	13	n/a	3	n/a	n/a	n/a	n/a	70.454	n/a
23.401	0.497	happy	Picture	83.934	n/a	1	1	14	n/a	14	97	3	n/a	n/a	n/a	n/a	70.985	BF28ANS.jpg
23.899	0.514	Blank	Blank	83.42	n/a	1	1	14	n/a	14	n/a	3	n/a	n/a	n/a	n/a	71.482	n/a
24.429	0.497	happy	Picture	82.906	n/a	1	1	15	n/a	15	82	3	n/a	n/a	n/a	n/a	72.013	AF03ANS.jpg
24.927	0.514	Blank	Blank	82.392	n/a	1	1	15	n/a	15	n/a	3	n/a	n/a	n/a	n/a	72.51	n/a
25.457	0.497	happy	Picture	81.878	n/a	1	1	16	n/a	16	96	3	n/a	n/a	n/a	n/a	73.04	AF26ANS.jpg
25.955	0.514	Blank	Blank	81.364	n/a	1	1	16	n/a	16	n/a	3	n/a	n/a	n/a	n/a	73.538	n/a
26.485	0.497	happy	Picture	80.85	n/a	1	1	17	n/a	17	109	3	n/a	n/a	n/a	n/a	74.068	AM10ANS.jpg
26.982	0.514	Blank	Blank	80.336	n/a	1	1	17	n/a	17	n/a	3	n/a	n/a	n/a	n/a	74.566	n/a
27.513	0.497	happy	Picture	79.822	n/a	1	1	18	n/a	18	114	3	n/a	n/a	n/a	n/a	75.096	AM22ANS.jpg
28.01	0.514	Blank	Blank	79.308	n/a	1	1	18	n/a	18	n/a	3	n/a	n/a	n/a	n/a	75.594	n/a
28.541	0.497	happy	Picture	78.794	n/a	1	1	19	n/a	19	120	3	n/a	n/a	n/a	n/a	76.124	AM35ANS.jpg
29.038	0.514	Blank	Blank	78.28	n/a	1	1	19	n/a	19	n/a	3	n/a	n/a	n/a	n/a	76.621	n/a
29.569	0.497	happy	Picture	77.766	n/a	1	1	20	n/a	20	81	3	n/a	n/a	n/a	n/a	77.152	AF01ANS.jpg
30.066	0.514	Blank	Blank	77.252	n/a	1	1	20	n/a	20	n/a	3	n/a	n/a	n/a	n/a	77.649	n/a
30.596	10.014	ITI	Fixation+	67.222	n/a	1	n/a	n/a	n/a	n/a	n/a	n/a	n/a	n/a	n/a	n/a	78.18	n/a
40.627	0.497	neutral	Picture	66.708	n/a	1	2	1	n/a	21	28	1	n/a	n/a	n/a	n/a	88.21	AM09NES.jpg
41.124	0.514	Blank	Blank	66.194	n/a	1	2	1	n/a	21	n/a	1	n/a	n/a	n/a	n/a	88.707	n/a
41.654	0.497	neutral	Picture	65.68	n/a	1	2	2	n/a	22	27	1	n/a	n/a	n/a	n/a	89.238	BM08NES.jpg
42.152	0.514	Blank	Blank	65.166	n/a	1	2	2	n/a	22	n/a	1	n/a	n/a	n/a	n/a	89.735	n/a
42.682	0.497	neutral	Picture	64.653	n/a	1	2	3	n/a	23	16	1	n/a	n/a	n/a	n/a	90.266	AF26NES.jpg
43.18	0.514	Blank	Blank	64.138	n/a	1	2	3	n/a	23	n/a	1	n/a	n/a	n/a	n/a	90.763	n/a
43.71	0.497	neutral	Picture	63.625	n/a	1	2	4	n/a	24	3	1	n/a	n/a	n/a	n/a	91.293	BF04NES.jpg
44.208	0.514	Blank	Blank	63.111	n/a	1	2	4	n/a	24	n/a	1	n/a	n/a	n/a	n/a	91.791	n/a
44.738	0.497	neutral	Picture	62.597	n/a	1	2	5	n/a	25	32	1	n/a	n/a	n/a	n/a	92.321	AM14NES.jpg
45.235	0.514	Blank	Blank	62.083	n/a	1	2	5	n/a	25	n/a	1	n/a	n/a	n/a	n/a	92.819	n/a
45.766	0.497	neutral	Picture	61.569	n/a	1	2	6	n/a	26	37	1	n/a	n/a	n/a	n/a	93.349	BM25NES.jpg
46.263	0.514	Blank	Blank	61.055	n/a	1	2	6	n/a	26	n/a	1	n/a	n/a	n/a	n/a	93.847	n/a
46.794	0.497	neutral	Picture	60.541	n/a	1	2	7	n/a	27	15	1	n/a	n/a	n/a	n/a	94.377	AF25NES.jpg
47.291	0.514	Blank	Blank	60.027	n/a	1	2	7	n/a	27	n/a	1	n/a	n/a	n/a	n/a	94.874	n/a
47.822	0.497	neutral	Picture	59.513	n/a	1	2	8	n/a	28	23	1	n/a	n/a	n/a	n/a	95.405	AM04NES.jpg
48.319	0.514	Blank	Blank	58.999	n/a	1	2	8	n/a	28	n/a	1	n/a	n/a	n/a	n/a	95.902	n/a
48.85	0.497	neutral	Picture	58.485	n/a	1	2	9	n/a	29	34	1	n/a	n/a	n/a	n/a	96.433	AM22NES.jpg
49.347	0.514	Blank	Blank	57.971	n/a	1	2	9	n/a	29	n/a	1	n/a	n/a	n/a	n/a	96.93	n/a
49.878	0.497	neutral	Picture	57.457	n/a	1	2	10	n/a	30	24	1	n/a	n/a	n/a	n/a	97.461	BM05NES.jpg
50.375	0.514	Blank	Blank	56.943	n/a	1	2	10	n/a	30	n/a	1	n/a	n/a	n/a	n/a	97.958	n/a
50.905	0.497	neutral	Picture	56.429	n/a	1	2	11	n/a	31	12	1	n/a	n/a	n/a	n/a	98.489	AF21NES.jpg
51.403	0.514	Blank	Blank	55.916	n/a	1	2	11	n/a	31	n/a	1	n/a	n/a	n/a	n/a	98.986	n/a
51.933	0.497	neutral	Picture	55.402	n/a	1	2	12	n/a	32	6	1	n/a	n/a	n/a	n/a	99.517	AF09NES.jpg
52.431	0.514	Blank	Blank	54.888	n/a	1	2	12	n/a	32	n/a	1	n/a	n/a	n/a	n/a	100.014	n/a
52.961	0.497	neutral	Picture	54.374	n/a	1	2	13	n/a	33	17	1	n/a	n/a	n/a	n/a	100.544	BF28NES.jpg
53.458	0.514	Blank	Blank	53.86	n/a	1	2	13	n/a	33	n/a	1	n/a	n/a	n/a	n/a	101.042	n/a
53.989	0.497	neutral	Picture	53.346	n/a	1	2	14	n/a	34	2	1	n/a	n/a	n/a	n/a	101.572	AF03NES.jpg
54.486	0.514	Blank	Blank	52.832	n/a	1	2	14	n/a	34	n/a	1	n/a	n/a	n/a	n/a	102.07	n/a
55.017	0.497	neutral	Picture	52.318	n/a	1	2	15	n/a	35	9	1	n/a	n/a	n/a	n/a	102.6	AF17NES.jpg
55.514	0.51	Blank	Blank	51.808	n/a	1	2	15	n/a	35	n/a	1	n/a	n/a	n/a	n/a	103.098	n/a
56.045	0.497	neutral	Picture	51.29	n/a	1	2	16	n/a	36	25	1	n/a	n/a	n/a	n/a	103.628	BM06NES.jpg
56.542	0.514	Blank	Blank	50.776	n/a	1	2	16	n/a	36	n/a	1	n/a	n/a	n/a	n/a	104.126	n/a
57.073	0.497	neutral	Picture	50.262	n/a	1	2	17	n/a	37	8	1	n/a	n/a	n/a	n/a	104.656	AF14NES.jpg
57.57	0.514	Blank	Blank	49.748	n/a	1	2	17	n/a	37	n/a	1	n/a	n/a	n/a	n/a	105.153	n/a
58.101	0.497	neutral	Picture	49.234	n/a	1	2	18	n/a	38	19	1	n/a	n/a	n/a	n/a	105.684	AF31NES.jpg
58.598	0.514	Blank	Blank	48.72	n/a	1	2	18	n/a	38	n/a	1	n/a	n/a	n/a	n/a	106.181	n/a
59.128	0.497	neutral	Picture	48.206	n/a	1	2	19	n/a	39	14	1	n/a	n/a	n/a	n/a	106.712	AF23NES.jpg
59.626	0.514	Blank	Blank	47.692	n/a	1	2	19	n/a	39	n/a	1	n/a	n/a	n/a	n/a	107.209	n/a
60.156	0.497	neutral	Picture	47.179	n/a	1	2	20	n/a	40	4	1	n/a	n/a	n/a	n/a	107.74	AF05NES.jpg
60.654	0.514	Blank	Blank	46.665	n/a	1	2	20	n/a	40	n/a	1	n/a	n/a	n/a	n/a	108.237	n/a
61.184	10.014	ITI	Fixation+	36.635	n/a	1	n/a	n/a	n/a	n/a	n/a	n/a	n/a	n/a	n/a	n/a	108.767	n/a
71.214	0.497	happy	Picture	36.12	n/a	1	3	1	n/a	41	84	3	n/a	n/a	n/a	n/a	118.798	AF05ANS.jpg
71.712	0.514	Blank	Blank	35.607	n/a	1	3	1	n/a	41	n/a	3	n/a	n/a	n/a	n/a	119.295	n/a
72.242	0.497	happy	Picture	35.093	n/a	1	3	2	n/a	42	92	3	n/a	n/a	n/a	n/a	119.826	AF21ANS.jpg
72.739	0.514	Blank	Blank	34.579	n/a	1	3	2	n/a	42	n/a	3	n/a	n/a	n/a	n/a	120.323	n/a
73.27	0.497	happy	Picture	34.065	n/a	1	3	3	n/a	43	86	3	n/a	n/a	n/a	n/a	120.853	AF09ANS.jpg
73.767	0.514	Blank	Blank	33.551	n/a	1	3	3	n/a	43	n/a	3	n/a	n/a	n/a	n/a	121.351	n/a
74.298	0.497	happy	Picture	33.037	n/a	1	3	4	n/a	44	93	3	n/a	n/a	n/a	n/a	121.881	BF22ANS.jpg
74.795	0.514	Blank	Blank	32.523	n/a	1	3	4	n/a	44	n/a	3	n/a	n/a	n/a	n/a	122.379	n/a
75.326	0.497	happy	Picture	32.009	n/a	1	3	5	n/a	45	88	3	n/a	n/a	n/a	n/a	122.909	AF14ANS.jpg
75.823	0.514	Blank	Blank	31.495	n/a	1	3	5	n/a	45	n/a	3	n/a	n/a	n/a	n/a	123.406	n/a
76.354	0.497	happy	Picture	30.981	n/a	1	3	6	n/a	46	113	3	n/a	n/a	n/a	n/a	123.937	AM21ANS.jpg
76.851	0.514	Blank	Blank	30.467	n/a	1	3	6	n/a	46	n/a	3	n/a	n/a	n/a	n/a	124.434	n/a
77.382	0.497	happy	Picture	29.953	n/a	1	3	7	n/a	47	95	3	n/a	n/a	n/a	n/a	124.965	AF25ANS.jpg
77.879	0.514	Blank	Blank	29.439	n/a	1	3	7	n/a	47	n/a	3	n/a	n/a	n/a	n/a	125.462	n/a
78.41	0.497	happy	Picture	28.925	n/a	1	3	8	n/a	48	102	3	n/a	n/a	n/a	n/a	125.993	BM03ANS.jpg
78.907	0.514	Blank	Blank	28.411	n/a	1	3	8	n/a	48	n/a	3	n/a	n/a	n/a	n/a	126.49	n/a
79.437	0.497	happy	Picture	27.898	n/a	1	3	9	n/a	49	112	3	n/a	n/a	n/a	n/a	127.021	AM14ANS.jpg
79.935	0.514	Blank	Blank	27.384	n/a	1	3	9	n/a	49	n/a	3	n/a	n/a	n/a	n/a	127.518	n/a
80.465	0.497	happy	Picture	26.87	n/a	1	3	10	n/a	50	83	3	n/a	n/a	n/a	n/a	128.048	BF04ANS.jpg
80.963	0.514	Blank	Blank	26.356	n/a	1	3	10	n/a	50	n/a	3	n/a	n/a	n/a	n/a	128.546	n/a
81.493	0.497	happy	Picture	25.842	n/a	1	3	11	n/a	51	90	3	n/a	n/a	n/a	n/a	129.076	AF18ANS.jpg
81.99	0.514	Blank	Blank	25.328	n/a	1	3	11	n/a	51	n/a	3	n/a	n/a	n/a	n/a	129.574	n/a
82.521	0.497	happy	Picture	24.814	n/a	1	3	12	n/a	52	117	3	n/a	n/a	n/a	n/a	130.104	BM25ANS.jpg
83.018	0.514	Blank	Blank	24.3	n/a	1	3	12	n/a	52	n/a	3	n/a	n/a	n/a	n/a	130.602	n/a
83.549	0.497	happy	Picture	23.786	n/a	1	3	13	n/a	53	94	3	n/a	n/a	n/a	n/a	131.132	AF23ANS.jpg
84.046	0.514	Blank	Blank	23.272	n/a	1	3	13	n/a	53	n/a	3	n/a	n/a	n/a	n/a	131.63	n/a
84.577	0.497	happy	Picture	22.758	n/a	1	3	14	n/a	54	106	3	n/a	n/a	n/a	n/a	132.16	AM07ANS.jpg
85.074	0.514	Blank	Blank	22.244	n/a	1	3	14	n/a	54	n/a	3	n/a	n/a	n/a	n/a	132.657	n/a
85.605	0.497	happy	Picture	21.73	n/a	1	3	15	n/a	55	105	3	n/a	n/a	n/a	n/a	133.188	BM06ANS.jpg
86.102	0.514	Blank	Blank	21.216	n/a	1	3	15	n/a	55	n/a	3	n/a	n/a	n/a	n/a	133.685	n/a
86.632	0.497	happy	Picture	20.702	n/a	1	3	16	n/a	56	116	3	n/a	n/a	n/a	n/a	134.216	BM24ANS.jpg
87.13	0.514	Blank	Blank	20.188	n/a	1	3	16	n/a	56	n/a	3	n/a	n/a	n/a	n/a	134.713	n/a
87.66	0.497	happy	Picture	19.675	n/a	1	3	17	n/a	57	89	3	n/a	n/a	n/a	n/a	135.244	AF17ANS.jpg
88.158	0.514	Blank	Blank	19.16	n/a	1	3	17	n/a	57	n/a	3	n/a	n/a	n/a	n/a	135.741	n/a
88.688	0.497	happy	Picture	18.647	n/a	1	3	18	n/a	58	118	3	n/a	n/a	n/a	n/a	136.272	BM26ANS.jpg
89.186	0.514	Blank	Blank	18.133	n/a	1	3	18	n/a	58	n/a	3	n/a	n/a	n/a	n/a	136.769	n/a
89.716	0.497	happy	Picture	17.619	n/a	1	3	19	n/a	59	100	3	n/a	n/a	n/a	n/a	137.299	AF32ANS.jpg
90.213	0.514	Blank	Blank	17.105	n/a	1	3	19	n/a	59	n/a	3	n/a	n/a	n/a	n/a	137.797	n/a
90.744	0.497	happy	Picture	16.591	n/a	1	3	20	n/a	60	119	3	n/a	n/a	n/a	n/a	138.327	BM28ANS.jpg
91.241	0.514	Blank	Blank	16.077	n/a	1	3	20	n/a	60	n/a	3	n/a	n/a	n/a	n/a	138.825	n/a
91.772	10.014	ITI	Fixation+	6.047	n/a	1	n/a	n/a	n/a	n/a	n/a	n/a	n/a	n/a	n/a	n/a	139.355	n/a
107.832	n/a	ConfirmRating	Rate	n/a	6.035	1	n/a	n/a	0	n/a	n/a	n/a	2	Happy	86	52	155.416	n/a
109.993	n/a	ConfirmRating	Rate	n/a	2.155	1	n/a	n/a	1	n/a	n/a	n/a	3	Happy	0	49	157.576	n/a
110.025	10.014	ITI	Fixation+	95.364	n/a	2	n/a	n/a	n/a	n/a	n/a	n/a	n/a	n/a	n/a	n/a	157.608	n/a
120.055	0.497	angry	Picture	94.85	n/a	2	4	1	n/a	61	79	2	n/a	n/a	n/a	n/a	167.638	BM28HAS.jpg
120.552	0.514	Blank	Blank	94.336	n/a	2	4	1	n/a	61	n/a	2	n/a	n/a	n/a	n/a	168.136	n/a
121.083	0.497	angry	Picture	93.822	n/a	2	4	2	n/a	62	61	2	n/a	n/a	n/a	n/a	168.666	AM01HAS.jpg
121.58	0.514	Blank	Blank	93.308	n/a	2	4	2	n/a	62	n/a	2	n/a	n/a	n/a	n/a	169.164	n/a
122.111	0.497	angry	Picture	92.794	n/a	2	4	3	n/a	63	57	2	n/a	n/a	n/a	n/a	169.694	BF28HAS.jpg
122.608	0.514	Blank	Blank	92.28	n/a	2	4	3	n/a	63	n/a	2	n/a	n/a	n/a	n/a	170.192	n/a
123.139	0.497	angry	Picture	91.766	n/a	2	4	4	n/a	64	77	2	n/a	n/a	n/a	n/a	170.722	BM25HAS.jpg
123.636	0.514	Blank	Blank	91.252	n/a	2	4	4	n/a	64	n/a	2	n/a	n/a	n/a	n/a	171.219	n/a
124.167	0.497	angry	Picture	90.738	n/a	2	4	5	n/a	65	47	2	n/a	n/a	n/a	n/a	171.75	BF11HAS.jpg
124.664	0.514	Blank	Blank	90.224	n/a	2	4	5	n/a	65	n/a	2	n/a	n/a	n/a	n/a	172.247	n/a
125.195	0.497	angry	Picture	89.71	n/a	2	4	6	n/a	66	50	2	n/a	n/a	n/a	n/a	172.778	AF18HAS.jpg
125.692	0.514	Blank	Blank	89.196	n/a	2	4	6	n/a	66	n/a	2	n/a	n/a	n/a	n/a	173.275	n/a
126.222	0.497	angry	Picture	88.682	n/a	2	4	7	n/a	67	78	2	n/a	n/a	n/a	n/a	173.806	BM26HAS.jpg
126.72	0.514	Blank	Blank	88.168	n/a	2	4	7	n/a	67	n/a	2	n/a	n/a	n/a	n/a	174.303	n/a
127.25	0.497	angry	Picture	87.655	n/a	2	4	8	n/a	68	45	2	n/a	n/a	n/a	n/a	174.834	BF07HAS.jpg
127.748	0.514	Blank	Blank	87.141	n/a	2	4	8	n/a	68	n/a	2	n/a	n/a	n/a	n/a	175.331	n/a
128.278	0.497	angry	Picture	86.627	n/a	2	4	9	n/a	69	56	2	n/a	n/a	n/a	n/a	175.862	AF26HAS.jpg
128.775	0.514	Blank	Blank	86.113	n/a	2	4	9	n/a	69	n/a	2	n/a	n/a	n/a	n/a	176.359	n/a
129.306	0.497	angry	Picture	85.599	n/a	2	4	10	n/a	70	65	2	n/a	n/a	n/a	n/a	176.889	BM06HAS.jpg
129.803	0.514	Blank	Blank	85.085	n/a	2	4	10	n/a	70	n/a	2	n/a	n/a	n/a	n/a	177.387	n/a
130.334	0.497	angry	Picture	84.571	n/a	2	4	11	n/a	71	73	2	n/a	n/a	n/a	n/a	177.917	AM21HAS.jpg
130.831	0.514	Blank	Blank	84.057	n/a	2	4	11	n/a	71	n/a	2	n/a	n/a	n/a	n/a	178.415	n/a
131.362	0.497	angry	Picture	83.543	n/a	2	4	12	n/a	72	41	2	n/a	n/a	n/a	n/a	178.945	AF01HAS.jpg
131.859	0.514	Blank	Blank	83.029	n/a	2	4	12	n/a	72	n/a	2	n/a	n/a	n/a	n/a	179.442	n/a
132.39	0.497	angry	Picture	82.515	n/a	2	4	13	n/a	73	59	2	n/a	n/a	n/a	n/a	179.973	AF31HAS.jpg
132.887	0.514	Blank	Blank	82.001	n/a	2	4	13	n/a	73	n/a	2	n/a	n/a	n/a	n/a	180.47	n/a
133.418	0.497	angry	Picture	81.487	n/a	2	4	14	n/a	74	64	2	n/a	n/a	n/a	n/a	181.001	BM05HAS.jpg
133.915	0.514	Blank	Blank	80.973	n/a	2	4	14	n/a	74	n/a	2	n/a	n/a	n/a	n/a	181.498	n/a
134.445	0.497	angry	Picture	80.459	n/a	2	4	15	n/a	75	68	2	n/a	n/a	n/a	n/a	182.029	AM09HAS.jpg
134.943	0.514	Blank	Blank	79.945	n/a	2	4	15	n/a	75	n/a	2	n/a	n/a	n/a	n/a	182.526	n/a
135.473	0.497	angry	Picture	79.431	n/a	2	4	16	n/a	76	54	2	n/a	n/a	n/a	n/a	183.057	AF23HAS.jpg
135.971	0.514	Blank	Blank	78.918	n/a	2	4	16	n/a	76	n/a	2	n/a	n/a	n/a	n/a	183.554	n/a
136.501	0.497	angry	Picture	78.404	n/a	2	4	17	n/a	77	53	2	n/a	n/a	n/a	n/a	184.084	BF22HAS.jpg
136.999	0.514	Blank	Blank	77.89	n/a	2	4	17	n/a	77	n/a	2	n/a	n/a	n/a	n/a	184.582	n/a
137.529	0.497	angry	Picture	77.376	n/a	2	4	18	n/a	78	44	2	n/a	n/a	n/a	n/a	185.112	AF05HAS.jpg
138.026	0.514	Blank	Blank	76.862	n/a	2	4	18	n/a	78	n/a	2	n/a	n/a	n/a	n/a	185.61	n/a
138.557	0.497	angry	Picture	76.348	n/a	2	4	19	n/a	79	52	2	n/a	n/a	n/a	n/a	186.14	AF21HAS.jpg
139.054	0.514	Blank	Blank	75.834	n/a	2	4	19	n/a	79	n/a	2	n/a	n/a	n/a	n/a	186.638	n/a
139.585	0.497	angry	Picture	75.32	n/a	2	4	20	n/a	80	62	2	n/a	n/a	n/a	n/a	187.168	BM03HAS.jpg
140.082	0.514	Blank	Blank	74.806	n/a	2	4	20	n/a	80	n/a	2	n/a	n/a	n/a	n/a	187.666	n/a
140.613	10.014	ITI	Fixation+	64.776	n/a	2	n/a	n/a	n/a	n/a	n/a	n/a	n/a	n/a	n/a	n/a	188.196	n/a
150.643	0.497	neutral	Picture	64.262	n/a	2	5	1	n/a	81	23	1	n/a	n/a	n/a	n/a	198.226	AM04NES.jpg
151.14	0.514	Blank	Blank	63.748	n/a	2	5	1	n/a	81	n/a	1	n/a	n/a	n/a	n/a	198.724	n/a
151.671	0.497	neutral	Picture	63.234	n/a	2	5	2	n/a	82	29	1	n/a	n/a	n/a	n/a	199.254	AM10NES.jpg
152.168	0.514	Blank	Blank	62.72	n/a	2	5	2	n/a	82	n/a	1	n/a	n/a	n/a	n/a	199.751	n/a
152.699	0.497	neutral	Picture	62.206	n/a	2	5	3	n/a	83	24	1	n/a	n/a	n/a	n/a	200.282	BM05NES.jpg
153.196	0.514	Blank	Blank	61.692	n/a	2	5	3	n/a	83	n/a	1	n/a	n/a	n/a	n/a	200.779	n/a
153.726	0.497	neutral	Picture	61.178	n/a	2	5	4	n/a	84	12	1	n/a	n/a	n/a	n/a	201.31	AF21NES.jpg
154.224	0.514	Blank	Blank	60.664	n/a	2	5	4	n/a	84	n/a	1	n/a	n/a	n/a	n/a	201.807	n/a
154.754	0.497	neutral	Picture	60.15	n/a	2	5	5	n/a	85	13	1	n/a	n/a	n/a	n/a	202.338	BF22NES.jpg
155.252	0.514	Blank	Blank	59.636	n/a	2	5	5	n/a	85	n/a	1	n/a	n/a	n/a	n/a	202.835	n/a
155.782	0.497	neutral	Picture	59.123	n/a	2	5	6	n/a	86	17	1	n/a	n/a	n/a	n/a	203.365	BF28NES.jpg
156.28	0.514	Blank	Blank	58.609	n/a	2	5	6	n/a	86	n/a	1	n/a	n/a	n/a	n/a	203.863	n/a
156.81	0.497	neutral	Picture	58.095	n/a	2	5	7	n/a	87	4	1	n/a	n/a	n/a	n/a	204.393	AF05NES.jpg
157.308	0.514	Blank	Blank	57.581	n/a	2	5	7	n/a	87	n/a	1	n/a	n/a	n/a	n/a	204.891	n/a
157.838	0.497	neutral	Picture	57.067	n/a	2	5	8	n/a	88	11	1	n/a	n/a	n/a	n/a	205.421	AF20NES.jpg
158.335	0.514	Blank	Blank	56.553	n/a	2	5	8	n/a	88	n/a	1	n/a	n/a	n/a	n/a	205.919	n/a
158.866	0.497	neutral	Picture	56.039	n/a	2	5	9	n/a	89	22	1	n/a	n/a	n/a	n/a	206.449	BM03NES.jpg
159.363	0.514	Blank	Blank	55.525	n/a	2	5	9	n/a	89	n/a	1	n/a	n/a	n/a	n/a	206.946	n/a
159.894	0.497	neutral	Picture	55.011	n/a	2	5	10	n/a	90	15	1	n/a	n/a	n/a	n/a	207.477	AF25NES.jpg
160.391	0.514	Blank	Blank	54.497	n/a	2	5	10	n/a	90	n/a	1	n/a	n/a	n/a	n/a	207.974	n/a
160.922	0.497	neutral	Picture	53.983	n/a	2	5	11	n/a	91	19	1	n/a	n/a	n/a	n/a	208.505	AF31NES.jpg
161.419	0.514	Blank	Blank	53.469	n/a	2	5	11	n/a	91	n/a	1	n/a	n/a	n/a	n/a	209.002	n/a
161.95	0.497	neutral	Picture	52.955	n/a	2	5	12	n/a	92	9	1	n/a	n/a	n/a	n/a	209.533	AF17NES.jpg
162.447	0.514	Blank	Blank	52.441	n/a	2	5	12	n/a	92	n/a	1	n/a	n/a	n/a	n/a	210.03	n/a
162.977	0.497	neutral	Picture	51.927	n/a	2	5	13	n/a	93	14	1	n/a	n/a	n/a	n/a	210.561	AF23NES.jpg
163.475	0.514	Blank	Blank	51.413	n/a	2	5	13	n/a	93	n/a	1	n/a	n/a	n/a	n/a	211.058	n/a
164.005	0.497	neutral	Picture	50.9	n/a	2	5	14	n/a	94	36	1	n/a	n/a	n/a	n/a	211.589	BM24NES.jpg
164.503	0.514	Blank	Blank	50.386	n/a	2	5	14	n/a	94	n/a	1	n/a	n/a	n/a	n/a	212.086	n/a
165.033	0.497	neutral	Picture	49.872	n/a	2	5	15	n/a	95	34	1	n/a	n/a	n/a	n/a	212.617	AM22NES.jpg
165.53	0.514	Blank	Blank	49.358	n/a	2	5	15	n/a	95	n/a	1	n/a	n/a	n/a	n/a	213.114	n/a
166.061	0.497	neutral	Picture	48.844	n/a	2	5	16	n/a	96	10	1	n/a	n/a	n/a	n/a	213.644	AF18NES.jpg
166.558	0.514	Blank	Blank	48.33	n/a	2	5	16	n/a	96	n/a	1	n/a	n/a	n/a	n/a	214.142	n/a
167.089	0.497	neutral	Picture	47.816	n/a	2	5	17	n/a	97	5	1	n/a	n/a	n/a	n/a	214.672	BF07NES.jpg
167.586	0.514	Blank	Blank	47.302	n/a	2	5	17	n/a	97	n/a	1	n/a	n/a	n/a	n/a	215.17	n/a
168.117	0.497	neutral	Picture	46.788	n/a	2	5	18	n/a	98	25	1	n/a	n/a	n/a	n/a	215.7	BM06NES.jpg
168.614	0.514	Blank	Blank	46.274	n/a	2	5	18	n/a	98	n/a	1	n/a	n/a	n/a	n/a	216.197	n/a
169.145	0.497	neutral	Picture	45.76	n/a	2	5	19	n/a	99	39	1	n/a	n/a	n/a	n/a	216.728	AM28NES.jpg
169.642	0.514	Blank	Blank	45.246	n/a	2	5	19	n/a	99	n/a	1	n/a	n/a	n/a	n/a	217.225	n/a
170.172	0.497	neutral	Picture	44.732	n/a	2	5	20	n/a	100	33	1	n/a	n/a	n/a	n/a	217.756	AM21NES.jpg
170.67	0.514	Blank	Blank	44.218	n/a	2	5	20	n/a	100	n/a	1	n/a	n/a	n/a	n/a	218.253	n/a
171.2	10.014	ITI	Fixation+	34.188	n/a	2	n/a	n/a	n/a	n/a	n/a	n/a	n/a	n/a	n/a	n/a	218.784	n/a
181.23	0.497	angry	Picture	33.674	n/a	2	6	1	n/a	101	74	2	n/a	n/a	n/a	n/a	228.814	AM22HAS.jpg
181.728	0.514	Blank	Blank	33.16	n/a	2	6	1	n/a	101	n/a	2	n/a	n/a	n/a	n/a	229.311	n/a
182.258	0.497	angry	Picture	32.646	n/a	2	6	2	n/a	102	76	2	n/a	n/a	n/a	n/a	229.842	BM24HAS.jpg
182.756	0.514	Blank	Blank	32.132	n/a	2	6	2	n/a	102	n/a	2	n/a	n/a	n/a	n/a	230.339	n/a
183.286	0.497	angry	Picture	31.619	n/a	2	6	3	n/a	103	80	2	n/a	n/a	n/a	n/a	230.87	BM35HAS.jpg
183.784	0.514	Blank	Blank	31.105	n/a	2	6	3	n/a	103	n/a	2	n/a	n/a	n/a	n/a	231.367	n/a
184.314	0.497	angry	Picture	30.591	n/a	2	6	4	n/a	104	75	2	n/a	n/a	n/a	n/a	231.898	AM23HAS.jpg
184.811	0.514	Blank	Blank	30.077	n/a	2	6	4	n/a	104	n/a	2	n/a	n/a	n/a	n/a	232.395	n/a
185.342	0.497	angry	Picture	29.563	n/a	2	6	5	n/a	105	49	2	n/a	n/a	n/a	n/a	232.925	AF17HAS.jpg
185.839	0.514	Blank	Blank	29.049	n/a	2	6	5	n/a	105	n/a	2	n/a	n/a	n/a	n/a	233.423	n/a
186.37	0.497	angry	Picture	28.535	n/a	2	6	6	n/a	106	43	2	n/a	n/a	n/a	n/a	233.953	BF04HAS.jpg
186.867	0.514	Blank	Blank	28.021	n/a	2	6	6	n/a	106	n/a	2	n/a	n/a	n/a	n/a	234.451	n/a
187.398	0.497	angry	Picture	27.507	n/a	2	6	7	n/a	107	70	2	n/a	n/a	n/a	n/a	234.981	BM11HAS.jpg
187.895	0.514	Blank	Blank	26.993	n/a	2	6	7	n/a	107	n/a	2	n/a	n/a	n/a	n/a	235.478	n/a
188.426	0.497	angry	Picture	26.479	n/a	2	6	8	n/a	108	66	2	n/a	n/a	n/a	n/a	236.009	BM07HAS.jpg
188.923	0.514	Blank	Blank	25.965	n/a	2	6	8	n/a	108	n/a	2	n/a	n/a	n/a	n/a	236.506	n/a
189.454	0.497	angry	Picture	25.451	n/a	2	6	9	n/a	109	48	2	n/a	n/a	n/a	n/a	237.037	AF14HAS.jpg
189.951	0.514	Blank	Blank	24.937	n/a	2	6	9	n/a	109	n/a	2	n/a	n/a	n/a	n/a	237.534	n/a
190.481	0.497	angry	Picture	24.423	n/a	2	6	10	n/a	110	58	2	n/a	n/a	n/a	n/a	238.065	BF29HAS.jpg
190.979	0.514	Blank	Blank	23.909	n/a	2	6	10	n/a	110	n/a	2	n/a	n/a	n/a	n/a	238.562	n/a
191.509	0.497	angry	Picture	23.395	n/a	2	6	11	n/a	111	63	2	n/a	n/a	n/a	n/a	239.093	AM04HAS.jpg
192.007	0.514	Blank	Blank	22.882	n/a	2	6	11	n/a	111	n/a	2	n/a	n/a	n/a	n/a	239.59	n/a
192.537	0.497	angry	Picture	22.368	n/a	2	6	12	n/a	112	72	2	n/a	n/a	n/a	n/a	240.12	AM14HAS.jpg
193.035	0.514	Blank	Blank	21.854	n/a	2	6	12	n/a	112	n/a	2	n/a	n/a	n/a	n/a	240.618	n/a
193.565	0.497	angry	Picture	21.34	n/a	2	6	13	n/a	113	55	2	n/a	n/a	n/a	n/a	241.148	AF25HAS.jpg
194.063	0.514	Blank	Blank	20.826	n/a	2	6	13	n/a	113	n/a	2	n/a	n/a	n/a	n/a	241.646	n/a
194.593	0.497	angry	Picture	20.312	n/a	2	6	14	n/a	114	42	2	n/a	n/a	n/a	n/a	242.176	AF03HAS.jpg
195.09	0.514	Blank	Blank	19.798	n/a	2	6	14	n/a	114	n/a	2	n/a	n/a	n/a	n/a	242.674	n/a
195.621	0.497	angry	Picture	19.284	n/a	2	6	15	n/a	115	60	2	n/a	n/a	n/a	n/a	243.204	AF32HAS.jpg
196.118	0.514	Blank	Blank	18.77	n/a	2	6	15	n/a	115	n/a	2	n/a	n/a	n/a	n/a	243.702	n/a
196.649	0.497	angry	Picture	18.256	n/a	2	6	16	n/a	116	67	2	n/a	n/a	n/a	n/a	244.232	BM08HAS.jpg
197.146	0.514	Blank	Blank	17.742	n/a	2	6	16	n/a	116	n/a	2	n/a	n/a	n/a	n/a	244.729	n/a
197.677	0.497	angry	Picture	17.228	n/a	2	6	17	n/a	117	51	2	n/a	n/a	n/a	n/a	245.26	AF20HAS.jpg
198.174	0.514	Blank	Blank	16.714	n/a	2	6	17	n/a	117	n/a	2	n/a	n/a	n/a	n/a	245.757	n/a
198.704	0.497	angry	Picture	16.2	n/a	2	6	18	n/a	118	71	2	n/a	n/a	n/a	n/a	246.288	BM12HAS.jpg
199.202	0.514	Blank	Blank	15.686	n/a	2	6	18	n/a	118	n/a	2	n/a	n/a	n/a	n/a	246.785	n/a
199.732	0.497	angry	Picture	15.173	n/a	2	6	19	n/a	119	69	2	n/a	n/a	n/a	n/a	247.316	AM10HAS.jpg
200.23	0.514	Blank	Blank	14.659	n/a	2	6	19	n/a	119	n/a	2	n/a	n/a	n/a	n/a	247.813	n/a
200.76	0.497	angry	Picture	14.145	n/a	2	6	20	n/a	120	46	2	n/a	n/a	n/a	n/a	248.344	AF09HAS.jpg
201.258	0.514	Blank	Blank	13.631	n/a	2	6	20	n/a	120	n/a	2	n/a	n/a	n/a	n/a	248.841	n/a
201.788	10.014	ITI	Fixation+	3.601	n/a	2	n/a	n/a	n/a	n/a	n/a	n/a	n/a	n/a	n/a	n/a	249.371	n/a
215.402	n/a	ConfirmRating	Rate	n/a	3.598	2	n/a	n/a	0	n/a	n/a	n/a	2	Angry	72	50	262.986	n/a
217.181	n/a	ConfirmRating	Rate	n/a	1.758	2	n/a	n/a	1	n/a	n/a	n/a	3	Angry	10	49	264.764	n/a
217.206	15.004	Rest	Picture	n/a	n/a	n/a	n/a	n/a	n/a	n/a	n/a	n/a	0	n/a	0	0	264.79	n/a
232.227	10.014	ITI	Fixation+	94.498	n/a	3	n/a	n/a	n/a	n/a	n/a	n/a	n/a	n/a	n/a	n/a	279.81	n/a
242.257	0.497	happy	Picture	93.984	n/a	3	7	1	n/a	1	108	3	n/a	n/a	n/a	n/a	289.84	AM09ANS.jpg
242.754	0.514	Blank	Blank	93.47	n/a	3	7	1	n/a	1	n/a	3	n/a	n/a	n/a	n/a	290.337	n/a
243.285	0.497	happy	Picture	92.956	n/a	3	7	2	n/a	2	99	3	n/a	n/a	n/a	n/a	290.868	AF31ANS.jpg
243.782	0.514	Blank	Blank	92.442	n/a	3	7	2	n/a	2	n/a	3	n/a	n/a	n/a	n/a	291.365	n/a
244.313	0.497	happy	Picture	91.928	n/a	3	7	3	n/a	3	98	3	n/a	n/a	n/a	n/a	291.896	BF29ANS.jpg
244.81	0.514	Blank	Blank	91.414	n/a	3	7	3	n/a	3	n/a	3	n/a	n/a	n/a	n/a	292.393	n/a
245.34	0.497	happy	Picture	90.9	n/a	3	7	4	n/a	4	107	3	n/a	n/a	n/a	n/a	292.924	BM08ANS.jpg
245.838	0.514	Blank	Blank	90.386	n/a	3	7	4	n/a	4	n/a	3	n/a	n/a	n/a	n/a	293.421	n/a
246.368	0.497	happy	Picture	89.872	n/a	3	7	5	n/a	5	104	3	n/a	n/a	n/a	n/a	293.952	BM05ANS.jpg
246.866	0.514	Blank	Blank	89.359	n/a	3	7	5	n/a	5	n/a	3	n/a	n/a	n/a	n/a	294.449	n/a
247.396	0.497	happy	Picture	88.845	n/a	3	7	6	n/a	6	101	3	n/a	n/a	n/a	n/a	294.979	AM01ANS.jpg
247.894	0.514	Blank	Blank	88.331	n/a	3	7	6	n/a	6	n/a	3	n/a	n/a	n/a	n/a	295.477	n/a
248.424	0.497	happy	Picture	87.817	n/a	3	7	7	n/a	7	103	3	n/a	n/a	n/a	n/a	296.007	AM04ANS.jpg
248.921	0.514	Blank	Blank	87.303	n/a	3	7	7	n/a	7	n/a	3	n/a	n/a	n/a	n/a	296.505	n/a
249.452	0.497	happy	Picture	86.789	n/a	3	7	8	n/a	8	111	3	n/a	n/a	n/a	n/a	297.035	BM12ANS.jpg
249.949	0.514	Blank	Blank	86.275	n/a	3	7	8	n/a	8	n/a	3	n/a	n/a	n/a	n/a	297.533	n/a
250.48	0.497	happy	Picture	85.761	n/a	3	7	9	n/a	9	110	3	n/a	n/a	n/a	n/a	298.063	AM11ANS.jpg
250.977	0.514	Blank	Blank	85.247	n/a	3	7	9	n/a	9	n/a	3	n/a	n/a	n/a	n/a	298.56	n/a
251.508	0.497	happy	Picture	84.733	n/a	3	7	10	n/a	10	85	3	n/a	n/a	n/a	n/a	299.091	BF07ANS.jpg
252.005	0.514	Blank	Blank	84.219	n/a	3	7	10	n/a	10	n/a	3	n/a	n/a	n/a	n/a	299.588	n/a
252.536	0.497	happy	Picture	83.705	n/a	3	7	11	n/a	11	87	3	n/a	n/a	n/a	n/a	300.119	BF11ANS.jpg
253.033	0.514	Blank	Blank	83.191	n/a	3	7	11	n/a	11	n/a	3	n/a	n/a	n/a	n/a	300.616	n/a
253.563	0.497	happy	Picture	82.677	n/a	3	7	12	n/a	12	91	3	n/a	n/a	n/a	n/a	301.147	AF20ANS.jpg
254.061	0.514	Blank	Blank	82.163	n/a	3	7	12	n/a	12	n/a	3	n/a	n/a	n/a	n/a	301.644	n/a
254.591	0.497	happy	Picture	81.649	n/a	3	7	13	n/a	13	115	3	n/a	n/a	n/a	n/a	302.175	AM23ANS.jpg
255.089	0.514	Blank	Blank	81.135	n/a	3	7	13	n/a	13	n/a	3	n/a	n/a	n/a	n/a	302.672	n/a
255.619	0.497	happy	Picture	80.622	n/a	3	7	14	n/a	14	97	3	n/a	n/a	n/a	n/a	303.202	BF28ANS.jpg
256.116	0.514	Blank	Blank	80.108	n/a	3	7	14	n/a	14	n/a	3	n/a	n/a	n/a	n/a	303.7	n/a
256.647	0.497	happy	Picture	79.594	n/a	3	7	15	n/a	15	82	3	n/a	n/a	n/a	n/a	304.23	AF03ANS.jpg
257.144	0.514	Blank	Blank	79.08	n/a	3	7	15	n/a	15	n/a	3	n/a	n/a	n/a	n/a	304.728	n/a
257.675	0.497	happy	Picture	78.566	n/a	3	7	16	n/a	16	96	3	n/a	n/a	n/a	n/a	305.258	AF26ANS.jpg
258.172	0.514	Blank	Blank	78.052	n/a	3	7	16	n/a	16	n/a	3	n/a	n/a	n/a	n/a	305.756	n/a
258.703	0.497	happy	Picture	77.538	n/a	3	7	17	n/a	17	109	3	n/a	n/a	n/a	n/a	306.286	AM10ANS.jpg
259.2	0.514	Blank	Blank	77.024	n/a	3	7	17	n/a	17	n/a	3	n/a	n/a	n/a	n/a	306.784	n/a
259.731	0.497	happy	Picture	76.51	n/a	3	7	18	n/a	18	114	3	n/a	n/a	n/a	n/a	307.314	AM22ANS.jpg
260.228	0.514	Blank	Blank	75.996	n/a	3	7	18	n/a	18	n/a	3	n/a	n/a	n/a	n/a	307.811	n/a
260.759	0.497	happy	Picture	75.482	n/a	3	7	19	n/a	19	120	3	n/a	n/a	n/a	n/a	308.342	AM35ANS.jpg
261.256	0.514	Blank	Blank	74.968	n/a	3	7	19	n/a	19	n/a	3	n/a	n/a	n/a	n/a	308.839	n/a
261.786	0.497	happy	Picture	74.454	n/a	3	7	20	n/a	20	81	3	n/a	n/a	n/a	n/a	309.37	AF01ANS.jpg
262.284	0.514	Blank	Blank	73.94	n/a	3	7	20	n/a	20	n/a	3	n/a	n/a	n/a	n/a	309.867	n/a
262.814	10.014	ITI	Fixation+	63.91	n/a	3	n/a	n/a	n/a	n/a	n/a	n/a	n/a	n/a	n/a	n/a	310.398	n/a
272.844	0.497	neutral	Picture	63.396	n/a	3	8	1	n/a	21	28	1	n/a	n/a	n/a	n/a	320.428	AM09NES.jpg
273.342	0.514	Blank	Blank	62.882	n/a	3	8	1	n/a	21	n/a	1	n/a	n/a	n/a	n/a	320.925	n/a
273.872	0.497	neutral	Picture	62.368	n/a	3	8	2	n/a	22	27	1	n/a	n/a	n/a	n/a	321.456	BM08NES.jpg
274.37	0.514	Blank	Blank	61.854	n/a	3	8	2	n/a	22	n/a	1	n/a	n/a	n/a	n/a	321.953	n/a
274.9	0.497	neutral	Picture	61.34	n/a	3	8	3	n/a	23	16	1	n/a	n/a	n/a	n/a	322.483	AF26NES.jpg
275.398	0.514	Blank	Blank	60.827	n/a	3	8	3	n/a	23	n/a	1	n/a	n/a	n/a	n/a	322.981	n/a
275.928	0.497	neutral	Picture	60.313	n/a	3	8	4	n/a	24	3	1	n/a	n/a	n/a	n/a	323.511	BF04NES.jpg
276.425	0.514	Blank	Blank	59.799	n/a	3	8	4	n/a	24	n/a	1	n/a	n/a	n/a	n/a	324.009	n/a
276.956	0.497	neutral	Picture	59.285	n/a	3	8	5	n/a	25	32	1	n/a	n/a	n/a	n/a	324.539	AM14NES.jpg
277.453	0.514	Blank	Blank	58.771	n/a	3	8	5	n/a	25	n/a	1	n/a	n/a	n/a	n/a	325.037	n/a
277.984	0.497	neutral	Picture	58.257	n/a	3	8	6	n/a	26	37	1	n/a	n/a	n/a	n/a	325.567	BM25NES.jpg
278.481	0.514	Blank	Blank	57.743	n/a	3	8	6	n/a	26	n/a	1	n/a	n/a	n/a	n/a	326.065	n/a
279.012	0.497	neutral	Picture	57.229	n/a	3	8	7	n/a	27	15	1	n/a	n/a	n/a	n/a	326.595	AF25NES.jpg
279.509	0.514	Blank	Blank	56.715	n/a	3	8	7	n/a	27	n/a	1	n/a	n/a	n/a	n/a	327.092	n/a
280.04	0.497	neutral	Picture	56.201	n/a	3	8	8	n/a	28	23	1	n/a	n/a	n/a	n/a	327.623	AM04NES.jpg
280.537	0.514	Blank	Blank	55.687	n/a	3	8	8	n/a	28	n/a	1	n/a	n/a	n/a	n/a	328.12	n/a
281.067	0.497	neutral	Picture	55.173	n/a	3	8	9	n/a	29	34	1	n/a	n/a	n/a	n/a	328.651	AM22NES.jpg
281.565	0.514	Blank	Blank	54.659	n/a	3	8	9	n/a	29	n/a	1	n/a	n/a	n/a	n/a	329.148	n/a
282.095	0.497	neutral	Picture	54.145	n/a	3	8	10	n/a	30	24	1	n/a	n/a	n/a	n/a	329.679	BM05NES.jpg
282.593	0.514	Blank	Blank	53.631	n/a	3	8	10	n/a	30	n/a	1	n/a	n/a	n/a	n/a	330.176	n/a
283.123	0.497	neutral	Picture	53.117	n/a	3	8	11	n/a	31	12	1	n/a	n/a	n/a	n/a	330.707	AF21NES.jpg
283.621	0.514	Blank	Blank	52.604	n/a	3	8	11	n/a	31	n/a	1	n/a	n/a	n/a	n/a	331.204	n/a
284.151	0.497	neutral	Picture	52.089	n/a	3	8	12	n/a	32	6	1	n/a	n/a	n/a	n/a	331.734	AF09NES.jpg
284.649	0.514	Blank	Blank	51.576	n/a	3	8	12	n/a	32	n/a	1	n/a	n/a	n/a	n/a	332.232	n/a
285.179	0.497	neutral	Picture	51.062	n/a	3	8	13	n/a	33	17	1	n/a	n/a	n/a	n/a	332.762	BF28NES.jpg
285.676	0.514	Blank	Blank	50.548	n/a	3	8	13	n/a	33	n/a	1	n/a	n/a	n/a	n/a	333.26	n/a
286.207	0.497	neutral	Picture	50.034	n/a	3	8	14	n/a	34	2	1	n/a	n/a	n/a	n/a	333.79	AF03NES.jpg
286.704	0.514	Blank	Blank	49.52	n/a	3	8	14	n/a	34	n/a	1	n/a	n/a	n/a	n/a	334.288	n/a
287.235	0.497	neutral	Picture	49.006	n/a	3	8	15	n/a	35	9	1	n/a	n/a	n/a	n/a	334.818	AF17NES.jpg
287.732	0.514	Blank	Blank	48.492	n/a	3	8	15	n/a	35	n/a	1	n/a	n/a	n/a	n/a	335.315	n/a
288.263	0.497	neutral	Picture	47.978	n/a	3	8	16	n/a	36	25	1	n/a	n/a	n/a	n/a	335.846	BM06NES.jpg
288.76	0.514	Blank	Blank	47.464	n/a	3	8	16	n/a	36	n/a	1	n/a	n/a	n/a	n/a	336.343	n/a
289.291	0.497	neutral	Picture	46.95	n/a	3	8	17	n/a	37	8	1	n/a	n/a	n/a	n/a	336.874	AF14NES.jpg
289.788	0.514	Blank	Blank	46.436	n/a	3	8	17	n/a	37	n/a	1	n/a	n/a	n/a	n/a	337.371	n/a
290.318	0.497	neutral	Picture	45.922	n/a	3	8	18	n/a	38	19	1	n/a	n/a	n/a	n/a	337.902	AF31NES.jpg
290.816	0.514	Blank	Blank	45.408	n/a	3	8	18	n/a	38	n/a	1	n/a	n/a	n/a	n/a	338.399	n/a
291.346	0.497	neutral	Picture	44.894	n/a	3	8	19	n/a	39	14	1	n/a	n/a	n/a	n/a	338.93	AF23NES.jpg
291.844	0.514	Blank	Blank	44.38	n/a	3	8	19	n/a	39	n/a	1	n/a	n/a	n/a	n/a	339.427	n/a
292.374	0.497	neutral	Picture	43.866	n/a	3	8	20	n/a	40	4	1	n/a	n/a	n/a	n/a	339.957	AF05NES.jpg
292.871	0.514	Blank	Blank	43.353	n/a	3	8	20	n/a	40	n/a	1	n/a	n/a	n/a	n/a	340.455	n/a
293.402	10.014	ITI	Fixation+	33.322	n/a	3	n/a	n/a	n/a	n/a	n/a	n/a	n/a	n/a	n/a	n/a	340.985	n/a
303.432	0.497	happy	Picture	32.808	n/a	3	9	1	n/a	41	84	3	n/a	n/a	n/a	n/a	351.015	AF05ANS.jpg
303.93	0.514	Blank	Blank	32.295	n/a	3	9	1	n/a	41	n/a	3	n/a	n/a	n/a	n/a	351.513	n/a
304.46	0.497	happy	Picture	31.781	n/a	3	9	2	n/a	42	92	3	n/a	n/a	n/a	n/a	352.043	AF21ANS.jpg
304.957	0.514	Blank	Blank	31.267	n/a	3	9	2	n/a	42	n/a	3	n/a	n/a	n/a	n/a	352.541	n/a
305.488	0.497	happy	Picture	30.753	n/a	3	9	3	n/a	43	86	3	n/a	n/a	n/a	n/a	353.071	AF09ANS.jpg
305.985	0.514	Blank	Blank	30.239	n/a	3	9	3	n/a	43	n/a	3	n/a	n/a	n/a	n/a	353.568	n/a
306.516	0.497	happy	Picture	29.725	n/a	3	9	4	n/a	44	93	3	n/a	n/a	n/a	n/a	354.099	BF22ANS.jpg
307.013	0.514	Blank	Blank	29.211	n/a	3	9	4	n/a	44	n/a	3	n/a	n/a	n/a	n/a	354.596	n/a
307.544	0.497	happy	Picture	28.697	n/a	3	9	5	n/a	45	88	3	n/a	n/a	n/a	n/a	355.127	AF14ANS.jpg
308.041	0.514	Blank	Blank	28.183	n/a	3	9	5	n/a	45	n/a	3	n/a	n/a	n/a	n/a	355.624	n/a
308.572	0.497	happy	Picture	27.669	n/a	3	9	6	n/a	46	113	3	n/a	n/a	n/a	n/a	356.155	AM21ANS.jpg
309.069	0.514	Blank	Blank	27.155	n/a	3	9	6	n/a	46	n/a	3	n/a	n/a	n/a	n/a	356.652	n/a
309.599	0.497	happy	Picture	26.641	n/a	3	9	7	n/a	47	95	3	n/a	n/a	n/a	n/a	357.183	AF25ANS.jpg
310.097	0.514	Blank	Blank	26.127	n/a	3	9	7	n/a	47	n/a	3	n/a	n/a	n/a	n/a	357.68	n/a
310.627	0.497	happy	Picture	25.613	n/a	3	9	8	n/a	48	102	3	n/a	n/a	n/a	n/a	358.211	BM03ANS.jpg
311.125	0.514	Blank	Blank	25.099	n/a	3	9	8	n/a	48	n/a	3	n/a	n/a	n/a	n/a	358.708	n/a
311.655	0.497	happy	Picture	24.586	n/a	3	9	9	n/a	49	112	3	n/a	n/a	n/a	n/a	359.238	AM14ANS.jpg
312.152	0.514	Blank	Blank	24.072	n/a	3	9	9	n/a	49	n/a	3	n/a	n/a	n/a	n/a	359.736	n/a
312.683	0.497	happy	Picture	23.558	n/a	3	9	10	n/a	50	83	3	n/a	n/a	n/a	n/a	360.266	BF04ANS.jpg
313.18	0.514	Blank	Blank	23.044	n/a	3	9	10	n/a	50	n/a	3	n/a	n/a	n/a	n/a	360.764	n/a
313.711	0.497	happy	Picture	22.53	n/a	3	9	11	n/a	51	90	3	n/a	n/a	n/a	n/a	361.294	AF18ANS.jpg
314.208	0.514	Blank	Blank	22.016	n/a	3	9	11	n/a	51	n/a	3	n/a	n/a	n/a	n/a	361.792	n/a
314.739	0.497	happy	Picture	21.502	n/a	3	9	12	n/a	52	117	3	n/a	n/a	n/a	n/a	362.322	BM25ANS.jpg
315.236	0.514	Blank	Blank	20.988	n/a	3	9	12	n/a	52	n/a	3	n/a	n/a	n/a	n/a	362.82	n/a
315.767	0.497	happy	Picture	20.474	n/a	3	9	13	n/a	53	94	3	n/a	n/a	n/a	n/a	363.35	AF23ANS.jpg
316.264	0.514	Blank	Blank	19.96	n/a	3	9	13	n/a	53	n/a	3	n/a	n/a	n/a	n/a	363.847	n/a
316.795	0.497	happy	Picture	19.446	n/a	3	9	14	n/a	54	106	3	n/a	n/a	n/a	n/a	364.378	AM07ANS.jpg
317.292	0.514	Blank	Blank	18.932	n/a	3	9	14	n/a	54	n/a	3	n/a	n/a	n/a	n/a	364.875	n/a
317.822	0.497	happy	Picture	18.418	n/a	3	9	15	n/a	55	105	3	n/a	n/a	n/a	n/a	365.406	BM06ANS.jpg
318.32	0.514	Blank	Blank	17.904	n/a	3	9	15	n/a	55	n/a	3	n/a	n/a	n/a	n/a	365.903	n/a
318.85	0.497	happy	Picture	17.39	n/a	3	9	16	n/a	56	116	3	n/a	n/a	n/a	n/a	366.434	BM24ANS.jpg
319.348	0.514	Blank	Blank	16.876	n/a	3	9	16	n/a	56	n/a	3	n/a	n/a	n/a	n/a	366.931	n/a
319.878	0.497	happy	Picture	16.362	n/a	3	9	17	n/a	57	89	3	n/a	n/a	n/a	n/a	367.462	AF17ANS.jpg
320.376	0.514	Blank	Blank	15.849	n/a	3	9	17	n/a	57	n/a	3	n/a	n/a	n/a	n/a	367.959	n/a
320.906	0.497	happy	Picture	15.335	n/a	3	9	18	n/a	58	118	3	n/a	n/a	n/a	n/a	368.489	BM26ANS.jpg
321.403	0.514	Blank	Blank	14.821	n/a	3	9	18	n/a	58	n/a	3	n/a	n/a	n/a	n/a	368.987	n/a
321.934	0.497	happy	Picture	14.307	n/a	3	9	19	n/a	59	100	3	n/a	n/a	n/a	n/a	369.517	AF32ANS.jpg
322.431	0.514	Blank	Blank	13.793	n/a	3	9	19	n/a	59	n/a	3	n/a	n/a	n/a	n/a	370.015	n/a
322.962	0.497	happy	Picture	13.279	n/a	3	9	20	n/a	60	119	3	n/a	n/a	n/a	n/a	370.545	BM28ANS.jpg
323.459	0.514	Blank	Blank	12.765	n/a	3	9	20	n/a	60	n/a	3	n/a	n/a	n/a	n/a	371.043	n/a
323.99	10.014	ITI	Fixation+	2.735	n/a	3	n/a	n/a	n/a	n/a	n/a	n/a	n/a	n/a	n/a	n/a	371.573	n/a
336.738	n/a	ConfirmRating	Rate	n/a	2.719	3	n/a	n/a	0	n/a	n/a	n/a	2	Happy	95	51	384.321	n/a
338.599	n/a	ConfirmRating	Rate	n/a	1.857	3	n/a	n/a	1	n/a	n/a	n/a	3	Happy	0	49	386.182	n/a
338.629	10.014	ITI	Fixation+	94.239	n/a	4	n/a	n/a	n/a	n/a	n/a	n/a	n/a	n/a	n/a	n/a	386.212	n/a
348.659	0.497	angry	Picture	93.725	n/a	4	10	1	n/a	61	79	2	n/a	n/a	n/a	n/a	396.242	BM28HAS.jpg
349.156	0.514	Blank	Blank	93.211	n/a	4	10	1	n/a	61	n/a	2	n/a	n/a	n/a	n/a	396.74	n/a
349.687	0.497	angry	Picture	92.697	n/a	4	10	2	n/a	62	61	2	n/a	n/a	n/a	n/a	397.27	AM01HAS.jpg
350.184	0.514	Blank	Blank	92.183	n/a	4	10	2	n/a	62	n/a	2	n/a	n/a	n/a	n/a	397.767	n/a
350.715	0.497	angry	Picture	91.669	n/a	4	10	3	n/a	63	57	2	n/a	n/a	n/a	n/a	398.298	BF28HAS.jpg
351.212	0.514	Blank	Blank	91.155	n/a	4	10	3	n/a	63	n/a	2	n/a	n/a	n/a	n/a	398.795	n/a
351.742	0.497	angry	Picture	90.641	n/a	4	10	4	n/a	64	77	2	n/a	n/a	n/a	n/a	399.326	BM25HAS.jpg
352.24	0.514	Blank	Blank	90.127	n/a	4	10	4	n/a	64	n/a	2	n/a	n/a	n/a	n/a	399.823	n/a
352.77	0.497	angry	Picture	89.613	n/a	4	10	5	n/a	65	47	2	n/a	n/a	n/a	n/a	400.354	BF11HAS.jpg
353.268	0.514	Blank	Blank	89.099	n/a	4	10	5	n/a	65	n/a	2	n/a	n/a	n/a	n/a	400.851	n/a
353.798	0.497	angry	Picture	88.585	n/a	4	10	6	n/a	66	50	2	n/a	n/a	n/a	n/a	401.382	AF18HAS.jpg
354.296	0.514	Blank	Blank	88.072	n/a	4	10	6	n/a	66	n/a	2	n/a	n/a	n/a	n/a	401.879	n/a
354.826	0.497	angry	Picture	87.558	n/a	4	10	7	n/a	67	78	2	n/a	n/a	n/a	n/a	402.409	BM26HAS.jpg
355.323	0.514	Blank	Blank	87.044	n/a	4	10	7	n/a	67	n/a	2	n/a	n/a	n/a	n/a	402.907	n/a
355.854	0.497	angry	Picture	86.53	n/a	4	10	8	n/a	68	45	2	n/a	n/a	n/a	n/a	403.437	BF07HAS.jpg
356.351	0.514	Blank	Blank	86.016	n/a	4	10	8	n/a	68	n/a	2	n/a	n/a	n/a	n/a	403.935	n/a
356.882	0.497	angry	Picture	85.502	n/a	4	10	9	n/a	69	56	2	n/a	n/a	n/a	n/a	404.465	AF26HAS.jpg
357.379	0.514	Blank	Blank	84.988	n/a	4	10	9	n/a	69	n/a	2	n/a	n/a	n/a	n/a	404.962	n/a
357.91	0.497	angry	Picture	84.474	n/a	4	10	10	n/a	70	65	2	n/a	n/a	n/a	n/a	405.493	BM06HAS.jpg
358.407	0.514	Blank	Blank	83.96	n/a	4	10	10	n/a	70	n/a	2	n/a	n/a	n/a	n/a	405.99	n/a
358.938	0.497	angry	Picture	83.446	n/a	4	10	11	n/a	71	73	2	n/a	n/a	n/a	n/a	406.521	AM21HAS.jpg
359.435	0.514	Blank	Blank	82.932	n/a	4	10	11	n/a	71	n/a	2	n/a	n/a	n/a	n/a	407.018	n/a
359.966	0.497	angry	Picture	82.418	n/a	4	10	12	n/a	72	41	2	n/a	n/a	n/a	n/a	407.549	AF01HAS.jpg
360.463	0.514	Blank	Blank	81.904	n/a	4	10	12	n/a	72	n/a	2	n/a	n/a	n/a	n/a	408.046	n/a
360.993	0.497	angry	Picture	81.39	n/a	4	10	13	n/a	73	59	2	n/a	n/a	n/a	n/a	408.577	AF31HAS.jpg
361.491	0.514	Blank	Blank	80.876	n/a	4	10	13	n/a	73	n/a	2	n/a	n/a	n/a	n/a	409.074	n/a
362.021	0.497	angry	Picture	80.362	n/a	4	10	14	n/a	74	64	2	n/a	n/a	n/a	n/a	409.604	BM05HAS.jpg
362.519	0.514	Blank	Blank	79.849	n/a	4	10	14	n/a	74	n/a	2	n/a	n/a	n/a	n/a	410.102	n/a
363.049	0.497	angry	Picture	79.334	n/a	4	10	15	n/a	75	68	2	n/a	n/a	n/a	n/a	410.632	AM09HAS.jpg
363.546	0.514	Blank	Blank	78.821	n/a	4	10	15	n/a	75	n/a	2	n/a	n/a	n/a	n/a	411.13	n/a
364.077	0.497	angry	Picture	78.307	n/a	4	10	16	n/a	76	54	2	n/a	n/a	n/a	n/a	411.66	AF23HAS.jpg
364.574	0.514	Blank	Blank	77.793	n/a	4	10	16	n/a	76	n/a	2	n/a	n/a	n/a	n/a	412.158	n/a
365.105	0.497	angry	Picture	77.279	n/a	4	10	17	n/a	77	53	2	n/a	n/a	n/a	n/a	412.688	BF22HAS.jpg
365.602	0.514	Blank	Blank	76.765	n/a	4	10	17	n/a	77	n/a	2	n/a	n/a	n/a	n/a	413.185	n/a
366.133	0.497	angry	Picture	76.251	n/a	4	10	18	n/a	78	44	2	n/a	n/a	n/a	n/a	413.716	AF05HAS.jpg
366.63	0.514	Blank	Blank	75.737	n/a	4	10	18	n/a	78	n/a	2	n/a	n/a	n/a	n/a	414.213	n/a
367.161	0.497	angry	Picture	75.223	n/a	4	10	19	n/a	79	52	2	n/a	n/a	n/a	n/a	414.744	AF21HAS.jpg
367.658	0.514	Blank	Blank	74.709	n/a	4	10	19	n/a	79	n/a	2	n/a	n/a	n/a	n/a	415.241	n/a
368.188	0.497	angry	Picture	74.195	n/a	4	10	20	n/a	80	62	2	n/a	n/a	n/a	n/a	415.772	BM03HAS.jpg
368.686	0.514	Blank	Blank	73.681	n/a	4	10	20	n/a	80	n/a	2	n/a	n/a	n/a	n/a	416.269	n/a
369.216	10.014	ITI	Fixation+	63.651	n/a	4	n/a	n/a	n/a	n/a	n/a	n/a	n/a	n/a	n/a	n/a	416.8	n/a
379.246	0.497	neutral	Picture	63.137	n/a	4	11	1	n/a	81	23	1	n/a	n/a	n/a	n/a	426.83	AM04NES.jpg
379.744	0.514	Blank	Blank	62.623	n/a	4	11	1	n/a	81	n/a	1	n/a	n/a	n/a	n/a	427.327	n/a
380.274	0.497	neutral	Picture	62.109	n/a	4	11	2	n/a	82	29	1	n/a	n/a	n/a	n/a	427.858	AM10NES.jpg
380.772	0.514	Blank	Blank	61.595	n/a	4	11	2	n/a	82	n/a	1	n/a	n/a	n/a	n/a	428.355	n/a
381.302	0.497	neutral	Picture	61.081	n/a	4	11	3	n/a	83	24	1	n/a	n/a	n/a	n/a	428.886	BM05NES.jpg
381.8	0.514	Blank	Blank	60.567	n/a	4	11	3	n/a	83	n/a	1	n/a	n/a	n/a	n/a	429.383	n/a
382.33	0.497	neutral	Picture	60.053	n/a	4	11	4	n/a	84	12	1	n/a	n/a	n/a	n/a	429.913	AF21NES.jpg
382.827	0.514	Blank	Blank	59.54	n/a	4	11	4	n/a	84	n/a	1	n/a	n/a	n/a	n/a	430.411	n/a
383.358	0.497	neutral	Picture	59.026	n/a	4	11	5	n/a	85	13	1	n/a	n/a	n/a	n/a	430.941	BF22NES.jpg
383.855	0.514	Blank	Blank	58.512	n/a	4	11	5	n/a	85	n/a	1	n/a	n/a	n/a	n/a	431.439	n/a
384.386	0.497	neutral	Picture	57.998	n/a	4	11	6	n/a	86	17	1	n/a	n/a	n/a	n/a	431.969	BF28NES.jpg
384.883	0.514	Blank	Blank	57.484	n/a	4	11	6	n/a	86	n/a	1	n/a	n/a	n/a	n/a	432.467	n/a
385.414	0.497	neutral	Picture	56.97	n/a	4	11	7	n/a	87	4	1	n/a	n/a	n/a	n/a	432.997	AF05NES.jpg
385.911	0.514	Blank	Blank	56.456	n/a	4	11	7	n/a	87	n/a	1	n/a	n/a	n/a	n/a	433.494	n/a
386.442	0.497	neutral	Picture	55.942	n/a	4	11	8	n/a	88	11	1	n/a	n/a	n/a	n/a	434.025	AF20NES.jpg
386.939	0.514	Blank	Blank	55.428	n/a	4	11	8	n/a	88	n/a	1	n/a	n/a	n/a	n/a	434.522	n/a
387.469	0.497	neutral	Picture	54.914	n/a	4	11	9	n/a	89	22	1	n/a	n/a	n/a	n/a	435.053	BM03NES.jpg
387.967	0.514	Blank	Blank	54.4	n/a	4	11	9	n/a	89	n/a	1	n/a	n/a	n/a	n/a	435.55	n/a
388.497	0.497	neutral	Picture	53.886	n/a	4	11	10	n/a	90	15	1	n/a	n/a	n/a	n/a	436.081	AF25NES.jpg
388.995	0.514	Blank	Blank	53.372	n/a	4	11	10	n/a	90	n/a	1	n/a	n/a	n/a	n/a	436.578	n/a
389.525	0.497	neutral	Picture	52.858	n/a	4	11	11	n/a	91	19	1	n/a	n/a	n/a	n/a	437.109	AF31NES.jpg
390.023	0.514	Blank	Blank	52.344	n/a	4	11	11	n/a	91	n/a	1	n/a	n/a	n/a	n/a	437.606	n/a
390.553	0.497	neutral	Picture	51.83	n/a	4	11	12	n/a	92	9	1	n/a	n/a	n/a	n/a	438.137	AF17NES.jpg
391.05	0.514	Blank	Blank	51.316	n/a	4	11	12	n/a	92	n/a	1	n/a	n/a	n/a	n/a	438.634	n/a
391.581	0.497	neutral	Picture	50.803	n/a	4	11	13	n/a	93	14	1	n/a	n/a	n/a	n/a	439.164	AF23NES.jpg
392.078	0.514	Blank	Blank	50.289	n/a	4	11	13	n/a	93	n/a	1	n/a	n/a	n/a	n/a	439.662	n/a
392.609	0.497	neutral	Picture	49.775	n/a	4	11	14	n/a	94	36	1	n/a	n/a	n/a	n/a	440.192	BM24NES.jpg
393.106	0.514	Blank	Blank	49.261	n/a	4	11	14	n/a	94	n/a	1	n/a	n/a	n/a	n/a	440.69	n/a
393.637	0.497	neutral	Picture	48.747	n/a	4	11	15	n/a	95	34	1	n/a	n/a	n/a	n/a	441.22	AM22NES.jpg
394.134	0.514	Blank	Blank	48.233	n/a	4	11	15	n/a	95	n/a	1	n/a	n/a	n/a	n/a	441.717	n/a
394.665	0.497	neutral	Picture	47.719	n/a	4	11	16	n/a	96	10	1	n/a	n/a	n/a	n/a	442.248	AF18NES.jpg
395.162	0.514	Blank	Blank	47.205	n/a	4	11	16	n/a	96	n/a	1	n/a	n/a	n/a	n/a	442.745	n/a
395.693	0.497	neutral	Picture	46.691	n/a	4	11	17	n/a	97	5	1	n/a	n/a	n/a	n/a	443.276	BF07NES.jpg
396.19	0.514	Blank	Blank	46.177	n/a	4	11	17	n/a	97	n/a	1	n/a	n/a	n/a	n/a	443.773	n/a
396.721	0.497	neutral	Picture	45.663	n/a	4	11	18	n/a	98	25	1	n/a	n/a	n/a	n/a	444.304	BM06NES.jpg
397.218	0.514	Blank	Blank	45.149	n/a	4	11	18	n/a	98	n/a	1	n/a	n/a	n/a	n/a	444.801	n/a
397.748	0.497	neutral	Picture	44.635	n/a	4	11	19	n/a	99	39	1	n/a	n/a	n/a	n/a	445.332	AM28NES.jpg
398.246	0.514	Blank	Blank	44.121	n/a	4	11	19	n/a	99	n/a	1	n/a	n/a	n/a	n/a	445.829	n/a
398.776	0.497	neutral	Picture	43.607	n/a	4	11	20	n/a	100	33	1	n/a	n/a	n/a	n/a	446.36	AM21NES.jpg
399.274	0.514	Blank	Blank	43.094	n/a	4	11	20	n/a	100	n/a	1	n/a	n/a	n/a	n/a	446.857	n/a
399.804	10.014	ITI	Fixation+	33.063	n/a	4	n/a	n/a	n/a	n/a	n/a	n/a	n/a	n/a	n/a	n/a	447.387	n/a
409.834	0.497	angry	Picture	32.549	n/a	4	12	1	n/a	101	74	2	n/a	n/a	n/a	n/a	457.418	AM22HAS.jpg
410.332	0.514	Blank	Blank	32.035	n/a	4	12	1	n/a	101	n/a	2	n/a	n/a	n/a	n/a	457.915	n/a
410.862	0.497	angry	Picture	31.522	n/a	4	12	2	n/a	102	76	2	n/a	n/a	n/a	n/a	458.445	BM24HAS.jpg
411.359	0.514	Blank	Blank	31.008	n/a	4	12	2	n/a	102	n/a	2	n/a	n/a	n/a	n/a	458.943	n/a
411.89	0.497	angry	Picture	30.494	n/a	4	12	3	n/a	103	80	2	n/a	n/a	n/a	n/a	459.473	BM35HAS.jpg
412.387	0.514	Blank	Blank	29.98	n/a	4	12	3	n/a	103	n/a	2	n/a	n/a	n/a	n/a	459.971	n/a
412.918	0.497	angry	Picture	29.466	n/a	4	12	4	n/a	104	75	2	n/a	n/a	n/a	n/a	460.501	AM23HAS.jpg
413.415	0.514	Blank	Blank	28.952	n/a	4	12	4	n/a	104	n/a	2	n/a	n/a	n/a	n/a	460.998	n/a
413.946	0.497	angry	Picture	28.438	n/a	4	12	5	n/a	105	49	2	n/a	n/a	n/a	n/a	461.529	AF17HAS.jpg
414.443	0.514	Blank	Blank	27.924	n/a	4	12	5	n/a	105	n/a	2	n/a	n/a	n/a	n/a	462.026	n/a
414.974	0.497	angry	Picture	27.41	n/a	4	12	6	n/a	106	43	2	n/a	n/a	n/a	n/a	462.557	BF04HAS.jpg
415.471	0.514	Blank	Blank	26.896	n/a	4	12	6	n/a	106	n/a	2	n/a	n/a	n/a	n/a	463.054	n/a
416.001	0.497	angry	Picture	26.382	n/a	4	12	7	n/a	107	70	2	n/a	n/a	n/a	n/a	463.585	BM11HAS.jpg
416.499	0.513	Blank	Blank	25.869	n/a	4	12	7	n/a	107	n/a	2	n/a	n/a	n/a	n/a	464.082	n/a
417.029	0.497	angry	Picture	25.354	n/a	4	12	8	n/a	108	66	2	n/a	n/a	n/a	n/a	464.613	BM07HAS.jpg
417.527	0.514	Blank	Blank	24.84	n/a	4	12	8	n/a	108	n/a	2	n/a	n/a	n/a	n/a	465.11	n/a
418.057	0.497	angry	Picture	24.326	n/a	4	12	9	n/a	109	48	2	n/a	n/a	n/a	n/a	465.64	AF14HAS.jpg
418.555	0.514	Blank	Blank	23.813	n/a	4	12	9	n/a	109	n/a	2	n/a	n/a	n/a	n/a	466.138	n/a
419.085	0.497	angry	Picture	23.298	n/a	4	12	10	n/a	110	58	2	n/a	n/a	n/a	n/a	466.668	BF29HAS.jpg
419.582	0.514	Blank	Blank	22.785	n/a	4	12	10	n/a	110	n/a	2	n/a	n/a	n/a	n/a	467.166	n/a
420.113	0.497	angry	Picture	22.271	n/a	4	12	11	n/a	111	63	2	n/a	n/a	n/a	n/a	467.696	AM04HAS.jpg
420.61	0.514	Blank	Blank	21.757	n/a	4	12	11	n/a	111	n/a	2	n/a	n/a	n/a	n/a	468.194	n/a
421.141	0.497	angry	Picture	21.243	n/a	4	12	12	n/a	112	72	2	n/a	n/a	n/a	n/a	468.724	AM14HAS.jpg
421.638	0.514	Blank	Blank	20.729	n/a	4	12	12	n/a	112	n/a	2	n/a	n/a	n/a	n/a	469.221	n/a
422.169	0.497	angry	Picture	20.215	n/a	4	12	13	n/a	113	55	2	n/a	n/a	n/a	n/a	469.752	AF25HAS.jpg
422.666	0.514	Blank	Blank	19.701	n/a	4	12	13	n/a	113	n/a	2	n/a	n/a	n/a	n/a	470.249	n/a
423.197	0.497	angry	Picture	19.187	n/a	4	12	14	n/a	114	42	2	n/a	n/a	n/a	n/a	470.78	AF03HAS.jpg
423.694	0.514	Blank	Blank	18.673	n/a	4	12	14	n/a	114	n/a	2	n/a	n/a	n/a	n/a	471.277	n/a
424.224	0.497	angry	Picture	18.159	n/a	4	12	15	n/a	115	60	2	n/a	n/a	n/a	n/a	471.808	AF32HAS.jpg
424.722	0.514	Blank	Blank	17.645	n/a	4	12	15	n/a	115	n/a	2	n/a	n/a	n/a	n/a	472.305	n/a
425.252	0.497	angry	Picture	17.131	n/a	4	12	16	n/a	116	67	2	n/a	n/a	n/a	n/a	472.836	BM08HAS.jpg
425.75	0.514	Blank	Blank	16.617	n/a	4	12	16	n/a	116	n/a	2	n/a	n/a	n/a	n/a	473.333	n/a
426.28	0.497	angry	Picture	16.103	n/a	4	12	17	n/a	117	51	2	n/a	n/a	n/a	n/a	473.863	AF20HAS.jpg
426.778	0.514	Blank	Blank	15.589	n/a	4	12	17	n/a	117	n/a	2	n/a	n/a	n/a	n/a	474.361	n/a
427.308	0.497	angry	Picture	15.075	n/a	4	12	18	n/a	118	71	2	n/a	n/a	n/a	n/a	474.892	BM12HAS.jpg
427.805	0.514	Blank	Blank	14.561	n/a	4	12	18	n/a	118	n/a	2	n/a	n/a	n/a	n/a	475.389	n/a
428.336	0.497	angry	Picture	14.048	n/a	4	12	19	n/a	119	69	2	n/a	n/a	n/a	n/a	475.919	AM10HAS.jpg
428.833	0.514	Blank	Blank	13.534	n/a	4	12	19	n/a	119	n/a	2	n/a	n/a	n/a	n/a	476.417	n/a
429.364	0.497	angry	Picture	13.02	n/a	4	12	20	n/a	120	46	2	n/a	n/a	n/a	n/a	476.947	AF09HAS.jpg
429.861	0.514	Blank	Blank	12.506	n/a	4	12	20	n/a	120	n/a	2	n/a	n/a	n/a	n/a	477.445	n/a
430.392	10.014	ITI	Fixation+	2.476	n/a	4	n/a	n/a	n/a	n/a	n/a	n/a	n/a	n/a	n/a	n/a	477.975	n/a
442.881	n/a	ConfirmRating	Rate	n/a	2.47	4	n/a	n/a	0	n/a	n/a	n/a	2	Angry	85	51	490.464	n/a
445.934	n/a	ConfirmRating	Rate	n/a	3.033	4	n/a	n/a	1	n/a	n/a	n/a	3	Angry	7	49	493.517	n/a
