onset	duration	trial_type	event_type	time_until_response	response_time	trial_number	block_num_within_trial	image_seq_num_within_block	question_seq_num_within_block	image_seq_num	picture_number	condition	question_type	block_type	rating	rating_computed	onset_uncorrected	KDEV_imagefile
0.012	10.014	ITI	Fixation+	97.645	n/a	1	n/a	n/a	n/a	n/a	n/a	n/a	n/a	n/a	n/a	n/a	28.825	n/a
10.042	0.497	happy	Picture	97.131	n/a	1	1	1	n/a	1	108	3	n/a	n/a	n/a	n/a	38.855	AM09ANS.jpg
10.54	0.514	Blank	Blank	96.618	n/a	1	1	1	n/a	1	n/a	3	n/a	n/a	n/a	n/a	39.353	n/a
11.07	0.497	happy	Picture	96.104	n/a	1	1	2	n/a	2	99	3	n/a	n/a	n/a	n/a	39.883	AF31ANS.jpg
11.567	0.514	Blank	Blank	95.59	n/a	1	1	2	n/a	2	n/a	3	n/a	n/a	n/a	n/a	40.381	n/a
12.098	0.497	happy	Picture	95.076	n/a	1	1	3	n/a	3	98	3	n/a	n/a	n/a	n/a	40.911	BF29ANS.jpg
12.595	0.514	Blank	Blank	94.562	n/a	1	1	3	n/a	3	n/a	3	n/a	n/a	n/a	n/a	41.408	n/a
13.126	0.497	happy	Picture	94.048	n/a	1	1	4	n/a	4	107	3	n/a	n/a	n/a	n/a	41.939	BM08ANS.jpg
13.623	0.514	Blank	Blank	93.534	n/a	1	1	4	n/a	4	n/a	3	n/a	n/a	n/a	n/a	42.436	n/a
14.154	0.497	happy	Picture	93.02	n/a	1	1	5	n/a	5	104	3	n/a	n/a	n/a	n/a	42.967	BM05ANS.jpg
14.651	0.514	Blank	Blank	92.506	n/a	1	1	5	n/a	5	n/a	3	n/a	n/a	n/a	n/a	43.464	n/a
15.181	0.497	happy	Picture	91.992	n/a	1	1	6	n/a	6	101	3	n/a	n/a	n/a	n/a	43.995	AM01ANS.jpg
15.679	0.514	Blank	Blank	91.478	n/a	1	1	6	n/a	6	n/a	3	n/a	n/a	n/a	n/a	44.492	n/a
16.209	0.497	happy	Picture	90.964	n/a	1	1	7	n/a	7	103	3	n/a	n/a	n/a	n/a	45.023	AM04ANS.jpg
16.707	0.514	Blank	Blank	90.45	n/a	1	1	7	n/a	7	n/a	3	n/a	n/a	n/a	n/a	45.52	n/a
17.237	0.497	happy	Picture	89.936	n/a	1	1	8	n/a	8	111	3	n/a	n/a	n/a	n/a	46.051	BM12ANS.jpg
17.735	0.514	Blank	Blank	89.422	n/a	1	1	8	n/a	8	n/a	3	n/a	n/a	n/a	n/a	46.548	n/a
18.265	0.497	happy	Picture	88.909	n/a	1	1	9	n/a	9	110	3	n/a	n/a	n/a	n/a	47.078	AM11ANS.jpg
18.762	0.514	Blank	Blank	88.394	n/a	1	1	9	n/a	9	n/a	3	n/a	n/a	n/a	n/a	47.576	n/a
19.293	0.497	happy	Picture	87.881	n/a	1	1	10	n/a	10	85	3	n/a	n/a	n/a	n/a	48.106	BF07ANS.jpg
19.79	0.514	Blank	Blank	87.367	n/a	1	1	10	n/a	10	n/a	3	n/a	n/a	n/a	n/a	48.604	n/a
20.321	0.497	happy	Picture	86.853	n/a	1	1	11	n/a	11	87	3	n/a	n/a	n/a	n/a	49.134	BF11ANS.jpg
20.818	0.514	Blank	Blank	86.339	n/a	1	1	11	n/a	11	n/a	3	n/a	n/a	n/a	n/a	49.632	n/a
21.349	0.497	happy	Picture	85.825	n/a	1	1	12	n/a	12	91	3	n/a	n/a	n/a	n/a	50.162	AF20ANS.jpg
21.846	0.514	Blank	Blank	85.311	n/a	1	1	12	n/a	12	n/a	3	n/a	n/a	n/a	n/a	50.66	n/a
22.377	0.497	happy	Picture	84.797	n/a	1	1	13	n/a	13	115	3	n/a	n/a	n/a	n/a	51.19	AM23ANS.jpg
22.874	0.514	Blank	Blank	84.283	n/a	1	1	13	n/a	13	n/a	3	n/a	n/a	n/a	n/a	51.687	n/a
23.405	0.497	happy	Picture	83.769	n/a	1	1	14	n/a	14	97	3	n/a	n/a	n/a	n/a	52.218	BF28ANS.jpg
23.902	0.514	Blank	Blank	83.255	n/a	1	1	14	n/a	14	n/a	3	n/a	n/a	n/a	n/a	52.715	n/a
24.433	0.497	happy	Picture	82.741	n/a	1	1	15	n/a	15	82	3	n/a	n/a	n/a	n/a	53.246	AF03ANS.jpg
24.93	0.514	Blank	Blank	82.227	n/a	1	1	15	n/a	15	n/a	3	n/a	n/a	n/a	n/a	53.743	n/a
25.46	0.497	happy	Picture	81.713	n/a	1	1	16	n/a	16	96	3	n/a	n/a	n/a	n/a	54.274	AF26ANS.jpg
25.958	0.514	Blank	Blank	81.199	n/a	1	1	16	n/a	16	n/a	3	n/a	n/a	n/a	n/a	54.771	n/a
26.488	0.497	happy	Picture	80.685	n/a	1	1	17	n/a	17	109	3	n/a	n/a	n/a	n/a	55.302	AM10ANS.jpg
26.986	0.514	Blank	Blank	80.171	n/a	1	1	17	n/a	17	n/a	3	n/a	n/a	n/a	n/a	55.799	n/a
27.516	0.497	happy	Picture	79.657	n/a	1	1	18	n/a	18	114	3	n/a	n/a	n/a	n/a	56.33	AM22ANS.jpg
28.013	0.514	Blank	Blank	79.143	n/a	1	1	18	n/a	18	n/a	3	n/a	n/a	n/a	n/a	56.827	n/a
28.544	0.497	happy	Picture	78.63	n/a	1	1	19	n/a	19	120	3	n/a	n/a	n/a	n/a	57.357	AM35ANS.jpg
29.041	0.514	Blank	Blank	78.116	n/a	1	1	19	n/a	19	n/a	3	n/a	n/a	n/a	n/a	57.855	n/a
29.572	0.497	happy	Picture	77.602	n/a	1	1	20	n/a	20	81	3	n/a	n/a	n/a	n/a	58.385	AF01ANS.jpg
30.069	0.514	Blank	Blank	77.088	n/a	1	1	20	n/a	20	n/a	3	n/a	n/a	n/a	n/a	58.883	n/a
30.6	10.014	ITI	Fixation+	67.058	n/a	1	n/a	n/a	n/a	n/a	n/a	n/a	n/a	n/a	n/a	n/a	59.413	n/a
40.63	0.497	neutral	Picture	66.544	n/a	1	2	1	n/a	21	28	1	n/a	n/a	n/a	n/a	69.443	AM09NES.jpg
41.127	0.514	Blank	Blank	66.03	n/a	1	2	1	n/a	21	n/a	1	n/a	n/a	n/a	n/a	69.941	n/a
41.658	0.497	neutral	Picture	65.516	n/a	1	2	2	n/a	22	27	1	n/a	n/a	n/a	n/a	70.471	BM08NES.jpg
42.155	0.514	Blank	Blank	65.002	n/a	1	2	2	n/a	22	n/a	1	n/a	n/a	n/a	n/a	70.969	n/a
42.686	0.497	neutral	Picture	64.488	n/a	1	2	3	n/a	23	16	1	n/a	n/a	n/a	n/a	71.499	AF26NES.jpg
43.183	0.514	Blank	Blank	63.974	n/a	1	2	3	n/a	23	n/a	1	n/a	n/a	n/a	n/a	71.996	n/a
43.714	0.497	neutral	Picture	63.46	n/a	1	2	4	n/a	24	3	1	n/a	n/a	n/a	n/a	72.527	BF04NES.jpg
44.211	0.514	Blank	Blank	62.946	n/a	1	2	4	n/a	24	n/a	1	n/a	n/a	n/a	n/a	73.024	n/a
44.742	0.497	neutral	Picture	62.432	n/a	1	2	5	n/a	25	32	1	n/a	n/a	n/a	n/a	73.555	AM14NES.jpg
45.239	0.514	Blank	Blank	61.918	n/a	1	2	5	n/a	25	n/a	1	n/a	n/a	n/a	n/a	74.052	n/a
45.769	0.497	neutral	Picture	61.404	n/a	1	2	6	n/a	26	37	1	n/a	n/a	n/a	n/a	74.583	BM25NES.jpg
46.267	0.514	Blank	Blank	60.89	n/a	1	2	6	n/a	26	n/a	1	n/a	n/a	n/a	n/a	75.08	n/a
46.797	0.497	neutral	Picture	60.376	n/a	1	2	7	n/a	27	15	1	n/a	n/a	n/a	n/a	75.611	AF25NES.jpg
47.295	0.514	Blank	Blank	59.862	n/a	1	2	7	n/a	27	n/a	1	n/a	n/a	n/a	n/a	76.108	n/a
47.825	0.497	neutral	Picture	59.348	n/a	1	2	8	n/a	28	23	1	n/a	n/a	n/a	n/a	76.638	AM04NES.jpg
48.323	0.514	Blank	Blank	58.834	n/a	1	2	8	n/a	28	n/a	1	n/a	n/a	n/a	n/a	77.136	n/a
48.853	0.497	neutral	Picture	58.32	n/a	1	2	9	n/a	29	34	1	n/a	n/a	n/a	n/a	77.666	AM22NES.jpg
49.35	0.514	Blank	Blank	57.807	n/a	1	2	9	n/a	29	n/a	1	n/a	n/a	n/a	n/a	78.164	n/a
49.881	0.497	neutral	Picture	57.293	n/a	1	2	10	n/a	30	24	1	n/a	n/a	n/a	n/a	78.694	BM05NES.jpg
50.378	0.514	Blank	Blank	56.779	n/a	1	2	10	n/a	30	n/a	1	n/a	n/a	n/a	n/a	79.192	n/a
50.909	0.497	neutral	Picture	56.265	n/a	1	2	11	n/a	31	12	1	n/a	n/a	n/a	n/a	79.722	AF21NES.jpg
51.406	0.514	Blank	Blank	55.751	n/a	1	2	11	n/a	31	n/a	1	n/a	n/a	n/a	n/a	80.219	n/a
51.937	0.497	neutral	Picture	55.237	n/a	1	2	12	n/a	32	6	1	n/a	n/a	n/a	n/a	80.75	AF09NES.jpg
52.434	0.514	Blank	Blank	54.723	n/a	1	2	12	n/a	32	n/a	1	n/a	n/a	n/a	n/a	81.247	n/a
52.965	0.497	neutral	Picture	54.209	n/a	1	2	13	n/a	33	17	1	n/a	n/a	n/a	n/a	81.778	BF28NES.jpg
53.462	0.514	Blank	Blank	53.695	n/a	1	2	13	n/a	33	n/a	1	n/a	n/a	n/a	n/a	82.275	n/a
53.993	0.497	neutral	Picture	53.181	n/a	1	2	14	n/a	34	2	1	n/a	n/a	n/a	n/a	82.806	AF03NES.jpg
54.49	0.514	Blank	Blank	52.667	n/a	1	2	14	n/a	34	n/a	1	n/a	n/a	n/a	n/a	83.303	n/a
55.02	0.497	neutral	Picture	52.153	n/a	1	2	15	n/a	35	9	1	n/a	n/a	n/a	n/a	83.834	AF17NES.jpg
55.518	0.514	Blank	Blank	51.639	n/a	1	2	15	n/a	35	n/a	1	n/a	n/a	n/a	n/a	84.331	n/a
56.048	0.497	neutral	Picture	51.125	n/a	1	2	16	n/a	36	25	1	n/a	n/a	n/a	n/a	84.862	BM06NES.jpg
56.546	0.514	Blank	Blank	50.611	n/a	1	2	16	n/a	36	n/a	1	n/a	n/a	n/a	n/a	85.359	n/a
57.076	0.497	neutral	Picture	50.097	n/a	1	2	17	n/a	37	8	1	n/a	n/a	n/a	n/a	85.889	AF14NES.jpg
57.573	0.514	Blank	Blank	49.583	n/a	1	2	17	n/a	37	n/a	1	n/a	n/a	n/a	n/a	86.387	n/a
58.104	0.497	neutral	Picture	49.07	n/a	1	2	18	n/a	38	19	1	n/a	n/a	n/a	n/a	86.917	AF31NES.jpg
58.601	0.514	Blank	Blank	48.556	n/a	1	2	18	n/a	38	n/a	1	n/a	n/a	n/a	n/a	87.415	n/a
59.132	0.497	neutral	Picture	48.042	n/a	1	2	19	n/a	39	14	1	n/a	n/a	n/a	n/a	87.945	AF23NES.jpg
59.629	0.514	Blank	Blank	47.528	n/a	1	2	19	n/a	39	n/a	1	n/a	n/a	n/a	n/a	88.443	n/a
60.16	0.497	neutral	Picture	47.014	n/a	1	2	20	n/a	40	4	1	n/a	n/a	n/a	n/a	88.973	AF05NES.jpg
60.657	0.514	Blank	Blank	46.5	n/a	1	2	20	n/a	40	n/a	1	n/a	n/a	n/a	n/a	89.471	n/a
61.188	10.014	ITI	Fixation+	36.47	n/a	1	n/a	n/a	n/a	n/a	n/a	n/a	n/a	n/a	n/a	n/a	90.001	n/a
71.218	0.497	happy	Picture	35.956	n/a	1	3	1	n/a	41	84	3	n/a	n/a	n/a	n/a	100.031	AF05ANS.jpg
71.715	0.514	Blank	Blank	35.442	n/a	1	3	1	n/a	41	n/a	3	n/a	n/a	n/a	n/a	100.529	n/a
72.246	0.497	happy	Picture	34.928	n/a	1	3	2	n/a	42	92	3	n/a	n/a	n/a	n/a	101.059	AF21ANS.jpg
72.743	0.514	Blank	Blank	34.414	n/a	1	3	2	n/a	42	n/a	3	n/a	n/a	n/a	n/a	101.556	n/a
73.274	0.497	happy	Picture	33.9	n/a	1	3	3	n/a	43	86	3	n/a	n/a	n/a	n/a	102.087	AF09ANS.jpg
73.771	0.514	Blank	Blank	33.386	n/a	1	3	3	n/a	43	n/a	3	n/a	n/a	n/a	n/a	102.584	n/a
74.302	0.497	happy	Picture	32.872	n/a	1	3	4	n/a	44	93	3	n/a	n/a	n/a	n/a	103.115	BF22ANS.jpg
74.799	0.514	Blank	Blank	32.358	n/a	1	3	4	n/a	44	n/a	3	n/a	n/a	n/a	n/a	103.612	n/a
75.329	0.497	happy	Picture	31.844	n/a	1	3	5	n/a	45	88	3	n/a	n/a	n/a	n/a	104.143	AF14ANS.jpg
75.827	0.514	Blank	Blank	31.33	n/a	1	3	5	n/a	45	n/a	3	n/a	n/a	n/a	n/a	104.64	n/a
76.357	0.497	happy	Picture	30.816	n/a	1	3	6	n/a	46	113	3	n/a	n/a	n/a	n/a	105.171	AM21ANS.jpg
76.855	0.514	Blank	Blank	30.302	n/a	1	3	6	n/a	46	n/a	3	n/a	n/a	n/a	n/a	105.668	n/a
77.385	0.497	happy	Picture	29.788	n/a	1	3	7	n/a	47	95	3	n/a	n/a	n/a	n/a	106.198	AF25ANS.jpg
77.883	0.514	Blank	Blank	29.274	n/a	1	3	7	n/a	47	n/a	3	n/a	n/a	n/a	n/a	106.696	n/a
78.413	0.497	happy	Picture	28.76	n/a	1	3	8	n/a	48	102	3	n/a	n/a	n/a	n/a	107.226	BM03ANS.jpg
78.91	0.514	Blank	Blank	28.247	n/a	1	3	8	n/a	48	n/a	3	n/a	n/a	n/a	n/a	107.724	n/a
79.441	0.497	happy	Picture	27.733	n/a	1	3	9	n/a	49	112	3	n/a	n/a	n/a	n/a	108.254	AM14ANS.jpg
79.938	0.514	Blank	Blank	27.219	n/a	1	3	9	n/a	49	n/a	3	n/a	n/a	n/a	n/a	108.752	n/a
80.469	0.497	happy	Picture	26.705	n/a	1	3	10	n/a	50	83	3	n/a	n/a	n/a	n/a	109.282	BF04ANS.jpg
80.966	0.514	Blank	Blank	26.191	n/a	1	3	10	n/a	50	n/a	3	n/a	n/a	n/a	n/a	109.779	n/a
81.497	0.497	happy	Picture	25.677	n/a	1	3	11	n/a	51	90	3	n/a	n/a	n/a	n/a	110.31	AF18ANS.jpg
81.994	0.514	Blank	Blank	25.163	n/a	1	3	11	n/a	51	n/a	3	n/a	n/a	n/a	n/a	110.807	n/a
82.525	0.497	happy	Picture	24.649	n/a	1	3	12	n/a	52	117	3	n/a	n/a	n/a	n/a	111.338	BM25ANS.jpg
83.022	0.514	Blank	Blank	24.135	n/a	1	3	12	n/a	52	n/a	3	n/a	n/a	n/a	n/a	111.835	n/a
83.552	0.497	happy	Picture	23.621	n/a	1	3	13	n/a	53	94	3	n/a	n/a	n/a	n/a	112.366	AF23ANS.jpg
84.05	0.514	Blank	Blank	23.107	n/a	1	3	13	n/a	53	n/a	3	n/a	n/a	n/a	n/a	112.863	n/a
84.58	0.497	happy	Picture	22.593	n/a	1	3	14	n/a	54	106	3	n/a	n/a	n/a	n/a	113.394	AM07ANS.jpg
85.078	0.514	Blank	Blank	22.079	n/a	1	3	14	n/a	54	n/a	3	n/a	n/a	n/a	n/a	113.891	n/a
85.608	0.497	happy	Picture	21.565	n/a	1	3	15	n/a	55	105	3	n/a	n/a	n/a	n/a	114.422	BM06ANS.jpg
86.106	0.514	Blank	Blank	21.051	n/a	1	3	15	n/a	55	n/a	3	n/a	n/a	n/a	n/a	114.919	n/a
86.636	0.497	happy	Picture	20.537	n/a	1	3	16	n/a	56	116	3	n/a	n/a	n/a	n/a	115.45	BM24ANS.jpg
87.134	0.514	Blank	Blank	20.023	n/a	1	3	16	n/a	56	n/a	3	n/a	n/a	n/a	n/a	115.947	n/a
87.664	0.497	happy	Picture	19.51	n/a	1	3	17	n/a	57	89	3	n/a	n/a	n/a	n/a	116.477	AF17ANS.jpg
88.161	0.514	Blank	Blank	18.996	n/a	1	3	17	n/a	57	n/a	3	n/a	n/a	n/a	n/a	116.975	n/a
88.692	0.497	happy	Picture	18.482	n/a	1	3	18	n/a	58	118	3	n/a	n/a	n/a	n/a	117.505	BM26ANS.jpg
89.189	0.514	Blank	Blank	17.968	n/a	1	3	18	n/a	58	n/a	3	n/a	n/a	n/a	n/a	118.003	n/a
89.72	0.497	happy	Picture	17.454	n/a	1	3	19	n/a	59	100	3	n/a	n/a	n/a	n/a	118.533	AF32ANS.jpg
90.217	0.514	Blank	Blank	16.94	n/a	1	3	19	n/a	59	n/a	3	n/a	n/a	n/a	n/a	119.031	n/a
90.748	0.497	happy	Picture	16.426	n/a	1	3	20	n/a	60	119	3	n/a	n/a	n/a	n/a	119.561	BM28ANS.jpg
91.245	0.514	Blank	Blank	15.912	n/a	1	3	20	n/a	60	n/a	3	n/a	n/a	n/a	n/a	120.058	n/a
91.776	10.014	ITI	Fixation+	5.882	n/a	1	n/a	n/a	n/a	n/a	n/a	n/a	n/a	n/a	n/a	n/a	120.589	n/a
107.671	n/a	ConfirmRating	Rate	n/a	5.869	1	n/a	n/a	0	n/a	n/a	n/a	2	Happy	84	53	136.484	n/a
112.748	n/a	ConfirmRating	Rate	n/a	5.073	1	n/a	n/a	1	n/a	n/a	n/a	3	Happy	0	44	141.561	n/a
112.781	10.014	ITI	Fixation+	98.703	n/a	2	n/a	n/a	n/a	n/a	n/a	n/a	n/a	n/a	n/a	n/a	141.594	n/a
122.811	0.497	angry	Picture	98.189	n/a	2	4	1	n/a	61	79	2	n/a	n/a	n/a	n/a	151.625	BM28HAS.jpg
123.309	0.514	Blank	Blank	97.675	n/a	2	4	1	n/a	61	n/a	2	n/a	n/a	n/a	n/a	152.122	n/a
123.839	0.497	angry	Picture	97.161	n/a	2	4	2	n/a	62	61	2	n/a	n/a	n/a	n/a	152.652	AM01HAS.jpg
124.336	0.514	Blank	Blank	96.647	n/a	2	4	2	n/a	62	n/a	2	n/a	n/a	n/a	n/a	153.15	n/a
124.867	0.497	angry	Picture	96.133	n/a	2	4	3	n/a	63	57	2	n/a	n/a	n/a	n/a	153.68	BF28HAS.jpg
125.364	0.514	Blank	Blank	95.619	n/a	2	4	3	n/a	63	n/a	2	n/a	n/a	n/a	n/a	154.178	n/a
125.895	0.497	angry	Picture	95.105	n/a	2	4	4	n/a	64	77	2	n/a	n/a	n/a	n/a	154.708	BM25HAS.jpg
126.392	0.514	Blank	Blank	94.591	n/a	2	4	4	n/a	64	n/a	2	n/a	n/a	n/a	n/a	155.206	n/a
126.923	0.497	angry	Picture	94.077	n/a	2	4	5	n/a	65	47	2	n/a	n/a	n/a	n/a	155.736	BF11HAS.jpg
127.42	0.514	Blank	Blank	93.563	n/a	2	4	5	n/a	65	n/a	2	n/a	n/a	n/a	n/a	156.233	n/a
127.951	0.497	angry	Picture	93.049	n/a	2	4	6	n/a	66	50	2	n/a	n/a	n/a	n/a	156.764	AF18HAS.jpg
128.448	0.514	Blank	Blank	92.535	n/a	2	4	6	n/a	66	n/a	2	n/a	n/a	n/a	n/a	157.261	n/a
128.978	0.497	angry	Picture	92.022	n/a	2	4	7	n/a	67	78	2	n/a	n/a	n/a	n/a	157.792	BM26HAS.jpg
129.476	0.514	Blank	Blank	91.507	n/a	2	4	7	n/a	67	n/a	2	n/a	n/a	n/a	n/a	158.289	n/a
130.006	0.497	angry	Picture	90.994	n/a	2	4	8	n/a	68	45	2	n/a	n/a	n/a	n/a	158.82	BF07HAS.jpg
130.504	0.514	Blank	Blank	90.48	n/a	2	4	8	n/a	68	n/a	2	n/a	n/a	n/a	n/a	159.317	n/a
131.034	0.497	angry	Picture	89.966	n/a	2	4	9	n/a	69	56	2	n/a	n/a	n/a	n/a	159.848	AF26HAS.jpg
131.532	0.514	Blank	Blank	89.452	n/a	2	4	9	n/a	69	n/a	2	n/a	n/a	n/a	n/a	160.345	n/a
132.062	0.497	angry	Picture	88.938	n/a	2	4	10	n/a	70	65	2	n/a	n/a	n/a	n/a	160.875	BM06HAS.jpg
132.56	0.514	Blank	Blank	88.424	n/a	2	4	10	n/a	70	n/a	2	n/a	n/a	n/a	n/a	161.373	n/a
133.09	0.497	angry	Picture	87.91	n/a	2	4	11	n/a	71	73	2	n/a	n/a	n/a	n/a	161.903	AM21HAS.jpg
133.587	0.514	Blank	Blank	87.396	n/a	2	4	11	n/a	71	n/a	2	n/a	n/a	n/a	n/a	162.401	n/a
134.118	0.497	angry	Picture	86.882	n/a	2	4	12	n/a	72	41	2	n/a	n/a	n/a	n/a	162.931	AF01HAS.jpg
134.615	0.514	Blank	Blank	86.368	n/a	2	4	12	n/a	72	n/a	2	n/a	n/a	n/a	n/a	163.429	n/a
135.146	0.497	angry	Picture	85.854	n/a	2	4	13	n/a	73	59	2	n/a	n/a	n/a	n/a	163.959	AF31HAS.jpg
135.643	0.514	Blank	Blank	85.34	n/a	2	4	13	n/a	73	n/a	2	n/a	n/a	n/a	n/a	164.457	n/a
136.174	0.497	angry	Picture	84.826	n/a	2	4	14	n/a	74	64	2	n/a	n/a	n/a	n/a	164.987	BM05HAS.jpg
136.671	0.514	Blank	Blank	84.312	n/a	2	4	14	n/a	74	n/a	2	n/a	n/a	n/a	n/a	165.484	n/a
137.202	0.497	angry	Picture	83.798	n/a	2	4	15	n/a	75	68	2	n/a	n/a	n/a	n/a	166.015	AM09HAS.jpg
137.699	0.514	Blank	Blank	83.284	n/a	2	4	15	n/a	75	n/a	2	n/a	n/a	n/a	n/a	166.512	n/a
138.23	0.497	angry	Picture	82.77	n/a	2	4	16	n/a	76	54	2	n/a	n/a	n/a	n/a	167.043	AF23HAS.jpg
138.727	0.514	Blank	Blank	82.256	n/a	2	4	16	n/a	76	n/a	2	n/a	n/a	n/a	n/a	167.54	n/a
139.257	0.497	angry	Picture	81.743	n/a	2	4	17	n/a	77	53	2	n/a	n/a	n/a	n/a	168.071	BF22HAS.jpg
139.755	0.514	Blank	Blank	81.229	n/a	2	4	17	n/a	77	n/a	2	n/a	n/a	n/a	n/a	168.568	n/a
140.285	0.497	angry	Picture	80.715	n/a	2	4	18	n/a	78	44	2	n/a	n/a	n/a	n/a	169.099	AF05HAS.jpg
140.783	0.514	Blank	Blank	80.201	n/a	2	4	18	n/a	78	n/a	2	n/a	n/a	n/a	n/a	169.596	n/a
141.313	0.497	angry	Picture	79.687	n/a	2	4	19	n/a	79	52	2	n/a	n/a	n/a	n/a	170.126	AF21HAS.jpg
141.81	0.514	Blank	Blank	79.173	n/a	2	4	19	n/a	79	n/a	2	n/a	n/a	n/a	n/a	170.624	n/a
142.341	0.497	angry	Picture	78.659	n/a	2	4	20	n/a	80	62	2	n/a	n/a	n/a	n/a	171.154	BM03HAS.jpg
142.838	0.514	Blank	Blank	78.145	n/a	2	4	20	n/a	80	n/a	2	n/a	n/a	n/a	n/a	171.652	n/a
143.369	10.014	ITI	Fixation+	68.115	n/a	2	n/a	n/a	n/a	n/a	n/a	n/a	n/a	n/a	n/a	n/a	172.182	n/a
153.399	0.497	neutral	Picture	67.601	n/a	2	5	1	n/a	81	23	1	n/a	n/a	n/a	n/a	182.212	AM04NES.jpg
153.896	0.514	Blank	Blank	67.087	n/a	2	5	1	n/a	81	n/a	1	n/a	n/a	n/a	n/a	182.71	n/a
154.427	0.497	neutral	Picture	66.573	n/a	2	5	2	n/a	82	29	1	n/a	n/a	n/a	n/a	183.24	AM10NES.jpg
154.924	0.514	Blank	Blank	66.059	n/a	2	5	2	n/a	82	n/a	1	n/a	n/a	n/a	n/a	183.738	n/a
155.455	0.497	neutral	Picture	65.545	n/a	2	5	3	n/a	83	24	1	n/a	n/a	n/a	n/a	184.268	BM05NES.jpg
155.952	0.514	Blank	Blank	65.031	n/a	2	5	3	n/a	83	n/a	1	n/a	n/a	n/a	n/a	184.766	n/a
156.483	0.497	neutral	Picture	64.517	n/a	2	5	4	n/a	84	12	1	n/a	n/a	n/a	n/a	185.296	AF21NES.jpg
156.98	0.514	Blank	Blank	64.003	n/a	2	5	4	n/a	84	n/a	1	n/a	n/a	n/a	n/a	185.793	n/a
157.511	0.497	neutral	Picture	63.489	n/a	2	5	5	n/a	85	13	1	n/a	n/a	n/a	n/a	186.324	BF22NES.jpg
158.008	0.514	Blank	Blank	62.975	n/a	2	5	5	n/a	85	n/a	1	n/a	n/a	n/a	n/a	186.821	n/a
158.538	0.497	neutral	Picture	62.461	n/a	2	5	6	n/a	86	17	1	n/a	n/a	n/a	n/a	187.352	BF28NES.jpg
159.036	0.514	Blank	Blank	61.947	n/a	2	5	6	n/a	86	n/a	1	n/a	n/a	n/a	n/a	187.849	n/a
159.566	0.497	neutral	Picture	61.433	n/a	2	5	7	n/a	87	4	1	n/a	n/a	n/a	n/a	188.38	AF05NES.jpg
160.064	0.514	Blank	Blank	60.92	n/a	2	5	7	n/a	87	n/a	1	n/a	n/a	n/a	n/a	188.877	n/a
160.594	0.497	neutral	Picture	60.406	n/a	2	5	8	n/a	88	11	1	n/a	n/a	n/a	n/a	189.408	AF20NES.jpg
161.092	0.514	Blank	Blank	59.892	n/a	2	5	8	n/a	88	n/a	1	n/a	n/a	n/a	n/a	189.905	n/a
161.622	0.497	neutral	Picture	59.378	n/a	2	5	9	n/a	89	22	1	n/a	n/a	n/a	n/a	190.435	BM03NES.jpg
162.119	0.514	Blank	Blank	58.864	n/a	2	5	9	n/a	89	n/a	1	n/a	n/a	n/a	n/a	190.933	n/a
162.65	0.497	neutral	Picture	58.35	n/a	2	5	10	n/a	90	15	1	n/a	n/a	n/a	n/a	191.463	AF25NES.jpg
163.147	0.514	Blank	Blank	57.836	n/a	2	5	10	n/a	90	n/a	1	n/a	n/a	n/a	n/a	191.961	n/a
163.678	0.497	neutral	Picture	57.322	n/a	2	5	11	n/a	91	19	1	n/a	n/a	n/a	n/a	192.491	AF31NES.jpg
164.175	0.514	Blank	Blank	56.808	n/a	2	5	11	n/a	91	n/a	1	n/a	n/a	n/a	n/a	192.989	n/a
164.706	0.497	neutral	Picture	56.294	n/a	2	5	12	n/a	92	9	1	n/a	n/a	n/a	n/a	193.519	AF17NES.jpg
165.203	0.514	Blank	Blank	55.78	n/a	2	5	12	n/a	92	n/a	1	n/a	n/a	n/a	n/a	194.017	n/a
165.734	0.497	neutral	Picture	55.266	n/a	2	5	13	n/a	93	14	1	n/a	n/a	n/a	n/a	194.547	AF23NES.jpg
166.231	0.514	Blank	Blank	54.752	n/a	2	5	13	n/a	93	n/a	1	n/a	n/a	n/a	n/a	195.044	n/a
166.762	0.497	neutral	Picture	54.238	n/a	2	5	14	n/a	94	36	1	n/a	n/a	n/a	n/a	195.575	BM24NES.jpg
167.259	0.514	Blank	Blank	53.724	n/a	2	5	14	n/a	94	n/a	1	n/a	n/a	n/a	n/a	196.072	n/a
167.79	0.497	neutral	Picture	53.21	n/a	2	5	15	n/a	95	34	1	n/a	n/a	n/a	n/a	196.603	AM22NES.jpg
168.287	0.514	Blank	Blank	52.696	n/a	2	5	15	n/a	95	n/a	1	n/a	n/a	n/a	n/a	197.1	n/a
168.817	0.497	neutral	Picture	52.183	n/a	2	5	16	n/a	96	10	1	n/a	n/a	n/a	n/a	197.631	AF18NES.jpg
169.315	0.514	Blank	Blank	51.669	n/a	2	5	16	n/a	96	n/a	1	n/a	n/a	n/a	n/a	198.128	n/a
169.845	0.497	neutral	Picture	51.155	n/a	2	5	17	n/a	97	5	1	n/a	n/a	n/a	n/a	198.659	BF07NES.jpg
170.343	0.514	Blank	Blank	50.641	n/a	2	5	17	n/a	97	n/a	1	n/a	n/a	n/a	n/a	199.156	n/a
170.873	0.497	neutral	Picture	50.127	n/a	2	5	18	n/a	98	25	1	n/a	n/a	n/a	n/a	199.686	BM06NES.jpg
171.37	0.514	Blank	Blank	49.613	n/a	2	5	18	n/a	98	n/a	1	n/a	n/a	n/a	n/a	200.184	n/a
171.901	0.497	neutral	Picture	49.099	n/a	2	5	19	n/a	99	39	1	n/a	n/a	n/a	n/a	200.714	AM28NES.jpg
172.398	0.514	Blank	Blank	48.585	n/a	2	5	19	n/a	99	n/a	1	n/a	n/a	n/a	n/a	201.212	n/a
172.929	0.497	neutral	Picture	48.071	n/a	2	5	20	n/a	100	33	1	n/a	n/a	n/a	n/a	201.742	AM21NES.jpg
173.426	0.514	Blank	Blank	47.557	n/a	2	5	20	n/a	100	n/a	1	n/a	n/a	n/a	n/a	202.24	n/a
173.957	10.014	ITI	Fixation+	37.527	n/a	2	n/a	n/a	n/a	n/a	n/a	n/a	n/a	n/a	n/a	n/a	202.77	n/a
183.987	0.497	angry	Picture	37.013	n/a	2	6	1	n/a	101	74	2	n/a	n/a	n/a	n/a	212.8	AM22HAS.jpg
184.484	0.514	Blank	Blank	36.499	n/a	2	6	1	n/a	101	n/a	2	n/a	n/a	n/a	n/a	213.298	n/a
185.015	0.497	angry	Picture	35.985	n/a	2	6	2	n/a	102	76	2	n/a	n/a	n/a	n/a	213.828	BM24HAS.jpg
185.512	0.514	Blank	Blank	35.471	n/a	2	6	2	n/a	102	n/a	2	n/a	n/a	n/a	n/a	214.326	n/a
186.043	0.497	angry	Picture	34.957	n/a	2	6	3	n/a	103	80	2	n/a	n/a	n/a	n/a	214.856	BM35HAS.jpg
186.54	0.514	Blank	Blank	34.443	n/a	2	6	3	n/a	103	n/a	2	n/a	n/a	n/a	n/a	215.353	n/a
187.071	0.497	angry	Picture	33.929	n/a	2	6	4	n/a	104	75	2	n/a	n/a	n/a	n/a	215.884	AM23HAS.jpg
187.568	0.514	Blank	Blank	33.415	n/a	2	6	4	n/a	104	n/a	2	n/a	n/a	n/a	n/a	216.381	n/a
188.099	0.497	angry	Picture	32.901	n/a	2	6	5	n/a	105	49	2	n/a	n/a	n/a	n/a	216.912	AF17HAS.jpg
188.596	0.514	Blank	Blank	32.387	n/a	2	6	5	n/a	105	n/a	2	n/a	n/a	n/a	n/a	217.409	n/a
189.126	0.497	angry	Picture	31.874	n/a	2	6	6	n/a	106	43	2	n/a	n/a	n/a	n/a	217.94	BF04HAS.jpg
189.624	0.514	Blank	Blank	31.36	n/a	2	6	6	n/a	106	n/a	2	n/a	n/a	n/a	n/a	218.437	n/a
190.154	0.497	angry	Picture	30.846	n/a	2	6	7	n/a	107	70	2	n/a	n/a	n/a	n/a	218.968	BM11HAS.jpg
190.652	0.514	Blank	Blank	30.332	n/a	2	6	7	n/a	107	n/a	2	n/a	n/a	n/a	n/a	219.465	n/a
191.182	0.497	angry	Picture	29.818	n/a	2	6	8	n/a	108	66	2	n/a	n/a	n/a	n/a	219.995	BM07HAS.jpg
191.679	0.514	Blank	Blank	29.304	n/a	2	6	8	n/a	108	n/a	2	n/a	n/a	n/a	n/a	220.493	n/a
192.21	0.497	angry	Picture	28.79	n/a	2	6	9	n/a	109	48	2	n/a	n/a	n/a	n/a	221.023	AF14HAS.jpg
192.707	0.514	Blank	Blank	28.276	n/a	2	6	9	n/a	109	n/a	2	n/a	n/a	n/a	n/a	221.521	n/a
193.238	0.497	angry	Picture	27.762	n/a	2	6	10	n/a	110	58	2	n/a	n/a	n/a	n/a	222.051	BF29HAS.jpg
193.735	0.514	Blank	Blank	27.248	n/a	2	6	10	n/a	110	n/a	2	n/a	n/a	n/a	n/a	222.549	n/a
194.266	0.497	angry	Picture	26.734	n/a	2	6	11	n/a	111	63	2	n/a	n/a	n/a	n/a	223.079	AM04HAS.jpg
194.763	0.514	Blank	Blank	26.22	n/a	2	6	11	n/a	111	n/a	2	n/a	n/a	n/a	n/a	223.577	n/a
195.294	0.497	angry	Picture	25.706	n/a	2	6	12	n/a	112	72	2	n/a	n/a	n/a	n/a	224.107	AM14HAS.jpg
195.791	0.514	Blank	Blank	25.192	n/a	2	6	12	n/a	112	n/a	2	n/a	n/a	n/a	n/a	224.604	n/a
196.322	0.497	angry	Picture	24.678	n/a	2	6	13	n/a	113	55	2	n/a	n/a	n/a	n/a	225.135	AF25HAS.jpg
196.819	0.514	Blank	Blank	24.164	n/a	2	6	13	n/a	113	n/a	2	n/a	n/a	n/a	n/a	225.632	n/a
197.35	0.497	angry	Picture	23.65	n/a	2	6	14	n/a	114	42	2	n/a	n/a	n/a	n/a	226.163	AF03HAS.jpg
197.847	0.514	Blank	Blank	23.136	n/a	2	6	14	n/a	114	n/a	2	n/a	n/a	n/a	n/a	226.66	n/a
198.377	0.497	angry	Picture	22.623	n/a	2	6	15	n/a	115	60	2	n/a	n/a	n/a	n/a	227.191	AF32HAS.jpg
198.875	0.514	Blank	Blank	22.109	n/a	2	6	15	n/a	115	n/a	2	n/a	n/a	n/a	n/a	227.688	n/a
199.405	0.497	angry	Picture	21.595	n/a	2	6	16	n/a	116	67	2	n/a	n/a	n/a	n/a	228.219	BM08HAS.jpg
199.903	0.514	Blank	Blank	21.081	n/a	2	6	16	n/a	116	n/a	2	n/a	n/a	n/a	n/a	228.716	n/a
200.433	0.497	angry	Picture	20.567	n/a	2	6	17	n/a	117	51	2	n/a	n/a	n/a	n/a	229.246	AF20HAS.jpg
200.93	0.514	Blank	Blank	20.053	n/a	2	6	17	n/a	117	n/a	2	n/a	n/a	n/a	n/a	229.744	n/a
201.461	0.497	angry	Picture	19.539	n/a	2	6	18	n/a	118	71	2	n/a	n/a	n/a	n/a	230.274	BM12HAS.jpg
201.958	0.514	Blank	Blank	19.025	n/a	2	6	18	n/a	118	n/a	2	n/a	n/a	n/a	n/a	230.772	n/a
202.489	0.497	angry	Picture	18.511	n/a	2	6	19	n/a	119	69	2	n/a	n/a	n/a	n/a	231.302	AM10HAS.jpg
202.986	0.514	Blank	Blank	17.997	n/a	2	6	19	n/a	119	n/a	2	n/a	n/a	n/a	n/a	231.8	n/a
203.517	0.497	angry	Picture	17.483	n/a	2	6	20	n/a	120	46	2	n/a	n/a	n/a	n/a	232.33	AF09HAS.jpg
204.014	0.514	Blank	Blank	16.969	n/a	2	6	20	n/a	120	n/a	2	n/a	n/a	n/a	n/a	232.827	n/a
204.545	10.014	ITI	Fixation+	6.939	n/a	2	n/a	n/a	n/a	n/a	n/a	n/a	n/a	n/a	n/a	n/a	233.358	n/a
221.497	n/a	ConfirmRating	Rate	n/a	6.93	2	n/a	n/a	0	n/a	n/a	n/a	2	Angry	74	52	250.311	n/a
225.959	n/a	ConfirmRating	Rate	n/a	4.443	2	n/a	n/a	1	n/a	n/a	n/a	3	Angry	11	45	254.773	n/a
225.981	15.004	Rest	Picture	n/a	n/a	n/a	n/a	n/a	n/a	n/a	n/a	n/a	0	n/a	0	0	254.794	n/a
241.001	10.014	ITI	Fixation+	95.975	n/a	3	n/a	n/a	n/a	n/a	n/a	n/a	n/a	n/a	n/a	n/a	269.815	n/a
251.032	0.497	happy	Picture	95.461	n/a	3	7	1	n/a	1	108	3	n/a	n/a	n/a	n/a	279.845	AM09ANS.jpg
251.529	0.514	Blank	Blank	94.947	n/a	3	7	1	n/a	1	n/a	3	n/a	n/a	n/a	n/a	280.342	n/a
252.06	0.497	happy	Picture	94.434	n/a	3	7	2	n/a	2	99	3	n/a	n/a	n/a	n/a	280.873	AF31ANS.jpg
252.557	0.514	Blank	Blank	93.92	n/a	3	7	2	n/a	2	n/a	3	n/a	n/a	n/a	n/a	281.37	n/a
253.088	0.497	happy	Picture	93.406	n/a	3	7	3	n/a	3	98	3	n/a	n/a	n/a	n/a	281.901	BF29ANS.jpg
253.585	0.514	Blank	Blank	92.892	n/a	3	7	3	n/a	3	n/a	3	n/a	n/a	n/a	n/a	282.398	n/a
254.115	0.497	happy	Picture	92.378	n/a	3	7	4	n/a	4	107	3	n/a	n/a	n/a	n/a	282.929	BM08ANS.jpg
254.613	0.514	Blank	Blank	91.864	n/a	3	7	4	n/a	4	n/a	3	n/a	n/a	n/a	n/a	283.426	n/a
255.143	0.497	happy	Picture	91.35	n/a	3	7	5	n/a	5	104	3	n/a	n/a	n/a	n/a	283.957	BM05ANS.jpg
255.641	0.514	Blank	Blank	90.836	n/a	3	7	5	n/a	5	n/a	3	n/a	n/a	n/a	n/a	284.454	n/a
256.171	0.497	happy	Picture	90.322	n/a	3	7	6	n/a	6	101	3	n/a	n/a	n/a	n/a	284.984	AM01ANS.jpg
256.668	0.514	Blank	Blank	89.808	n/a	3	7	6	n/a	6	n/a	3	n/a	n/a	n/a	n/a	285.482	n/a
257.199	0.497	happy	Picture	89.294	n/a	3	7	7	n/a	7	103	3	n/a	n/a	n/a	n/a	286.012	AM04ANS.jpg
257.696	0.514	Blank	Blank	88.78	n/a	3	7	7	n/a	7	n/a	3	n/a	n/a	n/a	n/a	286.51	n/a
258.227	0.497	happy	Picture	88.266	n/a	3	7	8	n/a	8	111	3	n/a	n/a	n/a	n/a	287.04	BM12ANS.jpg
258.724	0.514	Blank	Blank	87.752	n/a	3	7	8	n/a	8	n/a	3	n/a	n/a	n/a	n/a	287.538	n/a
259.255	0.497	happy	Picture	87.238	n/a	3	7	9	n/a	9	110	3	n/a	n/a	n/a	n/a	288.068	AM11ANS.jpg
259.752	0.514	Blank	Blank	86.724	n/a	3	7	9	n/a	9	n/a	3	n/a	n/a	n/a	n/a	288.565	n/a
260.283	0.497	happy	Picture	86.211	n/a	3	7	10	n/a	10	85	3	n/a	n/a	n/a	n/a	289.096	BF07ANS.jpg
260.78	0.514	Blank	Blank	85.697	n/a	3	7	10	n/a	10	n/a	3	n/a	n/a	n/a	n/a	289.593	n/a
261.311	0.497	happy	Picture	85.183	n/a	3	7	11	n/a	11	87	3	n/a	n/a	n/a	n/a	290.124	BF11ANS.jpg
261.808	0.514	Blank	Blank	84.669	n/a	3	7	11	n/a	11	n/a	3	n/a	n/a	n/a	n/a	290.621	n/a
262.338	0.497	happy	Picture	84.155	n/a	3	7	12	n/a	12	91	3	n/a	n/a	n/a	n/a	291.152	AF20ANS.jpg
262.836	0.514	Blank	Blank	83.641	n/a	3	7	12	n/a	12	n/a	3	n/a	n/a	n/a	n/a	291.649	n/a
263.366	0.497	happy	Picture	83.127	n/a	3	7	13	n/a	13	115	3	n/a	n/a	n/a	n/a	292.18	AM23ANS.jpg
263.864	0.514	Blank	Blank	82.613	n/a	3	7	13	n/a	13	n/a	3	n/a	n/a	n/a	n/a	292.677	n/a
264.394	0.497	happy	Picture	82.099	n/a	3	7	14	n/a	14	97	3	n/a	n/a	n/a	n/a	293.207	BF28ANS.jpg
264.892	0.514	Blank	Blank	81.585	n/a	3	7	14	n/a	14	n/a	3	n/a	n/a	n/a	n/a	293.705	n/a
265.422	0.497	happy	Picture	81.071	n/a	3	7	15	n/a	15	82	3	n/a	n/a	n/a	n/a	294.235	AF03ANS.jpg
265.919	0.514	Blank	Blank	80.557	n/a	3	7	15	n/a	15	n/a	3	n/a	n/a	n/a	n/a	294.733	n/a
266.45	0.497	happy	Picture	80.043	n/a	3	7	16	n/a	16	96	3	n/a	n/a	n/a	n/a	295.263	AF26ANS.jpg
266.947	0.514	Blank	Blank	79.529	n/a	3	7	16	n/a	16	n/a	3	n/a	n/a	n/a	n/a	295.761	n/a
267.478	0.497	happy	Picture	79.015	n/a	3	7	17	n/a	17	109	3	n/a	n/a	n/a	n/a	296.291	AM10ANS.jpg
267.975	0.514	Blank	Blank	78.501	n/a	3	7	17	n/a	17	n/a	3	n/a	n/a	n/a	n/a	296.788	n/a
268.506	0.497	happy	Picture	77.987	n/a	3	7	18	n/a	18	114	3	n/a	n/a	n/a	n/a	297.319	AM22ANS.jpg
269.003	0.514	Blank	Blank	77.473	n/a	3	7	18	n/a	18	n/a	3	n/a	n/a	n/a	n/a	297.816	n/a
269.534	0.497	happy	Picture	76.959	n/a	3	7	19	n/a	19	120	3	n/a	n/a	n/a	n/a	298.347	AM35ANS.jpg
270.031	0.514	Blank	Blank	76.446	n/a	3	7	19	n/a	19	n/a	3	n/a	n/a	n/a	n/a	298.844	n/a
270.561	0.497	happy	Picture	75.932	n/a	3	7	20	n/a	20	81	3	n/a	n/a	n/a	n/a	299.375	AF01ANS.jpg
271.059	0.514	Blank	Blank	75.418	n/a	3	7	20	n/a	20	n/a	3	n/a	n/a	n/a	n/a	299.872	n/a
271.589	10.014	ITI	Fixation+	65.388	n/a	3	n/a	n/a	n/a	n/a	n/a	n/a	n/a	n/a	n/a	n/a	300.403	n/a
281.62	0.497	neutral	Picture	64.873	n/a	3	8	1	n/a	21	28	1	n/a	n/a	n/a	n/a	310.433	AM09NES.jpg
282.117	0.514	Blank	Blank	64.36	n/a	3	8	1	n/a	21	n/a	1	n/a	n/a	n/a	n/a	310.93	n/a
282.647	0.497	neutral	Picture	63.846	n/a	3	8	2	n/a	22	27	1	n/a	n/a	n/a	n/a	311.461	BM08NES.jpg
283.145	0.514	Blank	Blank	63.332	n/a	3	8	2	n/a	22	n/a	1	n/a	n/a	n/a	n/a	311.958	n/a
283.675	0.497	neutral	Picture	62.818	n/a	3	8	3	n/a	23	16	1	n/a	n/a	n/a	n/a	312.489	AF26NES.jpg
284.173	0.514	Blank	Blank	62.304	n/a	3	8	3	n/a	23	n/a	1	n/a	n/a	n/a	n/a	312.986	n/a
284.703	0.497	neutral	Picture	61.79	n/a	3	8	4	n/a	24	3	1	n/a	n/a	n/a	n/a	313.517	BF04NES.jpg
285.201	0.514	Blank	Blank	61.276	n/a	3	8	4	n/a	24	n/a	1	n/a	n/a	n/a	n/a	314.014	n/a
285.731	0.497	neutral	Picture	60.762	n/a	3	8	5	n/a	25	32	1	n/a	n/a	n/a	n/a	314.544	AM14NES.jpg
286.228	0.514	Blank	Blank	60.248	n/a	3	8	5	n/a	25	n/a	1	n/a	n/a	n/a	n/a	315.042	n/a
286.759	0.497	neutral	Picture	59.734	n/a	3	8	6	n/a	26	37	1	n/a	n/a	n/a	n/a	315.572	BM25NES.jpg
287.256	0.514	Blank	Blank	59.22	n/a	3	8	6	n/a	26	n/a	1	n/a	n/a	n/a	n/a	316.07	n/a
287.787	0.497	neutral	Picture	58.706	n/a	3	8	7	n/a	27	15	1	n/a	n/a	n/a	n/a	316.6	AF25NES.jpg
288.284	0.514	Blank	Blank	58.192	n/a	3	8	7	n/a	27	n/a	1	n/a	n/a	n/a	n/a	317.098	n/a
288.815	0.497	neutral	Picture	57.678	n/a	3	8	8	n/a	28	23	1	n/a	n/a	n/a	n/a	317.628	AM04NES.jpg
289.312	0.514	Blank	Blank	57.164	n/a	3	8	8	n/a	28	n/a	1	n/a	n/a	n/a	n/a	318.125	n/a
289.843	0.497	neutral	Picture	56.65	n/a	3	8	9	n/a	29	34	1	n/a	n/a	n/a	n/a	318.656	AM22NES.jpg
290.34	0.514	Blank	Blank	56.137	n/a	3	8	9	n/a	29	n/a	1	n/a	n/a	n/a	n/a	319.153	n/a
290.871	0.497	neutral	Picture	55.623	n/a	3	8	10	n/a	30	24	1	n/a	n/a	n/a	n/a	319.684	BM05NES.jpg
291.368	0.514	Blank	Blank	55.109	n/a	3	8	10	n/a	30	n/a	1	n/a	n/a	n/a	n/a	320.181	n/a
291.898	0.497	neutral	Picture	54.595	n/a	3	8	11	n/a	31	12	1	n/a	n/a	n/a	n/a	320.712	AF21NES.jpg
292.396	0.514	Blank	Blank	54.081	n/a	3	8	11	n/a	31	n/a	1	n/a	n/a	n/a	n/a	321.209	n/a
292.926	0.497	neutral	Picture	53.567	n/a	3	8	12	n/a	32	6	1	n/a	n/a	n/a	n/a	321.74	AF09NES.jpg
293.424	0.514	Blank	Blank	53.053	n/a	3	8	12	n/a	32	n/a	1	n/a	n/a	n/a	n/a	322.237	n/a
293.954	0.497	neutral	Picture	52.539	n/a	3	8	13	n/a	33	17	1	n/a	n/a	n/a	n/a	322.767	BF28NES.jpg
294.452	0.514	Blank	Blank	52.025	n/a	3	8	13	n/a	33	n/a	1	n/a	n/a	n/a	n/a	323.265	n/a
294.982	0.497	neutral	Picture	51.511	n/a	3	8	14	n/a	34	2	1	n/a	n/a	n/a	n/a	323.795	AF03NES.jpg
295.479	0.514	Blank	Blank	50.997	n/a	3	8	14	n/a	34	n/a	1	n/a	n/a	n/a	n/a	324.293	n/a
296.01	0.497	neutral	Picture	50.483	n/a	3	8	15	n/a	35	9	1	n/a	n/a	n/a	n/a	324.823	AF17NES.jpg
296.507	0.514	Blank	Blank	49.969	n/a	3	8	15	n/a	35	n/a	1	n/a	n/a	n/a	n/a	325.321	n/a
297.038	0.497	neutral	Picture	49.455	n/a	3	8	16	n/a	36	25	1	n/a	n/a	n/a	n/a	325.851	BM06NES.jpg
297.535	0.514	Blank	Blank	48.941	n/a	3	8	16	n/a	36	n/a	1	n/a	n/a	n/a	n/a	326.349	n/a
298.066	0.497	neutral	Picture	48.427	n/a	3	8	17	n/a	37	8	1	n/a	n/a	n/a	n/a	326.879	AF14NES.jpg
298.563	0.514	Blank	Blank	47.913	n/a	3	8	17	n/a	37	n/a	1	n/a	n/a	n/a	n/a	327.376	n/a
299.094	0.497	neutral	Picture	47.4	n/a	3	8	18	n/a	38	19	1	n/a	n/a	n/a	n/a	327.907	AF31NES.jpg
299.591	0.514	Blank	Blank	46.886	n/a	3	8	18	n/a	38	n/a	1	n/a	n/a	n/a	n/a	328.404	n/a
300.121	0.497	neutral	Picture	46.372	n/a	3	8	19	n/a	39	14	1	n/a	n/a	n/a	n/a	328.935	AF23NES.jpg
300.619	0.514	Blank	Blank	45.858	n/a	3	8	19	n/a	39	n/a	1	n/a	n/a	n/a	n/a	329.432	n/a
301.149	0.497	neutral	Picture	45.344	n/a	3	8	20	n/a	40	4	1	n/a	n/a	n/a	n/a	329.963	AF05NES.jpg
301.647	0.514	Blank	Blank	44.83	n/a	3	8	20	n/a	40	n/a	1	n/a	n/a	n/a	n/a	330.46	n/a
302.177	10.014	ITI	Fixation+	34.8	n/a	3	n/a	n/a	n/a	n/a	n/a	n/a	n/a	n/a	n/a	n/a	330.991	n/a
312.207	0.497	happy	Picture	34.286	n/a	3	9	1	n/a	41	84	3	n/a	n/a	n/a	n/a	341.021	AF05ANS.jpg
312.705	0.514	Blank	Blank	33.772	n/a	3	9	1	n/a	41	n/a	3	n/a	n/a	n/a	n/a	341.518	n/a
313.235	0.497	happy	Picture	33.258	n/a	3	9	2	n/a	42	92	3	n/a	n/a	n/a	n/a	342.049	AF21ANS.jpg
313.733	0.514	Blank	Blank	32.744	n/a	3	9	2	n/a	42	n/a	3	n/a	n/a	n/a	n/a	342.546	n/a
314.263	0.497	happy	Picture	32.23	n/a	3	9	3	n/a	43	86	3	n/a	n/a	n/a	n/a	343.077	AF09ANS.jpg
314.761	0.514	Blank	Blank	31.716	n/a	3	9	3	n/a	43	n/a	3	n/a	n/a	n/a	n/a	343.574	n/a
315.291	0.497	happy	Picture	31.202	n/a	3	9	4	n/a	44	93	3	n/a	n/a	n/a	n/a	344.104	BF22ANS.jpg
315.788	0.514	Blank	Blank	30.688	n/a	3	9	4	n/a	44	n/a	3	n/a	n/a	n/a	n/a	344.602	n/a
316.319	0.497	happy	Picture	30.174	n/a	3	9	5	n/a	45	88	3	n/a	n/a	n/a	n/a	345.132	AF14ANS.jpg
316.816	0.514	Blank	Blank	29.66	n/a	3	9	5	n/a	45	n/a	3	n/a	n/a	n/a	n/a	345.63	n/a
317.347	0.497	happy	Picture	29.146	n/a	3	9	6	n/a	46	113	3	n/a	n/a	n/a	n/a	346.16	AM21ANS.jpg
317.844	0.514	Blank	Blank	28.632	n/a	3	9	6	n/a	46	n/a	3	n/a	n/a	n/a	n/a	346.658	n/a
318.375	0.497	happy	Picture	28.118	n/a	3	9	7	n/a	47	95	3	n/a	n/a	n/a	n/a	347.188	AF25ANS.jpg
318.872	0.514	Blank	Blank	27.604	n/a	3	9	7	n/a	47	n/a	3	n/a	n/a	n/a	n/a	347.685	n/a
319.403	0.497	happy	Picture	27.09	n/a	3	9	8	n/a	48	102	3	n/a	n/a	n/a	n/a	348.216	BM03ANS.jpg
319.9	0.514	Blank	Blank	26.577	n/a	3	9	8	n/a	48	n/a	3	n/a	n/a	n/a	n/a	348.713	n/a
320.431	0.497	happy	Picture	26.063	n/a	3	9	9	n/a	49	112	3	n/a	n/a	n/a	n/a	349.244	AM14ANS.jpg
320.928	0.514	Blank	Blank	25.549	n/a	3	9	9	n/a	49	n/a	3	n/a	n/a	n/a	n/a	349.741	n/a
321.458	0.497	happy	Picture	25.035	n/a	3	9	10	n/a	50	83	3	n/a	n/a	n/a	n/a	350.272	BF04ANS.jpg
321.956	0.514	Blank	Blank	24.521	n/a	3	9	10	n/a	50	n/a	3	n/a	n/a	n/a	n/a	350.769	n/a
322.486	0.497	happy	Picture	24.007	n/a	3	9	11	n/a	51	90	3	n/a	n/a	n/a	n/a	351.3	AF18ANS.jpg
322.984	0.514	Blank	Blank	23.493	n/a	3	9	11	n/a	51	n/a	3	n/a	n/a	n/a	n/a	351.797	n/a
323.514	0.497	happy	Picture	22.979	n/a	3	9	12	n/a	52	117	3	n/a	n/a	n/a	n/a	352.327	BM25ANS.jpg
324.012	0.514	Blank	Blank	22.465	n/a	3	9	12	n/a	52	n/a	3	n/a	n/a	n/a	n/a	352.825	n/a
324.542	0.497	happy	Picture	21.951	n/a	3	9	13	n/a	53	94	3	n/a	n/a	n/a	n/a	353.355	AF23ANS.jpg
325.039	0.514	Blank	Blank	21.437	n/a	3	9	13	n/a	53	n/a	3	n/a	n/a	n/a	n/a	353.853	n/a
325.57	0.497	happy	Picture	20.923	n/a	3	9	14	n/a	54	106	3	n/a	n/a	n/a	n/a	354.383	AM07ANS.jpg
326.067	0.514	Blank	Blank	20.409	n/a	3	9	14	n/a	54	n/a	3	n/a	n/a	n/a	n/a	354.881	n/a
326.598	0.497	happy	Picture	19.895	n/a	3	9	15	n/a	55	105	3	n/a	n/a	n/a	n/a	355.411	BM06ANS.jpg
327.095	0.514	Blank	Blank	19.381	n/a	3	9	15	n/a	55	n/a	3	n/a	n/a	n/a	n/a	355.909	n/a
327.626	0.497	happy	Picture	18.867	n/a	3	9	16	n/a	56	116	3	n/a	n/a	n/a	n/a	356.439	BM24ANS.jpg
328.123	0.514	Blank	Blank	18.353	n/a	3	9	16	n/a	56	n/a	3	n/a	n/a	n/a	n/a	356.937	n/a
328.654	0.497	happy	Picture	17.84	n/a	3	9	17	n/a	57	89	3	n/a	n/a	n/a	n/a	357.467	AF17ANS.jpg
329.151	0.514	Blank	Blank	17.326	n/a	3	9	17	n/a	57	n/a	3	n/a	n/a	n/a	n/a	357.964	n/a
329.682	0.497	happy	Picture	16.812	n/a	3	9	18	n/a	58	118	3	n/a	n/a	n/a	n/a	358.495	BM26ANS.jpg
330.179	0.514	Blank	Blank	16.298	n/a	3	9	18	n/a	58	n/a	3	n/a	n/a	n/a	n/a	358.992	n/a
330.709	0.497	happy	Picture	15.784	n/a	3	9	19	n/a	59	100	3	n/a	n/a	n/a	n/a	359.523	AF32ANS.jpg
331.207	0.514	Blank	Blank	15.27	n/a	3	9	19	n/a	59	n/a	3	n/a	n/a	n/a	n/a	360.02	n/a
331.737	0.497	happy	Picture	14.756	n/a	3	9	20	n/a	60	119	3	n/a	n/a	n/a	n/a	360.551	BM28ANS.jpg
332.235	0.514	Blank	Blank	14.242	n/a	3	9	20	n/a	60	n/a	3	n/a	n/a	n/a	n/a	361.048	n/a
332.765	10.014	ITI	Fixation+	4.212	n/a	3	n/a	n/a	n/a	n/a	n/a	n/a	n/a	n/a	n/a	n/a	361.579	n/a
346.99	n/a	ConfirmRating	Rate	n/a	4.211	3	n/a	n/a	0	n/a	n/a	n/a	2	Happy	83	53	375.804	n/a
354.472	n/a	ConfirmRating	Rate	n/a	7.46	3	n/a	n/a	1	n/a	n/a	n/a	3	Happy	2	44	383.286	n/a
354.5	10.014	ITI	Fixation+	96.12	n/a	4	n/a	n/a	n/a	n/a	n/a	n/a	n/a	n/a	n/a	n/a	383.313	n/a
364.53	0.497	angry	Picture	95.606	n/a	4	10	1	n/a	61	79	2	n/a	n/a	n/a	n/a	393.344	BM28HAS.jpg
365.028	0.514	Blank	Blank	95.092	n/a	4	10	1	n/a	61	n/a	2	n/a	n/a	n/a	n/a	393.841	n/a
365.558	0.497	angry	Picture	94.578	n/a	4	10	2	n/a	62	61	2	n/a	n/a	n/a	n/a	394.371	AM01HAS.jpg
366.055	0.514	Blank	Blank	94.065	n/a	4	10	2	n/a	62	n/a	2	n/a	n/a	n/a	n/a	394.869	n/a
366.586	0.497	angry	Picture	93.55	n/a	4	10	3	n/a	63	57	2	n/a	n/a	n/a	n/a	395.399	BF28HAS.jpg
367.083	0.514	Blank	Blank	93.037	n/a	4	10	3	n/a	63	n/a	2	n/a	n/a	n/a	n/a	395.897	n/a
367.614	0.497	angry	Picture	92.523	n/a	4	10	4	n/a	64	77	2	n/a	n/a	n/a	n/a	396.427	BM25HAS.jpg
368.111	0.514	Blank	Blank	92.009	n/a	4	10	4	n/a	64	n/a	2	n/a	n/a	n/a	n/a	396.925	n/a
368.642	0.497	angry	Picture	91.495	n/a	4	10	5	n/a	65	47	2	n/a	n/a	n/a	n/a	397.455	BF11HAS.jpg
369.139	0.514	Blank	Blank	90.981	n/a	4	10	5	n/a	65	n/a	2	n/a	n/a	n/a	n/a	397.952	n/a
369.67	0.497	angry	Picture	90.467	n/a	4	10	6	n/a	66	50	2	n/a	n/a	n/a	n/a	398.483	AF18HAS.jpg
370.167	0.514	Blank	Blank	89.953	n/a	4	10	6	n/a	66	n/a	2	n/a	n/a	n/a	n/a	398.98	n/a
370.697	0.497	angry	Picture	89.439	n/a	4	10	7	n/a	67	78	2	n/a	n/a	n/a	n/a	399.511	BM26HAS.jpg
371.195	0.514	Blank	Blank	88.925	n/a	4	10	7	n/a	67	n/a	2	n/a	n/a	n/a	n/a	400.008	n/a
371.725	0.497	angry	Picture	88.411	n/a	4	10	8	n/a	68	45	2	n/a	n/a	n/a	n/a	400.539	BF07HAS.jpg
372.223	0.514	Blank	Blank	87.897	n/a	4	10	8	n/a	68	n/a	2	n/a	n/a	n/a	n/a	401.036	n/a
372.753	0.497	angry	Picture	87.383	n/a	4	10	9	n/a	69	56	2	n/a	n/a	n/a	n/a	401.567	AF26HAS.jpg
373.251	0.514	Blank	Blank	86.869	n/a	4	10	9	n/a	69	n/a	2	n/a	n/a	n/a	n/a	402.064	n/a
373.781	0.497	angry	Picture	86.355	n/a	4	10	10	n/a	70	65	2	n/a	n/a	n/a	n/a	402.594	BM06HAS.jpg
374.279	0.514	Blank	Blank	85.841	n/a	4	10	10	n/a	70	n/a	2	n/a	n/a	n/a	n/a	403.092	n/a
374.809	0.497	angry	Picture	85.327	n/a	4	10	11	n/a	71	73	2	n/a	n/a	n/a	n/a	403.622	AM21HAS.jpg
375.306	0.514	Blank	Blank	84.814	n/a	4	10	11	n/a	71	n/a	2	n/a	n/a	n/a	n/a	404.12	n/a
375.837	0.497	angry	Picture	84.3	n/a	4	10	12	n/a	72	41	2	n/a	n/a	n/a	n/a	404.65	AF01HAS.jpg
376.334	0.514	Blank	Blank	83.786	n/a	4	10	12	n/a	72	n/a	2	n/a	n/a	n/a	n/a	405.148	n/a
376.865	0.497	angry	Picture	83.272	n/a	4	10	13	n/a	73	59	2	n/a	n/a	n/a	n/a	405.678	AF31HAS.jpg
377.362	0.514	Blank	Blank	82.758	n/a	4	10	13	n/a	73	n/a	2	n/a	n/a	n/a	n/a	406.175	n/a
377.893	0.497	angry	Picture	82.244	n/a	4	10	14	n/a	74	64	2	n/a	n/a	n/a	n/a	406.706	BM05HAS.jpg
378.39	0.514	Blank	Blank	81.73	n/a	4	10	14	n/a	74	n/a	2	n/a	n/a	n/a	n/a	407.203	n/a
378.921	0.497	angry	Picture	81.216	n/a	4	10	15	n/a	75	68	2	n/a	n/a	n/a	n/a	407.734	AM09HAS.jpg
379.418	0.514	Blank	Blank	80.702	n/a	4	10	15	n/a	75	n/a	2	n/a	n/a	n/a	n/a	408.231	n/a
379.948	0.497	angry	Picture	80.188	n/a	4	10	16	n/a	76	54	2	n/a	n/a	n/a	n/a	408.762	AF23HAS.jpg
380.446	0.514	Blank	Blank	79.674	n/a	4	10	16	n/a	76	n/a	2	n/a	n/a	n/a	n/a	409.259	n/a
380.976	0.497	angry	Picture	79.16	n/a	4	10	17	n/a	77	53	2	n/a	n/a	n/a	n/a	409.79	BF22HAS.jpg
381.474	0.514	Blank	Blank	78.646	n/a	4	10	17	n/a	77	n/a	2	n/a	n/a	n/a	n/a	410.287	n/a
382.004	0.497	angry	Picture	78.132	n/a	4	10	18	n/a	78	44	2	n/a	n/a	n/a	n/a	410.818	AF05HAS.jpg
382.502	0.514	Blank	Blank	77.618	n/a	4	10	18	n/a	78	n/a	2	n/a	n/a	n/a	n/a	411.315	n/a
383.032	0.497	angry	Picture	77.104	n/a	4	10	19	n/a	79	52	2	n/a	n/a	n/a	n/a	411.846	AF21HAS.jpg
383.529	0.514	Blank	Blank	76.59	n/a	4	10	19	n/a	79	n/a	2	n/a	n/a	n/a	n/a	412.343	n/a
384.06	0.497	angry	Picture	76.077	n/a	4	10	20	n/a	80	62	2	n/a	n/a	n/a	n/a	412.873	BM03HAS.jpg
384.557	0.514	Blank	Blank	75.563	n/a	4	10	20	n/a	80	n/a	2	n/a	n/a	n/a	n/a	413.371	n/a
385.088	10.014	ITI	Fixation+	65.532	n/a	4	n/a	n/a	n/a	n/a	n/a	n/a	n/a	n/a	n/a	n/a	413.901	n/a
395.118	0.497	neutral	Picture	65.018	n/a	4	11	1	n/a	81	23	1	n/a	n/a	n/a	n/a	423.931	AM04NES.jpg
395.615	0.514	Blank	Blank	64.505	n/a	4	11	1	n/a	81	n/a	1	n/a	n/a	n/a	n/a	424.429	n/a
396.146	0.497	neutral	Picture	63.99	n/a	4	11	2	n/a	82	29	1	n/a	n/a	n/a	n/a	424.959	AM10NES.jpg
396.643	0.514	Blank	Blank	63.477	n/a	4	11	2	n/a	82	n/a	1	n/a	n/a	n/a	n/a	425.457	n/a
397.174	0.497	neutral	Picture	62.963	n/a	4	11	3	n/a	83	24	1	n/a	n/a	n/a	n/a	425.987	BM05NES.jpg
397.671	0.514	Blank	Blank	62.449	n/a	4	11	3	n/a	83	n/a	1	n/a	n/a	n/a	n/a	426.485	n/a
398.202	0.497	neutral	Picture	61.935	n/a	4	11	4	n/a	84	12	1	n/a	n/a	n/a	n/a	427.015	AF21NES.jpg
398.699	0.514	Blank	Blank	61.421	n/a	4	11	4	n/a	84	n/a	1	n/a	n/a	n/a	n/a	427.512	n/a
399.23	0.497	neutral	Picture	60.907	n/a	4	11	5	n/a	85	13	1	n/a	n/a	n/a	n/a	428.043	BF22NES.jpg
399.727	0.514	Blank	Blank	60.393	n/a	4	11	5	n/a	85	n/a	1	n/a	n/a	n/a	n/a	428.54	n/a
400.258	0.497	neutral	Picture	59.879	n/a	4	11	6	n/a	86	17	1	n/a	n/a	n/a	n/a	429.071	BF28NES.jpg
400.755	0.514	Blank	Blank	59.365	n/a	4	11	6	n/a	86	n/a	1	n/a	n/a	n/a	n/a	429.568	n/a
401.285	0.497	neutral	Picture	58.851	n/a	4	11	7	n/a	87	4	1	n/a	n/a	n/a	n/a	430.099	AF05NES.jpg
401.783	0.514	Blank	Blank	58.337	n/a	4	11	7	n/a	87	n/a	1	n/a	n/a	n/a	n/a	430.596	n/a
402.313	0.497	neutral	Picture	57.823	n/a	4	11	8	n/a	88	11	1	n/a	n/a	n/a	n/a	431.127	AF20NES.jpg
402.811	0.514	Blank	Blank	57.309	n/a	4	11	8	n/a	88	n/a	1	n/a	n/a	n/a	n/a	431.624	n/a
403.341	0.497	neutral	Picture	56.795	n/a	4	11	9	n/a	89	22	1	n/a	n/a	n/a	n/a	432.154	BM03NES.jpg
403.839	0.514	Blank	Blank	56.281	n/a	4	11	9	n/a	89	n/a	1	n/a	n/a	n/a	n/a	432.652	n/a
404.369	0.497	neutral	Picture	55.767	n/a	4	11	10	n/a	90	15	1	n/a	n/a	n/a	n/a	433.182	AF25NES.jpg
404.866	0.514	Blank	Blank	55.254	n/a	4	11	10	n/a	90	n/a	1	n/a	n/a	n/a	n/a	433.68	n/a
405.397	0.497	neutral	Picture	54.739	n/a	4	11	11	n/a	91	19	1	n/a	n/a	n/a	n/a	434.21	AF31NES.jpg
405.894	0.514	Blank	Blank	54.226	n/a	4	11	11	n/a	91	n/a	1	n/a	n/a	n/a	n/a	434.708	n/a
406.425	0.497	neutral	Picture	53.712	n/a	4	11	12	n/a	92	9	1	n/a	n/a	n/a	n/a	435.238	AF17NES.jpg
406.922	0.514	Blank	Blank	53.198	n/a	4	11	12	n/a	92	n/a	1	n/a	n/a	n/a	n/a	435.736	n/a
407.453	0.497	neutral	Picture	52.684	n/a	4	11	13	n/a	93	14	1	n/a	n/a	n/a	n/a	436.266	AF23NES.jpg
407.95	0.514	Blank	Blank	52.17	n/a	4	11	13	n/a	93	n/a	1	n/a	n/a	n/a	n/a	436.763	n/a
408.481	0.497	neutral	Picture	51.656	n/a	4	11	14	n/a	94	36	1	n/a	n/a	n/a	n/a	437.294	BM24NES.jpg
408.978	0.514	Blank	Blank	51.142	n/a	4	11	14	n/a	94	n/a	1	n/a	n/a	n/a	n/a	437.791	n/a
409.508	0.497	neutral	Picture	50.628	n/a	4	11	15	n/a	95	34	1	n/a	n/a	n/a	n/a	438.322	AM22NES.jpg
410.006	0.514	Blank	Blank	50.114	n/a	4	11	15	n/a	95	n/a	1	n/a	n/a	n/a	n/a	438.819	n/a
410.536	0.497	neutral	Picture	49.6	n/a	4	11	16	n/a	96	10	1	n/a	n/a	n/a	n/a	439.35	AF18NES.jpg
411.034	0.514	Blank	Blank	49.086	n/a	4	11	16	n/a	96	n/a	1	n/a	n/a	n/a	n/a	439.847	n/a
411.564	0.497	neutral	Picture	48.572	n/a	4	11	17	n/a	97	5	1	n/a	n/a	n/a	n/a	440.378	BF07NES.jpg
412.062	0.514	Blank	Blank	48.058	n/a	4	11	17	n/a	97	n/a	1	n/a	n/a	n/a	n/a	440.875	n/a
412.592	0.497	neutral	Picture	47.544	n/a	4	11	18	n/a	98	25	1	n/a	n/a	n/a	n/a	441.406	BM06NES.jpg
413.09	0.514	Blank	Blank	47.03	n/a	4	11	18	n/a	98	n/a	1	n/a	n/a	n/a	n/a	441.903	n/a
413.62	0.497	neutral	Picture	46.517	n/a	4	11	19	n/a	99	39	1	n/a	n/a	n/a	n/a	442.433	AM28NES.jpg
414.117	0.514	Blank	Blank	46.002	n/a	4	11	19	n/a	99	n/a	1	n/a	n/a	n/a	n/a	442.931	n/a
414.648	0.497	neutral	Picture	45.489	n/a	4	11	20	n/a	100	33	1	n/a	n/a	n/a	n/a	443.461	AM21NES.jpg
415.145	0.514	Blank	Blank	44.975	n/a	4	11	20	n/a	100	n/a	1	n/a	n/a	n/a	n/a	443.959	n/a
415.676	10.014	ITI	Fixation+	34.944	n/a	4	n/a	n/a	n/a	n/a	n/a	n/a	n/a	n/a	n/a	n/a	444.489	n/a
425.706	0.497	angry	Picture	34.43	n/a	4	12	1	n/a	101	74	2	n/a	n/a	n/a	n/a	454.519	AM22HAS.jpg
426.203	0.514	Blank	Blank	33.917	n/a	4	12	1	n/a	101	n/a	2	n/a	n/a	n/a	n/a	455.017	n/a
426.734	0.497	angry	Picture	33.403	n/a	4	12	2	n/a	102	76	2	n/a	n/a	n/a	n/a	455.547	BM24HAS.jpg
427.231	0.514	Blank	Blank	32.889	n/a	4	12	2	n/a	102	n/a	2	n/a	n/a	n/a	n/a	456.045	n/a
427.762	0.497	angry	Picture	32.375	n/a	4	12	3	n/a	103	80	2	n/a	n/a	n/a	n/a	456.575	BM35HAS.jpg
428.259	0.514	Blank	Blank	31.861	n/a	4	12	3	n/a	103	n/a	2	n/a	n/a	n/a	n/a	457.072	n/a
428.79	0.497	angry	Picture	31.347	n/a	4	12	4	n/a	104	75	2	n/a	n/a	n/a	n/a	457.603	AM23HAS.jpg
429.287	0.514	Blank	Blank	30.833	n/a	4	12	4	n/a	104	n/a	2	n/a	n/a	n/a	n/a	458.1	n/a
429.818	0.497	angry	Picture	30.319	n/a	4	12	5	n/a	105	49	2	n/a	n/a	n/a	n/a	458.631	AF17HAS.jpg
430.315	0.514	Blank	Blank	29.805	n/a	4	12	5	n/a	105	n/a	2	n/a	n/a	n/a	n/a	459.128	n/a
430.845	0.497	angry	Picture	29.291	n/a	4	12	6	n/a	106	43	2	n/a	n/a	n/a	n/a	459.659	BF04HAS.jpg
431.343	0.514	Blank	Blank	28.777	n/a	4	12	6	n/a	106	n/a	2	n/a	n/a	n/a	n/a	460.156	n/a
431.873	0.497	angry	Picture	28.263	n/a	4	12	7	n/a	107	70	2	n/a	n/a	n/a	n/a	460.687	BM11HAS.jpg
432.371	0.514	Blank	Blank	27.749	n/a	4	12	7	n/a	107	n/a	2	n/a	n/a	n/a	n/a	461.184	n/a
432.901	0.497	angry	Picture	27.235	n/a	4	12	8	n/a	108	66	2	n/a	n/a	n/a	n/a	461.714	BM07HAS.jpg
433.399	0.514	Blank	Blank	26.721	n/a	4	12	8	n/a	108	n/a	2	n/a	n/a	n/a	n/a	462.212	n/a
433.929	0.497	angry	Picture	26.207	n/a	4	12	9	n/a	109	48	2	n/a	n/a	n/a	n/a	462.742	AF14HAS.jpg
434.426	0.514	Blank	Blank	25.694	n/a	4	12	9	n/a	109	n/a	2	n/a	n/a	n/a	n/a	463.24	n/a
434.957	0.497	angry	Picture	25.179	n/a	4	12	10	n/a	110	58	2	n/a	n/a	n/a	n/a	463.77	BF29HAS.jpg
435.454	0.514	Blank	Blank	24.666	n/a	4	12	10	n/a	110	n/a	2	n/a	n/a	n/a	n/a	464.268	n/a
435.985	0.497	angry	Picture	24.152	n/a	4	12	11	n/a	111	63	2	n/a	n/a	n/a	n/a	464.798	AM04HAS.jpg
436.482	0.514	Blank	Blank	23.638	n/a	4	12	11	n/a	111	n/a	2	n/a	n/a	n/a	n/a	465.296	n/a
437.013	0.497	angry	Picture	23.124	n/a	4	12	12	n/a	112	72	2	n/a	n/a	n/a	n/a	465.826	AM14HAS.jpg
437.51	0.514	Blank	Blank	22.61	n/a	4	12	12	n/a	112	n/a	2	n/a	n/a	n/a	n/a	466.324	n/a
438.041	0.497	angry	Picture	22.096	n/a	4	12	13	n/a	113	55	2	n/a	n/a	n/a	n/a	466.854	AF25HAS.jpg
438.538	0.514	Blank	Blank	21.582	n/a	4	12	13	n/a	113	n/a	2	n/a	n/a	n/a	n/a	467.351	n/a
439.069	0.497	angry	Picture	21.068	n/a	4	12	14	n/a	114	42	2	n/a	n/a	n/a	n/a	467.882	AF03HAS.jpg
439.566	0.514	Blank	Blank	20.554	n/a	4	12	14	n/a	114	n/a	2	n/a	n/a	n/a	n/a	468.379	n/a
440.096	0.497	angry	Picture	20.04	n/a	4	12	15	n/a	115	60	2	n/a	n/a	n/a	n/a	468.91	AF32HAS.jpg
440.594	0.514	Blank	Blank	19.526	n/a	4	12	15	n/a	115	n/a	2	n/a	n/a	n/a	n/a	469.407	n/a
441.124	0.497	angry	Picture	19.012	n/a	4	12	16	n/a	116	67	2	n/a	n/a	n/a	n/a	469.938	BM08HAS.jpg
441.622	0.514	Blank	Blank	18.498	n/a	4	12	16	n/a	116	n/a	2	n/a	n/a	n/a	n/a	470.435	n/a
442.152	0.497	angry	Picture	17.984	n/a	4	12	17	n/a	117	51	2	n/a	n/a	n/a	n/a	470.966	AF20HAS.jpg
442.65	0.514	Blank	Blank	17.47	n/a	4	12	17	n/a	117	n/a	2	n/a	n/a	n/a	n/a	471.463	n/a
443.18	0.497	angry	Picture	16.956	n/a	4	12	18	n/a	118	71	2	n/a	n/a	n/a	n/a	471.993	BM12HAS.jpg
443.677	0.514	Blank	Blank	16.443	n/a	4	12	18	n/a	118	n/a	2	n/a	n/a	n/a	n/a	472.491	n/a
444.208	0.497	angry	Picture	15.928	n/a	4	12	19	n/a	119	69	2	n/a	n/a	n/a	n/a	473.021	AM10HAS.jpg
444.705	0.514	Blank	Blank	15.415	n/a	4	12	19	n/a	119	n/a	2	n/a	n/a	n/a	n/a	473.519	n/a
445.236	0.497	angry	Picture	14.901	n/a	4	12	20	n/a	120	46	2	n/a	n/a	n/a	n/a	474.049	AF09HAS.jpg
445.733	0.514	Blank	Blank	14.387	n/a	4	12	20	n/a	120	n/a	2	n/a	n/a	n/a	n/a	474.546	n/a
446.264	10.014	ITI	Fixation+	4.357	n/a	4	n/a	n/a	n/a	n/a	n/a	n/a	n/a	n/a	n/a	n/a	475.077	n/a
460.634	n/a	ConfirmRating	Rate	n/a	4.343	4	n/a	n/a	0	n/a	n/a	n/a	2	Angry	74	52	489.447	n/a
466.74	n/a	ConfirmRating	Rate	n/a	6.101	4	n/a	n/a	1	n/a	n/a	n/a	3	Angry	3	45	495.553	n/a
