onset	duration	trial_type	event_type	time_until_response	response_time	trial_number	block_num_within_trial	image_seq_num_within_block	question_seq_num_within_block	image_seq_num	picture_number	condition	question_type	block_type	rating	rating_computed	onset_uncorrected	KDEV_imagefile
0.017	10.014	ITI	Fixation+	102.462	n/a	1	n/a	n/a	n/a	n/a	n/a	n/a	n/a	n/a	n/a	n/a	42.751	n/a
10.048	0.497	angry	Picture	101.948	n/a	1	1	1	n/a	1	108	3	n/a	n/a	n/a	n/a	52.781	AM09ANS.jpg
10.545	0.514	Blank	Blank	101.434	n/a	1	1	1	n/a	1	n/a	3	n/a	n/a	n/a	n/a	53.279	n/a
11.075	0.497	angry	Picture	100.92	n/a	1	1	2	n/a	2	99	3	n/a	n/a	n/a	n/a	53.809	AF31ANS.jpg
11.573	0.514	Blank	Blank	100.406	n/a	1	1	2	n/a	2	n/a	3	n/a	n/a	n/a	n/a	54.306	n/a
12.103	0.497	angry	Picture	99.892	n/a	1	1	3	n/a	3	98	3	n/a	n/a	n/a	n/a	54.837	BF29ANS.jpg
12.601	0.514	Blank	Blank	99.378	n/a	1	1	3	n/a	3	n/a	3	n/a	n/a	n/a	n/a	55.334	n/a
13.131	0.497	angry	Picture	98.864	n/a	1	1	4	n/a	4	107	3	n/a	n/a	n/a	n/a	55.865	BM08ANS.jpg
13.629	0.514	Blank	Blank	98.35	n/a	1	1	4	n/a	4	n/a	3	n/a	n/a	n/a	n/a	56.362	n/a
14.159	0.497	angry	Picture	97.836	n/a	1	1	5	n/a	5	104	3	n/a	n/a	n/a	n/a	56.893	BM05ANS.jpg
14.656	0.514	Blank	Blank	97.322	n/a	1	1	5	n/a	5	n/a	3	n/a	n/a	n/a	n/a	57.39	n/a
15.187	0.497	angry	Picture	96.808	n/a	1	1	6	n/a	6	101	3	n/a	n/a	n/a	n/a	57.921	AM01ANS.jpg
15.684	0.514	Blank	Blank	96.294	n/a	1	1	6	n/a	6	n/a	3	n/a	n/a	n/a	n/a	58.418	n/a
16.215	0.497	angry	Picture	95.78	n/a	1	1	7	n/a	7	103	3	n/a	n/a	n/a	n/a	58.949	AM04ANS.jpg
16.712	0.514	Blank	Blank	95.266	n/a	1	1	7	n/a	7	n/a	3	n/a	n/a	n/a	n/a	59.446	n/a
17.243	0.497	angry	Picture	94.753	n/a	1	1	8	n/a	8	111	3	n/a	n/a	n/a	n/a	59.976	BM12ANS.jpg
17.74	0.514	Blank	Blank	94.239	n/a	1	1	8	n/a	8	n/a	3	n/a	n/a	n/a	n/a	60.474	n/a
18.271	0.497	angry	Picture	93.725	n/a	1	1	9	n/a	9	110	3	n/a	n/a	n/a	n/a	61.004	AM11ANS.jpg
18.768	0.514	Blank	Blank	93.211	n/a	1	1	9	n/a	9	n/a	3	n/a	n/a	n/a	n/a	61.502	n/a
19.298	0.497	angry	Picture	92.697	n/a	1	1	10	n/a	10	85	3	n/a	n/a	n/a	n/a	62.032	BF07ANS.jpg
19.796	0.514	Blank	Blank	92.183	n/a	1	1	10	n/a	10	n/a	3	n/a	n/a	n/a	n/a	62.529	n/a
20.326	0.497	angry	Picture	91.669	n/a	1	1	11	n/a	11	87	3	n/a	n/a	n/a	n/a	63.06	BF11ANS.jpg
20.824	0.514	Blank	Blank	91.155	n/a	1	1	11	n/a	11	n/a	3	n/a	n/a	n/a	n/a	63.557	n/a
21.354	0.497	angry	Picture	90.641	n/a	1	1	12	n/a	12	91	3	n/a	n/a	n/a	n/a	64.088	AF20ANS.jpg
21.852	0.514	Blank	Blank	90.127	n/a	1	1	12	n/a	12	n/a	3	n/a	n/a	n/a	n/a	64.585	n/a
22.382	0.497	angry	Picture	89.613	n/a	1	1	13	n/a	13	115	3	n/a	n/a	n/a	n/a	65.116	AM23ANS.jpg
22.88	0.514	Blank	Blank	89.099	n/a	1	1	13	n/a	13	n/a	3	n/a	n/a	n/a	n/a	65.613	n/a
23.41	0.497	angry	Picture	88.585	n/a	1	1	14	n/a	14	97	3	n/a	n/a	n/a	n/a	66.144	BF28ANS.jpg
23.907	0.514	Blank	Blank	88.071	n/a	1	1	14	n/a	14	n/a	3	n/a	n/a	n/a	n/a	66.641	n/a
24.438	0.497	angry	Picture	87.557	n/a	1	1	15	n/a	15	82	3	n/a	n/a	n/a	n/a	67.171	AF03ANS.jpg
24.935	0.514	Blank	Blank	87.043	n/a	1	1	15	n/a	15	n/a	3	n/a	n/a	n/a	n/a	67.669	n/a
25.466	0.497	angry	Picture	86.529	n/a	1	1	16	n/a	16	96	3	n/a	n/a	n/a	n/a	68.199	AF26ANS.jpg
25.963	0.514	Blank	Blank	86.016	n/a	1	1	16	n/a	16	n/a	3	n/a	n/a	n/a	n/a	68.697	n/a
26.494	0.497	angry	Picture	85.502	n/a	1	1	17	n/a	17	109	3	n/a	n/a	n/a	n/a	69.227	AM10ANS.jpg
26.991	0.514	Blank	Blank	84.988	n/a	1	1	17	n/a	17	n/a	3	n/a	n/a	n/a	n/a	69.725	n/a
27.522	0.497	angry	Picture	84.474	n/a	1	1	18	n/a	18	114	3	n/a	n/a	n/a	n/a	70.255	AM22ANS.jpg
28.019	0.514	Blank	Blank	83.96	n/a	1	1	18	n/a	18	n/a	3	n/a	n/a	n/a	n/a	70.752	n/a
28.549	0.497	angry	Picture	83.446	n/a	1	1	19	n/a	19	120	3	n/a	n/a	n/a	n/a	71.283	AM35ANS.jpg
29.047	0.514	Blank	Blank	82.932	n/a	1	1	19	n/a	19	n/a	3	n/a	n/a	n/a	n/a	71.78	n/a
29.577	0.497	angry	Picture	82.418	n/a	1	1	20	n/a	20	81	3	n/a	n/a	n/a	n/a	72.311	AF01ANS.jpg
30.075	0.514	Blank	Blank	81.904	n/a	1	1	20	n/a	20	n/a	3	n/a	n/a	n/a	n/a	72.808	n/a
30.605	10.014	ITI	Fixation+	71.874	n/a	1	n/a	n/a	n/a	n/a	n/a	n/a	n/a	n/a	n/a	n/a	73.339	n/a
40.635	0.497	neutral	Picture	71.36	n/a	1	2	1	n/a	21	28	1	n/a	n/a	n/a	n/a	83.369	AM09NES.jpg
41.133	0.514	Blank	Blank	70.846	n/a	1	2	1	n/a	21	n/a	1	n/a	n/a	n/a	n/a	83.866	n/a
41.663	0.497	neutral	Picture	70.332	n/a	1	2	2	n/a	22	27	1	n/a	n/a	n/a	n/a	84.397	BM08NES.jpg
42.16	0.514	Blank	Blank	69.818	n/a	1	2	2	n/a	22	n/a	1	n/a	n/a	n/a	n/a	84.894	n/a
42.691	0.497	neutral	Picture	69.304	n/a	1	2	3	n/a	23	16	1	n/a	n/a	n/a	n/a	85.425	AF26NES.jpg
43.188	0.514	Blank	Blank	68.79	n/a	1	2	3	n/a	23	n/a	1	n/a	n/a	n/a	n/a	85.922	n/a
43.719	0.497	neutral	Picture	68.276	n/a	1	2	4	n/a	24	3	1	n/a	n/a	n/a	n/a	86.453	BF04NES.jpg
44.216	0.514	Blank	Blank	67.762	n/a	1	2	4	n/a	24	n/a	1	n/a	n/a	n/a	n/a	86.95	n/a
44.747	0.497	neutral	Picture	67.248	n/a	1	2	5	n/a	25	32	1	n/a	n/a	n/a	n/a	87.48	AM14NES.jpg
45.244	0.514	Blank	Blank	66.735	n/a	1	2	5	n/a	25	n/a	1	n/a	n/a	n/a	n/a	87.978	n/a
45.775	0.497	neutral	Picture	66.221	n/a	1	2	6	n/a	26	37	1	n/a	n/a	n/a	n/a	88.508	BM25NES.jpg
46.272	0.514	Blank	Blank	65.707	n/a	1	2	6	n/a	26	n/a	1	n/a	n/a	n/a	n/a	89.006	n/a
46.803	0.497	neutral	Picture	65.193	n/a	1	2	7	n/a	27	15	1	n/a	n/a	n/a	n/a	89.536	AF25NES.jpg
47.3	0.514	Blank	Blank	64.679	n/a	1	2	7	n/a	27	n/a	1	n/a	n/a	n/a	n/a	90.034	n/a
47.83	0.497	neutral	Picture	64.165	n/a	1	2	8	n/a	28	23	1	n/a	n/a	n/a	n/a	90.564	AM04NES.jpg
48.328	0.514	Blank	Blank	63.651	n/a	1	2	8	n/a	28	n/a	1	n/a	n/a	n/a	n/a	91.061	n/a
48.858	0.497	neutral	Picture	63.137	n/a	1	2	9	n/a	29	34	1	n/a	n/a	n/a	n/a	91.592	AM22NES.jpg
49.356	0.514	Blank	Blank	62.623	n/a	1	2	9	n/a	29	n/a	1	n/a	n/a	n/a	n/a	92.089	n/a
49.886	0.497	neutral	Picture	62.109	n/a	1	2	10	n/a	30	24	1	n/a	n/a	n/a	n/a	92.62	BM05NES.jpg
50.384	0.514	Blank	Blank	61.595	n/a	1	2	10	n/a	30	n/a	1	n/a	n/a	n/a	n/a	93.117	n/a
50.914	0.497	neutral	Picture	61.081	n/a	1	2	11	n/a	31	12	1	n/a	n/a	n/a	n/a	93.648	AF21NES.jpg
51.411	0.514	Blank	Blank	60.567	n/a	1	2	11	n/a	31	n/a	1	n/a	n/a	n/a	n/a	94.145	n/a
51.942	0.497	neutral	Picture	60.053	n/a	1	2	12	n/a	32	6	1	n/a	n/a	n/a	n/a	94.676	AF09NES.jpg
52.439	0.514	Blank	Blank	59.539	n/a	1	2	12	n/a	32	n/a	1	n/a	n/a	n/a	n/a	95.173	n/a
52.97	0.497	neutral	Picture	59.025	n/a	1	2	13	n/a	33	17	1	n/a	n/a	n/a	n/a	95.704	BF28NES.jpg
53.467	0.514	Blank	Blank	58.511	n/a	1	2	13	n/a	33	n/a	1	n/a	n/a	n/a	n/a	96.201	n/a
53.998	0.497	neutral	Picture	57.998	n/a	1	2	14	n/a	34	2	1	n/a	n/a	n/a	n/a	96.731	AF03NES.jpg
54.495	0.514	Blank	Blank	57.484	n/a	1	2	14	n/a	34	n/a	1	n/a	n/a	n/a	n/a	97.229	n/a
55.026	0.497	neutral	Picture	56.97	n/a	1	2	15	n/a	35	9	1	n/a	n/a	n/a	n/a	97.759	AF17NES.jpg
55.523	0.514	Blank	Blank	56.456	n/a	1	2	15	n/a	35	n/a	1	n/a	n/a	n/a	n/a	98.257	n/a
56.053	0.497	neutral	Picture	55.942	n/a	1	2	16	n/a	36	25	1	n/a	n/a	n/a	n/a	98.787	BM06NES.jpg
56.551	0.514	Blank	Blank	55.428	n/a	1	2	16	n/a	36	n/a	1	n/a	n/a	n/a	n/a	99.284	n/a
57.081	0.497	neutral	Picture	54.914	n/a	1	2	17	n/a	37	8	1	n/a	n/a	n/a	n/a	99.815	AF14NES.jpg
57.579	0.514	Blank	Blank	54.4	n/a	1	2	17	n/a	37	n/a	1	n/a	n/a	n/a	n/a	100.312	n/a
58.109	0.497	neutral	Picture	53.886	n/a	1	2	18	n/a	38	19	1	n/a	n/a	n/a	n/a	100.843	AF31NES.jpg
58.607	0.514	Blank	Blank	53.372	n/a	1	2	18	n/a	38	n/a	1	n/a	n/a	n/a	n/a	101.34	n/a
59.137	0.497	neutral	Picture	52.858	n/a	1	2	19	n/a	39	14	1	n/a	n/a	n/a	n/a	101.871	AF23NES.jpg
59.634	0.514	Blank	Blank	52.344	n/a	1	2	19	n/a	39	n/a	1	n/a	n/a	n/a	n/a	102.368	n/a
60.165	0.497	neutral	Picture	51.83	n/a	1	2	20	n/a	40	4	1	n/a	n/a	n/a	n/a	102.899	AF05NES.jpg
60.662	0.514	Blank	Blank	51.316	n/a	1	2	20	n/a	40	n/a	1	n/a	n/a	n/a	n/a	103.396	n/a
61.193	10.014	ITI	Fixation+	41.286	n/a	1	n/a	n/a	n/a	n/a	n/a	n/a	n/a	n/a	n/a	n/a	103.927	n/a
71.223	0.497	angry	Picture	40.772	n/a	1	3	1	n/a	41	84	3	n/a	n/a	n/a	n/a	113.957	AF05ANS.jpg
71.72	0.514	Blank	Blank	40.258	n/a	1	3	1	n/a	41	n/a	3	n/a	n/a	n/a	n/a	114.454	n/a
72.251	0.497	angry	Picture	39.744	n/a	1	3	2	n/a	42	92	3	n/a	n/a	n/a	n/a	114.984	AF21ANS.jpg
72.748	0.514	Blank	Blank	39.23	n/a	1	3	2	n/a	42	n/a	3	n/a	n/a	n/a	n/a	115.482	n/a
73.279	0.497	angry	Picture	38.717	n/a	1	3	3	n/a	43	86	3	n/a	n/a	n/a	n/a	116.012	AF09ANS.jpg
73.776	0.514	Blank	Blank	38.203	n/a	1	3	3	n/a	43	n/a	3	n/a	n/a	n/a	n/a	116.51	n/a
74.307	0.497	angry	Picture	37.689	n/a	1	3	4	n/a	44	93	3	n/a	n/a	n/a	n/a	117.04	BF22ANS.jpg
74.804	0.514	Blank	Blank	37.175	n/a	1	3	4	n/a	44	n/a	3	n/a	n/a	n/a	n/a	117.538	n/a
75.334	0.497	angry	Picture	36.661	n/a	1	3	5	n/a	45	88	3	n/a	n/a	n/a	n/a	118.068	AF14ANS.jpg
75.832	0.514	Blank	Blank	36.147	n/a	1	3	5	n/a	45	n/a	3	n/a	n/a	n/a	n/a	118.566	n/a
76.362	0.497	angry	Picture	35.633	n/a	1	3	6	n/a	46	113	3	n/a	n/a	n/a	n/a	119.096	AM21ANS.jpg
76.86	0.514	Blank	Blank	35.119	n/a	1	3	6	n/a	46	n/a	3	n/a	n/a	n/a	n/a	119.593	n/a
77.39	0.497	angry	Picture	34.605	n/a	1	3	7	n/a	47	95	3	n/a	n/a	n/a	n/a	120.124	AF25ANS.jpg
77.888	0.514	Blank	Blank	34.091	n/a	1	3	7	n/a	47	n/a	3	n/a	n/a	n/a	n/a	120.621	n/a
78.418	0.497	angry	Picture	33.577	n/a	1	3	8	n/a	48	102	3	n/a	n/a	n/a	n/a	121.152	BM03ANS.jpg
78.916	0.514	Blank	Blank	33.063	n/a	1	3	8	n/a	48	n/a	3	n/a	n/a	n/a	n/a	121.649	n/a
79.446	0.497	angry	Picture	32.549	n/a	1	3	9	n/a	49	112	3	n/a	n/a	n/a	n/a	122.18	AM14ANS.jpg
79.943	0.514	Blank	Blank	32.035	n/a	1	3	9	n/a	49	n/a	3	n/a	n/a	n/a	n/a	122.677	n/a
80.474	0.497	angry	Picture	31.521	n/a	1	3	10	n/a	50	83	3	n/a	n/a	n/a	n/a	123.207	BF04ANS.jpg
80.971	0.514	Blank	Blank	31.007	n/a	1	3	10	n/a	50	n/a	3	n/a	n/a	n/a	n/a	123.705	n/a
81.502	0.497	angry	Picture	30.493	n/a	1	3	11	n/a	51	90	3	n/a	n/a	n/a	n/a	124.235	AF18ANS.jpg
81.999	0.514	Blank	Blank	29.98	n/a	1	3	11	n/a	51	n/a	3	n/a	n/a	n/a	n/a	124.733	n/a
82.53	0.497	angry	Picture	29.466	n/a	1	3	12	n/a	52	117	3	n/a	n/a	n/a	n/a	125.263	BM25ANS.jpg
83.027	0.514	Blank	Blank	28.952	n/a	1	3	12	n/a	52	n/a	3	n/a	n/a	n/a	n/a	125.761	n/a
83.558	0.497	angry	Picture	28.438	n/a	1	3	13	n/a	53	94	3	n/a	n/a	n/a	n/a	126.291	AF23ANS.jpg
84.055	0.514	Blank	Blank	27.924	n/a	1	3	13	n/a	53	n/a	3	n/a	n/a	n/a	n/a	126.788	n/a
84.585	0.497	angry	Picture	27.41	n/a	1	3	14	n/a	54	106	3	n/a	n/a	n/a	n/a	127.319	AM07ANS.jpg
85.083	0.514	Blank	Blank	26.896	n/a	1	3	14	n/a	54	n/a	3	n/a	n/a	n/a	n/a	127.816	n/a
85.613	0.497	angry	Picture	26.382	n/a	1	3	15	n/a	55	105	3	n/a	n/a	n/a	n/a	128.347	BM06ANS.jpg
86.111	0.514	Blank	Blank	25.868	n/a	1	3	15	n/a	55	n/a	3	n/a	n/a	n/a	n/a	128.844	n/a
86.641	0.497	angry	Picture	25.354	n/a	1	3	16	n/a	56	116	3	n/a	n/a	n/a	n/a	129.375	BM24ANS.jpg
87.138	0.514	Blank	Blank	24.84	n/a	1	3	16	n/a	56	n/a	3	n/a	n/a	n/a	n/a	129.872	n/a
87.669	0.497	angry	Picture	24.326	n/a	1	3	17	n/a	57	89	3	n/a	n/a	n/a	n/a	130.403	AF17ANS.jpg
88.166	0.514	Blank	Blank	23.812	n/a	1	3	17	n/a	57	n/a	3	n/a	n/a	n/a	n/a	130.9	n/a
88.697	0.497	angry	Picture	23.298	n/a	1	3	18	n/a	58	118	3	n/a	n/a	n/a	n/a	131.43	BM26ANS.jpg
89.194	0.514	Blank	Blank	22.784	n/a	1	3	18	n/a	58	n/a	3	n/a	n/a	n/a	n/a	131.928	n/a
89.725	0.497	angry	Picture	22.27	n/a	1	3	19	n/a	59	100	3	n/a	n/a	n/a	n/a	132.458	AF32ANS.jpg
90.222	0.514	Blank	Blank	21.756	n/a	1	3	19	n/a	59	n/a	3	n/a	n/a	n/a	n/a	132.956	n/a
90.753	0.497	angry	Picture	21.243	n/a	1	3	20	n/a	60	119	3	n/a	n/a	n/a	n/a	133.486	BM28ANS.jpg
91.25	0.514	Blank	Blank	20.729	n/a	1	3	20	n/a	60	n/a	3	n/a	n/a	n/a	n/a	133.984	n/a
91.781	10.014	ITI	Fixation+	10.699	n/a	1	n/a	n/a	n/a	n/a	n/a	n/a	n/a	n/a	n/a	n/a	134.514	n/a
112.493	n/a	ConfirmRating	Rate	n/a	10.693	1	n/a	n/a	0	n/a	n/a	n/a	2	Angry	50	50	155.226	n/a
114.444	n/a	ConfirmRating	Rate	n/a	1.923	1	n/a	n/a	1	n/a	n/a	n/a	3	Angry	50	50	157.177	n/a
114.46	10.014	ITI	Fixation+	96.689	n/a	2	n/a	n/a	n/a	n/a	n/a	n/a	n/a	n/a	n/a	n/a	157.194	n/a
124.49	0.497	happy	Picture	96.175	n/a	2	4	1	n/a	61	79	2	n/a	n/a	n/a	n/a	167.224	BM28HAS.jpg
124.988	0.514	Blank	Blank	95.661	n/a	2	4	1	n/a	61	n/a	2	n/a	n/a	n/a	n/a	167.721	n/a
125.518	0.497	happy	Picture	95.147	n/a	2	4	2	n/a	62	61	2	n/a	n/a	n/a	n/a	168.252	AM01HAS.jpg
126.016	0.514	Blank	Blank	94.633	n/a	2	4	2	n/a	62	n/a	2	n/a	n/a	n/a	n/a	168.749	n/a
126.546	0.497	happy	Picture	94.119	n/a	2	4	3	n/a	63	57	2	n/a	n/a	n/a	n/a	169.28	BF28HAS.jpg
127.043	0.514	Blank	Blank	93.605	n/a	2	4	3	n/a	63	n/a	2	n/a	n/a	n/a	n/a	169.777	n/a
127.574	0.497	happy	Picture	93.091	n/a	2	4	4	n/a	64	77	2	n/a	n/a	n/a	n/a	170.308	BM25HAS.jpg
128.071	0.514	Blank	Blank	92.577	n/a	2	4	4	n/a	64	n/a	2	n/a	n/a	n/a	n/a	170.805	n/a
128.602	0.497	happy	Picture	92.063	n/a	2	4	5	n/a	65	47	2	n/a	n/a	n/a	n/a	171.335	BF11HAS.jpg
129.099	0.514	Blank	Blank	91.549	n/a	2	4	5	n/a	65	n/a	2	n/a	n/a	n/a	n/a	171.833	n/a
129.63	0.497	happy	Picture	91.036	n/a	2	4	6	n/a	66	50	2	n/a	n/a	n/a	n/a	172.363	AF18HAS.jpg
130.127	0.514	Blank	Blank	90.522	n/a	2	4	6	n/a	66	n/a	2	n/a	n/a	n/a	n/a	172.861	n/a
130.658	0.497	happy	Picture	90.008	n/a	2	4	7	n/a	67	78	2	n/a	n/a	n/a	n/a	173.391	BM26HAS.jpg
131.155	0.514	Blank	Blank	89.494	n/a	2	4	7	n/a	67	n/a	2	n/a	n/a	n/a	n/a	173.889	n/a
131.685	0.497	happy	Picture	88.98	n/a	2	4	8	n/a	68	45	2	n/a	n/a	n/a	n/a	174.419	BF07HAS.jpg
132.183	0.514	Blank	Blank	88.466	n/a	2	4	8	n/a	68	n/a	2	n/a	n/a	n/a	n/a	174.917	n/a
132.713	0.497	happy	Picture	87.952	n/a	2	4	9	n/a	69	56	2	n/a	n/a	n/a	n/a	175.447	AF26HAS.jpg
133.211	0.514	Blank	Blank	87.438	n/a	2	4	9	n/a	69	n/a	2	n/a	n/a	n/a	n/a	175.944	n/a
133.741	0.497	happy	Picture	86.924	n/a	2	4	10	n/a	70	65	2	n/a	n/a	n/a	n/a	176.475	BM06HAS.jpg
134.239	0.514	Blank	Blank	86.41	n/a	2	4	10	n/a	70	n/a	2	n/a	n/a	n/a	n/a	176.972	n/a
134.769	0.497	happy	Picture	85.896	n/a	2	4	11	n/a	71	73	2	n/a	n/a	n/a	n/a	177.503	AM21HAS.jpg
135.267	0.514	Blank	Blank	85.382	n/a	2	4	11	n/a	71	n/a	2	n/a	n/a	n/a	n/a	178.0	n/a
135.797	0.497	happy	Picture	84.868	n/a	2	4	12	n/a	72	41	2	n/a	n/a	n/a	n/a	178.531	AF01HAS.jpg
136.294	0.514	Blank	Blank	84.354	n/a	2	4	12	n/a	72	n/a	2	n/a	n/a	n/a	n/a	179.028	n/a
136.825	0.497	happy	Picture	83.84	n/a	2	4	13	n/a	73	59	2	n/a	n/a	n/a	n/a	179.559	AF31HAS.jpg
137.322	0.514	Blank	Blank	83.326	n/a	2	4	13	n/a	73	n/a	2	n/a	n/a	n/a	n/a	180.056	n/a
137.853	0.497	happy	Picture	82.813	n/a	2	4	14	n/a	74	64	2	n/a	n/a	n/a	n/a	180.586	BM05HAS.jpg
138.35	0.514	Blank	Blank	82.299	n/a	2	4	14	n/a	74	n/a	2	n/a	n/a	n/a	n/a	181.084	n/a
138.881	0.497	happy	Picture	81.785	n/a	2	4	15	n/a	75	68	2	n/a	n/a	n/a	n/a	181.614	AM09HAS.jpg
139.378	0.514	Blank	Blank	81.271	n/a	2	4	15	n/a	75	n/a	2	n/a	n/a	n/a	n/a	182.112	n/a
139.909	0.497	happy	Picture	80.757	n/a	2	4	16	n/a	76	54	2	n/a	n/a	n/a	n/a	182.642	AF23HAS.jpg
140.406	0.514	Blank	Blank	80.243	n/a	2	4	16	n/a	76	n/a	2	n/a	n/a	n/a	n/a	183.139	n/a
140.936	0.497	happy	Picture	79.729	n/a	2	4	17	n/a	77	53	2	n/a	n/a	n/a	n/a	183.67	BF22HAS.jpg
141.434	0.514	Blank	Blank	79.215	n/a	2	4	17	n/a	77	n/a	2	n/a	n/a	n/a	n/a	184.167	n/a
141.964	0.497	happy	Picture	78.701	n/a	2	4	18	n/a	78	44	2	n/a	n/a	n/a	n/a	184.698	AF05HAS.jpg
142.462	0.514	Blank	Blank	78.187	n/a	2	4	18	n/a	78	n/a	2	n/a	n/a	n/a	n/a	185.195	n/a
142.992	0.497	happy	Picture	77.673	n/a	2	4	19	n/a	79	52	2	n/a	n/a	n/a	n/a	185.726	AF21HAS.jpg
143.489	0.514	Blank	Blank	77.159	n/a	2	4	19	n/a	79	n/a	2	n/a	n/a	n/a	n/a	186.223	n/a
144.02	0.497	happy	Picture	76.645	n/a	2	4	20	n/a	80	62	2	n/a	n/a	n/a	n/a	186.754	BM03HAS.jpg
144.517	0.514	Blank	Blank	76.131	n/a	2	4	20	n/a	80	n/a	2	n/a	n/a	n/a	n/a	187.251	n/a
145.048	10.014	ITI	Fixation+	66.101	n/a	2	n/a	n/a	n/a	n/a	n/a	n/a	n/a	n/a	n/a	n/a	187.781	n/a
155.078	0.497	neutral	Picture	65.587	n/a	2	5	1	n/a	81	23	1	n/a	n/a	n/a	n/a	197.812	AM04NES.jpg
155.575	0.514	Blank	Blank	65.073	n/a	2	5	1	n/a	81	n/a	1	n/a	n/a	n/a	n/a	198.309	n/a
156.106	0.497	neutral	Picture	64.559	n/a	2	5	2	n/a	82	29	1	n/a	n/a	n/a	n/a	198.839	AM10NES.jpg
156.603	0.514	Blank	Blank	64.045	n/a	2	5	2	n/a	82	n/a	1	n/a	n/a	n/a	n/a	199.337	n/a
157.134	0.497	neutral	Picture	63.531	n/a	2	5	3	n/a	83	24	1	n/a	n/a	n/a	n/a	199.867	BM05NES.jpg
157.631	0.514	Blank	Blank	63.018	n/a	2	5	3	n/a	83	n/a	1	n/a	n/a	n/a	n/a	200.365	n/a
158.162	0.497	neutral	Picture	62.504	n/a	2	5	4	n/a	84	12	1	n/a	n/a	n/a	n/a	200.895	AF21NES.jpg
158.659	0.514	Blank	Blank	61.99	n/a	2	5	4	n/a	84	n/a	1	n/a	n/a	n/a	n/a	201.393	n/a
159.19	0.497	neutral	Picture	61.476	n/a	2	5	5	n/a	85	13	1	n/a	n/a	n/a	n/a	201.923	BF22NES.jpg
159.687	0.514	Blank	Blank	60.962	n/a	2	5	5	n/a	85	n/a	1	n/a	n/a	n/a	n/a	202.421	n/a
160.217	0.497	neutral	Picture	60.448	n/a	2	5	6	n/a	86	17	1	n/a	n/a	n/a	n/a	202.951	BF28NES.jpg
160.715	0.514	Blank	Blank	59.934	n/a	2	5	6	n/a	86	n/a	1	n/a	n/a	n/a	n/a	203.448	n/a
161.245	0.497	neutral	Picture	59.42	n/a	2	5	7	n/a	87	4	1	n/a	n/a	n/a	n/a	203.979	AF05NES.jpg
161.743	0.514	Blank	Blank	58.906	n/a	2	5	7	n/a	87	n/a	1	n/a	n/a	n/a	n/a	204.476	n/a
162.273	0.497	neutral	Picture	58.392	n/a	2	5	8	n/a	88	11	1	n/a	n/a	n/a	n/a	205.007	AF20NES.jpg
162.771	0.514	Blank	Blank	57.878	n/a	2	5	8	n/a	88	n/a	1	n/a	n/a	n/a	n/a	205.504	n/a
163.301	0.497	neutral	Picture	57.364	n/a	2	5	9	n/a	89	22	1	n/a	n/a	n/a	n/a	206.035	BM03NES.jpg
163.798	0.514	Blank	Blank	56.85	n/a	2	5	9	n/a	89	n/a	1	n/a	n/a	n/a	n/a	206.532	n/a
164.329	0.497	neutral	Picture	56.336	n/a	2	5	10	n/a	90	15	1	n/a	n/a	n/a	n/a	207.063	AF25NES.jpg
164.826	0.514	Blank	Blank	55.822	n/a	2	5	10	n/a	90	n/a	1	n/a	n/a	n/a	n/a	207.56	n/a
165.357	0.497	neutral	Picture	55.308	n/a	2	5	11	n/a	91	19	1	n/a	n/a	n/a	n/a	208.09	AF31NES.jpg
165.854	0.514	Blank	Blank	54.795	n/a	2	5	11	n/a	91	n/a	1	n/a	n/a	n/a	n/a	208.588	n/a
166.385	0.497	neutral	Picture	54.281	n/a	2	5	12	n/a	92	9	1	n/a	n/a	n/a	n/a	209.118	AF17NES.jpg
166.882	0.514	Blank	Blank	53.767	n/a	2	5	12	n/a	92	n/a	1	n/a	n/a	n/a	n/a	209.616	n/a
167.413	0.497	neutral	Picture	53.253	n/a	2	5	13	n/a	93	14	1	n/a	n/a	n/a	n/a	210.146	AF23NES.jpg
167.91	0.514	Blank	Blank	52.739	n/a	2	5	13	n/a	93	n/a	1	n/a	n/a	n/a	n/a	210.643	n/a
168.441	0.497	neutral	Picture	52.225	n/a	2	5	14	n/a	94	36	1	n/a	n/a	n/a	n/a	211.174	BM24NES.jpg
168.938	0.514	Blank	Blank	51.711	n/a	2	5	14	n/a	94	n/a	1	n/a	n/a	n/a	n/a	211.671	n/a
169.468	0.497	neutral	Picture	51.197	n/a	2	5	15	n/a	95	34	1	n/a	n/a	n/a	n/a	212.202	AM22NES.jpg
169.966	0.514	Blank	Blank	50.683	n/a	2	5	15	n/a	95	n/a	1	n/a	n/a	n/a	n/a	212.699	n/a
170.496	0.497	neutral	Picture	50.169	n/a	2	5	16	n/a	96	10	1	n/a	n/a	n/a	n/a	213.23	AF18NES.jpg
170.994	0.514	Blank	Blank	49.655	n/a	2	5	16	n/a	96	n/a	1	n/a	n/a	n/a	n/a	213.727	n/a
171.524	0.497	neutral	Picture	49.141	n/a	2	5	17	n/a	97	5	1	n/a	n/a	n/a	n/a	214.258	BF07NES.jpg
172.022	0.514	Blank	Blank	48.627	n/a	2	5	17	n/a	97	n/a	1	n/a	n/a	n/a	n/a	214.755	n/a
172.552	0.497	neutral	Picture	48.113	n/a	2	5	18	n/a	98	25	1	n/a	n/a	n/a	n/a	215.286	BM06NES.jpg
173.049	0.514	Blank	Blank	47.599	n/a	2	5	18	n/a	98	n/a	1	n/a	n/a	n/a	n/a	215.783	n/a
173.58	0.497	neutral	Picture	47.085	n/a	2	5	19	n/a	99	39	1	n/a	n/a	n/a	n/a	216.314	AM28NES.jpg
174.077	0.514	Blank	Blank	46.571	n/a	2	5	19	n/a	99	n/a	1	n/a	n/a	n/a	n/a	216.811	n/a
174.608	0.497	neutral	Picture	46.058	n/a	2	5	20	n/a	100	33	1	n/a	n/a	n/a	n/a	217.341	AM21NES.jpg
175.105	0.514	Blank	Blank	45.544	n/a	2	5	20	n/a	100	n/a	1	n/a	n/a	n/a	n/a	217.839	n/a
175.636	10.014	ITI	Fixation+	35.514	n/a	2	n/a	n/a	n/a	n/a	n/a	n/a	n/a	n/a	n/a	n/a	218.369	n/a
185.666	0.497	happy	Picture	35.0	n/a	2	6	1	n/a	101	74	2	n/a	n/a	n/a	n/a	228.399	AM22HAS.jpg
186.163	0.514	Blank	Blank	34.486	n/a	2	6	1	n/a	101	n/a	2	n/a	n/a	n/a	n/a	228.897	n/a
186.694	0.497	happy	Picture	33.972	n/a	2	6	2	n/a	102	76	2	n/a	n/a	n/a	n/a	229.427	BM24HAS.jpg
187.191	0.514	Blank	Blank	33.458	n/a	2	6	2	n/a	102	n/a	2	n/a	n/a	n/a	n/a	229.925	n/a
187.721	0.497	happy	Picture	32.944	n/a	2	6	3	n/a	103	80	2	n/a	n/a	n/a	n/a	230.455	BM35HAS.jpg
188.219	0.514	Blank	Blank	32.43	n/a	2	6	3	n/a	103	n/a	2	n/a	n/a	n/a	n/a	230.952	n/a
188.749	0.497	happy	Picture	31.916	n/a	2	6	4	n/a	104	75	2	n/a	n/a	n/a	n/a	231.483	AM23HAS.jpg
189.247	0.514	Blank	Blank	31.402	n/a	2	6	4	n/a	104	n/a	2	n/a	n/a	n/a	n/a	231.98	n/a
189.773	0.501	happy	Picture	30.888	n/a	2	6	5	n/a	105	49	2	n/a	n/a	n/a	n/a	232.507	AF17HAS.jpg
190.275	0.514	Blank	Blank	30.374	n/a	2	6	5	n/a	105	n/a	2	n/a	n/a	n/a	n/a	233.008	n/a
190.805	0.497	happy	Picture	29.86	n/a	2	6	6	n/a	106	43	2	n/a	n/a	n/a	n/a	233.539	BF04HAS.jpg
191.303	0.514	Blank	Blank	29.346	n/a	2	6	6	n/a	106	n/a	2	n/a	n/a	n/a	n/a	234.036	n/a
191.833	0.497	happy	Picture	28.832	n/a	2	6	7	n/a	107	70	2	n/a	n/a	n/a	n/a	234.567	BM11HAS.jpg
192.33	0.514	Blank	Blank	28.318	n/a	2	6	7	n/a	107	n/a	2	n/a	n/a	n/a	n/a	235.064	n/a
192.861	0.497	happy	Picture	27.804	n/a	2	6	8	n/a	108	66	2	n/a	n/a	n/a	n/a	235.595	BM07HAS.jpg
193.358	0.514	Blank	Blank	27.29	n/a	2	6	8	n/a	108	n/a	2	n/a	n/a	n/a	n/a	236.092	n/a
193.889	0.497	happy	Picture	26.777	n/a	2	6	9	n/a	109	48	2	n/a	n/a	n/a	n/a	236.622	AF14HAS.jpg
194.386	0.514	Blank	Blank	26.263	n/a	2	6	9	n/a	109	n/a	2	n/a	n/a	n/a	n/a	237.12	n/a
194.917	0.497	happy	Picture	25.749	n/a	2	6	10	n/a	110	58	2	n/a	n/a	n/a	n/a	237.65	BF29HAS.jpg
195.414	0.514	Blank	Blank	25.235	n/a	2	6	10	n/a	110	n/a	2	n/a	n/a	n/a	n/a	238.148	n/a
195.945	0.497	happy	Picture	24.721	n/a	2	6	11	n/a	111	63	2	n/a	n/a	n/a	n/a	238.678	AM04HAS.jpg
196.442	0.514	Blank	Blank	24.207	n/a	2	6	11	n/a	111	n/a	2	n/a	n/a	n/a	n/a	239.175	n/a
196.972	0.497	happy	Picture	23.693	n/a	2	6	12	n/a	112	72	2	n/a	n/a	n/a	n/a	239.706	AM14HAS.jpg
197.47	0.514	Blank	Blank	23.179	n/a	2	6	12	n/a	112	n/a	2	n/a	n/a	n/a	n/a	240.203	n/a
198.0	0.497	happy	Picture	22.665	n/a	2	6	13	n/a	113	55	2	n/a	n/a	n/a	n/a	240.734	AF25HAS.jpg
198.498	0.514	Blank	Blank	22.151	n/a	2	6	13	n/a	113	n/a	2	n/a	n/a	n/a	n/a	241.231	n/a
199.028	0.497	happy	Picture	21.637	n/a	2	6	14	n/a	114	42	2	n/a	n/a	n/a	n/a	241.762	AF03HAS.jpg
199.525	0.514	Blank	Blank	21.123	n/a	2	6	14	n/a	114	n/a	2	n/a	n/a	n/a	n/a	242.259	n/a
200.056	0.497	happy	Picture	20.609	n/a	2	6	15	n/a	115	60	2	n/a	n/a	n/a	n/a	242.79	AF32HAS.jpg
200.553	0.514	Blank	Blank	20.095	n/a	2	6	15	n/a	115	n/a	2	n/a	n/a	n/a	n/a	243.287	n/a
201.084	0.497	happy	Picture	19.581	n/a	2	6	16	n/a	116	67	2	n/a	n/a	n/a	n/a	243.817	BM08HAS.jpg
201.581	0.514	Blank	Blank	19.067	n/a	2	6	16	n/a	116	n/a	2	n/a	n/a	n/a	n/a	244.315	n/a
202.112	0.497	happy	Picture	18.553	n/a	2	6	17	n/a	117	51	2	n/a	n/a	n/a	n/a	244.845	AF20HAS.jpg
202.609	0.514	Blank	Blank	18.04	n/a	2	6	17	n/a	117	n/a	2	n/a	n/a	n/a	n/a	245.343	n/a
203.14	0.497	happy	Picture	17.526	n/a	2	6	18	n/a	118	71	2	n/a	n/a	n/a	n/a	245.873	BM12HAS.jpg
203.637	0.514	Blank	Blank	17.012	n/a	2	6	18	n/a	118	n/a	2	n/a	n/a	n/a	n/a	246.371	n/a
204.168	0.497	happy	Picture	16.498	n/a	2	6	19	n/a	119	69	2	n/a	n/a	n/a	n/a	246.901	AM10HAS.jpg
204.665	0.514	Blank	Blank	15.984	n/a	2	6	19	n/a	119	n/a	2	n/a	n/a	n/a	n/a	247.399	n/a
205.195	0.497	happy	Picture	15.47	n/a	2	6	20	n/a	120	46	2	n/a	n/a	n/a	n/a	247.929	AF09HAS.jpg
205.693	0.514	Blank	Blank	14.956	n/a	2	6	20	n/a	120	n/a	2	n/a	n/a	n/a	n/a	248.426	n/a
206.223	10.014	ITI	Fixation+	4.926	n/a	2	n/a	n/a	n/a	n/a	n/a	n/a	n/a	n/a	n/a	n/a	248.957	n/a
221.163	n/a	ConfirmRating	Rate	n/a	4.923	2	n/a	n/a	0	n/a	n/a	n/a	2	Happy	50	50	263.896	n/a
230.447	n/a	ConfirmRating	Rate	n/a	9.268	2	n/a	n/a	1	n/a	n/a	n/a	3	Happy	0	47	273.181	n/a
230.478	15.004	Rest	Picture	n/a	n/a	n/a	n/a	n/a	n/a	n/a	n/a	n/a	0	n/a	0	0	273.212	n/a
245.498	10.014	ITI	Fixation+	102.229	n/a	3	n/a	n/a	n/a	n/a	n/a	n/a	n/a	n/a	n/a	n/a	288.232	n/a
255.528	0.497	angry	Picture	101.715	n/a	3	7	1	n/a	1	108	3	n/a	n/a	n/a	n/a	298.262	AM09ANS.jpg
256.026	0.514	Blank	Blank	101.201	n/a	3	7	1	n/a	1	n/a	3	n/a	n/a	n/a	n/a	298.759	n/a
256.556	0.497	angry	Picture	100.687	n/a	3	7	2	n/a	2	99	3	n/a	n/a	n/a	n/a	299.29	AF31ANS.jpg
257.054	0.514	Blank	Blank	100.174	n/a	3	7	2	n/a	2	n/a	3	n/a	n/a	n/a	n/a	299.787	n/a
257.584	0.497	angry	Picture	99.659	n/a	3	7	3	n/a	3	98	3	n/a	n/a	n/a	n/a	300.318	BF29ANS.jpg
258.081	0.514	Blank	Blank	99.146	n/a	3	7	3	n/a	3	n/a	3	n/a	n/a	n/a	n/a	300.815	n/a
258.612	0.497	angry	Picture	98.632	n/a	3	7	4	n/a	4	107	3	n/a	n/a	n/a	n/a	301.346	BM08ANS.jpg
259.109	0.514	Blank	Blank	98.118	n/a	3	7	4	n/a	4	n/a	3	n/a	n/a	n/a	n/a	301.843	n/a
259.64	0.497	angry	Picture	97.604	n/a	3	7	5	n/a	5	104	3	n/a	n/a	n/a	n/a	302.373	BM05ANS.jpg
260.137	0.514	Blank	Blank	97.09	n/a	3	7	5	n/a	5	n/a	3	n/a	n/a	n/a	n/a	302.871	n/a
260.668	0.497	angry	Picture	96.576	n/a	3	7	6	n/a	6	101	3	n/a	n/a	n/a	n/a	303.401	AM01ANS.jpg
261.165	0.514	Blank	Blank	96.062	n/a	3	7	6	n/a	6	n/a	3	n/a	n/a	n/a	n/a	303.899	n/a
261.696	0.497	angry	Picture	95.548	n/a	3	7	7	n/a	7	103	3	n/a	n/a	n/a	n/a	304.429	AM04ANS.jpg
262.193	0.514	Blank	Blank	95.034	n/a	3	7	7	n/a	7	n/a	3	n/a	n/a	n/a	n/a	304.927	n/a
262.724	0.497	angry	Picture	94.52	n/a	3	7	8	n/a	8	111	3	n/a	n/a	n/a	n/a	305.457	BM12ANS.jpg
263.221	0.514	Blank	Blank	94.006	n/a	3	7	8	n/a	8	n/a	3	n/a	n/a	n/a	n/a	305.954	n/a
263.751	0.497	angry	Picture	93.492	n/a	3	7	9	n/a	9	110	3	n/a	n/a	n/a	n/a	306.485	AM11ANS.jpg
264.249	0.514	Blank	Blank	92.978	n/a	3	7	9	n/a	9	n/a	3	n/a	n/a	n/a	n/a	306.982	n/a
264.779	0.497	angry	Picture	92.464	n/a	3	7	10	n/a	10	85	3	n/a	n/a	n/a	n/a	307.513	BF07ANS.jpg
265.277	0.514	Blank	Blank	91.95	n/a	3	7	10	n/a	10	n/a	3	n/a	n/a	n/a	n/a	308.01	n/a
265.807	0.497	angry	Picture	91.436	n/a	3	7	11	n/a	11	87	3	n/a	n/a	n/a	n/a	308.541	BF11ANS.jpg
266.304	0.514	Blank	Blank	90.923	n/a	3	7	11	n/a	11	n/a	3	n/a	n/a	n/a	n/a	309.038	n/a
266.835	0.497	angry	Picture	90.409	n/a	3	7	12	n/a	12	91	3	n/a	n/a	n/a	n/a	309.569	AF20ANS.jpg
267.332	0.514	Blank	Blank	89.895	n/a	3	7	12	n/a	12	n/a	3	n/a	n/a	n/a	n/a	310.066	n/a
267.863	0.497	angry	Picture	89.381	n/a	3	7	13	n/a	13	115	3	n/a	n/a	n/a	n/a	310.596	AM23ANS.jpg
268.36	0.514	Blank	Blank	88.867	n/a	3	7	13	n/a	13	n/a	3	n/a	n/a	n/a	n/a	311.094	n/a
268.891	0.497	angry	Picture	88.353	n/a	3	7	14	n/a	14	97	3	n/a	n/a	n/a	n/a	311.624	BF28ANS.jpg
269.388	0.514	Blank	Blank	87.839	n/a	3	7	14	n/a	14	n/a	3	n/a	n/a	n/a	n/a	312.122	n/a
269.919	0.497	angry	Picture	87.325	n/a	3	7	15	n/a	15	82	3	n/a	n/a	n/a	n/a	312.652	AF03ANS.jpg
270.416	0.514	Blank	Blank	86.811	n/a	3	7	15	n/a	15	n/a	3	n/a	n/a	n/a	n/a	313.15	n/a
270.946	0.497	angry	Picture	86.297	n/a	3	7	16	n/a	16	96	3	n/a	n/a	n/a	n/a	313.68	AF26ANS.jpg
271.444	0.514	Blank	Blank	85.783	n/a	3	7	16	n/a	16	n/a	3	n/a	n/a	n/a	n/a	314.178	n/a
271.974	0.497	angry	Picture	85.269	n/a	3	7	17	n/a	17	109	3	n/a	n/a	n/a	n/a	314.708	AM10ANS.jpg
272.472	0.514	Blank	Blank	84.755	n/a	3	7	17	n/a	17	n/a	3	n/a	n/a	n/a	n/a	315.205	n/a
273.002	0.497	angry	Picture	84.241	n/a	3	7	18	n/a	18	114	3	n/a	n/a	n/a	n/a	315.736	AM22ANS.jpg
273.5	0.514	Blank	Blank	83.727	n/a	3	7	18	n/a	18	n/a	3	n/a	n/a	n/a	n/a	316.233	n/a
274.03	0.497	angry	Picture	83.214	n/a	3	7	19	n/a	19	120	3	n/a	n/a	n/a	n/a	316.764	AM35ANS.jpg
274.527	0.514	Blank	Blank	82.7	n/a	3	7	19	n/a	19	n/a	3	n/a	n/a	n/a	n/a	317.261	n/a
275.058	0.497	angry	Picture	82.186	n/a	3	7	20	n/a	20	81	3	n/a	n/a	n/a	n/a	317.792	AF01ANS.jpg
275.555	0.514	Blank	Blank	81.672	n/a	3	7	20	n/a	20	n/a	3	n/a	n/a	n/a	n/a	318.289	n/a
276.086	10.014	ITI	Fixation+	71.642	n/a	3	n/a	n/a	n/a	n/a	n/a	n/a	n/a	n/a	n/a	n/a	318.82	n/a
286.116	0.497	neutral	Picture	71.128	n/a	3	8	1	n/a	21	28	1	n/a	n/a	n/a	n/a	328.85	AM09NES.jpg
286.613	0.514	Blank	Blank	70.614	n/a	3	8	1	n/a	21	n/a	1	n/a	n/a	n/a	n/a	329.347	n/a
287.144	0.497	neutral	Picture	70.1	n/a	3	8	2	n/a	22	27	1	n/a	n/a	n/a	n/a	329.877	BM08NES.jpg
287.641	0.514	Blank	Blank	69.586	n/a	3	8	2	n/a	22	n/a	1	n/a	n/a	n/a	n/a	330.375	n/a
288.172	0.497	neutral	Picture	69.072	n/a	3	8	3	n/a	23	16	1	n/a	n/a	n/a	n/a	330.905	AF26NES.jpg
288.669	0.514	Blank	Blank	68.558	n/a	3	8	3	n/a	23	n/a	1	n/a	n/a	n/a	n/a	331.403	n/a
289.2	0.497	neutral	Picture	68.044	n/a	3	8	4	n/a	24	3	1	n/a	n/a	n/a	n/a	331.933	BF04NES.jpg
289.697	0.514	Blank	Blank	67.53	n/a	3	8	4	n/a	24	n/a	1	n/a	n/a	n/a	n/a	332.431	n/a
290.228	0.497	neutral	Picture	67.016	n/a	3	8	5	n/a	25	32	1	n/a	n/a	n/a	n/a	332.961	AM14NES.jpg
290.725	0.514	Blank	Blank	66.502	n/a	3	8	5	n/a	25	n/a	1	n/a	n/a	n/a	n/a	333.459	n/a
291.255	0.497	neutral	Picture	65.988	n/a	3	8	6	n/a	26	37	1	n/a	n/a	n/a	n/a	333.989	BM25NES.jpg
291.753	0.514	Blank	Blank	65.474	n/a	3	8	6	n/a	26	n/a	1	n/a	n/a	n/a	n/a	334.486	n/a
292.283	0.497	neutral	Picture	64.96	n/a	3	8	7	n/a	27	15	1	n/a	n/a	n/a	n/a	335.017	AF25NES.jpg
292.781	0.514	Blank	Blank	64.446	n/a	3	8	7	n/a	27	n/a	1	n/a	n/a	n/a	n/a	335.514	n/a
293.311	0.497	neutral	Picture	63.932	n/a	3	8	8	n/a	28	23	1	n/a	n/a	n/a	n/a	336.045	AM04NES.jpg
293.809	0.514	Blank	Blank	63.419	n/a	3	8	8	n/a	28	n/a	1	n/a	n/a	n/a	n/a	336.542	n/a
294.339	0.497	neutral	Picture	62.905	n/a	3	8	9	n/a	29	34	1	n/a	n/a	n/a	n/a	337.073	AM22NES.jpg
294.836	0.514	Blank	Blank	62.391	n/a	3	8	9	n/a	29	n/a	1	n/a	n/a	n/a	n/a	337.57	n/a
295.367	0.497	neutral	Picture	61.877	n/a	3	8	10	n/a	30	24	1	n/a	n/a	n/a	n/a	338.101	BM05NES.jpg
295.864	0.514	Blank	Blank	61.363	n/a	3	8	10	n/a	30	n/a	1	n/a	n/a	n/a	n/a	338.598	n/a
296.395	0.497	neutral	Picture	60.849	n/a	3	8	11	n/a	31	12	1	n/a	n/a	n/a	n/a	339.128	AF21NES.jpg
296.892	0.514	Blank	Blank	60.335	n/a	3	8	11	n/a	31	n/a	1	n/a	n/a	n/a	n/a	339.626	n/a
297.423	0.497	neutral	Picture	59.821	n/a	3	8	12	n/a	32	6	1	n/a	n/a	n/a	n/a	340.156	AF09NES.jpg
297.92	0.514	Blank	Blank	59.307	n/a	3	8	12	n/a	32	n/a	1	n/a	n/a	n/a	n/a	340.654	n/a
298.451	0.497	neutral	Picture	58.793	n/a	3	8	13	n/a	33	17	1	n/a	n/a	n/a	n/a	341.184	BF28NES.jpg
298.948	0.514	Blank	Blank	58.279	n/a	3	8	13	n/a	33	n/a	1	n/a	n/a	n/a	n/a	341.682	n/a
299.478	0.497	neutral	Picture	57.765	n/a	3	8	14	n/a	34	2	1	n/a	n/a	n/a	n/a	342.212	AF03NES.jpg
299.976	0.514	Blank	Blank	57.251	n/a	3	8	14	n/a	34	n/a	1	n/a	n/a	n/a	n/a	342.709	n/a
300.506	0.497	neutral	Picture	56.737	n/a	3	8	15	n/a	35	9	1	n/a	n/a	n/a	n/a	343.24	AF17NES.jpg
301.004	0.514	Blank	Blank	56.223	n/a	3	8	15	n/a	35	n/a	1	n/a	n/a	n/a	n/a	343.737	n/a
301.534	0.497	neutral	Picture	55.709	n/a	3	8	16	n/a	36	25	1	n/a	n/a	n/a	n/a	344.268	BM06NES.jpg
302.032	0.514	Blank	Blank	55.196	n/a	3	8	16	n/a	36	n/a	1	n/a	n/a	n/a	n/a	344.765	n/a
302.562	0.497	neutral	Picture	54.681	n/a	3	8	17	n/a	37	8	1	n/a	n/a	n/a	n/a	345.296	AF14NES.jpg
303.059	0.514	Blank	Blank	54.168	n/a	3	8	17	n/a	37	n/a	1	n/a	n/a	n/a	n/a	345.793	n/a
303.59	0.497	neutral	Picture	53.654	n/a	3	8	18	n/a	38	19	1	n/a	n/a	n/a	n/a	346.324	AF31NES.jpg
304.087	0.514	Blank	Blank	53.14	n/a	3	8	18	n/a	38	n/a	1	n/a	n/a	n/a	n/a	346.821	n/a
304.618	0.497	neutral	Picture	52.626	n/a	3	8	19	n/a	39	14	1	n/a	n/a	n/a	n/a	347.351	AF23NES.jpg
305.115	0.514	Blank	Blank	52.112	n/a	3	8	19	n/a	39	n/a	1	n/a	n/a	n/a	n/a	347.849	n/a
305.646	0.497	neutral	Picture	51.598	n/a	3	8	20	n/a	40	4	1	n/a	n/a	n/a	n/a	348.379	AF05NES.jpg
306.143	0.514	Blank	Blank	51.084	n/a	3	8	20	n/a	40	n/a	1	n/a	n/a	n/a	n/a	348.877	n/a
306.674	10.014	ITI	Fixation+	41.054	n/a	3	n/a	n/a	n/a	n/a	n/a	n/a	n/a	n/a	n/a	n/a	349.407	n/a
316.704	0.497	angry	Picture	40.54	n/a	3	9	1	n/a	41	84	3	n/a	n/a	n/a	n/a	359.437	AF05ANS.jpg
317.201	0.514	Blank	Blank	40.026	n/a	3	9	1	n/a	41	n/a	3	n/a	n/a	n/a	n/a	359.935	n/a
317.732	0.497	angry	Picture	39.512	n/a	3	9	2	n/a	42	92	3	n/a	n/a	n/a	n/a	360.465	AF21ANS.jpg
318.229	0.514	Blank	Blank	38.998	n/a	3	9	2	n/a	42	n/a	3	n/a	n/a	n/a	n/a	360.963	n/a
318.76	0.497	angry	Picture	38.484	n/a	3	9	3	n/a	43	86	3	n/a	n/a	n/a	n/a	361.493	AF09ANS.jpg
319.257	0.513	Blank	Blank	37.971	n/a	3	9	3	n/a	43	n/a	3	n/a	n/a	n/a	n/a	361.99	n/a
319.787	0.497	angry	Picture	37.456	n/a	3	9	4	n/a	44	93	3	n/a	n/a	n/a	n/a	362.521	BF22ANS.jpg
320.285	0.514	Blank	Blank	36.942	n/a	3	9	4	n/a	44	n/a	3	n/a	n/a	n/a	n/a	363.018	n/a
320.815	0.497	angry	Picture	36.428	n/a	3	9	5	n/a	45	88	3	n/a	n/a	n/a	n/a	363.549	AF14ANS.jpg
321.313	0.514	Blank	Blank	35.914	n/a	3	9	5	n/a	45	n/a	3	n/a	n/a	n/a	n/a	364.046	n/a
321.843	0.497	angry	Picture	35.4	n/a	3	9	6	n/a	46	113	3	n/a	n/a	n/a	n/a	364.577	AM21ANS.jpg
322.34	0.514	Blank	Blank	34.887	n/a	3	9	6	n/a	46	n/a	3	n/a	n/a	n/a	n/a	365.074	n/a
322.871	0.497	angry	Picture	34.373	n/a	3	9	7	n/a	47	95	3	n/a	n/a	n/a	n/a	365.605	AF25ANS.jpg
323.368	0.514	Blank	Blank	33.859	n/a	3	9	7	n/a	47	n/a	3	n/a	n/a	n/a	n/a	366.102	n/a
323.899	0.497	angry	Picture	33.345	n/a	3	9	8	n/a	48	102	3	n/a	n/a	n/a	n/a	366.632	BM03ANS.jpg
324.396	0.514	Blank	Blank	32.831	n/a	3	9	8	n/a	48	n/a	3	n/a	n/a	n/a	n/a	367.13	n/a
324.927	0.497	angry	Picture	32.317	n/a	3	9	9	n/a	49	112	3	n/a	n/a	n/a	n/a	367.66	AM14ANS.jpg
325.424	0.514	Blank	Blank	31.803	n/a	3	9	9	n/a	49	n/a	3	n/a	n/a	n/a	n/a	368.158	n/a
325.955	0.497	angry	Picture	31.289	n/a	3	9	10	n/a	50	83	3	n/a	n/a	n/a	n/a	368.688	BF04ANS.jpg
326.452	0.514	Blank	Blank	30.775	n/a	3	9	10	n/a	50	n/a	3	n/a	n/a	n/a	n/a	369.186	n/a
326.982	0.497	angry	Picture	30.261	n/a	3	9	11	n/a	51	90	3	n/a	n/a	n/a	n/a	369.716	AF18ANS.jpg
327.48	0.514	Blank	Blank	29.747	n/a	3	9	11	n/a	51	n/a	3	n/a	n/a	n/a	n/a	370.214	n/a
328.01	0.497	angry	Picture	29.233	n/a	3	9	12	n/a	52	117	3	n/a	n/a	n/a	n/a	370.744	BM25ANS.jpg
328.508	0.514	Blank	Blank	28.719	n/a	3	9	12	n/a	52	n/a	3	n/a	n/a	n/a	n/a	371.241	n/a
329.038	0.497	angry	Picture	28.205	n/a	3	9	13	n/a	53	94	3	n/a	n/a	n/a	n/a	371.772	AF23ANS.jpg
329.536	0.514	Blank	Blank	27.691	n/a	3	9	13	n/a	53	n/a	3	n/a	n/a	n/a	n/a	372.269	n/a
330.066	0.497	angry	Picture	27.178	n/a	3	9	14	n/a	54	106	3	n/a	n/a	n/a	n/a	372.8	AM07ANS.jpg
330.563	0.514	Blank	Blank	26.663	n/a	3	9	14	n/a	54	n/a	3	n/a	n/a	n/a	n/a	373.297	n/a
331.094	0.497	angry	Picture	26.15	n/a	3	9	15	n/a	55	105	3	n/a	n/a	n/a	n/a	373.828	BM06ANS.jpg
331.591	0.514	Blank	Blank	25.636	n/a	3	9	15	n/a	55	n/a	3	n/a	n/a	n/a	n/a	374.325	n/a
332.122	0.497	angry	Picture	25.122	n/a	3	9	16	n/a	56	116	3	n/a	n/a	n/a	n/a	374.856	BM24ANS.jpg
332.619	0.514	Blank	Blank	24.608	n/a	3	9	16	n/a	56	n/a	3	n/a	n/a	n/a	n/a	375.353	n/a
333.15	0.497	angry	Picture	24.094	n/a	3	9	17	n/a	57	89	3	n/a	n/a	n/a	n/a	375.883	AF17ANS.jpg
333.647	0.514	Blank	Blank	23.58	n/a	3	9	17	n/a	57	n/a	3	n/a	n/a	n/a	n/a	376.381	n/a
334.178	0.497	angry	Picture	23.066	n/a	3	9	18	n/a	58	118	3	n/a	n/a	n/a	n/a	376.911	BM26ANS.jpg
334.675	0.514	Blank	Blank	22.552	n/a	3	9	18	n/a	58	n/a	3	n/a	n/a	n/a	n/a	377.409	n/a
335.206	0.497	angry	Picture	22.038	n/a	3	9	19	n/a	59	100	3	n/a	n/a	n/a	n/a	377.939	AF32ANS.jpg
335.703	0.514	Blank	Blank	21.524	n/a	3	9	19	n/a	59	n/a	3	n/a	n/a	n/a	n/a	378.437	n/a
336.233	0.497	angry	Picture	21.01	n/a	3	9	20	n/a	60	119	3	n/a	n/a	n/a	n/a	378.967	BM28ANS.jpg
336.731	0.514	Blank	Blank	20.496	n/a	3	9	20	n/a	60	n/a	3	n/a	n/a	n/a	n/a	379.464	n/a
337.261	10.014	ITI	Fixation+	10.466	n/a	3	n/a	n/a	n/a	n/a	n/a	n/a	n/a	n/a	n/a	n/a	379.995	n/a
357.741	n/a	ConfirmRating	Rate	n/a	10.461	3	n/a	n/a	0	n/a	n/a	n/a	2	Angry	37	49	400.475	n/a
364.149	n/a	ConfirmRating	Rate	n/a	6.381	3	n/a	n/a	1	n/a	n/a	n/a	3	Angry	1	47	406.883	n/a
364.168	10.014	ITI	Fixation+	98.501	n/a	4	n/a	n/a	n/a	n/a	n/a	n/a	n/a	n/a	n/a	n/a	406.902	n/a
374.199	0.497	happy	Picture	97.987	n/a	4	10	1	n/a	61	79	2	n/a	n/a	n/a	n/a	416.932	BM28HAS.jpg
374.696	0.514	Blank	Blank	97.473	n/a	4	10	1	n/a	61	n/a	2	n/a	n/a	n/a	n/a	417.43	n/a
375.226	0.497	happy	Picture	96.959	n/a	4	10	2	n/a	62	61	2	n/a	n/a	n/a	n/a	417.96	AM01HAS.jpg
375.724	0.514	Blank	Blank	96.445	n/a	4	10	2	n/a	62	n/a	2	n/a	n/a	n/a	n/a	418.457	n/a
376.254	0.497	happy	Picture	95.931	n/a	4	10	3	n/a	63	57	2	n/a	n/a	n/a	n/a	418.988	BF28HAS.jpg
376.752	0.514	Blank	Blank	95.417	n/a	4	10	3	n/a	63	n/a	2	n/a	n/a	n/a	n/a	419.485	n/a
377.282	0.497	happy	Picture	94.903	n/a	4	10	4	n/a	64	77	2	n/a	n/a	n/a	n/a	420.016	BM25HAS.jpg
377.78	0.514	Blank	Blank	94.389	n/a	4	10	4	n/a	64	n/a	2	n/a	n/a	n/a	n/a	420.513	n/a
378.31	0.497	happy	Picture	93.875	n/a	4	10	5	n/a	65	47	2	n/a	n/a	n/a	n/a	421.044	BF11HAS.jpg
378.807	0.514	Blank	Blank	93.361	n/a	4	10	5	n/a	65	n/a	2	n/a	n/a	n/a	n/a	421.541	n/a
379.338	0.497	happy	Picture	92.848	n/a	4	10	6	n/a	66	50	2	n/a	n/a	n/a	n/a	422.072	AF18HAS.jpg
379.835	0.514	Blank	Blank	92.334	n/a	4	10	6	n/a	66	n/a	2	n/a	n/a	n/a	n/a	422.569	n/a
380.366	0.497	happy	Picture	91.82	n/a	4	10	7	n/a	67	78	2	n/a	n/a	n/a	n/a	423.099	BM26HAS.jpg
380.863	0.514	Blank	Blank	91.306	n/a	4	10	7	n/a	67	n/a	2	n/a	n/a	n/a	n/a	423.597	n/a
381.394	0.497	happy	Picture	90.792	n/a	4	10	8	n/a	68	45	2	n/a	n/a	n/a	n/a	424.127	BF07HAS.jpg
381.891	0.514	Blank	Blank	90.278	n/a	4	10	8	n/a	68	n/a	2	n/a	n/a	n/a	n/a	424.625	n/a
382.422	0.497	happy	Picture	89.764	n/a	4	10	9	n/a	69	56	2	n/a	n/a	n/a	n/a	425.155	AF26HAS.jpg
382.919	0.514	Blank	Blank	89.25	n/a	4	10	9	n/a	69	n/a	2	n/a	n/a	n/a	n/a	425.653	n/a
383.45	0.497	happy	Picture	88.736	n/a	4	10	10	n/a	70	65	2	n/a	n/a	n/a	n/a	426.183	BM06HAS.jpg
383.947	0.514	Blank	Blank	88.222	n/a	4	10	10	n/a	70	n/a	2	n/a	n/a	n/a	n/a	426.68	n/a
384.477	0.497	happy	Picture	87.708	n/a	4	10	11	n/a	71	73	2	n/a	n/a	n/a	n/a	427.211	AM21HAS.jpg
384.975	0.514	Blank	Blank	87.194	n/a	4	10	11	n/a	71	n/a	2	n/a	n/a	n/a	n/a	427.708	n/a
385.505	0.497	happy	Picture	86.68	n/a	4	10	12	n/a	72	41	2	n/a	n/a	n/a	n/a	428.239	AF01HAS.jpg
386.003	0.514	Blank	Blank	86.166	n/a	4	10	12	n/a	72	n/a	2	n/a	n/a	n/a	n/a	428.736	n/a
386.533	0.497	happy	Picture	85.652	n/a	4	10	13	n/a	73	59	2	n/a	n/a	n/a	n/a	429.267	AF31HAS.jpg
387.031	0.514	Blank	Blank	85.138	n/a	4	10	13	n/a	73	n/a	2	n/a	n/a	n/a	n/a	429.764	n/a
387.561	0.497	happy	Picture	84.625	n/a	4	10	14	n/a	74	64	2	n/a	n/a	n/a	n/a	430.295	BM05HAS.jpg
388.058	0.514	Blank	Blank	84.111	n/a	4	10	14	n/a	74	n/a	2	n/a	n/a	n/a	n/a	430.792	n/a
388.589	0.497	happy	Picture	83.597	n/a	4	10	15	n/a	75	68	2	n/a	n/a	n/a	n/a	431.323	AM09HAS.jpg
389.086	0.514	Blank	Blank	83.083	n/a	4	10	15	n/a	75	n/a	2	n/a	n/a	n/a	n/a	431.82	n/a
389.617	0.497	happy	Picture	82.569	n/a	4	10	16	n/a	76	54	2	n/a	n/a	n/a	n/a	432.35	AF23HAS.jpg
390.114	0.514	Blank	Blank	82.055	n/a	4	10	16	n/a	76	n/a	2	n/a	n/a	n/a	n/a	432.848	n/a
390.645	0.497	happy	Picture	81.541	n/a	4	10	17	n/a	77	53	2	n/a	n/a	n/a	n/a	433.378	BF22HAS.jpg
391.142	0.514	Blank	Blank	81.027	n/a	4	10	17	n/a	77	n/a	2	n/a	n/a	n/a	n/a	433.876	n/a
391.673	0.497	happy	Picture	80.513	n/a	4	10	18	n/a	78	44	2	n/a	n/a	n/a	n/a	434.406	AF05HAS.jpg
392.17	0.514	Blank	Blank	79.999	n/a	4	10	18	n/a	78	n/a	2	n/a	n/a	n/a	n/a	434.904	n/a
392.7	0.497	happy	Picture	79.485	n/a	4	10	19	n/a	79	52	2	n/a	n/a	n/a	n/a	435.434	AF21HAS.jpg
393.198	0.514	Blank	Blank	78.971	n/a	4	10	19	n/a	79	n/a	2	n/a	n/a	n/a	n/a	435.931	n/a
393.728	0.497	happy	Picture	78.457	n/a	4	10	20	n/a	80	62	2	n/a	n/a	n/a	n/a	436.462	BM03HAS.jpg
394.226	0.514	Blank	Blank	77.943	n/a	4	10	20	n/a	80	n/a	2	n/a	n/a	n/a	n/a	436.959	n/a
394.756	10.014	ITI	Fixation+	67.913	n/a	4	n/a	n/a	n/a	n/a	n/a	n/a	n/a	n/a	n/a	n/a	437.49	n/a
404.786	0.497	neutral	Picture	67.399	n/a	4	11	1	n/a	81	23	1	n/a	n/a	n/a	n/a	447.52	AM04NES.jpg
405.284	0.514	Blank	Blank	66.885	n/a	4	11	1	n/a	81	n/a	1	n/a	n/a	n/a	n/a	448.017	n/a
405.814	0.497	neutral	Picture	66.371	n/a	4	11	2	n/a	82	29	1	n/a	n/a	n/a	n/a	448.548	AM10NES.jpg
406.312	0.514	Blank	Blank	65.857	n/a	4	11	2	n/a	82	n/a	1	n/a	n/a	n/a	n/a	449.045	n/a
406.842	0.497	neutral	Picture	65.343	n/a	4	11	3	n/a	83	24	1	n/a	n/a	n/a	n/a	449.576	BM05NES.jpg
407.339	0.514	Blank	Blank	64.83	n/a	4	11	3	n/a	83	n/a	1	n/a	n/a	n/a	n/a	450.073	n/a
407.87	0.497	neutral	Picture	64.316	n/a	4	11	4	n/a	84	12	1	n/a	n/a	n/a	n/a	450.604	AF21NES.jpg
408.367	0.514	Blank	Blank	63.802	n/a	4	11	4	n/a	84	n/a	1	n/a	n/a	n/a	n/a	451.101	n/a
408.898	0.497	neutral	Picture	63.288	n/a	4	11	5	n/a	85	13	1	n/a	n/a	n/a	n/a	451.632	BF22NES.jpg
409.395	0.514	Blank	Blank	62.774	n/a	4	11	5	n/a	85	n/a	1	n/a	n/a	n/a	n/a	452.129	n/a
409.926	0.497	neutral	Picture	62.26	n/a	4	11	6	n/a	86	17	1	n/a	n/a	n/a	n/a	452.659	BF28NES.jpg
410.423	0.514	Blank	Blank	61.746	n/a	4	11	6	n/a	86	n/a	1	n/a	n/a	n/a	n/a	453.157	n/a
410.954	0.497	neutral	Picture	61.232	n/a	4	11	7	n/a	87	4	1	n/a	n/a	n/a	n/a	453.687	AF05NES.jpg
411.451	0.514	Blank	Blank	60.718	n/a	4	11	7	n/a	87	n/a	1	n/a	n/a	n/a	n/a	454.185	n/a
411.981	0.497	neutral	Picture	60.204	n/a	4	11	8	n/a	88	11	1	n/a	n/a	n/a	n/a	454.715	AF20NES.jpg
412.479	0.514	Blank	Blank	59.69	n/a	4	11	8	n/a	88	n/a	1	n/a	n/a	n/a	n/a	455.212	n/a
413.009	0.497	neutral	Picture	59.176	n/a	4	11	9	n/a	89	22	1	n/a	n/a	n/a	n/a	455.743	BM03NES.jpg
413.507	0.514	Blank	Blank	58.662	n/a	4	11	9	n/a	89	n/a	1	n/a	n/a	n/a	n/a	456.24	n/a
414.037	0.497	neutral	Picture	58.148	n/a	4	11	10	n/a	90	15	1	n/a	n/a	n/a	n/a	456.771	AF25NES.jpg
414.535	0.514	Blank	Blank	57.634	n/a	4	11	10	n/a	90	n/a	1	n/a	n/a	n/a	n/a	457.268	n/a
415.065	0.497	neutral	Picture	57.12	n/a	4	11	11	n/a	91	19	1	n/a	n/a	n/a	n/a	457.799	AF31NES.jpg
415.563	0.514	Blank	Blank	56.607	n/a	4	11	11	n/a	91	n/a	1	n/a	n/a	n/a	n/a	458.296	n/a
416.093	0.497	neutral	Picture	56.093	n/a	4	11	12	n/a	92	9	1	n/a	n/a	n/a	n/a	458.827	AF17NES.jpg
416.59	0.514	Blank	Blank	55.579	n/a	4	11	12	n/a	92	n/a	1	n/a	n/a	n/a	n/a	459.324	n/a
417.121	0.497	neutral	Picture	55.065	n/a	4	11	13	n/a	93	14	1	n/a	n/a	n/a	n/a	459.854	AF23NES.jpg
417.618	0.514	Blank	Blank	54.551	n/a	4	11	13	n/a	93	n/a	1	n/a	n/a	n/a	n/a	460.352	n/a
418.149	0.497	neutral	Picture	54.037	n/a	4	11	14	n/a	94	36	1	n/a	n/a	n/a	n/a	460.882	BM24NES.jpg
418.646	0.514	Blank	Blank	53.523	n/a	4	11	14	n/a	94	n/a	1	n/a	n/a	n/a	n/a	461.38	n/a
419.177	0.497	neutral	Picture	53.009	n/a	4	11	15	n/a	95	34	1	n/a	n/a	n/a	n/a	461.91	AM22NES.jpg
419.674	0.514	Blank	Blank	52.495	n/a	4	11	15	n/a	95	n/a	1	n/a	n/a	n/a	n/a	462.408	n/a
420.204	0.497	neutral	Picture	51.981	n/a	4	11	16	n/a	96	10	1	n/a	n/a	n/a	n/a	462.938	AF18NES.jpg
420.702	0.514	Blank	Blank	51.467	n/a	4	11	16	n/a	96	n/a	1	n/a	n/a	n/a	n/a	463.435	n/a
421.232	0.497	neutral	Picture	50.953	n/a	4	11	17	n/a	97	5	1	n/a	n/a	n/a	n/a	463.966	BF07NES.jpg
421.73	0.514	Blank	Blank	50.439	n/a	4	11	17	n/a	97	n/a	1	n/a	n/a	n/a	n/a	464.463	n/a
422.26	0.497	neutral	Picture	49.925	n/a	4	11	18	n/a	98	25	1	n/a	n/a	n/a	n/a	464.994	BM06NES.jpg
422.758	0.514	Blank	Blank	49.411	n/a	4	11	18	n/a	98	n/a	1	n/a	n/a	n/a	n/a	465.491	n/a
423.288	0.497	neutral	Picture	48.897	n/a	4	11	19	n/a	99	39	1	n/a	n/a	n/a	n/a	466.022	AM28NES.jpg
423.785	0.514	Blank	Blank	48.383	n/a	4	11	19	n/a	99	n/a	1	n/a	n/a	n/a	n/a	466.519	n/a
424.316	0.497	neutral	Picture	47.87	n/a	4	11	20	n/a	100	33	1	n/a	n/a	n/a	n/a	467.05	AM21NES.jpg
424.813	0.514	Blank	Blank	47.356	n/a	4	11	20	n/a	100	n/a	1	n/a	n/a	n/a	n/a	467.547	n/a
425.344	10.014	ITI	Fixation+	37.326	n/a	4	n/a	n/a	n/a	n/a	n/a	n/a	n/a	n/a	n/a	n/a	468.077	n/a
435.374	0.497	happy	Picture	36.812	n/a	4	12	1	n/a	101	74	2	n/a	n/a	n/a	n/a	478.108	AM22HAS.jpg
435.871	0.514	Blank	Blank	36.298	n/a	4	12	1	n/a	101	n/a	2	n/a	n/a	n/a	n/a	478.605	n/a
436.402	0.497	happy	Picture	35.784	n/a	4	12	2	n/a	102	76	2	n/a	n/a	n/a	n/a	479.135	BM24HAS.jpg
436.899	0.514	Blank	Blank	35.27	n/a	4	12	2	n/a	102	n/a	2	n/a	n/a	n/a	n/a	479.633	n/a
437.43	0.497	happy	Picture	34.756	n/a	4	12	3	n/a	103	80	2	n/a	n/a	n/a	n/a	480.163	BM35HAS.jpg
437.927	0.514	Blank	Blank	34.242	n/a	4	12	3	n/a	103	n/a	2	n/a	n/a	n/a	n/a	480.661	n/a
438.458	0.497	happy	Picture	33.728	n/a	4	12	4	n/a	104	75	2	n/a	n/a	n/a	n/a	481.191	AM23HAS.jpg
438.955	0.514	Blank	Blank	33.214	n/a	4	12	4	n/a	104	n/a	2	n/a	n/a	n/a	n/a	481.689	n/a
439.486	0.497	happy	Picture	32.7	n/a	4	12	5	n/a	105	49	2	n/a	n/a	n/a	n/a	482.219	AF17HAS.jpg
439.983	0.514	Blank	Blank	32.186	n/a	4	12	5	n/a	105	n/a	2	n/a	n/a	n/a	n/a	482.716	n/a
440.513	0.497	happy	Picture	31.672	n/a	4	12	6	n/a	106	43	2	n/a	n/a	n/a	n/a	483.247	BF04HAS.jpg
441.011	0.514	Blank	Blank	31.158	n/a	4	12	6	n/a	106	n/a	2	n/a	n/a	n/a	n/a	483.744	n/a
441.541	0.497	happy	Picture	30.644	n/a	4	12	7	n/a	107	70	2	n/a	n/a	n/a	n/a	484.275	BM11HAS.jpg
442.039	0.514	Blank	Blank	30.13	n/a	4	12	7	n/a	107	n/a	2	n/a	n/a	n/a	n/a	484.772	n/a
442.569	0.497	happy	Picture	29.616	n/a	4	12	8	n/a	108	66	2	n/a	n/a	n/a	n/a	485.303	BM07HAS.jpg
443.066	0.514	Blank	Blank	29.102	n/a	4	12	8	n/a	108	n/a	2	n/a	n/a	n/a	n/a	485.8	n/a
443.597	0.497	happy	Picture	28.589	n/a	4	12	9	n/a	109	48	2	n/a	n/a	n/a	n/a	486.331	AF14HAS.jpg
444.094	0.514	Blank	Blank	28.075	n/a	4	12	9	n/a	109	n/a	2	n/a	n/a	n/a	n/a	486.828	n/a
444.625	0.497	happy	Picture	27.561	n/a	4	12	10	n/a	110	58	2	n/a	n/a	n/a	n/a	487.358	BF29HAS.jpg
445.122	0.514	Blank	Blank	27.047	n/a	4	12	10	n/a	110	n/a	2	n/a	n/a	n/a	n/a	487.856	n/a
445.653	0.497	happy	Picture	26.533	n/a	4	12	11	n/a	111	63	2	n/a	n/a	n/a	n/a	488.386	AM04HAS.jpg
446.15	0.514	Blank	Blank	26.019	n/a	4	12	11	n/a	111	n/a	2	n/a	n/a	n/a	n/a	488.884	n/a
446.681	0.497	happy	Picture	25.505	n/a	4	12	12	n/a	112	72	2	n/a	n/a	n/a	n/a	489.414	AM14HAS.jpg
447.178	0.514	Blank	Blank	24.991	n/a	4	12	12	n/a	112	n/a	2	n/a	n/a	n/a	n/a	489.912	n/a
447.709	0.497	happy	Picture	24.477	n/a	4	12	13	n/a	113	55	2	n/a	n/a	n/a	n/a	490.442	AF25HAS.jpg
448.206	0.514	Blank	Blank	23.963	n/a	4	12	13	n/a	113	n/a	2	n/a	n/a	n/a	n/a	490.94	n/a
448.736	0.497	happy	Picture	23.449	n/a	4	12	14	n/a	114	42	2	n/a	n/a	n/a	n/a	491.47	AF03HAS.jpg
449.234	0.514	Blank	Blank	22.935	n/a	4	12	14	n/a	114	n/a	2	n/a	n/a	n/a	n/a	491.967	n/a
449.764	0.498	happy	Picture	22.421	n/a	4	12	15	n/a	115	60	2	n/a	n/a	n/a	n/a	492.497	AF32HAS.jpg
450.262	0.514	Blank	Blank	21.907	n/a	4	12	15	n/a	115	n/a	2	n/a	n/a	n/a	n/a	492.995	n/a
450.792	0.497	happy	Picture	21.393	n/a	4	12	16	n/a	116	67	2	n/a	n/a	n/a	n/a	493.526	BM08HAS.jpg
451.29	0.514	Blank	Blank	20.879	n/a	4	12	16	n/a	116	n/a	2	n/a	n/a	n/a	n/a	494.023	n/a
451.82	0.497	happy	Picture	20.365	n/a	4	12	17	n/a	117	51	2	n/a	n/a	n/a	n/a	494.554	AF20HAS.jpg
452.317	0.514	Blank	Blank	19.852	n/a	4	12	17	n/a	117	n/a	2	n/a	n/a	n/a	n/a	495.051	n/a
452.848	0.497	happy	Picture	19.338	n/a	4	12	18	n/a	118	71	2	n/a	n/a	n/a	n/a	495.582	BM12HAS.jpg
453.345	0.514	Blank	Blank	18.824	n/a	4	12	18	n/a	118	n/a	2	n/a	n/a	n/a	n/a	496.079	n/a
453.876	0.497	happy	Picture	18.31	n/a	4	12	19	n/a	119	69	2	n/a	n/a	n/a	n/a	496.61	AM10HAS.jpg
454.373	0.514	Blank	Blank	17.796	n/a	4	12	19	n/a	119	n/a	2	n/a	n/a	n/a	n/a	497.107	n/a
454.904	0.497	happy	Picture	17.282	n/a	4	12	20	n/a	120	46	2	n/a	n/a	n/a	n/a	497.637	AF09HAS.jpg
455.401	0.514	Blank	Blank	16.768	n/a	4	12	20	n/a	120	n/a	2	n/a	n/a	n/a	n/a	498.135	n/a
455.932	10.014	ITI	Fixation+	6.738	n/a	4	n/a	n/a	n/a	n/a	n/a	n/a	n/a	n/a	n/a	n/a	498.665	n/a
472.683	n/a	ConfirmRating	Rate	n/a	6.731	4	n/a	n/a	0	n/a	n/a	n/a	2	Happy	37	48	515.417	n/a
476.887	n/a	ConfirmRating	Rate	n/a	4.178	4	n/a	n/a	1	n/a	n/a	n/a	3	Happy	0	47	519.62	n/a
