onset	duration	trial_type	event_type	time_until_response	response_time	trial_number	block_num_within_trial	image_seq_num_within_block	question_seq_num_within_block	image_seq_num	picture_number	condition	question_type	block_type	rating	rating_computed	onset_uncorrected	KDEV_imagefile
0.01	10.014	ITI	Fixation+	96.709	n/a	1	n/a	n/a	n/a	n/a	n/a	n/a	n/a	n/a	n/a	n/a	37.48	n/a
10.04	0.497	angry	Picture	96.195	n/a	1	1	1	n/a	1	108	3	n/a	n/a	n/a	n/a	47.51	AM09ANS.jpg
10.537	0.514	Blank	Blank	95.681	n/a	1	1	1	n/a	1	n/a	3	n/a	n/a	n/a	n/a	48.007	n/a
11.068	0.497	angry	Picture	95.167	n/a	1	1	2	n/a	2	99	3	n/a	n/a	n/a	n/a	48.538	AF31ANS.jpg
11.565	0.514	Blank	Blank	94.653	n/a	1	1	2	n/a	2	n/a	3	n/a	n/a	n/a	n/a	49.035	n/a
12.096	0.497	angry	Picture	94.139	n/a	1	1	3	n/a	3	98	3	n/a	n/a	n/a	n/a	49.566	BF29ANS.jpg
12.593	0.514	Blank	Blank	93.625	n/a	1	1	3	n/a	3	n/a	3	n/a	n/a	n/a	n/a	50.063	n/a
13.123	0.497	angry	Picture	93.111	n/a	1	1	4	n/a	4	107	3	n/a	n/a	n/a	n/a	50.593	BM08ANS.jpg
13.621	0.514	Blank	Blank	92.597	n/a	1	1	4	n/a	4	n/a	3	n/a	n/a	n/a	n/a	51.091	n/a
14.151	0.497	angry	Picture	92.084	n/a	1	1	5	n/a	5	104	3	n/a	n/a	n/a	n/a	51.621	BM05ANS.jpg
14.649	0.514	Blank	Blank	91.57	n/a	1	1	5	n/a	5	n/a	3	n/a	n/a	n/a	n/a	52.119	n/a
15.179	0.497	angry	Picture	91.056	n/a	1	1	6	n/a	6	101	3	n/a	n/a	n/a	n/a	52.649	AM01ANS.jpg
15.677	0.514	Blank	Blank	90.542	n/a	1	1	6	n/a	6	n/a	3	n/a	n/a	n/a	n/a	53.147	n/a
16.207	0.497	angry	Picture	90.028	n/a	1	1	7	n/a	7	103	3	n/a	n/a	n/a	n/a	53.677	AM04ANS.jpg
16.704	0.514	Blank	Blank	89.514	n/a	1	1	7	n/a	7	n/a	3	n/a	n/a	n/a	n/a	54.174	n/a
17.235	0.497	angry	Picture	89.0	n/a	1	1	8	n/a	8	111	3	n/a	n/a	n/a	n/a	54.705	BM12ANS.jpg
17.732	0.514	Blank	Blank	88.486	n/a	1	1	8	n/a	8	n/a	3	n/a	n/a	n/a	n/a	55.202	n/a
18.263	0.497	angry	Picture	87.972	n/a	1	1	9	n/a	9	110	3	n/a	n/a	n/a	n/a	55.733	AM11ANS.jpg
18.76	0.514	Blank	Blank	87.458	n/a	1	1	9	n/a	9	n/a	3	n/a	n/a	n/a	n/a	56.23	n/a
19.291	0.497	angry	Picture	86.944	n/a	1	1	10	n/a	10	85	3	n/a	n/a	n/a	n/a	56.761	BF07ANS.jpg
19.788	0.514	Blank	Blank	86.43	n/a	1	1	10	n/a	10	n/a	3	n/a	n/a	n/a	n/a	57.258	n/a
20.319	0.497	angry	Picture	85.916	n/a	1	1	11	n/a	11	87	3	n/a	n/a	n/a	n/a	57.789	BF11ANS.jpg
20.816	0.514	Blank	Blank	85.402	n/a	1	1	11	n/a	11	n/a	3	n/a	n/a	n/a	n/a	58.286	n/a
21.346	0.497	angry	Picture	84.888	n/a	1	1	12	n/a	12	91	3	n/a	n/a	n/a	n/a	58.816	AF20ANS.jpg
21.844	0.514	Blank	Blank	84.374	n/a	1	1	12	n/a	12	n/a	3	n/a	n/a	n/a	n/a	59.314	n/a
22.374	0.497	angry	Picture	83.86	n/a	1	1	13	n/a	13	115	3	n/a	n/a	n/a	n/a	59.844	AM23ANS.jpg
22.872	0.514	Blank	Blank	83.346	n/a	1	1	13	n/a	13	n/a	3	n/a	n/a	n/a	n/a	60.342	n/a
23.402	0.497	angry	Picture	82.832	n/a	1	1	14	n/a	14	97	3	n/a	n/a	n/a	n/a	60.872	BF28ANS.jpg
23.9	0.514	Blank	Blank	82.319	n/a	1	1	14	n/a	14	n/a	3	n/a	n/a	n/a	n/a	61.37	n/a
24.43	0.497	angry	Picture	81.805	n/a	1	1	15	n/a	15	82	3	n/a	n/a	n/a	n/a	61.9	AF03ANS.jpg
24.928	0.514	Blank	Blank	81.291	n/a	1	1	15	n/a	15	n/a	3	n/a	n/a	n/a	n/a	62.398	n/a
25.458	0.497	angry	Picture	80.777	n/a	1	1	16	n/a	16	96	3	n/a	n/a	n/a	n/a	62.928	AF26ANS.jpg
25.955	0.514	Blank	Blank	80.263	n/a	1	1	16	n/a	16	n/a	3	n/a	n/a	n/a	n/a	63.425	n/a
26.486	0.497	angry	Picture	79.749	n/a	1	1	17	n/a	17	109	3	n/a	n/a	n/a	n/a	63.956	AM10ANS.jpg
26.983	0.514	Blank	Blank	79.235	n/a	1	1	17	n/a	17	n/a	3	n/a	n/a	n/a	n/a	64.453	n/a
27.514	0.497	angry	Picture	78.721	n/a	1	1	18	n/a	18	114	3	n/a	n/a	n/a	n/a	64.984	AM22ANS.jpg
28.011	0.514	Blank	Blank	78.207	n/a	1	1	18	n/a	18	n/a	3	n/a	n/a	n/a	n/a	65.481	n/a
28.542	0.497	angry	Picture	77.693	n/a	1	1	19	n/a	19	120	3	n/a	n/a	n/a	n/a	66.012	AM35ANS.jpg
29.039	0.514	Blank	Blank	77.179	n/a	1	1	19	n/a	19	n/a	3	n/a	n/a	n/a	n/a	66.509	n/a
29.57	0.497	angry	Picture	76.665	n/a	1	1	20	n/a	20	81	3	n/a	n/a	n/a	n/a	67.04	AF01ANS.jpg
30.067	0.514	Blank	Blank	76.151	n/a	1	1	20	n/a	20	n/a	3	n/a	n/a	n/a	n/a	67.537	n/a
30.597	10.014	ITI	Fixation+	66.121	n/a	1	n/a	n/a	n/a	n/a	n/a	n/a	n/a	n/a	n/a	n/a	68.067	n/a
40.628	0.497	neutral	Picture	65.607	n/a	1	2	1	n/a	21	28	1	n/a	n/a	n/a	n/a	78.098	AM09NES.jpg
41.125	0.514	Blank	Blank	65.093	n/a	1	2	1	n/a	21	n/a	1	n/a	n/a	n/a	n/a	78.595	n/a
41.656	0.497	neutral	Picture	64.579	n/a	1	2	2	n/a	22	27	1	n/a	n/a	n/a	n/a	79.126	BM08NES.jpg
42.153	0.514	Blank	Blank	64.065	n/a	1	2	2	n/a	22	n/a	1	n/a	n/a	n/a	n/a	79.623	n/a
42.683	0.497	neutral	Picture	63.551	n/a	1	2	3	n/a	23	16	1	n/a	n/a	n/a	n/a	80.153	AF26NES.jpg
43.181	0.514	Blank	Blank	63.037	n/a	1	2	3	n/a	23	n/a	1	n/a	n/a	n/a	n/a	80.651	n/a
43.711	0.497	neutral	Picture	62.523	n/a	1	2	4	n/a	24	3	1	n/a	n/a	n/a	n/a	81.181	BF04NES.jpg
44.209	0.514	Blank	Blank	62.009	n/a	1	2	4	n/a	24	n/a	1	n/a	n/a	n/a	n/a	81.679	n/a
44.739	0.497	neutral	Picture	61.495	n/a	1	2	5	n/a	25	32	1	n/a	n/a	n/a	n/a	82.209	AM14NES.jpg
45.237	0.514	Blank	Blank	60.982	n/a	1	2	5	n/a	25	n/a	1	n/a	n/a	n/a	n/a	82.707	n/a
45.767	0.497	neutral	Picture	60.468	n/a	1	2	6	n/a	26	37	1	n/a	n/a	n/a	n/a	83.237	BM25NES.jpg
46.265	0.514	Blank	Blank	59.954	n/a	1	2	6	n/a	26	n/a	1	n/a	n/a	n/a	n/a	83.735	n/a
46.795	0.497	neutral	Picture	59.44	n/a	1	2	7	n/a	27	15	1	n/a	n/a	n/a	n/a	84.265	AF25NES.jpg
47.292	0.514	Blank	Blank	58.926	n/a	1	2	7	n/a	27	n/a	1	n/a	n/a	n/a	n/a	84.762	n/a
47.823	0.497	neutral	Picture	58.412	n/a	1	2	8	n/a	28	23	1	n/a	n/a	n/a	n/a	85.293	AM04NES.jpg
48.32	0.514	Blank	Blank	57.898	n/a	1	2	8	n/a	28	n/a	1	n/a	n/a	n/a	n/a	85.79	n/a
48.851	0.497	neutral	Picture	57.384	n/a	1	2	9	n/a	29	34	1	n/a	n/a	n/a	n/a	86.321	AM22NES.jpg
49.348	0.514	Blank	Blank	56.87	n/a	1	2	9	n/a	29	n/a	1	n/a	n/a	n/a	n/a	86.818	n/a
49.879	0.497	neutral	Picture	56.356	n/a	1	2	10	n/a	30	24	1	n/a	n/a	n/a	n/a	87.349	BM05NES.jpg
50.376	0.514	Blank	Blank	55.842	n/a	1	2	10	n/a	30	n/a	1	n/a	n/a	n/a	n/a	87.846	n/a
50.907	0.497	neutral	Picture	55.328	n/a	1	2	11	n/a	31	12	1	n/a	n/a	n/a	n/a	88.377	AF21NES.jpg
51.404	0.514	Blank	Blank	54.814	n/a	1	2	11	n/a	31	n/a	1	n/a	n/a	n/a	n/a	88.874	n/a
51.934	0.497	neutral	Picture	54.3	n/a	1	2	12	n/a	32	6	1	n/a	n/a	n/a	n/a	89.404	AF09NES.jpg
52.432	0.514	Blank	Blank	53.786	n/a	1	2	12	n/a	32	n/a	1	n/a	n/a	n/a	n/a	89.902	n/a
52.962	0.497	neutral	Picture	53.272	n/a	1	2	13	n/a	33	17	1	n/a	n/a	n/a	n/a	90.432	BF28NES.jpg
53.46	0.514	Blank	Blank	52.758	n/a	1	2	13	n/a	33	n/a	1	n/a	n/a	n/a	n/a	90.93	n/a
53.99	0.497	neutral	Picture	52.244	n/a	1	2	14	n/a	34	2	1	n/a	n/a	n/a	n/a	91.46	AF03NES.jpg
54.488	0.514	Blank	Blank	51.73	n/a	1	2	14	n/a	34	n/a	1	n/a	n/a	n/a	n/a	91.958	n/a
55.018	0.497	neutral	Picture	51.216	n/a	1	2	15	n/a	35	9	1	n/a	n/a	n/a	n/a	92.488	AF17NES.jpg
55.516	0.514	Blank	Blank	50.703	n/a	1	2	15	n/a	35	n/a	1	n/a	n/a	n/a	n/a	92.986	n/a
56.046	0.497	neutral	Picture	50.189	n/a	1	2	16	n/a	36	25	1	n/a	n/a	n/a	n/a	93.516	BM06NES.jpg
56.543	0.514	Blank	Blank	49.675	n/a	1	2	16	n/a	36	n/a	1	n/a	n/a	n/a	n/a	94.013	n/a
57.074	0.497	neutral	Picture	49.161	n/a	1	2	17	n/a	37	8	1	n/a	n/a	n/a	n/a	94.544	AF14NES.jpg
57.571	0.514	Blank	Blank	48.647	n/a	1	2	17	n/a	37	n/a	1	n/a	n/a	n/a	n/a	95.041	n/a
58.102	0.497	neutral	Picture	48.133	n/a	1	2	18	n/a	38	19	1	n/a	n/a	n/a	n/a	95.572	AF31NES.jpg
58.599	0.514	Blank	Blank	47.619	n/a	1	2	18	n/a	38	n/a	1	n/a	n/a	n/a	n/a	96.069	n/a
59.13	0.497	neutral	Picture	47.105	n/a	1	2	19	n/a	39	14	1	n/a	n/a	n/a	n/a	96.6	AF23NES.jpg
59.627	0.514	Blank	Blank	46.591	n/a	1	2	19	n/a	39	n/a	1	n/a	n/a	n/a	n/a	97.097	n/a
60.158	0.497	neutral	Picture	46.077	n/a	1	2	20	n/a	40	4	1	n/a	n/a	n/a	n/a	97.628	AF05NES.jpg
60.655	0.514	Blank	Blank	45.563	n/a	1	2	20	n/a	40	n/a	1	n/a	n/a	n/a	n/a	98.125	n/a
61.186	10.014	ITI	Fixation+	35.533	n/a	1	n/a	n/a	n/a	n/a	n/a	n/a	n/a	n/a	n/a	n/a	98.656	n/a
71.216	0.497	angry	Picture	35.019	n/a	1	3	1	n/a	41	84	3	n/a	n/a	n/a	n/a	108.686	AF05ANS.jpg
71.713	0.514	Blank	Blank	34.505	n/a	1	3	1	n/a	41	n/a	3	n/a	n/a	n/a	n/a	109.183	n/a
72.244	0.497	angry	Picture	33.991	n/a	1	3	2	n/a	42	92	3	n/a	n/a	n/a	n/a	109.714	AF21ANS.jpg
72.741	0.514	Blank	Blank	33.477	n/a	1	3	2	n/a	42	n/a	3	n/a	n/a	n/a	n/a	110.211	n/a
73.272	0.497	angry	Picture	32.963	n/a	1	3	3	n/a	43	86	3	n/a	n/a	n/a	n/a	110.742	AF09ANS.jpg
73.769	0.514	Blank	Blank	32.449	n/a	1	3	3	n/a	43	n/a	3	n/a	n/a	n/a	n/a	111.239	n/a
74.299	0.497	angry	Picture	31.935	n/a	1	3	4	n/a	44	93	3	n/a	n/a	n/a	n/a	111.769	BF22ANS.jpg
74.797	0.514	Blank	Blank	31.421	n/a	1	3	4	n/a	44	n/a	3	n/a	n/a	n/a	n/a	112.267	n/a
75.327	0.497	angry	Picture	30.907	n/a	1	3	5	n/a	45	88	3	n/a	n/a	n/a	n/a	112.797	AF14ANS.jpg
75.825	0.514	Blank	Blank	30.393	n/a	1	3	5	n/a	45	n/a	3	n/a	n/a	n/a	n/a	113.295	n/a
76.355	0.497	angry	Picture	29.88	n/a	1	3	6	n/a	46	113	3	n/a	n/a	n/a	n/a	113.825	AM21ANS.jpg
76.853	0.514	Blank	Blank	29.366	n/a	1	3	6	n/a	46	n/a	3	n/a	n/a	n/a	n/a	114.323	n/a
77.383	0.497	angry	Picture	28.852	n/a	1	3	7	n/a	47	95	3	n/a	n/a	n/a	n/a	114.853	AF25ANS.jpg
77.88	0.514	Blank	Blank	28.338	n/a	1	3	7	n/a	47	n/a	3	n/a	n/a	n/a	n/a	115.35	n/a
78.411	0.497	angry	Picture	27.824	n/a	1	3	8	n/a	48	102	3	n/a	n/a	n/a	n/a	115.881	BM03ANS.jpg
78.908	0.514	Blank	Blank	27.31	n/a	1	3	8	n/a	48	n/a	3	n/a	n/a	n/a	n/a	116.378	n/a
79.439	0.497	angry	Picture	26.796	n/a	1	3	9	n/a	49	112	3	n/a	n/a	n/a	n/a	116.909	AM14ANS.jpg
79.936	0.514	Blank	Blank	26.282	n/a	1	3	9	n/a	49	n/a	3	n/a	n/a	n/a	n/a	117.406	n/a
80.467	0.497	angry	Picture	25.768	n/a	1	3	10	n/a	50	83	3	n/a	n/a	n/a	n/a	117.937	BF04ANS.jpg
80.964	0.514	Blank	Blank	25.254	n/a	1	3	10	n/a	50	n/a	3	n/a	n/a	n/a	n/a	118.434	n/a
81.495	0.497	angry	Picture	24.74	n/a	1	3	11	n/a	51	90	3	n/a	n/a	n/a	n/a	118.965	AF18ANS.jpg
81.992	0.514	Blank	Blank	24.226	n/a	1	3	11	n/a	51	n/a	3	n/a	n/a	n/a	n/a	119.462	n/a
82.523	0.497	angry	Picture	23.712	n/a	1	3	12	n/a	52	117	3	n/a	n/a	n/a	n/a	119.993	BM25ANS.jpg
83.02	0.514	Blank	Blank	23.198	n/a	1	3	12	n/a	52	n/a	3	n/a	n/a	n/a	n/a	120.49	n/a
83.55	0.497	angry	Picture	22.684	n/a	1	3	13	n/a	53	94	3	n/a	n/a	n/a	n/a	121.02	AF23ANS.jpg
84.048	0.514	Blank	Blank	22.17	n/a	1	3	13	n/a	53	n/a	3	n/a	n/a	n/a	n/a	121.518	n/a
84.578	0.497	angry	Picture	21.656	n/a	1	3	14	n/a	54	106	3	n/a	n/a	n/a	n/a	122.048	AM07ANS.jpg
85.076	0.514	Blank	Blank	21.142	n/a	1	3	14	n/a	54	n/a	3	n/a	n/a	n/a	n/a	122.546	n/a
85.606	0.497	angry	Picture	20.629	n/a	1	3	15	n/a	55	105	3	n/a	n/a	n/a	n/a	123.076	BM06ANS.jpg
86.104	0.514	Blank	Blank	20.115	n/a	1	3	15	n/a	55	n/a	3	n/a	n/a	n/a	n/a	123.574	n/a
86.634	0.497	angry	Picture	19.601	n/a	1	3	16	n/a	56	116	3	n/a	n/a	n/a	n/a	124.104	BM24ANS.jpg
87.132	0.514	Blank	Blank	19.087	n/a	1	3	16	n/a	56	n/a	3	n/a	n/a	n/a	n/a	124.602	n/a
87.662	0.497	angry	Picture	18.573	n/a	1	3	17	n/a	57	89	3	n/a	n/a	n/a	n/a	125.132	AF17ANS.jpg
88.159	0.514	Blank	Blank	18.059	n/a	1	3	17	n/a	57	n/a	3	n/a	n/a	n/a	n/a	125.629	n/a
88.69	0.497	angry	Picture	17.545	n/a	1	3	18	n/a	58	118	3	n/a	n/a	n/a	n/a	126.16	BM26ANS.jpg
89.187	0.514	Blank	Blank	17.031	n/a	1	3	18	n/a	58	n/a	3	n/a	n/a	n/a	n/a	126.657	n/a
89.718	0.497	angry	Picture	16.517	n/a	1	3	19	n/a	59	100	3	n/a	n/a	n/a	n/a	127.188	AF32ANS.jpg
90.215	0.514	Blank	Blank	16.003	n/a	1	3	19	n/a	59	n/a	3	n/a	n/a	n/a	n/a	127.685	n/a
90.746	0.497	angry	Picture	15.489	n/a	1	3	20	n/a	60	119	3	n/a	n/a	n/a	n/a	128.216	BM28ANS.jpg
91.243	0.514	Blank	Blank	14.975	n/a	1	3	20	n/a	60	n/a	3	n/a	n/a	n/a	n/a	128.713	n/a
91.774	10.014	ITI	Fixation+	4.945	n/a	1	n/a	n/a	n/a	n/a	n/a	n/a	n/a	n/a	n/a	n/a	129.244	n/a
106.732	n/a	ConfirmRating	Rate	n/a	4.924	1	n/a	n/a	0	n/a	n/a	n/a	2	Angry	79	53	144.202	n/a
110.43	n/a	ConfirmRating	Rate	n/a	3.681	1	n/a	n/a	1	n/a	n/a	n/a	3	Angry	4	46	147.9	n/a
110.458	10.014	ITI	Fixation+	96.438	n/a	2	n/a	n/a	n/a	n/a	n/a	n/a	n/a	n/a	n/a	n/a	147.928	n/a
120.488	0.497	happy	Picture	95.924	n/a	2	4	1	n/a	61	79	2	n/a	n/a	n/a	n/a	157.958	BM28HAS.jpg
120.986	0.514	Blank	Blank	95.41	n/a	2	4	1	n/a	61	n/a	2	n/a	n/a	n/a	n/a	158.456	n/a
121.516	0.497	happy	Picture	94.897	n/a	2	4	2	n/a	62	61	2	n/a	n/a	n/a	n/a	158.986	AM01HAS.jpg
122.013	0.514	Blank	Blank	94.383	n/a	2	4	2	n/a	62	n/a	2	n/a	n/a	n/a	n/a	159.483	n/a
122.544	0.497	happy	Picture	93.869	n/a	2	4	3	n/a	63	57	2	n/a	n/a	n/a	n/a	160.014	BF28HAS.jpg
123.041	0.514	Blank	Blank	93.355	n/a	2	4	3	n/a	63	n/a	2	n/a	n/a	n/a	n/a	160.511	n/a
123.572	0.497	happy	Picture	92.841	n/a	2	4	4	n/a	64	77	2	n/a	n/a	n/a	n/a	161.042	BM25HAS.jpg
124.069	0.514	Blank	Blank	92.327	n/a	2	4	4	n/a	64	n/a	2	n/a	n/a	n/a	n/a	161.539	n/a
124.6	0.497	happy	Picture	91.813	n/a	2	4	5	n/a	65	47	2	n/a	n/a	n/a	n/a	162.07	BF11HAS.jpg
125.097	0.514	Blank	Blank	91.299	n/a	2	4	5	n/a	65	n/a	2	n/a	n/a	n/a	n/a	162.567	n/a
125.628	0.497	happy	Picture	90.785	n/a	2	4	6	n/a	66	50	2	n/a	n/a	n/a	n/a	163.098	AF18HAS.jpg
126.125	0.514	Blank	Blank	90.271	n/a	2	4	6	n/a	66	n/a	2	n/a	n/a	n/a	n/a	163.595	n/a
126.655	0.497	happy	Picture	89.757	n/a	2	4	7	n/a	67	78	2	n/a	n/a	n/a	n/a	164.125	BM26HAS.jpg
127.153	0.514	Blank	Blank	89.243	n/a	2	4	7	n/a	67	n/a	2	n/a	n/a	n/a	n/a	164.623	n/a
127.683	0.497	happy	Picture	88.729	n/a	2	4	8	n/a	68	45	2	n/a	n/a	n/a	n/a	165.153	BF07HAS.jpg
128.181	0.514	Blank	Blank	88.215	n/a	2	4	8	n/a	68	n/a	2	n/a	n/a	n/a	n/a	165.651	n/a
128.711	0.497	happy	Picture	87.701	n/a	2	4	9	n/a	69	56	2	n/a	n/a	n/a	n/a	166.181	AF26HAS.jpg
129.209	0.514	Blank	Blank	87.187	n/a	2	4	9	n/a	69	n/a	2	n/a	n/a	n/a	n/a	166.679	n/a
129.739	0.497	happy	Picture	86.673	n/a	2	4	10	n/a	70	65	2	n/a	n/a	n/a	n/a	167.209	BM06HAS.jpg
130.237	0.514	Blank	Blank	86.159	n/a	2	4	10	n/a	70	n/a	2	n/a	n/a	n/a	n/a	167.707	n/a
130.767	0.497	happy	Picture	85.646	n/a	2	4	11	n/a	71	73	2	n/a	n/a	n/a	n/a	168.237	AM21HAS.jpg
131.264	0.514	Blank	Blank	85.132	n/a	2	4	11	n/a	71	n/a	2	n/a	n/a	n/a	n/a	168.734	n/a
131.795	0.497	happy	Picture	84.618	n/a	2	4	12	n/a	72	41	2	n/a	n/a	n/a	n/a	169.265	AF01HAS.jpg
132.292	0.514	Blank	Blank	84.104	n/a	2	4	12	n/a	72	n/a	2	n/a	n/a	n/a	n/a	169.762	n/a
132.823	0.497	happy	Picture	83.59	n/a	2	4	13	n/a	73	59	2	n/a	n/a	n/a	n/a	170.293	AF31HAS.jpg
133.32	0.514	Blank	Blank	83.076	n/a	2	4	13	n/a	73	n/a	2	n/a	n/a	n/a	n/a	170.79	n/a
133.851	0.497	happy	Picture	82.562	n/a	2	4	14	n/a	74	64	2	n/a	n/a	n/a	n/a	171.321	BM05HAS.jpg
134.348	0.514	Blank	Blank	82.048	n/a	2	4	14	n/a	74	n/a	2	n/a	n/a	n/a	n/a	171.818	n/a
134.879	0.497	happy	Picture	81.534	n/a	2	4	15	n/a	75	68	2	n/a	n/a	n/a	n/a	172.349	AM09HAS.jpg
135.376	0.514	Blank	Blank	81.02	n/a	2	4	15	n/a	75	n/a	2	n/a	n/a	n/a	n/a	172.846	n/a
135.906	0.497	happy	Picture	80.506	n/a	2	4	16	n/a	76	54	2	n/a	n/a	n/a	n/a	173.376	AF23HAS.jpg
136.404	0.514	Blank	Blank	79.992	n/a	2	4	16	n/a	76	n/a	2	n/a	n/a	n/a	n/a	173.874	n/a
136.934	0.497	happy	Picture	79.478	n/a	2	4	17	n/a	77	53	2	n/a	n/a	n/a	n/a	174.404	BF22HAS.jpg
137.432	0.514	Blank	Blank	78.964	n/a	2	4	17	n/a	77	n/a	2	n/a	n/a	n/a	n/a	174.902	n/a
137.962	0.497	happy	Picture	78.45	n/a	2	4	18	n/a	78	44	2	n/a	n/a	n/a	n/a	175.432	AF05HAS.jpg
138.46	0.514	Blank	Blank	77.936	n/a	2	4	18	n/a	78	n/a	2	n/a	n/a	n/a	n/a	175.93	n/a
138.99	0.497	happy	Picture	77.423	n/a	2	4	19	n/a	79	52	2	n/a	n/a	n/a	n/a	176.46	AF21HAS.jpg
139.488	0.514	Blank	Blank	76.908	n/a	2	4	19	n/a	79	n/a	2	n/a	n/a	n/a	n/a	176.958	n/a
140.018	0.497	happy	Picture	76.395	n/a	2	4	20	n/a	80	62	2	n/a	n/a	n/a	n/a	177.488	BM03HAS.jpg
140.515	0.514	Blank	Blank	75.881	n/a	2	4	20	n/a	80	n/a	2	n/a	n/a	n/a	n/a	177.985	n/a
141.046	10.014	ITI	Fixation+	65.85	n/a	2	n/a	n/a	n/a	n/a	n/a	n/a	n/a	n/a	n/a	n/a	178.516	n/a
151.076	0.497	neutral	Picture	65.337	n/a	2	5	1	n/a	81	23	1	n/a	n/a	n/a	n/a	188.546	AM04NES.jpg
151.573	0.514	Blank	Blank	64.822	n/a	2	5	1	n/a	81	n/a	1	n/a	n/a	n/a	n/a	189.043	n/a
152.104	0.497	neutral	Picture	64.309	n/a	2	5	2	n/a	82	29	1	n/a	n/a	n/a	n/a	189.574	AM10NES.jpg
152.601	0.514	Blank	Blank	63.795	n/a	2	5	2	n/a	82	n/a	1	n/a	n/a	n/a	n/a	190.071	n/a
153.132	0.497	neutral	Picture	63.281	n/a	2	5	3	n/a	83	24	1	n/a	n/a	n/a	n/a	190.602	BM05NES.jpg
153.629	0.514	Blank	Blank	62.767	n/a	2	5	3	n/a	83	n/a	1	n/a	n/a	n/a	n/a	191.099	n/a
154.16	0.497	neutral	Picture	62.253	n/a	2	5	4	n/a	84	12	1	n/a	n/a	n/a	n/a	191.63	AF21NES.jpg
154.657	0.514	Blank	Blank	61.739	n/a	2	5	4	n/a	84	n/a	1	n/a	n/a	n/a	n/a	192.127	n/a
155.188	0.497	neutral	Picture	61.225	n/a	2	5	5	n/a	85	13	1	n/a	n/a	n/a	n/a	192.658	BF22NES.jpg
155.685	0.514	Blank	Blank	60.711	n/a	2	5	5	n/a	85	n/a	1	n/a	n/a	n/a	n/a	193.155	n/a
156.216	0.497	neutral	Picture	60.197	n/a	2	5	6	n/a	86	17	1	n/a	n/a	n/a	n/a	193.686	BF28NES.jpg
156.713	0.514	Blank	Blank	59.683	n/a	2	5	6	n/a	86	n/a	1	n/a	n/a	n/a	n/a	194.183	n/a
157.244	0.497	neutral	Picture	59.169	n/a	2	5	7	n/a	87	4	1	n/a	n/a	n/a	n/a	194.714	AF05NES.jpg
157.741	0.514	Blank	Blank	58.655	n/a	2	5	7	n/a	87	n/a	1	n/a	n/a	n/a	n/a	195.211	n/a
158.271	0.497	neutral	Picture	58.141	n/a	2	5	8	n/a	88	11	1	n/a	n/a	n/a	n/a	195.741	AF20NES.jpg
158.769	0.514	Blank	Blank	57.627	n/a	2	5	8	n/a	88	n/a	1	n/a	n/a	n/a	n/a	196.239	n/a
159.299	0.497	neutral	Picture	57.113	n/a	2	5	9	n/a	89	22	1	n/a	n/a	n/a	n/a	196.769	BM03NES.jpg
159.797	0.514	Blank	Blank	56.599	n/a	2	5	9	n/a	89	n/a	1	n/a	n/a	n/a	n/a	197.267	n/a
160.327	0.497	neutral	Picture	56.085	n/a	2	5	10	n/a	90	15	1	n/a	n/a	n/a	n/a	197.797	AF25NES.jpg
160.825	0.514	Blank	Blank	55.571	n/a	2	5	10	n/a	90	n/a	1	n/a	n/a	n/a	n/a	198.295	n/a
161.355	0.497	neutral	Picture	55.058	n/a	2	5	11	n/a	91	19	1	n/a	n/a	n/a	n/a	198.825	AF31NES.jpg
161.852	0.514	Blank	Blank	54.544	n/a	2	5	11	n/a	91	n/a	1	n/a	n/a	n/a	n/a	199.322	n/a
162.383	0.497	neutral	Picture	54.03	n/a	2	5	12	n/a	92	9	1	n/a	n/a	n/a	n/a	199.853	AF17NES.jpg
162.88	0.514	Blank	Blank	53.516	n/a	2	5	12	n/a	92	n/a	1	n/a	n/a	n/a	n/a	200.35	n/a
163.411	0.497	neutral	Picture	53.002	n/a	2	5	13	n/a	93	14	1	n/a	n/a	n/a	n/a	200.881	AF23NES.jpg
163.908	0.514	Blank	Blank	52.488	n/a	2	5	13	n/a	93	n/a	1	n/a	n/a	n/a	n/a	201.378	n/a
164.439	0.497	neutral	Picture	51.974	n/a	2	5	14	n/a	94	36	1	n/a	n/a	n/a	n/a	201.909	BM24NES.jpg
164.936	0.514	Blank	Blank	51.46	n/a	2	5	14	n/a	94	n/a	1	n/a	n/a	n/a	n/a	202.406	n/a
165.467	0.497	neutral	Picture	50.946	n/a	2	5	15	n/a	95	34	1	n/a	n/a	n/a	n/a	202.937	AM22NES.jpg
165.964	0.514	Blank	Blank	50.432	n/a	2	5	15	n/a	95	n/a	1	n/a	n/a	n/a	n/a	203.434	n/a
166.494	0.497	neutral	Picture	49.918	n/a	2	5	16	n/a	96	10	1	n/a	n/a	n/a	n/a	203.964	AF18NES.jpg
166.992	0.514	Blank	Blank	49.404	n/a	2	5	16	n/a	96	n/a	1	n/a	n/a	n/a	n/a	204.462	n/a
167.522	0.497	neutral	Picture	48.89	n/a	2	5	17	n/a	97	5	1	n/a	n/a	n/a	n/a	204.992	BF07NES.jpg
168.02	0.514	Blank	Blank	48.376	n/a	2	5	17	n/a	97	n/a	1	n/a	n/a	n/a	n/a	205.49	n/a
168.55	0.497	neutral	Picture	47.862	n/a	2	5	18	n/a	98	25	1	n/a	n/a	n/a	n/a	206.02	BM06NES.jpg
169.048	0.514	Blank	Blank	47.348	n/a	2	5	18	n/a	98	n/a	1	n/a	n/a	n/a	n/a	206.518	n/a
169.578	0.497	neutral	Picture	46.834	n/a	2	5	19	n/a	99	39	1	n/a	n/a	n/a	n/a	207.048	AM28NES.jpg
170.076	0.514	Blank	Blank	46.32	n/a	2	5	19	n/a	99	n/a	1	n/a	n/a	n/a	n/a	207.546	n/a
170.606	0.497	neutral	Picture	45.807	n/a	2	5	20	n/a	100	33	1	n/a	n/a	n/a	n/a	208.076	AM21NES.jpg
171.103	0.514	Blank	Blank	45.293	n/a	2	5	20	n/a	100	n/a	1	n/a	n/a	n/a	n/a	208.573	n/a
171.634	10.014	ITI	Fixation+	35.262	n/a	2	n/a	n/a	n/a	n/a	n/a	n/a	n/a	n/a	n/a	n/a	209.104	n/a
181.664	0.497	happy	Picture	34.748	n/a	2	6	1	n/a	101	74	2	n/a	n/a	n/a	n/a	219.134	AM22HAS.jpg
182.162	0.514	Blank	Blank	34.234	n/a	2	6	1	n/a	101	n/a	2	n/a	n/a	n/a	n/a	219.632	n/a
182.692	0.497	happy	Picture	33.72	n/a	2	6	2	n/a	102	76	2	n/a	n/a	n/a	n/a	220.162	BM24HAS.jpg
183.19	0.514	Blank	Blank	33.207	n/a	2	6	2	n/a	102	n/a	2	n/a	n/a	n/a	n/a	220.66	n/a
183.72	0.497	happy	Picture	32.693	n/a	2	6	3	n/a	103	80	2	n/a	n/a	n/a	n/a	221.19	BM35HAS.jpg
184.217	0.514	Blank	Blank	32.179	n/a	2	6	3	n/a	103	n/a	2	n/a	n/a	n/a	n/a	221.687	n/a
184.748	0.497	happy	Picture	31.665	n/a	2	6	4	n/a	104	75	2	n/a	n/a	n/a	n/a	222.218	AM23HAS.jpg
185.245	0.514	Blank	Blank	31.151	n/a	2	6	4	n/a	104	n/a	2	n/a	n/a	n/a	n/a	222.715	n/a
185.776	0.497	happy	Picture	30.637	n/a	2	6	5	n/a	105	49	2	n/a	n/a	n/a	n/a	223.246	AF17HAS.jpg
186.273	0.514	Blank	Blank	30.123	n/a	2	6	5	n/a	105	n/a	2	n/a	n/a	n/a	n/a	223.743	n/a
186.804	0.497	happy	Picture	29.609	n/a	2	6	6	n/a	106	43	2	n/a	n/a	n/a	n/a	224.274	BF04HAS.jpg
187.301	0.514	Blank	Blank	29.095	n/a	2	6	6	n/a	106	n/a	2	n/a	n/a	n/a	n/a	224.771	n/a
187.832	0.497	happy	Picture	28.581	n/a	2	6	7	n/a	107	70	2	n/a	n/a	n/a	n/a	225.302	BM11HAS.jpg
188.329	0.514	Blank	Blank	28.067	n/a	2	6	7	n/a	107	n/a	2	n/a	n/a	n/a	n/a	225.799	n/a
188.859	0.497	happy	Picture	27.553	n/a	2	6	8	n/a	108	66	2	n/a	n/a	n/a	n/a	226.329	BM07HAS.jpg
189.357	0.514	Blank	Blank	27.039	n/a	2	6	8	n/a	108	n/a	2	n/a	n/a	n/a	n/a	226.827	n/a
189.887	0.497	happy	Picture	26.525	n/a	2	6	9	n/a	109	48	2	n/a	n/a	n/a	n/a	227.357	AF14HAS.jpg
190.385	0.514	Blank	Blank	26.011	n/a	2	6	9	n/a	109	n/a	2	n/a	n/a	n/a	n/a	227.855	n/a
190.915	0.497	happy	Picture	25.497	n/a	2	6	10	n/a	110	58	2	n/a	n/a	n/a	n/a	228.385	BF29HAS.jpg
191.413	0.514	Blank	Blank	24.983	n/a	2	6	10	n/a	110	n/a	2	n/a	n/a	n/a	n/a	228.883	n/a
191.943	0.497	happy	Picture	24.47	n/a	2	6	11	n/a	111	63	2	n/a	n/a	n/a	n/a	229.413	AM04HAS.jpg
192.441	0.514	Blank	Blank	23.956	n/a	2	6	11	n/a	111	n/a	2	n/a	n/a	n/a	n/a	229.911	n/a
192.971	0.497	happy	Picture	23.442	n/a	2	6	12	n/a	112	72	2	n/a	n/a	n/a	n/a	230.441	AM14HAS.jpg
193.468	0.514	Blank	Blank	22.928	n/a	2	6	12	n/a	112	n/a	2	n/a	n/a	n/a	n/a	230.938	n/a
193.999	0.497	happy	Picture	22.414	n/a	2	6	13	n/a	113	55	2	n/a	n/a	n/a	n/a	231.469	AF25HAS.jpg
194.496	0.514	Blank	Blank	21.9	n/a	2	6	13	n/a	113	n/a	2	n/a	n/a	n/a	n/a	231.966	n/a
195.027	0.497	happy	Picture	21.386	n/a	2	6	14	n/a	114	42	2	n/a	n/a	n/a	n/a	232.497	AF03HAS.jpg
195.524	0.514	Blank	Blank	20.872	n/a	2	6	14	n/a	114	n/a	2	n/a	n/a	n/a	n/a	232.994	n/a
196.055	0.497	happy	Picture	20.358	n/a	2	6	15	n/a	115	60	2	n/a	n/a	n/a	n/a	233.525	AF32HAS.jpg
196.552	0.514	Blank	Blank	19.844	n/a	2	6	15	n/a	115	n/a	2	n/a	n/a	n/a	n/a	234.022	n/a
197.083	0.497	happy	Picture	19.33	n/a	2	6	16	n/a	116	67	2	n/a	n/a	n/a	n/a	234.553	BM08HAS.jpg
197.58	0.514	Blank	Blank	18.816	n/a	2	6	16	n/a	116	n/a	2	n/a	n/a	n/a	n/a	235.05	n/a
198.11	0.497	happy	Picture	18.302	n/a	2	6	17	n/a	117	51	2	n/a	n/a	n/a	n/a	235.58	AF20HAS.jpg
198.608	0.514	Blank	Blank	17.788	n/a	2	6	17	n/a	117	n/a	2	n/a	n/a	n/a	n/a	236.078	n/a
199.138	0.497	happy	Picture	17.274	n/a	2	6	18	n/a	118	71	2	n/a	n/a	n/a	n/a	236.608	BM12HAS.jpg
199.636	0.514	Blank	Blank	16.76	n/a	2	6	18	n/a	118	n/a	2	n/a	n/a	n/a	n/a	237.106	n/a
200.166	0.497	happy	Picture	16.246	n/a	2	6	19	n/a	119	69	2	n/a	n/a	n/a	n/a	237.636	AM10HAS.jpg
200.664	0.514	Blank	Blank	15.732	n/a	2	6	19	n/a	119	n/a	2	n/a	n/a	n/a	n/a	238.134	n/a
201.194	0.497	happy	Picture	15.219	n/a	2	6	20	n/a	120	46	2	n/a	n/a	n/a	n/a	238.664	AF09HAS.jpg
201.691	0.514	Blank	Blank	14.705	n/a	2	6	20	n/a	120	n/a	2	n/a	n/a	n/a	n/a	239.161	n/a
202.222	10.014	ITI	Fixation+	4.674	n/a	2	n/a	n/a	n/a	n/a	n/a	n/a	n/a	n/a	n/a	n/a	239.692	n/a
216.91	n/a	ConfirmRating	Rate	n/a	4.658	2	n/a	n/a	0	n/a	n/a	n/a	2	Happy	78	53	254.38	n/a
219.192	n/a	ConfirmRating	Rate	n/a	2.271	2	n/a	n/a	1	n/a	n/a	n/a	3	Happy	6	49	256.662	n/a
219.215	15.004	Rest	Picture	n/a	n/a	n/a	n/a	n/a	n/a	n/a	n/a	n/a	0	n/a	0	0	256.685	n/a
234.236	10.014	ITI	Fixation+	99.064	n/a	3	n/a	n/a	n/a	n/a	n/a	n/a	n/a	n/a	n/a	n/a	271.706	n/a
244.266	0.497	angry	Picture	98.55	n/a	3	7	1	n/a	1	108	3	n/a	n/a	n/a	n/a	281.736	AM09ANS.jpg
244.763	0.514	Blank	Blank	98.036	n/a	3	7	1	n/a	1	n/a	3	n/a	n/a	n/a	n/a	282.233	n/a
245.294	0.497	angry	Picture	97.522	n/a	3	7	2	n/a	2	99	3	n/a	n/a	n/a	n/a	282.764	AF31ANS.jpg
245.791	0.514	Blank	Blank	97.008	n/a	3	7	2	n/a	2	n/a	3	n/a	n/a	n/a	n/a	283.261	n/a
246.322	0.497	angry	Picture	96.494	n/a	3	7	3	n/a	3	98	3	n/a	n/a	n/a	n/a	283.792	BF29ANS.jpg
246.819	0.514	Blank	Blank	95.98	n/a	3	7	3	n/a	3	n/a	3	n/a	n/a	n/a	n/a	284.289	n/a
247.35	0.497	angry	Picture	95.466	n/a	3	7	4	n/a	4	107	3	n/a	n/a	n/a	n/a	284.82	BM08ANS.jpg
247.847	0.514	Blank	Blank	94.953	n/a	3	7	4	n/a	4	n/a	3	n/a	n/a	n/a	n/a	285.317	n/a
248.378	0.497	angry	Picture	94.439	n/a	3	7	5	n/a	5	104	3	n/a	n/a	n/a	n/a	285.848	BM05ANS.jpg
248.875	0.514	Blank	Blank	93.925	n/a	3	7	5	n/a	5	n/a	3	n/a	n/a	n/a	n/a	286.345	n/a
249.405	0.497	angry	Picture	93.411	n/a	3	7	6	n/a	6	101	3	n/a	n/a	n/a	n/a	286.875	AM01ANS.jpg
249.903	0.514	Blank	Blank	92.897	n/a	3	7	6	n/a	6	n/a	3	n/a	n/a	n/a	n/a	287.373	n/a
250.433	0.497	angry	Picture	92.383	n/a	3	7	7	n/a	7	103	3	n/a	n/a	n/a	n/a	287.903	AM04ANS.jpg
250.931	0.514	Blank	Blank	91.869	n/a	3	7	7	n/a	7	n/a	3	n/a	n/a	n/a	n/a	288.401	n/a
251.461	0.497	angry	Picture	91.355	n/a	3	7	8	n/a	8	111	3	n/a	n/a	n/a	n/a	288.931	BM12ANS.jpg
251.959	0.514	Blank	Blank	90.841	n/a	3	7	8	n/a	8	n/a	3	n/a	n/a	n/a	n/a	289.429	n/a
252.489	0.497	angry	Picture	90.327	n/a	3	7	9	n/a	9	110	3	n/a	n/a	n/a	n/a	289.959	AM11ANS.jpg
252.987	0.514	Blank	Blank	89.813	n/a	3	7	9	n/a	9	n/a	3	n/a	n/a	n/a	n/a	290.457	n/a
253.517	0.497	angry	Picture	89.299	n/a	3	7	10	n/a	10	85	3	n/a	n/a	n/a	n/a	290.987	BF07ANS.jpg
254.014	0.514	Blank	Blank	88.785	n/a	3	7	10	n/a	10	n/a	3	n/a	n/a	n/a	n/a	291.484	n/a
254.545	0.497	angry	Picture	88.271	n/a	3	7	11	n/a	11	87	3	n/a	n/a	n/a	n/a	292.015	BF11ANS.jpg
255.042	0.514	Blank	Blank	87.757	n/a	3	7	11	n/a	11	n/a	3	n/a	n/a	n/a	n/a	292.512	n/a
255.573	0.497	angry	Picture	87.243	n/a	3	7	12	n/a	12	91	3	n/a	n/a	n/a	n/a	293.043	AF20ANS.jpg
256.07	0.514	Blank	Blank	86.729	n/a	3	7	12	n/a	12	n/a	3	n/a	n/a	n/a	n/a	293.54	n/a
256.601	0.497	angry	Picture	86.215	n/a	3	7	13	n/a	13	115	3	n/a	n/a	n/a	n/a	294.071	AM23ANS.jpg
257.098	0.514	Blank	Blank	85.702	n/a	3	7	13	n/a	13	n/a	3	n/a	n/a	n/a	n/a	294.568	n/a
257.629	0.497	angry	Picture	85.188	n/a	3	7	14	n/a	14	97	3	n/a	n/a	n/a	n/a	295.099	BF28ANS.jpg
258.126	0.514	Blank	Blank	84.674	n/a	3	7	14	n/a	14	n/a	3	n/a	n/a	n/a	n/a	295.596	n/a
258.657	0.497	angry	Picture	84.16	n/a	3	7	15	n/a	15	82	3	n/a	n/a	n/a	n/a	296.127	AF03ANS.jpg
259.154	0.514	Blank	Blank	83.646	n/a	3	7	15	n/a	15	n/a	3	n/a	n/a	n/a	n/a	296.624	n/a
259.684	0.497	angry	Picture	83.132	n/a	3	7	16	n/a	16	96	3	n/a	n/a	n/a	n/a	297.154	AF26ANS.jpg
260.182	0.514	Blank	Blank	82.618	n/a	3	7	16	n/a	16	n/a	3	n/a	n/a	n/a	n/a	297.652	n/a
260.712	0.497	angry	Picture	82.104	n/a	3	7	17	n/a	17	109	3	n/a	n/a	n/a	n/a	298.182	AM10ANS.jpg
261.21	0.514	Blank	Blank	81.59	n/a	3	7	17	n/a	17	n/a	3	n/a	n/a	n/a	n/a	298.68	n/a
261.74	0.497	angry	Picture	81.076	n/a	3	7	18	n/a	18	114	3	n/a	n/a	n/a	n/a	299.21	AM22ANS.jpg
262.237	0.514	Blank	Blank	80.562	n/a	3	7	18	n/a	18	n/a	3	n/a	n/a	n/a	n/a	299.707	n/a
262.768	0.497	angry	Picture	80.048	n/a	3	7	19	n/a	19	120	3	n/a	n/a	n/a	n/a	300.238	AM35ANS.jpg
263.265	0.514	Blank	Blank	79.534	n/a	3	7	19	n/a	19	n/a	3	n/a	n/a	n/a	n/a	300.735	n/a
263.796	0.497	angry	Picture	79.02	n/a	3	7	20	n/a	20	81	3	n/a	n/a	n/a	n/a	301.266	AF01ANS.jpg
264.293	0.514	Blank	Blank	78.506	n/a	3	7	20	n/a	20	n/a	3	n/a	n/a	n/a	n/a	301.763	n/a
264.824	10.014	ITI	Fixation+	68.476	n/a	3	n/a	n/a	n/a	n/a	n/a	n/a	n/a	n/a	n/a	n/a	302.294	n/a
274.854	0.497	neutral	Picture	67.962	n/a	3	8	1	n/a	21	28	1	n/a	n/a	n/a	n/a	312.324	AM09NES.jpg
275.351	0.514	Blank	Blank	67.448	n/a	3	8	1	n/a	21	n/a	1	n/a	n/a	n/a	n/a	312.821	n/a
275.882	0.497	neutral	Picture	66.934	n/a	3	8	2	n/a	22	27	1	n/a	n/a	n/a	n/a	313.352	BM08NES.jpg
276.379	0.514	Blank	Blank	66.42	n/a	3	8	2	n/a	22	n/a	1	n/a	n/a	n/a	n/a	313.849	n/a
276.91	0.497	neutral	Picture	65.906	n/a	3	8	3	n/a	23	16	1	n/a	n/a	n/a	n/a	314.38	AF26NES.jpg
277.407	0.514	Blank	Blank	65.392	n/a	3	8	3	n/a	23	n/a	1	n/a	n/a	n/a	n/a	314.877	n/a
277.938	0.497	neutral	Picture	64.878	n/a	3	8	4	n/a	24	3	1	n/a	n/a	n/a	n/a	315.408	BF04NES.jpg
278.435	0.514	Blank	Blank	64.365	n/a	3	8	4	n/a	24	n/a	1	n/a	n/a	n/a	n/a	315.905	n/a
278.966	0.497	neutral	Picture	63.851	n/a	3	8	5	n/a	25	32	1	n/a	n/a	n/a	n/a	316.436	AM14NES.jpg
279.463	0.514	Blank	Blank	63.337	n/a	3	8	5	n/a	25	n/a	1	n/a	n/a	n/a	n/a	316.933	n/a
279.994	0.497	neutral	Picture	62.823	n/a	3	8	6	n/a	26	37	1	n/a	n/a	n/a	n/a	317.464	BM25NES.jpg
280.491	0.514	Blank	Blank	62.309	n/a	3	8	6	n/a	26	n/a	1	n/a	n/a	n/a	n/a	317.961	n/a
281.021	0.497	neutral	Picture	61.795	n/a	3	8	7	n/a	27	15	1	n/a	n/a	n/a	n/a	318.491	AF25NES.jpg
281.519	0.514	Blank	Blank	61.281	n/a	3	8	7	n/a	27	n/a	1	n/a	n/a	n/a	n/a	318.989	n/a
282.049	0.497	neutral	Picture	60.767	n/a	3	8	8	n/a	28	23	1	n/a	n/a	n/a	n/a	319.519	AM04NES.jpg
282.547	0.514	Blank	Blank	60.253	n/a	3	8	8	n/a	28	n/a	1	n/a	n/a	n/a	n/a	320.017	n/a
283.077	0.497	neutral	Picture	59.739	n/a	3	8	9	n/a	29	34	1	n/a	n/a	n/a	n/a	320.547	AM22NES.jpg
283.575	0.514	Blank	Blank	59.225	n/a	3	8	9	n/a	29	n/a	1	n/a	n/a	n/a	n/a	321.045	n/a
284.105	0.497	neutral	Picture	58.711	n/a	3	8	10	n/a	30	24	1	n/a	n/a	n/a	n/a	321.575	BM05NES.jpg
284.602	0.514	Blank	Blank	58.197	n/a	3	8	10	n/a	30	n/a	1	n/a	n/a	n/a	n/a	322.072	n/a
285.133	0.497	neutral	Picture	57.683	n/a	3	8	11	n/a	31	12	1	n/a	n/a	n/a	n/a	322.603	AF21NES.jpg
285.63	0.514	Blank	Blank	57.169	n/a	3	8	11	n/a	31	n/a	1	n/a	n/a	n/a	n/a	323.1	n/a
286.161	0.497	neutral	Picture	56.655	n/a	3	8	12	n/a	32	6	1	n/a	n/a	n/a	n/a	323.631	AF09NES.jpg
286.658	0.514	Blank	Blank	56.142	n/a	3	8	12	n/a	32	n/a	1	n/a	n/a	n/a	n/a	324.128	n/a
287.189	0.497	neutral	Picture	55.627	n/a	3	8	13	n/a	33	17	1	n/a	n/a	n/a	n/a	324.659	BF28NES.jpg
287.686	0.514	Blank	Blank	55.114	n/a	3	8	13	n/a	33	n/a	1	n/a	n/a	n/a	n/a	325.156	n/a
288.217	0.497	neutral	Picture	54.6	n/a	3	8	14	n/a	34	2	1	n/a	n/a	n/a	n/a	325.687	AF03NES.jpg
288.714	0.514	Blank	Blank	54.086	n/a	3	8	14	n/a	34	n/a	1	n/a	n/a	n/a	n/a	326.184	n/a
289.245	0.497	neutral	Picture	53.572	n/a	3	8	15	n/a	35	9	1	n/a	n/a	n/a	n/a	326.714	AF17NES.jpg
289.742	0.514	Blank	Blank	53.058	n/a	3	8	15	n/a	35	n/a	1	n/a	n/a	n/a	n/a	327.212	n/a
290.272	0.497	neutral	Picture	52.544	n/a	3	8	16	n/a	36	25	1	n/a	n/a	n/a	n/a	327.742	BM06NES.jpg
290.77	0.514	Blank	Blank	52.03	n/a	3	8	16	n/a	36	n/a	1	n/a	n/a	n/a	n/a	328.24	n/a
291.3	0.497	neutral	Picture	51.516	n/a	3	8	17	n/a	37	8	1	n/a	n/a	n/a	n/a	328.77	AF14NES.jpg
291.798	0.514	Blank	Blank	51.002	n/a	3	8	17	n/a	37	n/a	1	n/a	n/a	n/a	n/a	329.268	n/a
292.328	0.497	neutral	Picture	50.488	n/a	3	8	18	n/a	38	19	1	n/a	n/a	n/a	n/a	329.798	AF31NES.jpg
292.826	0.514	Blank	Blank	49.974	n/a	3	8	18	n/a	38	n/a	1	n/a	n/a	n/a	n/a	330.296	n/a
293.356	0.497	neutral	Picture	49.46	n/a	3	8	19	n/a	39	14	1	n/a	n/a	n/a	n/a	330.826	AF23NES.jpg
293.853	0.514	Blank	Blank	48.946	n/a	3	8	19	n/a	39	n/a	1	n/a	n/a	n/a	n/a	331.323	n/a
294.384	0.497	neutral	Picture	48.432	n/a	3	8	20	n/a	40	4	1	n/a	n/a	n/a	n/a	331.854	AF05NES.jpg
294.881	0.514	Blank	Blank	47.918	n/a	3	8	20	n/a	40	n/a	1	n/a	n/a	n/a	n/a	332.351	n/a
295.412	10.014	ITI	Fixation+	37.888	n/a	3	n/a	n/a	n/a	n/a	n/a	n/a	n/a	n/a	n/a	n/a	332.882	n/a
305.442	0.497	angry	Picture	37.374	n/a	3	9	1	n/a	41	84	3	n/a	n/a	n/a	n/a	342.912	AF05ANS.jpg
305.939	0.514	Blank	Blank	36.86	n/a	3	9	1	n/a	41	n/a	3	n/a	n/a	n/a	n/a	343.409	n/a
306.47	0.497	angry	Picture	36.346	n/a	3	9	2	n/a	42	92	3	n/a	n/a	n/a	n/a	343.94	AF21ANS.jpg
306.967	0.514	Blank	Blank	35.832	n/a	3	9	2	n/a	42	n/a	3	n/a	n/a	n/a	n/a	344.437	n/a
307.498	0.497	angry	Picture	35.318	n/a	3	9	3	n/a	43	86	3	n/a	n/a	n/a	n/a	344.968	AF09ANS.jpg
307.995	0.514	Blank	Blank	34.804	n/a	3	9	3	n/a	43	n/a	3	n/a	n/a	n/a	n/a	345.465	n/a
308.526	0.497	angry	Picture	34.29	n/a	3	9	4	n/a	44	93	3	n/a	n/a	n/a	n/a	345.996	BF22ANS.jpg
309.023	0.514	Blank	Blank	33.777	n/a	3	9	4	n/a	44	n/a	3	n/a	n/a	n/a	n/a	346.493	n/a
309.554	0.497	angry	Picture	33.263	n/a	3	9	5	n/a	45	88	3	n/a	n/a	n/a	n/a	347.024	AF14ANS.jpg
310.051	0.514	Blank	Blank	32.749	n/a	3	9	5	n/a	45	n/a	3	n/a	n/a	n/a	n/a	347.521	n/a
310.582	0.497	angry	Picture	32.235	n/a	3	9	6	n/a	46	113	3	n/a	n/a	n/a	n/a	348.051	AM21ANS.jpg
311.079	0.514	Blank	Blank	31.721	n/a	3	9	6	n/a	46	n/a	3	n/a	n/a	n/a	n/a	348.549	n/a
311.609	0.497	angry	Picture	31.207	n/a	3	9	7	n/a	47	95	3	n/a	n/a	n/a	n/a	349.079	AF25ANS.jpg
312.107	0.514	Blank	Blank	30.693	n/a	3	9	7	n/a	47	n/a	3	n/a	n/a	n/a	n/a	349.577	n/a
312.637	0.497	angry	Picture	30.179	n/a	3	9	8	n/a	48	102	3	n/a	n/a	n/a	n/a	350.107	BM03ANS.jpg
313.135	0.514	Blank	Blank	29.665	n/a	3	9	8	n/a	48	n/a	3	n/a	n/a	n/a	n/a	350.605	n/a
313.665	0.497	angry	Picture	29.151	n/a	3	9	9	n/a	49	112	3	n/a	n/a	n/a	n/a	351.135	AM14ANS.jpg
314.163	0.514	Blank	Blank	28.637	n/a	3	9	9	n/a	49	n/a	3	n/a	n/a	n/a	n/a	351.633	n/a
314.693	0.497	angry	Picture	28.123	n/a	3	9	10	n/a	50	83	3	n/a	n/a	n/a	n/a	352.163	BF04ANS.jpg
315.19	0.514	Blank	Blank	27.609	n/a	3	9	10	n/a	50	n/a	3	n/a	n/a	n/a	n/a	352.66	n/a
315.721	0.497	angry	Picture	27.095	n/a	3	9	11	n/a	51	90	3	n/a	n/a	n/a	n/a	353.191	AF18ANS.jpg
316.218	0.514	Blank	Blank	26.581	n/a	3	9	11	n/a	51	n/a	3	n/a	n/a	n/a	n/a	353.688	n/a
316.749	0.497	angry	Picture	26.067	n/a	3	9	12	n/a	52	117	3	n/a	n/a	n/a	n/a	354.219	BM25ANS.jpg
317.246	0.514	Blank	Blank	25.553	n/a	3	9	12	n/a	52	n/a	3	n/a	n/a	n/a	n/a	354.716	n/a
317.777	0.497	angry	Picture	25.039	n/a	3	9	13	n/a	53	94	3	n/a	n/a	n/a	n/a	355.247	AF23ANS.jpg
318.274	0.514	Blank	Blank	24.525	n/a	3	9	13	n/a	53	n/a	3	n/a	n/a	n/a	n/a	355.744	n/a
318.805	0.497	angry	Picture	24.012	n/a	3	9	14	n/a	54	106	3	n/a	n/a	n/a	n/a	356.275	AM07ANS.jpg
319.302	0.514	Blank	Blank	23.498	n/a	3	9	14	n/a	54	n/a	3	n/a	n/a	n/a	n/a	356.772	n/a
319.832	0.497	angry	Picture	22.984	n/a	3	9	15	n/a	55	105	3	n/a	n/a	n/a	n/a	357.303	BM06ANS.jpg
320.33	0.514	Blank	Blank	22.47	n/a	3	9	15	n/a	55	n/a	3	n/a	n/a	n/a	n/a	357.8	n/a
320.86	0.497	angry	Picture	21.956	n/a	3	9	16	n/a	56	116	3	n/a	n/a	n/a	n/a	358.33	BM24ANS.jpg
321.358	0.514	Blank	Blank	21.442	n/a	3	9	16	n/a	56	n/a	3	n/a	n/a	n/a	n/a	358.828	n/a
321.888	0.497	angry	Picture	20.928	n/a	3	9	17	n/a	57	89	3	n/a	n/a	n/a	n/a	359.358	AF17ANS.jpg
322.386	0.514	Blank	Blank	20.414	n/a	3	9	17	n/a	57	n/a	3	n/a	n/a	n/a	n/a	359.856	n/a
322.916	0.497	angry	Picture	19.9	n/a	3	9	18	n/a	58	118	3	n/a	n/a	n/a	n/a	360.386	BM26ANS.jpg
323.414	0.514	Blank	Blank	19.386	n/a	3	9	18	n/a	58	n/a	3	n/a	n/a	n/a	n/a	360.884	n/a
323.944	0.497	angry	Picture	18.872	n/a	3	9	19	n/a	59	100	3	n/a	n/a	n/a	n/a	361.414	AF32ANS.jpg
324.442	0.514	Blank	Blank	18.358	n/a	3	9	19	n/a	59	n/a	3	n/a	n/a	n/a	n/a	361.911	n/a
324.972	0.497	angry	Picture	17.844	n/a	3	9	20	n/a	60	119	3	n/a	n/a	n/a	n/a	362.442	BM28ANS.jpg
325.469	0.514	Blank	Blank	17.33	n/a	3	9	20	n/a	60	n/a	3	n/a	n/a	n/a	n/a	362.939	n/a
326.0	10.014	ITI	Fixation+	7.3	n/a	3	n/a	n/a	n/a	n/a	n/a	n/a	n/a	n/a	n/a	n/a	363.47	n/a
343.314	n/a	ConfirmRating	Rate	n/a	7.294	3	n/a	n/a	0	n/a	n/a	n/a	2	Angry	83	52	380.784	n/a
346.401	n/a	ConfirmRating	Rate	n/a	3.067	3	n/a	n/a	1	n/a	n/a	n/a	3	Angry	6	47	383.871	n/a
346.425	10.014	ITI	Fixation+	96.972	n/a	4	n/a	n/a	n/a	n/a	n/a	n/a	n/a	n/a	n/a	n/a	383.895	n/a
356.455	0.497	happy	Picture	96.458	n/a	4	10	1	n/a	61	79	2	n/a	n/a	n/a	n/a	393.925	BM28HAS.jpg
356.953	0.514	Blank	Blank	95.944	n/a	4	10	1	n/a	61	n/a	2	n/a	n/a	n/a	n/a	394.423	n/a
357.483	0.497	happy	Picture	95.43	n/a	4	10	2	n/a	62	61	2	n/a	n/a	n/a	n/a	394.953	AM01HAS.jpg
357.981	0.514	Blank	Blank	94.916	n/a	4	10	2	n/a	62	n/a	2	n/a	n/a	n/a	n/a	395.45	n/a
358.511	0.497	happy	Picture	94.402	n/a	4	10	3	n/a	63	57	2	n/a	n/a	n/a	n/a	395.981	BF28HAS.jpg
359.008	0.514	Blank	Blank	93.888	n/a	4	10	3	n/a	63	n/a	2	n/a	n/a	n/a	n/a	396.478	n/a
359.539	0.497	happy	Picture	93.374	n/a	4	10	4	n/a	64	77	2	n/a	n/a	n/a	n/a	397.009	BM25HAS.jpg
360.036	0.514	Blank	Blank	92.86	n/a	4	10	4	n/a	64	n/a	2	n/a	n/a	n/a	n/a	397.506	n/a
360.567	0.497	happy	Picture	92.346	n/a	4	10	5	n/a	65	47	2	n/a	n/a	n/a	n/a	398.037	BF11HAS.jpg
361.064	0.514	Blank	Blank	91.832	n/a	4	10	5	n/a	65	n/a	2	n/a	n/a	n/a	n/a	398.534	n/a
361.595	0.497	happy	Picture	91.318	n/a	4	10	6	n/a	66	50	2	n/a	n/a	n/a	n/a	399.065	AF18HAS.jpg
362.092	0.514	Blank	Blank	90.805	n/a	4	10	6	n/a	66	n/a	2	n/a	n/a	n/a	n/a	399.562	n/a
362.623	0.497	happy	Picture	90.29	n/a	4	10	7	n/a	67	78	2	n/a	n/a	n/a	n/a	400.093	BM26HAS.jpg
363.12	0.514	Blank	Blank	89.777	n/a	4	10	7	n/a	67	n/a	2	n/a	n/a	n/a	n/a	400.59	n/a
363.65	0.497	happy	Picture	89.263	n/a	4	10	8	n/a	68	45	2	n/a	n/a	n/a	n/a	401.12	BF07HAS.jpg
364.148	0.514	Blank	Blank	88.749	n/a	4	10	8	n/a	68	n/a	2	n/a	n/a	n/a	n/a	401.618	n/a
364.678	0.497	happy	Picture	88.235	n/a	4	10	9	n/a	69	56	2	n/a	n/a	n/a	n/a	402.148	AF26HAS.jpg
365.176	0.514	Blank	Blank	87.721	n/a	4	10	9	n/a	69	n/a	2	n/a	n/a	n/a	n/a	402.646	n/a
365.706	0.497	happy	Picture	87.207	n/a	4	10	10	n/a	70	65	2	n/a	n/a	n/a	n/a	403.176	BM06HAS.jpg
366.204	0.514	Blank	Blank	86.693	n/a	4	10	10	n/a	70	n/a	2	n/a	n/a	n/a	n/a	403.674	n/a
366.734	0.497	happy	Picture	86.179	n/a	4	10	11	n/a	71	73	2	n/a	n/a	n/a	n/a	404.204	AM21HAS.jpg
367.231	0.514	Blank	Blank	85.665	n/a	4	10	11	n/a	71	n/a	2	n/a	n/a	n/a	n/a	404.702	n/a
367.762	0.497	happy	Picture	85.151	n/a	4	10	12	n/a	72	41	2	n/a	n/a	n/a	n/a	405.232	AF01HAS.jpg
368.259	0.514	Blank	Blank	84.637	n/a	4	10	12	n/a	72	n/a	2	n/a	n/a	n/a	n/a	405.729	n/a
368.79	0.497	happy	Picture	84.123	n/a	4	10	13	n/a	73	59	2	n/a	n/a	n/a	n/a	406.26	AF31HAS.jpg
369.287	0.514	Blank	Blank	83.609	n/a	4	10	13	n/a	73	n/a	2	n/a	n/a	n/a	n/a	406.757	n/a
369.818	0.497	happy	Picture	83.095	n/a	4	10	14	n/a	74	64	2	n/a	n/a	n/a	n/a	407.288	BM05HAS.jpg
370.315	0.514	Blank	Blank	82.581	n/a	4	10	14	n/a	74	n/a	2	n/a	n/a	n/a	n/a	407.785	n/a
370.846	0.497	happy	Picture	82.067	n/a	4	10	15	n/a	75	68	2	n/a	n/a	n/a	n/a	408.316	AM09HAS.jpg
371.343	0.514	Blank	Blank	81.553	n/a	4	10	15	n/a	75	n/a	2	n/a	n/a	n/a	n/a	408.813	n/a
371.874	0.497	happy	Picture	81.039	n/a	4	10	16	n/a	76	54	2	n/a	n/a	n/a	n/a	409.344	AF23HAS.jpg
372.371	0.514	Blank	Blank	80.526	n/a	4	10	16	n/a	76	n/a	2	n/a	n/a	n/a	n/a	409.841	n/a
372.902	0.497	happy	Picture	80.012	n/a	4	10	17	n/a	77	53	2	n/a	n/a	n/a	n/a	410.372	BF22HAS.jpg
373.399	0.514	Blank	Blank	79.498	n/a	4	10	17	n/a	77	n/a	2	n/a	n/a	n/a	n/a	410.869	n/a
373.929	0.497	happy	Picture	78.984	n/a	4	10	18	n/a	78	44	2	n/a	n/a	n/a	n/a	411.399	AF05HAS.jpg
374.427	0.514	Blank	Blank	78.47	n/a	4	10	18	n/a	78	n/a	2	n/a	n/a	n/a	n/a	411.897	n/a
374.957	0.497	happy	Picture	77.956	n/a	4	10	19	n/a	79	52	2	n/a	n/a	n/a	n/a	412.427	AF21HAS.jpg
375.455	0.514	Blank	Blank	77.442	n/a	4	10	19	n/a	79	n/a	2	n/a	n/a	n/a	n/a	412.925	n/a
375.985	0.497	happy	Picture	76.928	n/a	4	10	20	n/a	80	62	2	n/a	n/a	n/a	n/a	413.455	BM03HAS.jpg
376.482	0.514	Blank	Blank	76.414	n/a	4	10	20	n/a	80	n/a	2	n/a	n/a	n/a	n/a	413.952	n/a
377.013	10.014	ITI	Fixation+	66.384	n/a	4	n/a	n/a	n/a	n/a	n/a	n/a	n/a	n/a	n/a	n/a	414.483	n/a
387.043	0.497	neutral	Picture	65.87	n/a	4	11	1	n/a	81	23	1	n/a	n/a	n/a	n/a	424.513	AM04NES.jpg
387.541	0.514	Blank	Blank	65.356	n/a	4	11	1	n/a	81	n/a	1	n/a	n/a	n/a	n/a	425.011	n/a
388.071	0.497	neutral	Picture	64.842	n/a	4	11	2	n/a	82	29	1	n/a	n/a	n/a	n/a	425.541	AM10NES.jpg
388.568	0.514	Blank	Blank	64.328	n/a	4	11	2	n/a	82	n/a	1	n/a	n/a	n/a	n/a	426.038	n/a
389.099	0.497	neutral	Picture	63.814	n/a	4	11	3	n/a	83	24	1	n/a	n/a	n/a	n/a	426.569	BM05NES.jpg
389.596	0.514	Blank	Blank	63.3	n/a	4	11	3	n/a	83	n/a	1	n/a	n/a	n/a	n/a	427.066	n/a
390.127	0.497	neutral	Picture	62.786	n/a	4	11	4	n/a	84	12	1	n/a	n/a	n/a	n/a	427.597	AF21NES.jpg
390.624	0.514	Blank	Blank	62.272	n/a	4	11	4	n/a	84	n/a	1	n/a	n/a	n/a	n/a	428.094	n/a
391.155	0.497	neutral	Picture	61.758	n/a	4	11	5	n/a	85	13	1	n/a	n/a	n/a	n/a	428.625	BF22NES.jpg
391.652	0.514	Blank	Blank	61.244	n/a	4	11	5	n/a	85	n/a	1	n/a	n/a	n/a	n/a	429.122	n/a
392.183	0.497	neutral	Picture	60.73	n/a	4	11	6	n/a	86	17	1	n/a	n/a	n/a	n/a	429.653	BF28NES.jpg
392.68	0.514	Blank	Blank	60.216	n/a	4	11	6	n/a	86	n/a	1	n/a	n/a	n/a	n/a	430.15	n/a
393.211	0.497	neutral	Picture	59.702	n/a	4	11	7	n/a	87	4	1	n/a	n/a	n/a	n/a	430.681	AF05NES.jpg
393.708	0.514	Blank	Blank	59.189	n/a	4	11	7	n/a	87	n/a	1	n/a	n/a	n/a	n/a	431.178	n/a
394.239	0.497	neutral	Picture	58.675	n/a	4	11	8	n/a	88	11	1	n/a	n/a	n/a	n/a	431.709	AF20NES.jpg
394.736	0.514	Blank	Blank	58.161	n/a	4	11	8	n/a	88	n/a	1	n/a	n/a	n/a	n/a	432.206	n/a
395.266	0.497	neutral	Picture	57.647	n/a	4	11	9	n/a	89	22	1	n/a	n/a	n/a	n/a	432.736	BM03NES.jpg
395.764	0.514	Blank	Blank	57.133	n/a	4	11	9	n/a	89	n/a	1	n/a	n/a	n/a	n/a	433.234	n/a
396.294	0.497	neutral	Picture	56.619	n/a	4	11	10	n/a	90	15	1	n/a	n/a	n/a	n/a	433.764	AF25NES.jpg
396.792	0.514	Blank	Blank	56.105	n/a	4	11	10	n/a	90	n/a	1	n/a	n/a	n/a	n/a	434.262	n/a
397.322	0.497	neutral	Picture	55.591	n/a	4	11	11	n/a	91	19	1	n/a	n/a	n/a	n/a	434.792	AF31NES.jpg
397.819	0.514	Blank	Blank	55.077	n/a	4	11	11	n/a	91	n/a	1	n/a	n/a	n/a	n/a	435.289	n/a
398.35	0.497	neutral	Picture	54.563	n/a	4	11	12	n/a	92	9	1	n/a	n/a	n/a	n/a	435.82	AF17NES.jpg
398.847	0.514	Blank	Blank	54.049	n/a	4	11	12	n/a	92	n/a	1	n/a	n/a	n/a	n/a	436.317	n/a
399.378	0.497	neutral	Picture	53.535	n/a	4	11	13	n/a	93	14	1	n/a	n/a	n/a	n/a	436.848	AF23NES.jpg
399.875	0.514	Blank	Blank	53.021	n/a	4	11	13	n/a	93	n/a	1	n/a	n/a	n/a	n/a	437.345	n/a
400.406	0.497	neutral	Picture	52.507	n/a	4	11	14	n/a	94	36	1	n/a	n/a	n/a	n/a	437.876	BM24NES.jpg
400.903	0.514	Blank	Blank	51.993	n/a	4	11	14	n/a	94	n/a	1	n/a	n/a	n/a	n/a	438.373	n/a
401.434	0.497	neutral	Picture	51.479	n/a	4	11	15	n/a	95	34	1	n/a	n/a	n/a	n/a	438.904	AM22NES.jpg
401.931	0.514	Blank	Blank	50.965	n/a	4	11	15	n/a	95	n/a	1	n/a	n/a	n/a	n/a	439.401	n/a
402.462	0.497	neutral	Picture	50.451	n/a	4	11	16	n/a	96	10	1	n/a	n/a	n/a	n/a	439.932	AF18NES.jpg
402.959	0.514	Blank	Blank	49.938	n/a	4	11	16	n/a	96	n/a	1	n/a	n/a	n/a	n/a	440.429	n/a
403.49	0.497	neutral	Picture	49.424	n/a	4	11	17	n/a	97	5	1	n/a	n/a	n/a	n/a	440.959	BF07NES.jpg
403.987	0.514	Blank	Blank	48.91	n/a	4	11	17	n/a	97	n/a	1	n/a	n/a	n/a	n/a	441.457	n/a
404.517	0.497	neutral	Picture	48.396	n/a	4	11	18	n/a	98	25	1	n/a	n/a	n/a	n/a	441.987	BM06NES.jpg
405.015	0.514	Blank	Blank	47.882	n/a	4	11	18	n/a	98	n/a	1	n/a	n/a	n/a	n/a	442.485	n/a
405.545	0.497	neutral	Picture	47.368	n/a	4	11	19	n/a	99	39	1	n/a	n/a	n/a	n/a	443.015	AM28NES.jpg
406.043	0.514	Blank	Blank	46.854	n/a	4	11	19	n/a	99	n/a	1	n/a	n/a	n/a	n/a	443.513	n/a
406.573	0.497	neutral	Picture	46.34	n/a	4	11	20	n/a	100	33	1	n/a	n/a	n/a	n/a	444.043	AM21NES.jpg
407.071	0.514	Blank	Blank	45.826	n/a	4	11	20	n/a	100	n/a	1	n/a	n/a	n/a	n/a	444.541	n/a
407.601	10.014	ITI	Fixation+	35.796	n/a	4	n/a	n/a	n/a	n/a	n/a	n/a	n/a	n/a	n/a	n/a	445.071	n/a
417.631	0.497	happy	Picture	35.282	n/a	4	12	1	n/a	101	74	2	n/a	n/a	n/a	n/a	455.101	AM22HAS.jpg
418.129	0.514	Blank	Blank	34.768	n/a	4	12	1	n/a	101	n/a	2	n/a	n/a	n/a	n/a	455.599	n/a
418.659	0.497	happy	Picture	34.254	n/a	4	12	2	n/a	102	76	2	n/a	n/a	n/a	n/a	456.129	BM24HAS.jpg
419.157	0.514	Blank	Blank	33.74	n/a	4	12	2	n/a	102	n/a	2	n/a	n/a	n/a	n/a	456.627	n/a
419.687	0.497	happy	Picture	33.226	n/a	4	12	3	n/a	103	80	2	n/a	n/a	n/a	n/a	457.157	BM35HAS.jpg
420.184	0.514	Blank	Blank	32.712	n/a	4	12	3	n/a	103	n/a	2	n/a	n/a	n/a	n/a	457.654	n/a
420.715	0.497	happy	Picture	32.198	n/a	4	12	4	n/a	104	75	2	n/a	n/a	n/a	n/a	458.185	AM23HAS.jpg
421.212	0.514	Blank	Blank	31.684	n/a	4	12	4	n/a	104	n/a	2	n/a	n/a	n/a	n/a	458.682	n/a
421.743	0.497	happy	Picture	31.17	n/a	4	12	5	n/a	105	49	2	n/a	n/a	n/a	n/a	459.213	AF17HAS.jpg
422.24	0.514	Blank	Blank	30.656	n/a	4	12	5	n/a	105	n/a	2	n/a	n/a	n/a	n/a	459.71	n/a
422.771	0.497	happy	Picture	30.142	n/a	4	12	6	n/a	106	43	2	n/a	n/a	n/a	n/a	460.241	BF04HAS.jpg
423.268	0.514	Blank	Blank	29.628	n/a	4	12	6	n/a	106	n/a	2	n/a	n/a	n/a	n/a	460.738	n/a
423.799	0.497	happy	Picture	29.114	n/a	4	12	7	n/a	107	70	2	n/a	n/a	n/a	n/a	461.269	BM11HAS.jpg
424.296	0.514	Blank	Blank	28.601	n/a	4	12	7	n/a	107	n/a	2	n/a	n/a	n/a	n/a	461.766	n/a
424.827	0.497	happy	Picture	28.087	n/a	4	12	8	n/a	108	66	2	n/a	n/a	n/a	n/a	462.296	BM07HAS.jpg
425.324	0.514	Blank	Blank	27.573	n/a	4	12	8	n/a	108	n/a	2	n/a	n/a	n/a	n/a	462.794	n/a
425.854	0.497	happy	Picture	27.059	n/a	4	12	9	n/a	109	48	2	n/a	n/a	n/a	n/a	463.324	AF14HAS.jpg
426.352	0.514	Blank	Blank	26.545	n/a	4	12	9	n/a	109	n/a	2	n/a	n/a	n/a	n/a	463.822	n/a
426.882	0.497	happy	Picture	26.031	n/a	4	12	10	n/a	110	58	2	n/a	n/a	n/a	n/a	464.352	BF29HAS.jpg
427.38	0.514	Blank	Blank	25.517	n/a	4	12	10	n/a	110	n/a	2	n/a	n/a	n/a	n/a	464.85	n/a
427.91	0.497	happy	Picture	25.003	n/a	4	12	11	n/a	111	63	2	n/a	n/a	n/a	n/a	465.38	AM04HAS.jpg
428.408	0.514	Blank	Blank	24.489	n/a	4	12	11	n/a	111	n/a	2	n/a	n/a	n/a	n/a	465.878	n/a
428.938	0.497	happy	Picture	23.975	n/a	4	12	12	n/a	112	72	2	n/a	n/a	n/a	n/a	466.408	AM14HAS.jpg
429.436	0.514	Blank	Blank	23.461	n/a	4	12	12	n/a	112	n/a	2	n/a	n/a	n/a	n/a	466.906	n/a
429.966	0.497	happy	Picture	22.947	n/a	4	12	13	n/a	113	55	2	n/a	n/a	n/a	n/a	467.436	AF25HAS.jpg
430.463	0.514	Blank	Blank	22.433	n/a	4	12	13	n/a	113	n/a	2	n/a	n/a	n/a	n/a	467.933	n/a
430.994	0.497	happy	Picture	21.919	n/a	4	12	14	n/a	114	42	2	n/a	n/a	n/a	n/a	468.464	AF03HAS.jpg
431.491	0.514	Blank	Blank	21.405	n/a	4	12	14	n/a	114	n/a	2	n/a	n/a	n/a	n/a	468.961	n/a
432.022	0.497	happy	Picture	20.891	n/a	4	12	15	n/a	115	60	2	n/a	n/a	n/a	n/a	469.492	AF32HAS.jpg
432.519	0.514	Blank	Blank	20.377	n/a	4	12	15	n/a	115	n/a	2	n/a	n/a	n/a	n/a	469.989	n/a
433.05	0.497	happy	Picture	19.863	n/a	4	12	16	n/a	116	67	2	n/a	n/a	n/a	n/a	470.52	BM08HAS.jpg
433.547	0.514	Blank	Blank	19.349	n/a	4	12	16	n/a	116	n/a	2	n/a	n/a	n/a	n/a	471.017	n/a
434.077	0.497	happy	Picture	18.836	n/a	4	12	17	n/a	117	51	2	n/a	n/a	n/a	n/a	471.548	AF20HAS.jpg
434.575	0.514	Blank	Blank	18.322	n/a	4	12	17	n/a	117	n/a	2	n/a	n/a	n/a	n/a	472.045	n/a
435.105	0.497	happy	Picture	17.808	n/a	4	12	18	n/a	118	71	2	n/a	n/a	n/a	n/a	472.575	BM12HAS.jpg
435.603	0.514	Blank	Blank	17.294	n/a	4	12	18	n/a	118	n/a	2	n/a	n/a	n/a	n/a	473.073	n/a
436.133	0.497	happy	Picture	16.78	n/a	4	12	19	n/a	119	69	2	n/a	n/a	n/a	n/a	473.603	AM10HAS.jpg
436.631	0.514	Blank	Blank	16.266	n/a	4	12	19	n/a	119	n/a	2	n/a	n/a	n/a	n/a	474.101	n/a
437.161	0.497	happy	Picture	15.752	n/a	4	12	20	n/a	120	46	2	n/a	n/a	n/a	n/a	474.631	AF09HAS.jpg
437.659	0.514	Blank	Blank	15.238	n/a	4	12	20	n/a	120	n/a	2	n/a	n/a	n/a	n/a	475.129	n/a
438.189	10.014	ITI	Fixation+	5.208	n/a	4	n/a	n/a	n/a	n/a	n/a	n/a	n/a	n/a	n/a	n/a	475.659	n/a
453.41	n/a	ConfirmRating	Rate	n/a	5.206	4	n/a	n/a	0	n/a	n/a	n/a	2	Happy	84	53	490.88	n/a
456.115	n/a	ConfirmRating	Rate	n/a	2.686	4	n/a	n/a	1	n/a	n/a	n/a	3	Happy	7	48	493.584	n/a
