onset	duration	trial_type	event_type	time_until_response	response_time	trial_number	block_num_within_trial	image_seq_num_within_block	question_seq_num_within_block	image_seq_num	picture_number	condition	question_type	block_type	rating	rating_computed	onset_uncorrected	KDEV_imagefile
0.009	10.014	ITI	Fixation+	98.234	n/a	1	n/a	n/a	n/a	n/a	n/a	n/a	n/a	n/a	n/a	n/a	28.477	n/a
10.039	0.497	happy	Picture	97.72	n/a	1	1	1	n/a	1	46	2	n/a	n/a	n/a	n/a	38.507	AF09HAS.jpg
10.537	0.514	Blank	Blank	97.206	n/a	1	1	1	n/a	1	n/a	2	n/a	n/a	n/a	n/a	39.005	n/a
11.067	0.497	happy	Picture	96.692	n/a	1	1	2	n/a	2	69	2	n/a	n/a	n/a	n/a	39.535	AM10HAS.jpg
11.564	0.514	Blank	Blank	96.178	n/a	1	1	2	n/a	2	n/a	2	n/a	n/a	n/a	n/a	40.033	n/a
12.095	0.497	happy	Picture	95.664	n/a	1	1	3	n/a	3	71	2	n/a	n/a	n/a	n/a	40.563	BM12HAS.jpg
12.592	0.514	Blank	Blank	95.15	n/a	1	1	3	n/a	3	n/a	2	n/a	n/a	n/a	n/a	41.06	n/a
13.123	0.497	happy	Picture	94.636	n/a	1	1	4	n/a	4	51	2	n/a	n/a	n/a	n/a	41.591	AF20HAS.jpg
13.62	0.514	Blank	Blank	94.122	n/a	1	1	4	n/a	4	n/a	2	n/a	n/a	n/a	n/a	42.088	n/a
14.151	0.497	happy	Picture	93.608	n/a	1	1	5	n/a	5	67	2	n/a	n/a	n/a	n/a	42.619	BM08HAS.jpg
14.648	0.514	Blank	Blank	93.094	n/a	1	1	5	n/a	5	n/a	2	n/a	n/a	n/a	n/a	43.116	n/a
15.179	0.497	happy	Picture	92.58	n/a	1	1	6	n/a	6	60	2	n/a	n/a	n/a	n/a	43.647	AF32HAS.jpg
15.676	0.514	Blank	Blank	92.066	n/a	1	1	6	n/a	6	n/a	2	n/a	n/a	n/a	n/a	44.144	n/a
16.207	0.497	happy	Picture	91.552	n/a	1	1	7	n/a	7	42	2	n/a	n/a	n/a	n/a	44.675	AF03HAS.jpg
16.704	0.514	Blank	Blank	91.039	n/a	1	1	7	n/a	7	n/a	2	n/a	n/a	n/a	n/a	45.172	n/a
17.234	0.497	happy	Picture	90.525	n/a	1	1	8	n/a	8	55	2	n/a	n/a	n/a	n/a	45.703	AF25HAS.jpg
17.732	0.514	Blank	Blank	90.011	n/a	1	1	8	n/a	8	n/a	2	n/a	n/a	n/a	n/a	46.2	n/a
18.262	0.497	happy	Picture	89.497	n/a	1	1	9	n/a	9	72	2	n/a	n/a	n/a	n/a	46.73	AM14HAS.jpg
18.76	0.514	Blank	Blank	88.983	n/a	1	1	9	n/a	9	n/a	2	n/a	n/a	n/a	n/a	47.228	n/a
19.29	0.497	happy	Picture	88.469	n/a	1	1	10	n/a	10	63	2	n/a	n/a	n/a	n/a	47.758	AM04HAS.jpg
19.787	0.514	Blank	Blank	87.955	n/a	1	1	10	n/a	10	n/a	2	n/a	n/a	n/a	n/a	48.256	n/a
20.318	0.497	happy	Picture	87.441	n/a	1	1	11	n/a	11	58	2	n/a	n/a	n/a	n/a	48.786	BF29HAS.jpg
20.815	0.514	Blank	Blank	86.927	n/a	1	1	11	n/a	11	n/a	2	n/a	n/a	n/a	n/a	49.284	n/a
21.346	0.497	happy	Picture	86.413	n/a	1	1	12	n/a	12	48	2	n/a	n/a	n/a	n/a	49.814	AF14HAS.jpg
21.843	0.514	Blank	Blank	85.899	n/a	1	1	12	n/a	12	n/a	2	n/a	n/a	n/a	n/a	50.312	n/a
22.374	0.497	happy	Picture	85.385	n/a	1	1	13	n/a	13	66	2	n/a	n/a	n/a	n/a	50.842	BM07HAS.jpg
22.871	0.514	Blank	Blank	84.871	n/a	1	1	13	n/a	13	n/a	2	n/a	n/a	n/a	n/a	51.339	n/a
23.402	0.497	happy	Picture	84.357	n/a	1	1	14	n/a	14	70	2	n/a	n/a	n/a	n/a	51.87	BM11HAS.jpg
23.899	0.514	Blank	Blank	83.843	n/a	1	1	14	n/a	14	n/a	2	n/a	n/a	n/a	n/a	52.367	n/a
24.43	0.497	happy	Picture	83.329	n/a	1	1	15	n/a	15	43	2	n/a	n/a	n/a	n/a	52.898	BF04HAS.jpg
24.927	0.514	Blank	Blank	82.815	n/a	1	1	15	n/a	15	n/a	2	n/a	n/a	n/a	n/a	53.395	n/a
25.457	0.497	happy	Picture	82.301	n/a	1	1	16	n/a	16	49	2	n/a	n/a	n/a	n/a	53.926	AF17HAS.jpg
25.955	0.514	Blank	Blank	81.788	n/a	1	1	16	n/a	16	n/a	2	n/a	n/a	n/a	n/a	54.423	n/a
26.485	0.497	happy	Picture	81.274	n/a	1	1	17	n/a	17	75	2	n/a	n/a	n/a	n/a	54.954	AM23HAS.jpg
26.983	0.514	Blank	Blank	80.76	n/a	1	1	17	n/a	17	n/a	2	n/a	n/a	n/a	n/a	55.451	n/a
27.513	0.497	happy	Picture	80.246	n/a	1	1	18	n/a	18	80	2	n/a	n/a	n/a	n/a	55.981	BM35HAS.jpg
28.011	0.514	Blank	Blank	79.732	n/a	1	1	18	n/a	18	n/a	2	n/a	n/a	n/a	n/a	56.479	n/a
28.541	0.497	happy	Picture	79.218	n/a	1	1	19	n/a	19	76	2	n/a	n/a	n/a	n/a	57.009	BM24HAS.jpg
29.039	0.514	Blank	Blank	78.704	n/a	1	1	19	n/a	19	n/a	2	n/a	n/a	n/a	n/a	57.507	n/a
29.569	0.497	happy	Picture	78.19	n/a	1	1	20	n/a	20	74	2	n/a	n/a	n/a	n/a	58.037	AM22HAS.jpg
30.066	0.514	Blank	Blank	77.676	n/a	1	1	20	n/a	20	n/a	2	n/a	n/a	n/a	n/a	58.535	n/a
30.597	10.014	ITI	Fixation+	67.646	n/a	1	n/a	n/a	n/a	n/a	n/a	n/a	n/a	n/a	n/a	n/a	59.065	n/a
40.627	0.497	neutral	Picture	67.132	n/a	1	2	1	n/a	21	33	1	n/a	n/a	n/a	n/a	69.095	AM21NES.jpg
41.124	0.514	Blank	Blank	66.618	n/a	1	2	1	n/a	21	n/a	1	n/a	n/a	n/a	n/a	69.593	n/a
41.655	0.497	neutral	Picture	66.104	n/a	1	2	2	n/a	22	39	1	n/a	n/a	n/a	n/a	70.123	AM28NES.jpg
42.152	0.514	Blank	Blank	65.59	n/a	1	2	2	n/a	22	n/a	1	n/a	n/a	n/a	n/a	70.621	n/a
42.683	0.497	neutral	Picture	65.076	n/a	1	2	3	n/a	23	25	1	n/a	n/a	n/a	n/a	71.151	BM06NES.jpg
43.18	0.514	Blank	Blank	64.562	n/a	1	2	3	n/a	23	n/a	1	n/a	n/a	n/a	n/a	71.648	n/a
43.711	0.497	neutral	Picture	64.048	n/a	1	2	4	n/a	24	5	1	n/a	n/a	n/a	n/a	72.179	BF07NES.jpg
44.208	0.514	Blank	Blank	63.534	n/a	1	2	4	n/a	24	n/a	1	n/a	n/a	n/a	n/a	72.676	n/a
44.739	0.497	neutral	Picture	63.02	n/a	1	2	5	n/a	25	10	1	n/a	n/a	n/a	n/a	73.207	AF18NES.jpg
45.236	0.514	Blank	Blank	62.506	n/a	1	2	5	n/a	25	n/a	1	n/a	n/a	n/a	n/a	73.704	n/a
45.767	0.497	neutral	Picture	61.992	n/a	1	2	6	n/a	26	34	1	n/a	n/a	n/a	n/a	74.235	AM22NES.jpg
46.264	0.514	Blank	Blank	61.478	n/a	1	2	6	n/a	26	n/a	1	n/a	n/a	n/a	n/a	74.732	n/a
46.794	0.497	neutral	Picture	60.964	n/a	1	2	7	n/a	27	36	1	n/a	n/a	n/a	n/a	75.263	BM24NES.jpg
47.292	0.514	Blank	Blank	60.451	n/a	1	2	7	n/a	27	n/a	1	n/a	n/a	n/a	n/a	75.76	n/a
47.822	0.497	neutral	Picture	59.937	n/a	1	2	8	n/a	28	14	1	n/a	n/a	n/a	n/a	76.291	AF23NES.jpg
48.32	0.514	Blank	Blank	59.423	n/a	1	2	8	n/a	28	n/a	1	n/a	n/a	n/a	n/a	76.788	n/a
48.85	0.497	neutral	Picture	58.909	n/a	1	2	9	n/a	29	9	1	n/a	n/a	n/a	n/a	77.319	AF17NES.jpg
49.348	0.514	Blank	Blank	58.395	n/a	1	2	9	n/a	29	n/a	1	n/a	n/a	n/a	n/a	77.816	n/a
49.878	0.497	neutral	Picture	57.881	n/a	1	2	10	n/a	30	19	1	n/a	n/a	n/a	n/a	78.346	AF31NES.jpg
50.376	0.514	Blank	Blank	57.367	n/a	1	2	10	n/a	30	n/a	1	n/a	n/a	n/a	n/a	78.844	n/a
50.906	0.497	neutral	Picture	56.853	n/a	1	2	11	n/a	31	15	1	n/a	n/a	n/a	n/a	79.374	AF25NES.jpg
51.403	0.514	Blank	Blank	56.339	n/a	1	2	11	n/a	31	n/a	1	n/a	n/a	n/a	n/a	79.872	n/a
51.934	0.497	neutral	Picture	55.825	n/a	1	2	12	n/a	32	22	1	n/a	n/a	n/a	n/a	80.402	BM03NES.jpg
52.431	0.514	Blank	Blank	55.311	n/a	1	2	12	n/a	32	n/a	1	n/a	n/a	n/a	n/a	80.9	n/a
52.962	0.497	neutral	Picture	54.797	n/a	1	2	13	n/a	33	11	1	n/a	n/a	n/a	n/a	81.43	AF20NES.jpg
53.459	0.514	Blank	Blank	54.283	n/a	1	2	13	n/a	33	n/a	1	n/a	n/a	n/a	n/a	81.927	n/a
53.99	0.497	neutral	Picture	53.769	n/a	1	2	14	n/a	34	4	1	n/a	n/a	n/a	n/a	82.458	AF05NES.jpg
54.487	0.514	Blank	Blank	53.255	n/a	1	2	14	n/a	34	n/a	1	n/a	n/a	n/a	n/a	82.955	n/a
55.018	0.497	neutral	Picture	52.741	n/a	1	2	15	n/a	35	17	1	n/a	n/a	n/a	n/a	83.486	BF28NES.jpg
55.515	0.514	Blank	Blank	52.227	n/a	1	2	15	n/a	35	n/a	1	n/a	n/a	n/a	n/a	83.983	n/a
56.046	0.497	neutral	Picture	51.713	n/a	1	2	16	n/a	36	13	1	n/a	n/a	n/a	n/a	84.514	BF22NES.jpg
56.543	0.514	Blank	Blank	51.2	n/a	1	2	16	n/a	36	n/a	1	n/a	n/a	n/a	n/a	85.011	n/a
57.073	0.497	neutral	Picture	50.686	n/a	1	2	17	n/a	37	12	1	n/a	n/a	n/a	n/a	85.542	AF21NES.jpg
57.571	0.514	Blank	Blank	50.172	n/a	1	2	17	n/a	37	n/a	1	n/a	n/a	n/a	n/a	86.039	n/a
58.101	0.497	neutral	Picture	49.658	n/a	1	2	18	n/a	38	24	1	n/a	n/a	n/a	n/a	86.57	BM05NES.jpg
58.599	0.514	Blank	Blank	49.144	n/a	1	2	18	n/a	38	n/a	1	n/a	n/a	n/a	n/a	87.067	n/a
59.129	0.497	neutral	Picture	48.63	n/a	1	2	19	n/a	39	29	1	n/a	n/a	n/a	n/a	87.597	AM10NES.jpg
59.627	0.514	Blank	Blank	48.116	n/a	1	2	19	n/a	39	n/a	1	n/a	n/a	n/a	n/a	88.095	n/a
60.157	0.497	neutral	Picture	47.602	n/a	1	2	20	n/a	40	23	1	n/a	n/a	n/a	n/a	88.625	AM04NES.jpg
60.654	0.514	Blank	Blank	47.088	n/a	1	2	20	n/a	40	n/a	1	n/a	n/a	n/a	n/a	89.123	n/a
61.185	10.014	ITI	Fixation+	37.058	n/a	1	n/a	n/a	n/a	n/a	n/a	n/a	n/a	n/a	n/a	n/a	89.653	n/a
71.215	0.497	happy	Picture	36.544	n/a	1	3	1	n/a	41	62	2	n/a	n/a	n/a	n/a	99.683	BM03HAS.jpg
71.713	0.514	Blank	Blank	36.03	n/a	1	3	1	n/a	41	n/a	2	n/a	n/a	n/a	n/a	100.181	n/a
72.243	0.497	happy	Picture	35.516	n/a	1	3	2	n/a	42	52	2	n/a	n/a	n/a	n/a	100.711	AF21HAS.jpg
72.74	0.514	Blank	Blank	35.002	n/a	1	3	2	n/a	42	n/a	2	n/a	n/a	n/a	n/a	101.209	n/a
73.271	0.497	happy	Picture	34.488	n/a	1	3	3	n/a	43	44	2	n/a	n/a	n/a	n/a	101.739	AF05HAS.jpg
73.768	0.514	Blank	Blank	33.974	n/a	1	3	3	n/a	43	n/a	2	n/a	n/a	n/a	n/a	102.237	n/a
74.299	0.497	happy	Picture	33.46	n/a	1	3	4	n/a	44	53	2	n/a	n/a	n/a	n/a	102.767	BF22HAS.jpg
74.796	0.514	Blank	Blank	32.946	n/a	1	3	4	n/a	44	n/a	2	n/a	n/a	n/a	n/a	103.264	n/a
75.327	0.497	happy	Picture	32.432	n/a	1	3	5	n/a	45	54	2	n/a	n/a	n/a	n/a	103.795	AF23HAS.jpg
75.824	0.514	Blank	Blank	31.918	n/a	1	3	5	n/a	45	n/a	2	n/a	n/a	n/a	n/a	104.292	n/a
76.355	0.497	happy	Picture	31.404	n/a	1	3	6	n/a	46	68	2	n/a	n/a	n/a	n/a	104.823	AM09HAS.jpg
76.852	0.514	Blank	Blank	30.89	n/a	1	3	6	n/a	46	n/a	2	n/a	n/a	n/a	n/a	105.32	n/a
77.383	0.497	happy	Picture	30.376	n/a	1	3	7	n/a	47	64	2	n/a	n/a	n/a	n/a	105.851	BM05HAS.jpg
77.88	0.514	Blank	Blank	29.862	n/a	1	3	7	n/a	47	n/a	2	n/a	n/a	n/a	n/a	106.348	n/a
78.41	0.497	happy	Picture	29.349	n/a	1	3	8	n/a	48	59	2	n/a	n/a	n/a	n/a	106.879	AF31HAS.jpg
78.908	0.514	Blank	Blank	28.835	n/a	1	3	8	n/a	48	n/a	2	n/a	n/a	n/a	n/a	107.376	n/a
79.438	0.497	happy	Picture	28.321	n/a	1	3	9	n/a	49	41	2	n/a	n/a	n/a	n/a	107.906	AF01HAS.jpg
79.936	0.514	Blank	Blank	27.807	n/a	1	3	9	n/a	49	n/a	2	n/a	n/a	n/a	n/a	108.404	n/a
80.466	0.497	happy	Picture	27.293	n/a	1	3	10	n/a	50	73	2	n/a	n/a	n/a	n/a	108.934	AM21HAS.jpg
80.964	0.514	Blank	Blank	26.779	n/a	1	3	10	n/a	50	n/a	2	n/a	n/a	n/a	n/a	109.432	n/a
81.494	0.497	happy	Picture	26.265	n/a	1	3	11	n/a	51	65	2	n/a	n/a	n/a	n/a	109.962	BM06HAS.jpg
81.992	0.514	Blank	Blank	25.751	n/a	1	3	11	n/a	51	n/a	2	n/a	n/a	n/a	n/a	110.46	n/a
82.522	0.497	happy	Picture	25.237	n/a	1	3	12	n/a	52	56	2	n/a	n/a	n/a	n/a	110.99	AF26HAS.jpg
83.019	0.514	Blank	Blank	24.723	n/a	1	3	12	n/a	52	n/a	2	n/a	n/a	n/a	n/a	111.488	n/a
83.55	0.497	happy	Picture	24.209	n/a	1	3	13	n/a	53	45	2	n/a	n/a	n/a	n/a	112.018	BF07HAS.jpg
84.047	0.514	Blank	Blank	23.695	n/a	1	3	13	n/a	53	n/a	2	n/a	n/a	n/a	n/a	112.515	n/a
84.578	0.497	happy	Picture	23.181	n/a	1	3	14	n/a	54	78	2	n/a	n/a	n/a	n/a	113.046	BM26HAS.jpg
85.075	0.514	Blank	Blank	22.667	n/a	1	3	14	n/a	54	n/a	2	n/a	n/a	n/a	n/a	113.543	n/a
85.606	0.497	happy	Picture	22.153	n/a	1	3	15	n/a	55	50	2	n/a	n/a	n/a	n/a	114.074	AF18HAS.jpg
86.103	0.514	Blank	Blank	21.639	n/a	1	3	15	n/a	55	n/a	2	n/a	n/a	n/a	n/a	114.571	n/a
86.633	0.497	happy	Picture	21.125	n/a	1	3	16	n/a	56	47	2	n/a	n/a	n/a	n/a	115.102	BF11HAS.jpg
87.131	0.514	Blank	Blank	20.611	n/a	1	3	16	n/a	56	n/a	2	n/a	n/a	n/a	n/a	115.599	n/a
87.661	0.497	happy	Picture	20.098	n/a	1	3	17	n/a	57	77	2	n/a	n/a	n/a	n/a	116.13	BM25HAS.jpg
88.159	0.514	Blank	Blank	19.584	n/a	1	3	17	n/a	57	n/a	2	n/a	n/a	n/a	n/a	116.627	n/a
88.689	0.497	happy	Picture	19.07	n/a	1	3	18	n/a	58	57	2	n/a	n/a	n/a	n/a	117.157	BF28HAS.jpg
89.187	0.514	Blank	Blank	18.556	n/a	1	3	18	n/a	58	n/a	2	n/a	n/a	n/a	n/a	117.655	n/a
89.717	0.497	happy	Picture	18.042	n/a	1	3	19	n/a	59	61	2	n/a	n/a	n/a	n/a	118.185	AM01HAS.jpg
90.215	0.514	Blank	Blank	17.528	n/a	1	3	19	n/a	59	n/a	2	n/a	n/a	n/a	n/a	118.683	n/a
90.745	0.497	happy	Picture	17.014	n/a	1	3	20	n/a	60	79	2	n/a	n/a	n/a	n/a	119.213	BM28HAS.jpg
91.243	0.514	Blank	Blank	16.5	n/a	1	3	20	n/a	60	n/a	2	n/a	n/a	n/a	n/a	119.711	n/a
91.773	10.014	ITI	Fixation+	6.47	n/a	1	n/a	n/a	n/a	n/a	n/a	n/a	n/a	n/a	n/a	n/a	120.241	n/a
108.256	n/a	ConfirmRating	Rate	n/a	6.449	1	n/a	n/a	0	n/a	n/a	n/a	2	Happy	83	53	136.725	n/a
113.667	n/a	ConfirmRating	Rate	n/a	5.388	1	n/a	n/a	1	n/a	n/a	n/a	3	Happy	0	44	142.135	n/a
113.69	10.014	ITI	Fixation+	97.305	n/a	2	n/a	n/a	n/a	n/a	n/a	n/a	n/a	n/a	n/a	n/a	142.159	n/a
123.721	0.497	angry	Picture	96.791	n/a	2	4	1	n/a	61	119	3	n/a	n/a	n/a	n/a	152.189	BM28ANS.jpg
124.218	0.514	Blank	Blank	96.277	n/a	2	4	1	n/a	61	n/a	3	n/a	n/a	n/a	n/a	152.686	n/a
124.748	0.497	angry	Picture	95.763	n/a	2	4	2	n/a	62	100	3	n/a	n/a	n/a	n/a	153.217	AF32ANS.jpg
125.246	0.514	Blank	Blank	95.249	n/a	2	4	2	n/a	62	n/a	3	n/a	n/a	n/a	n/a	153.714	n/a
125.776	0.497	angry	Picture	94.736	n/a	2	4	3	n/a	63	118	3	n/a	n/a	n/a	n/a	154.244	BM26ANS.jpg
126.274	0.514	Blank	Blank	94.222	n/a	2	4	3	n/a	63	n/a	3	n/a	n/a	n/a	n/a	154.742	n/a
126.804	0.497	angry	Picture	93.708	n/a	2	4	4	n/a	64	89	3	n/a	n/a	n/a	n/a	155.272	AF17ANS.jpg
127.302	0.514	Blank	Blank	93.194	n/a	2	4	4	n/a	64	n/a	3	n/a	n/a	n/a	n/a	155.77	n/a
127.832	0.497	angry	Picture	92.68	n/a	2	4	5	n/a	65	116	3	n/a	n/a	n/a	n/a	156.3	BM24ANS.jpg
128.329	0.514	Blank	Blank	92.166	n/a	2	4	5	n/a	65	n/a	3	n/a	n/a	n/a	n/a	156.798	n/a
128.86	0.497	angry	Picture	91.652	n/a	2	4	6	n/a	66	105	3	n/a	n/a	n/a	n/a	157.328	BM06ANS.jpg
129.357	0.514	Blank	Blank	91.138	n/a	2	4	6	n/a	66	n/a	3	n/a	n/a	n/a	n/a	157.826	n/a
129.888	0.497	angry	Picture	90.624	n/a	2	4	7	n/a	67	106	3	n/a	n/a	n/a	n/a	158.356	AM07ANS.jpg
130.385	0.514	Blank	Blank	90.11	n/a	2	4	7	n/a	67	n/a	3	n/a	n/a	n/a	n/a	158.853	n/a
130.916	0.497	angry	Picture	89.596	n/a	2	4	8	n/a	68	94	3	n/a	n/a	n/a	n/a	159.384	AF23ANS.jpg
131.413	0.514	Blank	Blank	89.082	n/a	2	4	8	n/a	68	n/a	3	n/a	n/a	n/a	n/a	159.881	n/a
131.944	0.497	angry	Picture	88.568	n/a	2	4	9	n/a	69	117	3	n/a	n/a	n/a	n/a	160.412	BM25ANS.jpg
132.441	0.514	Blank	Blank	88.054	n/a	2	4	9	n/a	69	n/a	3	n/a	n/a	n/a	n/a	160.909	n/a
132.971	0.497	angry	Picture	87.54	n/a	2	4	10	n/a	70	90	3	n/a	n/a	n/a	n/a	161.44	AF18ANS.jpg
133.469	0.514	Blank	Blank	87.026	n/a	2	4	10	n/a	70	n/a	3	n/a	n/a	n/a	n/a	161.937	n/a
133.999	0.497	angry	Picture	86.512	n/a	2	4	11	n/a	71	83	3	n/a	n/a	n/a	n/a	162.468	BF04ANS.jpg
134.497	0.514	Blank	Blank	85.998	n/a	2	4	11	n/a	71	n/a	3	n/a	n/a	n/a	n/a	162.965	n/a
135.027	0.497	angry	Picture	85.485	n/a	2	4	12	n/a	72	112	3	n/a	n/a	n/a	n/a	163.495	AM14ANS.jpg
135.525	0.514	Blank	Blank	84.971	n/a	2	4	12	n/a	72	n/a	3	n/a	n/a	n/a	n/a	163.993	n/a
136.055	0.497	angry	Picture	84.457	n/a	2	4	13	n/a	73	102	3	n/a	n/a	n/a	n/a	164.523	BM03ANS.jpg
136.553	0.514	Blank	Blank	83.943	n/a	2	4	13	n/a	73	n/a	3	n/a	n/a	n/a	n/a	165.021	n/a
137.083	0.497	angry	Picture	83.429	n/a	2	4	14	n/a	74	95	3	n/a	n/a	n/a	n/a	165.551	AF25ANS.jpg
137.58	0.514	Blank	Blank	82.915	n/a	2	4	14	n/a	74	n/a	3	n/a	n/a	n/a	n/a	166.049	n/a
138.111	0.497	angry	Picture	82.401	n/a	2	4	15	n/a	75	113	3	n/a	n/a	n/a	n/a	166.579	AM21ANS.jpg
138.608	0.514	Blank	Blank	81.887	n/a	2	4	15	n/a	75	n/a	3	n/a	n/a	n/a	n/a	167.077	n/a
139.139	0.497	angry	Picture	81.373	n/a	2	4	16	n/a	76	88	3	n/a	n/a	n/a	n/a	167.607	AF14ANS.jpg
139.636	0.514	Blank	Blank	80.859	n/a	2	4	16	n/a	76	n/a	3	n/a	n/a	n/a	n/a	168.104	n/a
140.167	0.497	angry	Picture	80.345	n/a	2	4	17	n/a	77	93	3	n/a	n/a	n/a	n/a	168.635	BF22ANS.jpg
140.664	0.514	Blank	Blank	79.831	n/a	2	4	17	n/a	77	n/a	3	n/a	n/a	n/a	n/a	169.132	n/a
141.195	0.497	angry	Picture	79.317	n/a	2	4	18	n/a	78	86	3	n/a	n/a	n/a	n/a	169.663	AF09ANS.jpg
141.692	0.514	Blank	Blank	78.803	n/a	2	4	18	n/a	78	n/a	3	n/a	n/a	n/a	n/a	170.16	n/a
142.222	0.497	angry	Picture	78.289	n/a	2	4	19	n/a	79	92	3	n/a	n/a	n/a	n/a	170.691	AF21ANS.jpg
142.72	0.514	Blank	Blank	77.775	n/a	2	4	19	n/a	79	n/a	3	n/a	n/a	n/a	n/a	171.188	n/a
143.25	0.497	angry	Picture	77.261	n/a	2	4	20	n/a	80	84	3	n/a	n/a	n/a	n/a	171.719	AF05ANS.jpg
143.748	0.514	Blank	Blank	76.747	n/a	2	4	20	n/a	80	n/a	3	n/a	n/a	n/a	n/a	172.216	n/a
144.278	10.014	ITI	Fixation+	66.717	n/a	2	n/a	n/a	n/a	n/a	n/a	n/a	n/a	n/a	n/a	n/a	172.746	n/a
154.309	0.497	neutral	Picture	66.203	n/a	2	5	1	n/a	81	4	1	n/a	n/a	n/a	n/a	182.777	AF05NES.jpg
154.806	0.514	Blank	Blank	65.689	n/a	2	5	1	n/a	81	n/a	1	n/a	n/a	n/a	n/a	183.274	n/a
155.336	0.497	neutral	Picture	65.175	n/a	2	5	2	n/a	82	14	1	n/a	n/a	n/a	n/a	183.805	AF23NES.jpg
155.834	0.514	Blank	Blank	64.661	n/a	2	5	2	n/a	82	n/a	1	n/a	n/a	n/a	n/a	184.302	n/a
156.364	0.497	neutral	Picture	64.148	n/a	2	5	3	n/a	83	19	1	n/a	n/a	n/a	n/a	184.833	AF31NES.jpg
156.862	0.514	Blank	Blank	63.633	n/a	2	5	3	n/a	83	n/a	1	n/a	n/a	n/a	n/a	185.33	n/a
157.392	0.497	neutral	Picture	63.12	n/a	2	5	4	n/a	84	8	1	n/a	n/a	n/a	n/a	185.86	AF14NES.jpg
157.889	0.514	Blank	Blank	62.606	n/a	2	5	4	n/a	84	n/a	1	n/a	n/a	n/a	n/a	186.358	n/a
158.42	0.497	neutral	Picture	62.092	n/a	2	5	5	n/a	85	25	1	n/a	n/a	n/a	n/a	186.888	BM06NES.jpg
158.917	0.514	Blank	Blank	61.578	n/a	2	5	5	n/a	85	n/a	1	n/a	n/a	n/a	n/a	187.386	n/a
159.448	0.497	neutral	Picture	61.064	n/a	2	5	6	n/a	86	9	1	n/a	n/a	n/a	n/a	187.916	AF17NES.jpg
159.945	0.514	Blank	Blank	60.55	n/a	2	5	6	n/a	86	n/a	1	n/a	n/a	n/a	n/a	188.413	n/a
160.476	0.497	neutral	Picture	60.036	n/a	2	5	7	n/a	87	2	1	n/a	n/a	n/a	n/a	188.944	AF03NES.jpg
160.973	0.514	Blank	Blank	59.522	n/a	2	5	7	n/a	87	n/a	1	n/a	n/a	n/a	n/a	189.441	n/a
161.504	0.497	neutral	Picture	59.008	n/a	2	5	8	n/a	88	17	1	n/a	n/a	n/a	n/a	189.972	BF28NES.jpg
162.001	0.514	Blank	Blank	58.494	n/a	2	5	8	n/a	88	n/a	1	n/a	n/a	n/a	n/a	190.469	n/a
162.532	0.497	neutral	Picture	57.98	n/a	2	5	9	n/a	89	6	1	n/a	n/a	n/a	n/a	191.0	AF09NES.jpg
163.029	0.514	Blank	Blank	57.466	n/a	2	5	9	n/a	89	n/a	1	n/a	n/a	n/a	n/a	191.497	n/a
163.56	0.497	neutral	Picture	56.952	n/a	2	5	10	n/a	90	12	1	n/a	n/a	n/a	n/a	192.028	AF21NES.jpg
164.057	0.514	Blank	Blank	56.438	n/a	2	5	10	n/a	90	n/a	1	n/a	n/a	n/a	n/a	192.525	n/a
164.587	0.497	neutral	Picture	55.924	n/a	2	5	11	n/a	91	24	1	n/a	n/a	n/a	n/a	193.056	BM05NES.jpg
165.085	0.514	Blank	Blank	55.41	n/a	2	5	11	n/a	91	n/a	1	n/a	n/a	n/a	n/a	193.553	n/a
165.615	0.497	neutral	Picture	54.896	n/a	2	5	12	n/a	92	34	1	n/a	n/a	n/a	n/a	194.083	AM22NES.jpg
166.113	0.514	Blank	Blank	54.382	n/a	2	5	12	n/a	92	n/a	1	n/a	n/a	n/a	n/a	194.581	n/a
166.643	0.497	neutral	Picture	53.869	n/a	2	5	13	n/a	93	23	1	n/a	n/a	n/a	n/a	195.111	AM04NES.jpg
167.141	0.514	Blank	Blank	53.355	n/a	2	5	13	n/a	93	n/a	1	n/a	n/a	n/a	n/a	195.609	n/a
167.671	0.497	neutral	Picture	52.841	n/a	2	5	14	n/a	94	15	1	n/a	n/a	n/a	n/a	196.139	AF25NES.jpg
168.168	0.514	Blank	Blank	52.327	n/a	2	5	14	n/a	94	n/a	1	n/a	n/a	n/a	n/a	196.637	n/a
168.699	0.497	neutral	Picture	51.813	n/a	2	5	15	n/a	95	37	1	n/a	n/a	n/a	n/a	197.167	BM25NES.jpg
169.196	0.514	Blank	Blank	51.299	n/a	2	5	15	n/a	95	n/a	1	n/a	n/a	n/a	n/a	197.665	n/a
169.727	0.497	neutral	Picture	50.785	n/a	2	5	16	n/a	96	32	1	n/a	n/a	n/a	n/a	198.195	AM14NES.jpg
170.224	0.514	Blank	Blank	50.271	n/a	2	5	16	n/a	96	n/a	1	n/a	n/a	n/a	n/a	198.692	n/a
170.755	0.497	neutral	Picture	49.757	n/a	2	5	17	n/a	97	3	1	n/a	n/a	n/a	n/a	199.223	BF04NES.jpg
171.252	0.514	Blank	Blank	49.243	n/a	2	5	17	n/a	97	n/a	1	n/a	n/a	n/a	n/a	199.72	n/a
171.783	0.497	neutral	Picture	48.729	n/a	2	5	18	n/a	98	16	1	n/a	n/a	n/a	n/a	200.251	AF26NES.jpg
172.28	0.514	Blank	Blank	48.215	n/a	2	5	18	n/a	98	n/a	1	n/a	n/a	n/a	n/a	200.748	n/a
172.81	0.497	neutral	Picture	47.701	n/a	2	5	19	n/a	99	27	1	n/a	n/a	n/a	n/a	201.279	BM08NES.jpg
173.308	0.514	Blank	Blank	47.187	n/a	2	5	19	n/a	99	n/a	1	n/a	n/a	n/a	n/a	201.776	n/a
173.838	0.497	neutral	Picture	46.673	n/a	2	5	20	n/a	100	28	1	n/a	n/a	n/a	n/a	202.307	AM09NES.jpg
174.336	0.514	Blank	Blank	46.159	n/a	2	5	20	n/a	100	n/a	1	n/a	n/a	n/a	n/a	202.804	n/a
174.866	10.014	ITI	Fixation+	36.129	n/a	2	n/a	n/a	n/a	n/a	n/a	n/a	n/a	n/a	n/a	n/a	203.334	n/a
184.897	0.497	angry	Picture	35.615	n/a	2	6	1	n/a	101	81	3	n/a	n/a	n/a	n/a	213.365	AF01ANS.jpg
185.394	0.514	Blank	Blank	35.101	n/a	2	6	1	n/a	101	n/a	3	n/a	n/a	n/a	n/a	213.862	n/a
185.924	0.497	angry	Picture	34.587	n/a	2	6	2	n/a	102	120	3	n/a	n/a	n/a	n/a	214.393	AM35ANS.jpg
186.422	0.514	Blank	Blank	34.073	n/a	2	6	2	n/a	102	n/a	3	n/a	n/a	n/a	n/a	214.89	n/a
186.952	0.497	angry	Picture	33.559	n/a	2	6	3	n/a	103	114	3	n/a	n/a	n/a	n/a	215.421	AM22ANS.jpg
187.45	0.514	Blank	Blank	33.046	n/a	2	6	3	n/a	103	n/a	3	n/a	n/a	n/a	n/a	215.918	n/a
187.98	0.497	angry	Picture	32.532	n/a	2	6	4	n/a	104	109	3	n/a	n/a	n/a	n/a	216.448	AM10ANS.jpg
188.478	0.514	Blank	Blank	32.018	n/a	2	6	4	n/a	104	n/a	3	n/a	n/a	n/a	n/a	216.946	n/a
189.008	0.497	angry	Picture	31.504	n/a	2	6	5	n/a	105	96	3	n/a	n/a	n/a	n/a	217.476	AF26ANS.jpg
189.505	0.514	Blank	Blank	30.99	n/a	2	6	5	n/a	105	n/a	3	n/a	n/a	n/a	n/a	217.974	n/a
190.036	0.497	angry	Picture	30.476	n/a	2	6	6	n/a	106	82	3	n/a	n/a	n/a	n/a	218.504	AF03ANS.jpg
190.533	0.514	Blank	Blank	29.962	n/a	2	6	6	n/a	106	n/a	3	n/a	n/a	n/a	n/a	219.001	n/a
191.064	0.497	angry	Picture	29.448	n/a	2	6	7	n/a	107	97	3	n/a	n/a	n/a	n/a	219.532	BF28ANS.jpg
191.561	0.514	Blank	Blank	28.934	n/a	2	6	7	n/a	107	n/a	3	n/a	n/a	n/a	n/a	220.029	n/a
192.092	0.497	angry	Picture	28.42	n/a	2	6	8	n/a	108	115	3	n/a	n/a	n/a	n/a	220.56	AM23ANS.jpg
192.589	0.514	Blank	Blank	27.906	n/a	2	6	8	n/a	108	n/a	3	n/a	n/a	n/a	n/a	221.057	n/a
193.12	0.497	angry	Picture	27.392	n/a	2	6	9	n/a	109	91	3	n/a	n/a	n/a	n/a	221.588	AF20ANS.jpg
193.617	0.514	Blank	Blank	26.878	n/a	2	6	9	n/a	109	n/a	3	n/a	n/a	n/a	n/a	222.085	n/a
194.148	0.497	angry	Picture	26.364	n/a	2	6	10	n/a	110	87	3	n/a	n/a	n/a	n/a	222.616	BF11ANS.jpg
194.645	0.514	Blank	Blank	25.85	n/a	2	6	10	n/a	110	n/a	3	n/a	n/a	n/a	n/a	223.113	n/a
195.175	0.497	angry	Picture	25.336	n/a	2	6	11	n/a	111	85	3	n/a	n/a	n/a	n/a	223.644	BF07ANS.jpg
195.673	0.514	Blank	Blank	24.822	n/a	2	6	11	n/a	111	n/a	3	n/a	n/a	n/a	n/a	224.141	n/a
196.203	0.497	angry	Picture	24.308	n/a	2	6	12	n/a	112	110	3	n/a	n/a	n/a	n/a	224.672	AM11ANS.jpg
196.701	0.514	Blank	Blank	23.794	n/a	2	6	12	n/a	112	n/a	3	n/a	n/a	n/a	n/a	225.169	n/a
197.231	0.497	angry	Picture	23.281	n/a	2	6	13	n/a	113	111	3	n/a	n/a	n/a	n/a	225.699	BM12ANS.jpg
197.729	0.514	Blank	Blank	22.767	n/a	2	6	13	n/a	113	n/a	3	n/a	n/a	n/a	n/a	226.197	n/a
198.259	0.497	angry	Picture	22.253	n/a	2	6	14	n/a	114	103	3	n/a	n/a	n/a	n/a	226.727	AM04ANS.jpg
198.757	0.514	Blank	Blank	21.739	n/a	2	6	14	n/a	114	n/a	3	n/a	n/a	n/a	n/a	227.225	n/a
199.287	0.497	angry	Picture	21.225	n/a	2	6	15	n/a	115	101	3	n/a	n/a	n/a	n/a	227.755	AM01ANS.jpg
199.784	0.514	Blank	Blank	20.711	n/a	2	6	15	n/a	115	n/a	3	n/a	n/a	n/a	n/a	228.252	n/a
200.315	0.497	angry	Picture	20.197	n/a	2	6	16	n/a	116	104	3	n/a	n/a	n/a	n/a	228.783	BM05ANS.jpg
200.812	0.514	Blank	Blank	19.683	n/a	2	6	16	n/a	116	n/a	3	n/a	n/a	n/a	n/a	229.28	n/a
201.343	0.497	angry	Picture	19.169	n/a	2	6	17	n/a	117	107	3	n/a	n/a	n/a	n/a	229.811	BM08ANS.jpg
201.84	0.514	Blank	Blank	18.655	n/a	2	6	17	n/a	117	n/a	3	n/a	n/a	n/a	n/a	230.308	n/a
202.371	0.497	angry	Picture	18.141	n/a	2	6	18	n/a	118	98	3	n/a	n/a	n/a	n/a	230.839	BF29ANS.jpg
202.868	0.514	Blank	Blank	17.627	n/a	2	6	18	n/a	118	n/a	3	n/a	n/a	n/a	n/a	231.336	n/a
203.399	0.497	angry	Picture	17.113	n/a	2	6	19	n/a	119	99	3	n/a	n/a	n/a	n/a	231.867	AF31ANS.jpg
203.896	0.514	Blank	Blank	16.599	n/a	2	6	19	n/a	119	n/a	3	n/a	n/a	n/a	n/a	232.364	n/a
204.426	0.497	angry	Picture	16.085	n/a	2	6	20	n/a	120	108	3	n/a	n/a	n/a	n/a	232.895	AM09ANS.jpg
204.924	0.514	Blank	Blank	15.571	n/a	2	6	20	n/a	120	n/a	3	n/a	n/a	n/a	n/a	233.392	n/a
205.454	10.014	ITI	Fixation+	5.541	n/a	2	n/a	n/a	n/a	n/a	n/a	n/a	n/a	n/a	n/a	n/a	233.923	n/a
221.009	n/a	ConfirmRating	Rate	n/a	5.538	2	n/a	n/a	0	n/a	n/a	n/a	2	Angry	77	52	249.477	n/a
226.793	n/a	ConfirmRating	Rate	n/a	5.77	2	n/a	n/a	1	n/a	n/a	n/a	3	Angry	5	45	255.261	n/a
226.825	15.004	Rest	Picture	n/a	n/a	n/a	n/a	n/a	n/a	n/a	n/a	n/a	0	n/a	0	0	255.293	n/a
241.845	10.014	ITI	Fixation+	100.743	n/a	3	n/a	n/a	n/a	n/a	n/a	n/a	n/a	n/a	n/a	n/a	270.313	n/a
251.875	0.497	happy	Picture	100.229	n/a	3	7	1	n/a	1	46	2	n/a	n/a	n/a	n/a	280.343	AF09HAS.jpg
252.373	0.514	Blank	Blank	99.715	n/a	3	7	1	n/a	1	n/a	2	n/a	n/a	n/a	n/a	280.841	n/a
252.903	0.497	happy	Picture	99.201	n/a	3	7	2	n/a	2	69	2	n/a	n/a	n/a	n/a	281.371	AM10HAS.jpg
253.4	0.514	Blank	Blank	98.687	n/a	3	7	2	n/a	2	n/a	2	n/a	n/a	n/a	n/a	281.869	n/a
253.931	0.497	happy	Picture	98.173	n/a	3	7	3	n/a	3	71	2	n/a	n/a	n/a	n/a	282.399	BM12HAS.jpg
254.428	0.514	Blank	Blank	97.659	n/a	3	7	3	n/a	3	n/a	2	n/a	n/a	n/a	n/a	282.897	n/a
254.959	0.497	happy	Picture	97.145	n/a	3	7	4	n/a	4	51	2	n/a	n/a	n/a	n/a	283.427	AF20HAS.jpg
255.456	0.514	Blank	Blank	96.632	n/a	3	7	4	n/a	4	n/a	2	n/a	n/a	n/a	n/a	283.924	n/a
255.987	0.497	happy	Picture	96.118	n/a	3	7	5	n/a	5	67	2	n/a	n/a	n/a	n/a	284.455	BM08HAS.jpg
256.484	0.514	Blank	Blank	95.604	n/a	3	7	5	n/a	5	n/a	2	n/a	n/a	n/a	n/a	284.952	n/a
257.015	0.497	happy	Picture	95.09	n/a	3	7	6	n/a	6	60	2	n/a	n/a	n/a	n/a	285.483	AF32HAS.jpg
257.512	0.514	Blank	Blank	94.576	n/a	3	7	6	n/a	6	n/a	2	n/a	n/a	n/a	n/a	285.98	n/a
258.042	0.497	happy	Picture	94.062	n/a	3	7	7	n/a	7	42	2	n/a	n/a	n/a	n/a	286.511	AF03HAS.jpg
258.54	0.514	Blank	Blank	93.548	n/a	3	7	7	n/a	7	n/a	2	n/a	n/a	n/a	n/a	287.008	n/a
259.07	0.497	happy	Picture	93.034	n/a	3	7	8	n/a	8	55	2	n/a	n/a	n/a	n/a	287.539	AF25HAS.jpg
259.568	0.514	Blank	Blank	92.52	n/a	3	7	8	n/a	8	n/a	2	n/a	n/a	n/a	n/a	288.036	n/a
260.098	0.497	happy	Picture	92.006	n/a	3	7	9	n/a	9	72	2	n/a	n/a	n/a	n/a	288.567	AM14HAS.jpg
260.596	0.514	Blank	Blank	91.492	n/a	3	7	9	n/a	9	n/a	2	n/a	n/a	n/a	n/a	289.064	n/a
261.126	0.497	happy	Picture	90.978	n/a	3	7	10	n/a	10	63	2	n/a	n/a	n/a	n/a	289.594	AM04HAS.jpg
261.623	0.514	Blank	Blank	90.464	n/a	3	7	10	n/a	10	n/a	2	n/a	n/a	n/a	n/a	290.092	n/a
262.154	0.497	happy	Picture	89.95	n/a	3	7	11	n/a	11	58	2	n/a	n/a	n/a	n/a	290.622	BF29HAS.jpg
262.651	0.514	Blank	Blank	89.436	n/a	3	7	11	n/a	11	n/a	2	n/a	n/a	n/a	n/a	291.12	n/a
263.182	0.497	happy	Picture	88.922	n/a	3	7	12	n/a	12	48	2	n/a	n/a	n/a	n/a	291.65	AF14HAS.jpg
263.679	0.514	Blank	Blank	88.408	n/a	3	7	12	n/a	12	n/a	2	n/a	n/a	n/a	n/a	292.147	n/a
264.21	0.497	happy	Picture	87.894	n/a	3	7	13	n/a	13	66	2	n/a	n/a	n/a	n/a	292.678	BM07HAS.jpg
264.707	0.514	Blank	Blank	87.381	n/a	3	7	13	n/a	13	n/a	2	n/a	n/a	n/a	n/a	293.175	n/a
265.238	0.497	happy	Picture	86.867	n/a	3	7	14	n/a	14	70	2	n/a	n/a	n/a	n/a	293.706	BM11HAS.jpg
265.735	0.514	Blank	Blank	86.353	n/a	3	7	14	n/a	14	n/a	2	n/a	n/a	n/a	n/a	294.203	n/a
266.266	0.497	happy	Picture	85.839	n/a	3	7	15	n/a	15	43	2	n/a	n/a	n/a	n/a	294.734	BF04HAS.jpg
266.763	0.514	Blank	Blank	85.325	n/a	3	7	15	n/a	15	n/a	2	n/a	n/a	n/a	n/a	295.231	n/a
267.293	0.497	happy	Picture	84.811	n/a	3	7	16	n/a	16	49	2	n/a	n/a	n/a	n/a	295.762	AF17HAS.jpg
267.791	0.514	Blank	Blank	84.297	n/a	3	7	16	n/a	16	n/a	2	n/a	n/a	n/a	n/a	296.259	n/a
268.321	0.497	happy	Picture	83.783	n/a	3	7	17	n/a	17	75	2	n/a	n/a	n/a	n/a	296.79	AM23HAS.jpg
268.819	0.514	Blank	Blank	83.269	n/a	3	7	17	n/a	17	n/a	2	n/a	n/a	n/a	n/a	297.287	n/a
269.349	0.497	happy	Picture	82.755	n/a	3	7	18	n/a	18	80	2	n/a	n/a	n/a	n/a	297.817	BM35HAS.jpg
269.847	0.514	Blank	Blank	82.241	n/a	3	7	18	n/a	18	n/a	2	n/a	n/a	n/a	n/a	298.315	n/a
270.377	0.497	happy	Picture	81.727	n/a	3	7	19	n/a	19	76	2	n/a	n/a	n/a	n/a	298.845	BM24HAS.jpg
270.874	0.514	Blank	Blank	81.213	n/a	3	7	19	n/a	19	n/a	2	n/a	n/a	n/a	n/a	299.343	n/a
271.405	0.497	happy	Picture	80.699	n/a	3	7	20	n/a	20	74	2	n/a	n/a	n/a	n/a	299.873	AM22HAS.jpg
271.902	0.514	Blank	Blank	80.185	n/a	3	7	20	n/a	20	n/a	2	n/a	n/a	n/a	n/a	300.371	n/a
272.433	10.014	ITI	Fixation+	70.155	n/a	3	n/a	n/a	n/a	n/a	n/a	n/a	n/a	n/a	n/a	n/a	300.901	n/a
282.463	0.497	neutral	Picture	69.641	n/a	3	8	1	n/a	21	33	1	n/a	n/a	n/a	n/a	310.931	AM21NES.jpg
282.96	0.514	Blank	Blank	69.127	n/a	3	8	1	n/a	21	n/a	1	n/a	n/a	n/a	n/a	311.429	n/a
283.491	0.497	neutral	Picture	68.613	n/a	3	8	2	n/a	22	39	1	n/a	n/a	n/a	n/a	311.959	AM28NES.jpg
283.988	0.514	Blank	Blank	68.099	n/a	3	8	2	n/a	22	n/a	1	n/a	n/a	n/a	n/a	312.457	n/a
284.519	0.497	neutral	Picture	67.585	n/a	3	8	3	n/a	23	25	1	n/a	n/a	n/a	n/a	312.987	BM06NES.jpg
285.016	0.514	Blank	Blank	67.071	n/a	3	8	3	n/a	23	n/a	1	n/a	n/a	n/a	n/a	313.485	n/a
285.547	0.497	neutral	Picture	66.558	n/a	3	8	4	n/a	24	5	1	n/a	n/a	n/a	n/a	314.015	BF07NES.jpg
286.044	0.514	Blank	Blank	66.043	n/a	3	8	4	n/a	24	n/a	1	n/a	n/a	n/a	n/a	314.512	n/a
286.575	0.497	neutral	Picture	65.53	n/a	3	8	5	n/a	25	10	1	n/a	n/a	n/a	n/a	315.043	AF18NES.jpg
287.072	0.514	Blank	Blank	65.016	n/a	3	8	5	n/a	25	n/a	1	n/a	n/a	n/a	n/a	315.54	n/a
287.603	0.497	neutral	Picture	64.502	n/a	3	8	6	n/a	26	34	1	n/a	n/a	n/a	n/a	316.071	AM22NES.jpg
288.1	0.514	Blank	Blank	63.988	n/a	3	8	6	n/a	26	n/a	1	n/a	n/a	n/a	n/a	316.568	n/a
288.63	0.497	neutral	Picture	63.474	n/a	3	8	7	n/a	27	36	1	n/a	n/a	n/a	n/a	317.099	BM24NES.jpg
289.128	0.514	Blank	Blank	62.96	n/a	3	8	7	n/a	27	n/a	1	n/a	n/a	n/a	n/a	317.596	n/a
289.658	0.497	neutral	Picture	62.446	n/a	3	8	8	n/a	28	14	1	n/a	n/a	n/a	n/a	318.127	AF23NES.jpg
290.156	0.514	Blank	Blank	61.932	n/a	3	8	8	n/a	28	n/a	1	n/a	n/a	n/a	n/a	318.624	n/a
290.686	0.497	neutral	Picture	61.418	n/a	3	8	9	n/a	29	9	1	n/a	n/a	n/a	n/a	319.154	AF17NES.jpg
291.184	0.514	Blank	Blank	60.904	n/a	3	8	9	n/a	29	n/a	1	n/a	n/a	n/a	n/a	319.652	n/a
291.714	0.497	neutral	Picture	60.39	n/a	3	8	10	n/a	30	19	1	n/a	n/a	n/a	n/a	320.182	AF31NES.jpg
292.212	0.514	Blank	Blank	59.876	n/a	3	8	10	n/a	30	n/a	1	n/a	n/a	n/a	n/a	320.68	n/a
292.742	0.497	neutral	Picture	59.362	n/a	3	8	11	n/a	31	15	1	n/a	n/a	n/a	n/a	321.21	AF25NES.jpg
293.239	0.514	Blank	Blank	58.848	n/a	3	8	11	n/a	31	n/a	1	n/a	n/a	n/a	n/a	321.708	n/a
293.77	0.497	neutral	Picture	58.334	n/a	3	8	12	n/a	32	22	1	n/a	n/a	n/a	n/a	322.238	BM03NES.jpg
294.267	0.514	Blank	Blank	57.82	n/a	3	8	12	n/a	32	n/a	1	n/a	n/a	n/a	n/a	322.736	n/a
294.798	0.497	neutral	Picture	57.307	n/a	3	8	13	n/a	33	11	1	n/a	n/a	n/a	n/a	323.266	AF20NES.jpg
295.295	0.514	Blank	Blank	56.793	n/a	3	8	13	n/a	33	n/a	1	n/a	n/a	n/a	n/a	323.763	n/a
295.826	0.497	neutral	Picture	56.279	n/a	3	8	14	n/a	34	4	1	n/a	n/a	n/a	n/a	324.294	AF05NES.jpg
296.323	0.514	Blank	Blank	55.765	n/a	3	8	14	n/a	34	n/a	1	n/a	n/a	n/a	n/a	324.791	n/a
296.854	0.497	neutral	Picture	55.251	n/a	3	8	15	n/a	35	17	1	n/a	n/a	n/a	n/a	325.322	BF28NES.jpg
297.351	0.514	Blank	Blank	54.737	n/a	3	8	15	n/a	35	n/a	1	n/a	n/a	n/a	n/a	325.819	n/a
297.881	0.497	neutral	Picture	54.223	n/a	3	8	16	n/a	36	13	1	n/a	n/a	n/a	n/a	326.35	BF22NES.jpg
298.379	0.514	Blank	Blank	53.709	n/a	3	8	16	n/a	36	n/a	1	n/a	n/a	n/a	n/a	326.847	n/a
298.909	0.497	neutral	Picture	53.195	n/a	3	8	17	n/a	37	12	1	n/a	n/a	n/a	n/a	327.378	AF21NES.jpg
299.407	0.514	Blank	Blank	52.681	n/a	3	8	17	n/a	37	n/a	1	n/a	n/a	n/a	n/a	327.875	n/a
299.937	0.497	neutral	Picture	52.167	n/a	3	8	18	n/a	38	24	1	n/a	n/a	n/a	n/a	328.406	BM05NES.jpg
300.435	0.514	Blank	Blank	51.653	n/a	3	8	18	n/a	38	n/a	1	n/a	n/a	n/a	n/a	328.903	n/a
300.965	0.497	neutral	Picture	51.139	n/a	3	8	19	n/a	39	29	1	n/a	n/a	n/a	n/a	329.433	AM10NES.jpg
301.463	0.514	Blank	Blank	50.625	n/a	3	8	19	n/a	39	n/a	1	n/a	n/a	n/a	n/a	329.931	n/a
301.993	0.497	neutral	Picture	50.111	n/a	3	8	20	n/a	40	23	1	n/a	n/a	n/a	n/a	330.461	AM04NES.jpg
302.49	0.514	Blank	Blank	49.597	n/a	3	8	20	n/a	40	n/a	1	n/a	n/a	n/a	n/a	330.959	n/a
303.021	10.014	ITI	Fixation+	39.567	n/a	3	n/a	n/a	n/a	n/a	n/a	n/a	n/a	n/a	n/a	n/a	331.489	n/a
313.051	0.497	happy	Picture	39.053	n/a	3	9	1	n/a	41	62	2	n/a	n/a	n/a	n/a	341.519	BM03HAS.jpg
313.549	0.514	Blank	Blank	38.539	n/a	3	9	1	n/a	41	n/a	2	n/a	n/a	n/a	n/a	342.017	n/a
314.079	0.497	happy	Picture	38.025	n/a	3	9	2	n/a	42	52	2	n/a	n/a	n/a	n/a	342.547	AF21HAS.jpg
314.576	0.514	Blank	Blank	37.511	n/a	3	9	2	n/a	42	n/a	2	n/a	n/a	n/a	n/a	343.045	n/a
315.107	0.497	happy	Picture	36.997	n/a	3	9	3	n/a	43	44	2	n/a	n/a	n/a	n/a	343.575	AF05HAS.jpg
315.604	0.514	Blank	Blank	36.483	n/a	3	9	3	n/a	43	n/a	2	n/a	n/a	n/a	n/a	344.072	n/a
316.135	0.497	happy	Picture	35.97	n/a	3	9	4	n/a	44	53	2	n/a	n/a	n/a	n/a	344.603	BF22HAS.jpg
316.632	0.514	Blank	Blank	35.456	n/a	3	9	4	n/a	44	n/a	2	n/a	n/a	n/a	n/a	345.1	n/a
317.163	0.497	happy	Picture	34.942	n/a	3	9	5	n/a	45	54	2	n/a	n/a	n/a	n/a	345.631	AF23HAS.jpg
317.66	0.514	Blank	Blank	34.428	n/a	3	9	5	n/a	45	n/a	2	n/a	n/a	n/a	n/a	346.128	n/a
318.191	0.497	happy	Picture	33.914	n/a	3	9	6	n/a	46	68	2	n/a	n/a	n/a	n/a	346.659	AM09HAS.jpg
318.688	0.514	Blank	Blank	33.4	n/a	3	9	6	n/a	46	n/a	2	n/a	n/a	n/a	n/a	347.156	n/a
319.218	0.497	happy	Picture	32.886	n/a	3	9	7	n/a	47	64	2	n/a	n/a	n/a	n/a	347.687	BM05HAS.jpg
319.716	0.514	Blank	Blank	32.372	n/a	3	9	7	n/a	47	n/a	2	n/a	n/a	n/a	n/a	348.184	n/a
320.246	0.497	happy	Picture	31.858	n/a	3	9	8	n/a	48	59	2	n/a	n/a	n/a	n/a	348.715	AF31HAS.jpg
320.744	0.514	Blank	Blank	31.344	n/a	3	9	8	n/a	48	n/a	2	n/a	n/a	n/a	n/a	349.212	n/a
321.274	0.497	happy	Picture	30.83	n/a	3	9	9	n/a	49	41	2	n/a	n/a	n/a	n/a	349.743	AF01HAS.jpg
321.772	0.514	Blank	Blank	30.316	n/a	3	9	9	n/a	49	n/a	2	n/a	n/a	n/a	n/a	350.24	n/a
322.302	0.497	happy	Picture	29.802	n/a	3	9	10	n/a	50	73	2	n/a	n/a	n/a	n/a	350.77	AM21HAS.jpg
322.8	0.514	Blank	Blank	29.288	n/a	3	9	10	n/a	50	n/a	2	n/a	n/a	n/a	n/a	351.268	n/a
323.33	0.497	happy	Picture	28.774	n/a	3	9	11	n/a	51	65	2	n/a	n/a	n/a	n/a	351.798	BM06HAS.jpg
323.827	0.514	Blank	Blank	28.26	n/a	3	9	11	n/a	51	n/a	2	n/a	n/a	n/a	n/a	352.296	n/a
324.358	0.497	happy	Picture	27.746	n/a	3	9	12	n/a	52	56	2	n/a	n/a	n/a	n/a	352.826	AF26HAS.jpg
324.855	0.514	Blank	Blank	27.232	n/a	3	9	12	n/a	52	n/a	2	n/a	n/a	n/a	n/a	353.324	n/a
325.386	0.497	happy	Picture	26.719	n/a	3	9	13	n/a	53	45	2	n/a	n/a	n/a	n/a	353.854	BF07HAS.jpg
325.883	0.514	Blank	Blank	26.204	n/a	3	9	13	n/a	53	n/a	2	n/a	n/a	n/a	n/a	354.351	n/a
326.414	0.497	happy	Picture	25.691	n/a	3	9	14	n/a	54	78	2	n/a	n/a	n/a	n/a	354.882	BM26HAS.jpg
326.911	0.514	Blank	Blank	25.177	n/a	3	9	14	n/a	54	n/a	2	n/a	n/a	n/a	n/a	355.379	n/a
327.442	0.497	happy	Picture	24.663	n/a	3	9	15	n/a	55	50	2	n/a	n/a	n/a	n/a	355.91	AF18HAS.jpg
327.939	0.514	Blank	Blank	24.149	n/a	3	9	15	n/a	55	n/a	2	n/a	n/a	n/a	n/a	356.407	n/a
328.469	0.497	happy	Picture	23.635	n/a	3	9	16	n/a	56	47	2	n/a	n/a	n/a	n/a	356.938	BF11HAS.jpg
328.967	0.514	Blank	Blank	23.121	n/a	3	9	16	n/a	56	n/a	2	n/a	n/a	n/a	n/a	357.435	n/a
329.497	0.497	happy	Picture	22.607	n/a	3	9	17	n/a	57	77	2	n/a	n/a	n/a	n/a	357.966	BM25HAS.jpg
329.995	0.514	Blank	Blank	22.093	n/a	3	9	17	n/a	57	n/a	2	n/a	n/a	n/a	n/a	358.463	n/a
330.525	0.497	happy	Picture	21.579	n/a	3	9	18	n/a	58	57	2	n/a	n/a	n/a	n/a	358.993	BF28HAS.jpg
331.023	0.514	Blank	Blank	21.065	n/a	3	9	18	n/a	58	n/a	2	n/a	n/a	n/a	n/a	359.491	n/a
331.553	0.497	happy	Picture	20.551	n/a	3	9	19	n/a	59	61	2	n/a	n/a	n/a	n/a	360.021	AM01HAS.jpg
332.051	0.514	Blank	Blank	20.037	n/a	3	9	19	n/a	59	n/a	2	n/a	n/a	n/a	n/a	360.519	n/a
332.581	0.497	happy	Picture	19.523	n/a	3	9	20	n/a	60	79	2	n/a	n/a	n/a	n/a	361.049	BM28HAS.jpg
333.078	0.514	Blank	Blank	19.009	n/a	3	9	20	n/a	60	n/a	2	n/a	n/a	n/a	n/a	361.547	n/a
333.609	10.014	ITI	Fixation+	8.979	n/a	3	n/a	n/a	n/a	n/a	n/a	n/a	n/a	n/a	n/a	n/a	362.077	n/a
352.602	n/a	ConfirmRating	Rate	n/a	8.969	3	n/a	n/a	0	n/a	n/a	n/a	2	Happy	91	55	381.07	n/a
357.015	n/a	ConfirmRating	Rate	n/a	4.393	3	n/a	n/a	1	n/a	n/a	n/a	3	Happy	2	45	385.483	n/a
357.035	10.014	ITI	Fixation+	99.119	n/a	4	n/a	n/a	n/a	n/a	n/a	n/a	n/a	n/a	n/a	n/a	385.503	n/a
367.065	0.497	angry	Picture	98.605	n/a	4	10	1	n/a	61	119	3	n/a	n/a	n/a	n/a	395.533	BM28ANS.jpg
367.563	0.514	Blank	Blank	98.091	n/a	4	10	1	n/a	61	n/a	3	n/a	n/a	n/a	n/a	396.031	n/a
368.093	0.497	angry	Picture	97.577	n/a	4	10	2	n/a	62	100	3	n/a	n/a	n/a	n/a	396.561	AF32ANS.jpg
368.59	0.514	Blank	Blank	97.063	n/a	4	10	2	n/a	62	n/a	3	n/a	n/a	n/a	n/a	397.059	n/a
369.121	0.497	angry	Picture	96.549	n/a	4	10	3	n/a	63	118	3	n/a	n/a	n/a	n/a	397.589	BM26ANS.jpg
369.618	0.514	Blank	Blank	96.035	n/a	4	10	3	n/a	63	n/a	3	n/a	n/a	n/a	n/a	398.087	n/a
370.149	0.497	angry	Picture	95.521	n/a	4	10	4	n/a	64	89	3	n/a	n/a	n/a	n/a	398.617	AF17ANS.jpg
370.646	0.514	Blank	Blank	95.007	n/a	4	10	4	n/a	64	n/a	3	n/a	n/a	n/a	n/a	399.114	n/a
371.177	0.497	angry	Picture	94.493	n/a	4	10	5	n/a	65	116	3	n/a	n/a	n/a	n/a	399.645	BM24ANS.jpg
371.674	0.514	Blank	Blank	93.98	n/a	4	10	5	n/a	65	n/a	3	n/a	n/a	n/a	n/a	400.142	n/a
372.205	0.497	angry	Picture	93.465	n/a	4	10	6	n/a	66	105	3	n/a	n/a	n/a	n/a	400.673	BM06ANS.jpg
372.702	0.514	Blank	Blank	92.952	n/a	4	10	6	n/a	66	n/a	3	n/a	n/a	n/a	n/a	401.17	n/a
373.232	0.497	angry	Picture	92.438	n/a	4	10	7	n/a	67	106	3	n/a	n/a	n/a	n/a	401.701	AM07ANS.jpg
373.73	0.514	Blank	Blank	91.924	n/a	4	10	7	n/a	67	n/a	3	n/a	n/a	n/a	n/a	402.198	n/a
374.26	0.497	angry	Picture	91.41	n/a	4	10	8	n/a	68	94	3	n/a	n/a	n/a	n/a	402.729	AF23ANS.jpg
374.758	0.514	Blank	Blank	90.896	n/a	4	10	8	n/a	68	n/a	3	n/a	n/a	n/a	n/a	403.226	n/a
375.288	0.497	angry	Picture	90.382	n/a	4	10	9	n/a	69	117	3	n/a	n/a	n/a	n/a	403.757	BM25ANS.jpg
375.786	0.514	Blank	Blank	89.868	n/a	4	10	9	n/a	69	n/a	3	n/a	n/a	n/a	n/a	404.254	n/a
376.316	0.497	angry	Picture	89.354	n/a	4	10	10	n/a	70	90	3	n/a	n/a	n/a	n/a	404.784	AF18ANS.jpg
376.813	0.514	Blank	Blank	88.84	n/a	4	10	10	n/a	70	n/a	3	n/a	n/a	n/a	n/a	405.282	n/a
377.344	0.497	angry	Picture	88.326	n/a	4	10	11	n/a	71	83	3	n/a	n/a	n/a	n/a	405.812	BF04ANS.jpg
377.841	0.514	Blank	Blank	87.812	n/a	4	10	11	n/a	71	n/a	3	n/a	n/a	n/a	n/a	406.31	n/a
378.372	0.497	angry	Picture	87.298	n/a	4	10	12	n/a	72	112	3	n/a	n/a	n/a	n/a	406.84	AM14ANS.jpg
378.869	0.514	Blank	Blank	86.784	n/a	4	10	12	n/a	72	n/a	3	n/a	n/a	n/a	n/a	407.337	n/a
379.4	0.497	angry	Picture	86.27	n/a	4	10	13	n/a	73	102	3	n/a	n/a	n/a	n/a	407.868	BM03ANS.jpg
379.897	0.514	Blank	Blank	85.756	n/a	4	10	13	n/a	73	n/a	3	n/a	n/a	n/a	n/a	408.365	n/a
380.428	0.497	angry	Picture	85.242	n/a	4	10	14	n/a	74	95	3	n/a	n/a	n/a	n/a	408.896	AF25ANS.jpg
380.925	0.514	Blank	Blank	84.728	n/a	4	10	14	n/a	74	n/a	3	n/a	n/a	n/a	n/a	409.393	n/a
381.456	0.497	angry	Picture	84.214	n/a	4	10	15	n/a	75	113	3	n/a	n/a	n/a	n/a	409.924	AM21ANS.jpg
381.953	0.514	Blank	Blank	83.701	n/a	4	10	15	n/a	75	n/a	3	n/a	n/a	n/a	n/a	410.421	n/a
382.483	0.497	angry	Picture	83.187	n/a	4	10	16	n/a	76	88	3	n/a	n/a	n/a	n/a	410.952	AF14ANS.jpg
382.981	0.514	Blank	Blank	82.673	n/a	4	10	16	n/a	76	n/a	3	n/a	n/a	n/a	n/a	411.449	n/a
383.511	0.497	angry	Picture	82.159	n/a	4	10	17	n/a	77	93	3	n/a	n/a	n/a	n/a	411.979	BF22ANS.jpg
384.009	0.514	Blank	Blank	81.645	n/a	4	10	17	n/a	77	n/a	3	n/a	n/a	n/a	n/a	412.477	n/a
384.539	0.497	angry	Picture	81.131	n/a	4	10	18	n/a	78	86	3	n/a	n/a	n/a	n/a	413.007	AF09ANS.jpg
385.037	0.514	Blank	Blank	80.617	n/a	4	10	18	n/a	78	n/a	3	n/a	n/a	n/a	n/a	413.505	n/a
385.567	0.497	angry	Picture	80.103	n/a	4	10	19	n/a	79	92	3	n/a	n/a	n/a	n/a	414.035	AF21ANS.jpg
386.064	0.514	Blank	Blank	79.589	n/a	4	10	19	n/a	79	n/a	3	n/a	n/a	n/a	n/a	414.533	n/a
386.595	0.497	angry	Picture	79.075	n/a	4	10	20	n/a	80	84	3	n/a	n/a	n/a	n/a	415.063	AF05ANS.jpg
387.092	0.514	Blank	Blank	78.561	n/a	4	10	20	n/a	80	n/a	3	n/a	n/a	n/a	n/a	415.561	n/a
387.623	10.014	ITI	Fixation+	68.531	n/a	4	n/a	n/a	n/a	n/a	n/a	n/a	n/a	n/a	n/a	n/a	416.091	n/a
397.653	0.497	neutral	Picture	68.017	n/a	4	11	1	n/a	81	4	1	n/a	n/a	n/a	n/a	426.121	AF05NES.jpg
398.15	0.514	Blank	Blank	67.503	n/a	4	11	1	n/a	81	n/a	1	n/a	n/a	n/a	n/a	426.619	n/a
398.681	0.497	neutral	Picture	66.989	n/a	4	11	2	n/a	82	14	1	n/a	n/a	n/a	n/a	427.149	AF23NES.jpg
399.178	0.514	Blank	Blank	66.475	n/a	4	11	2	n/a	82	n/a	1	n/a	n/a	n/a	n/a	427.647	n/a
399.709	0.497	neutral	Picture	65.961	n/a	4	11	3	n/a	83	19	1	n/a	n/a	n/a	n/a	428.177	AF31NES.jpg
400.206	0.514	Blank	Blank	65.447	n/a	4	11	3	n/a	83	n/a	1	n/a	n/a	n/a	n/a	428.675	n/a
400.737	0.497	neutral	Picture	64.933	n/a	4	11	4	n/a	84	8	1	n/a	n/a	n/a	n/a	429.205	AF14NES.jpg
401.234	0.514	Blank	Blank	64.419	n/a	4	11	4	n/a	84	n/a	1	n/a	n/a	n/a	n/a	429.702	n/a
401.765	0.497	neutral	Picture	63.905	n/a	4	11	5	n/a	85	25	1	n/a	n/a	n/a	n/a	430.233	BM06NES.jpg
402.262	0.514	Blank	Blank	63.392	n/a	4	11	5	n/a	85	n/a	1	n/a	n/a	n/a	n/a	430.73	n/a
402.793	0.497	neutral	Picture	62.877	n/a	4	11	6	n/a	86	9	1	n/a	n/a	n/a	n/a	431.261	AF17NES.jpg
403.29	0.514	Blank	Blank	62.364	n/a	4	11	6	n/a	86	n/a	1	n/a	n/a	n/a	n/a	431.758	n/a
403.82	0.497	neutral	Picture	61.85	n/a	4	11	7	n/a	87	2	1	n/a	n/a	n/a	n/a	432.289	AF03NES.jpg
404.318	0.514	Blank	Blank	61.336	n/a	4	11	7	n/a	87	n/a	1	n/a	n/a	n/a	n/a	432.786	n/a
404.848	0.497	neutral	Picture	60.822	n/a	4	11	8	n/a	88	17	1	n/a	n/a	n/a	n/a	433.317	BF28NES.jpg
405.346	0.514	Blank	Blank	60.308	n/a	4	11	8	n/a	88	n/a	1	n/a	n/a	n/a	n/a	433.814	n/a
405.876	0.497	neutral	Picture	59.794	n/a	4	11	9	n/a	89	6	1	n/a	n/a	n/a	n/a	434.344	AF09NES.jpg
406.374	0.514	Blank	Blank	59.28	n/a	4	11	9	n/a	89	n/a	1	n/a	n/a	n/a	n/a	434.842	n/a
406.904	0.497	neutral	Picture	58.766	n/a	4	11	10	n/a	90	12	1	n/a	n/a	n/a	n/a	435.372	AF21NES.jpg
407.401	0.514	Blank	Blank	58.252	n/a	4	11	10	n/a	90	n/a	1	n/a	n/a	n/a	n/a	435.87	n/a
407.932	0.497	neutral	Picture	57.738	n/a	4	11	11	n/a	91	24	1	n/a	n/a	n/a	n/a	436.4	BM05NES.jpg
408.429	0.514	Blank	Blank	57.224	n/a	4	11	11	n/a	91	n/a	1	n/a	n/a	n/a	n/a	436.898	n/a
408.96	0.497	neutral	Picture	56.71	n/a	4	11	12	n/a	92	34	1	n/a	n/a	n/a	n/a	437.428	AM22NES.jpg
409.457	0.514	Blank	Blank	56.196	n/a	4	11	12	n/a	92	n/a	1	n/a	n/a	n/a	n/a	437.925	n/a
409.988	0.497	neutral	Picture	55.682	n/a	4	11	13	n/a	93	23	1	n/a	n/a	n/a	n/a	438.456	AM04NES.jpg
410.485	0.514	Blank	Blank	55.168	n/a	4	11	13	n/a	93	n/a	1	n/a	n/a	n/a	n/a	438.953	n/a
411.016	0.497	neutral	Picture	54.654	n/a	4	11	14	n/a	94	15	1	n/a	n/a	n/a	n/a	439.484	AF25NES.jpg
411.513	0.514	Blank	Blank	54.141	n/a	4	11	14	n/a	94	n/a	1	n/a	n/a	n/a	n/a	439.981	n/a
412.044	0.497	neutral	Picture	53.626	n/a	4	11	15	n/a	95	37	1	n/a	n/a	n/a	n/a	440.512	BM25NES.jpg
412.541	0.514	Blank	Blank	53.113	n/a	4	11	15	n/a	95	n/a	1	n/a	n/a	n/a	n/a	441.009	n/a
413.071	0.497	neutral	Picture	52.599	n/a	4	11	16	n/a	96	32	1	n/a	n/a	n/a	n/a	441.54	AM14NES.jpg
413.569	0.514	Blank	Blank	52.085	n/a	4	11	16	n/a	96	n/a	1	n/a	n/a	n/a	n/a	442.037	n/a
414.099	0.497	neutral	Picture	51.571	n/a	4	11	17	n/a	97	3	1	n/a	n/a	n/a	n/a	442.568	BF04NES.jpg
414.597	0.514	Blank	Blank	51.057	n/a	4	11	17	n/a	97	n/a	1	n/a	n/a	n/a	n/a	443.065	n/a
415.127	0.497	neutral	Picture	50.543	n/a	4	11	18	n/a	98	16	1	n/a	n/a	n/a	n/a	443.596	AF26NES.jpg
415.625	0.514	Blank	Blank	50.029	n/a	4	11	18	n/a	98	n/a	1	n/a	n/a	n/a	n/a	444.093	n/a
416.155	0.497	neutral	Picture	49.515	n/a	4	11	19	n/a	99	27	1	n/a	n/a	n/a	n/a	444.623	BM08NES.jpg
416.652	0.514	Blank	Blank	49.001	n/a	4	11	19	n/a	99	n/a	1	n/a	n/a	n/a	n/a	445.121	n/a
417.183	0.497	neutral	Picture	48.487	n/a	4	11	20	n/a	100	28	1	n/a	n/a	n/a	n/a	445.651	AM09NES.jpg
417.68	0.514	Blank	Blank	47.973	n/a	4	11	20	n/a	100	n/a	1	n/a	n/a	n/a	n/a	446.149	n/a
418.211	10.014	ITI	Fixation+	37.943	n/a	4	n/a	n/a	n/a	n/a	n/a	n/a	n/a	n/a	n/a	n/a	446.679	n/a
428.241	0.497	angry	Picture	37.429	n/a	4	12	1	n/a	101	81	3	n/a	n/a	n/a	n/a	456.709	AF01ANS.jpg
428.738	0.514	Blank	Blank	36.915	n/a	4	12	1	n/a	101	n/a	3	n/a	n/a	n/a	n/a	457.207	n/a
429.269	0.497	angry	Picture	36.401	n/a	4	12	2	n/a	102	120	3	n/a	n/a	n/a	n/a	457.737	AM35ANS.jpg
429.766	0.514	Blank	Blank	35.887	n/a	4	12	2	n/a	102	n/a	3	n/a	n/a	n/a	n/a	458.235	n/a
430.297	0.497	angry	Picture	35.373	n/a	4	12	3	n/a	103	114	3	n/a	n/a	n/a	n/a	458.765	AM22ANS.jpg
430.794	0.514	Blank	Blank	34.859	n/a	4	12	3	n/a	103	n/a	3	n/a	n/a	n/a	n/a	459.262	n/a
431.325	0.497	angry	Picture	34.345	n/a	4	12	4	n/a	104	109	3	n/a	n/a	n/a	n/a	459.793	AM10ANS.jpg
431.822	0.514	Blank	Blank	33.831	n/a	4	12	4	n/a	104	n/a	3	n/a	n/a	n/a	n/a	460.29	n/a
432.353	0.497	angry	Picture	33.317	n/a	4	12	5	n/a	105	96	3	n/a	n/a	n/a	n/a	460.821	AF26ANS.jpg
432.85	0.514	Blank	Blank	32.803	n/a	4	12	5	n/a	105	n/a	3	n/a	n/a	n/a	n/a	461.318	n/a
433.381	0.497	angry	Picture	32.289	n/a	4	12	6	n/a	106	82	3	n/a	n/a	n/a	n/a	461.849	AF03ANS.jpg
433.878	0.514	Blank	Blank	31.776	n/a	4	12	6	n/a	106	n/a	3	n/a	n/a	n/a	n/a	462.346	n/a
434.409	0.497	angry	Picture	31.262	n/a	4	12	7	n/a	107	97	3	n/a	n/a	n/a	n/a	462.877	BF28ANS.jpg
434.906	0.514	Blank	Blank	30.748	n/a	4	12	7	n/a	107	n/a	3	n/a	n/a	n/a	n/a	463.374	n/a
435.436	0.497	angry	Picture	30.234	n/a	4	12	8	n/a	108	115	3	n/a	n/a	n/a	n/a	463.905	AM23ANS.jpg
435.934	0.514	Blank	Blank	29.72	n/a	4	12	8	n/a	108	n/a	3	n/a	n/a	n/a	n/a	464.402	n/a
436.464	0.497	angry	Picture	29.206	n/a	4	12	9	n/a	109	91	3	n/a	n/a	n/a	n/a	464.933	AF20ANS.jpg
436.962	0.514	Blank	Blank	28.692	n/a	4	12	9	n/a	109	n/a	3	n/a	n/a	n/a	n/a	465.43	n/a
437.492	0.497	angry	Picture	28.178	n/a	4	12	10	n/a	110	87	3	n/a	n/a	n/a	n/a	465.96	BF11ANS.jpg
437.99	0.514	Blank	Blank	27.664	n/a	4	12	10	n/a	110	n/a	3	n/a	n/a	n/a	n/a	466.458	n/a
438.52	0.497	angry	Picture	27.15	n/a	4	12	11	n/a	111	85	3	n/a	n/a	n/a	n/a	466.988	BF07ANS.jpg
439.017	0.514	Blank	Blank	26.636	n/a	4	12	11	n/a	111	n/a	3	n/a	n/a	n/a	n/a	467.486	n/a
439.548	0.497	angry	Picture	26.122	n/a	4	12	12	n/a	112	110	3	n/a	n/a	n/a	n/a	468.016	AM11ANS.jpg
440.045	0.514	Blank	Blank	25.608	n/a	4	12	12	n/a	112	n/a	3	n/a	n/a	n/a	n/a	468.514	n/a
440.576	0.497	angry	Picture	25.094	n/a	4	12	13	n/a	113	111	3	n/a	n/a	n/a	n/a	469.044	BM12ANS.jpg
441.073	0.514	Blank	Blank	24.58	n/a	4	12	13	n/a	113	n/a	3	n/a	n/a	n/a	n/a	469.541	n/a
441.604	0.497	angry	Picture	24.066	n/a	4	12	14	n/a	114	103	3	n/a	n/a	n/a	n/a	470.072	AM04ANS.jpg
442.101	0.514	Blank	Blank	23.552	n/a	4	12	14	n/a	114	n/a	3	n/a	n/a	n/a	n/a	470.569	n/a
442.632	0.497	angry	Picture	23.038	n/a	4	12	15	n/a	115	101	3	n/a	n/a	n/a	n/a	471.1	AM01ANS.jpg
443.129	0.514	Blank	Blank	22.524	n/a	4	12	15	n/a	115	n/a	3	n/a	n/a	n/a	n/a	471.597	n/a
443.659	0.497	angry	Picture	22.011	n/a	4	12	16	n/a	116	104	3	n/a	n/a	n/a	n/a	472.128	BM05ANS.jpg
444.157	0.514	Blank	Blank	21.497	n/a	4	12	16	n/a	116	n/a	3	n/a	n/a	n/a	n/a	472.625	n/a
444.687	0.497	angry	Picture	20.983	n/a	4	12	17	n/a	117	107	3	n/a	n/a	n/a	n/a	473.156	BM08ANS.jpg
445.185	0.514	Blank	Blank	20.469	n/a	4	12	17	n/a	117	n/a	3	n/a	n/a	n/a	n/a	473.653	n/a
445.715	0.497	angry	Picture	19.955	n/a	4	12	18	n/a	118	98	3	n/a	n/a	n/a	n/a	474.183	BF29ANS.jpg
446.213	0.514	Blank	Blank	19.441	n/a	4	12	18	n/a	118	n/a	3	n/a	n/a	n/a	n/a	474.681	n/a
446.743	0.497	angry	Picture	18.927	n/a	4	12	19	n/a	119	99	3	n/a	n/a	n/a	n/a	475.211	AF31ANS.jpg
447.241	0.514	Blank	Blank	18.413	n/a	4	12	19	n/a	119	n/a	3	n/a	n/a	n/a	n/a	475.709	n/a
447.771	0.497	angry	Picture	17.899	n/a	4	12	20	n/a	120	108	3	n/a	n/a	n/a	n/a	476.239	AM09ANS.jpg
448.268	0.514	Blank	Blank	17.385	n/a	4	12	20	n/a	120	n/a	3	n/a	n/a	n/a	n/a	476.737	n/a
448.799	10.014	ITI	Fixation+	7.355	n/a	4	n/a	n/a	n/a	n/a	n/a	n/a	n/a	n/a	n/a	n/a	477.267	n/a
466.167	n/a	ConfirmRating	Rate	n/a	7.344	4	n/a	n/a	0	n/a	n/a	n/a	2	Angry	69	52	494.636	n/a
471.151	n/a	ConfirmRating	Rate	n/a	4.974	4	n/a	n/a	1	n/a	n/a	n/a	3	Angry	13	45	499.62	n/a
