onset	duration	trial_type	event_type	time_until_response	response_time	trial_number	block_num_within_trial	image_seq_num_within_block	question_seq_num_within_block	image_seq_num	picture_number	condition	question_type	block_type	rating	rating_computed	onset_uncorrected	KDEV_imagefile
0.006	10.014	ITI	Fixation+	100.028	n/a	1	n/a	n/a	n/a	n/a	n/a	n/a	n/a	n/a	n/a	n/a	27.913	n/a
10.036	0.497	happy	Picture	99.514	n/a	1	1	1	n/a	1	108	3	n/a	n/a	n/a	n/a	37.944	AM09ANS.jpg
10.534	0.514	Blank	Blank	99.0	n/a	1	1	1	n/a	1	n/a	3	n/a	n/a	n/a	n/a	38.441	n/a
11.064	0.497	happy	Picture	98.486	n/a	1	1	2	n/a	2	99	3	n/a	n/a	n/a	n/a	38.972	AF31ANS.jpg
11.561	0.514	Blank	Blank	97.972	n/a	1	1	2	n/a	2	n/a	3	n/a	n/a	n/a	n/a	39.469	n/a
12.092	0.497	happy	Picture	97.458	n/a	1	1	3	n/a	3	98	3	n/a	n/a	n/a	n/a	39.999	BF29ANS.jpg
12.589	0.514	Blank	Blank	96.944	n/a	1	1	3	n/a	3	n/a	3	n/a	n/a	n/a	n/a	40.497	n/a
13.12	0.497	happy	Picture	96.43	n/a	1	1	4	n/a	4	107	3	n/a	n/a	n/a	n/a	41.027	BM08ANS.jpg
13.617	0.514	Blank	Blank	95.917	n/a	1	1	4	n/a	4	n/a	3	n/a	n/a	n/a	n/a	41.525	n/a
14.148	0.497	happy	Picture	95.403	n/a	1	1	5	n/a	5	104	3	n/a	n/a	n/a	n/a	42.055	BM05ANS.jpg
14.645	0.514	Blank	Blank	94.889	n/a	1	1	5	n/a	5	n/a	3	n/a	n/a	n/a	n/a	42.553	n/a
15.176	0.497	happy	Picture	94.375	n/a	1	1	6	n/a	6	101	3	n/a	n/a	n/a	n/a	43.083	AM01ANS.jpg
15.673	0.514	Blank	Blank	93.861	n/a	1	1	6	n/a	6	n/a	3	n/a	n/a	n/a	n/a	43.581	n/a
16.204	0.497	happy	Picture	93.347	n/a	1	1	7	n/a	7	103	3	n/a	n/a	n/a	n/a	44.111	AM04ANS.jpg
16.701	0.514	Blank	Blank	92.833	n/a	1	1	7	n/a	7	n/a	3	n/a	n/a	n/a	n/a	44.608	n/a
17.231	0.497	happy	Picture	92.319	n/a	1	1	8	n/a	8	111	3	n/a	n/a	n/a	n/a	45.139	BM12ANS.jpg
17.729	0.514	Blank	Blank	91.805	n/a	1	1	8	n/a	8	n/a	3	n/a	n/a	n/a	n/a	45.636	n/a
18.259	0.497	happy	Picture	91.291	n/a	1	1	9	n/a	9	110	3	n/a	n/a	n/a	n/a	46.167	AM11ANS.jpg
18.757	0.514	Blank	Blank	90.777	n/a	1	1	9	n/a	9	n/a	3	n/a	n/a	n/a	n/a	46.664	n/a
19.287	0.497	happy	Picture	90.263	n/a	1	1	10	n/a	10	85	3	n/a	n/a	n/a	n/a	47.195	BF07ANS.jpg
19.785	0.514	Blank	Blank	89.749	n/a	1	1	10	n/a	10	n/a	3	n/a	n/a	n/a	n/a	47.692	n/a
20.315	0.497	happy	Picture	89.235	n/a	1	1	11	n/a	11	87	3	n/a	n/a	n/a	n/a	48.223	BF11ANS.jpg
20.812	0.514	Blank	Blank	88.721	n/a	1	1	11	n/a	11	n/a	3	n/a	n/a	n/a	n/a	48.72	n/a
21.343	0.497	happy	Picture	88.207	n/a	1	1	12	n/a	12	91	3	n/a	n/a	n/a	n/a	49.251	AF20ANS.jpg
21.84	0.514	Blank	Blank	87.693	n/a	1	1	12	n/a	12	n/a	3	n/a	n/a	n/a	n/a	49.748	n/a
22.371	0.497	happy	Picture	87.179	n/a	1	1	13	n/a	13	115	3	n/a	n/a	n/a	n/a	50.278	AM23ANS.jpg
22.868	0.514	Blank	Blank	86.666	n/a	1	1	13	n/a	13	n/a	3	n/a	n/a	n/a	n/a	50.776	n/a
23.399	0.497	happy	Picture	86.152	n/a	1	1	14	n/a	14	97	3	n/a	n/a	n/a	n/a	51.306	BF28ANS.jpg
23.896	0.514	Blank	Blank	85.638	n/a	1	1	14	n/a	14	n/a	3	n/a	n/a	n/a	n/a	51.804	n/a
24.427	0.497	happy	Picture	85.124	n/a	1	1	15	n/a	15	82	3	n/a	n/a	n/a	n/a	52.334	AF03ANS.jpg
24.924	0.514	Blank	Blank	84.61	n/a	1	1	15	n/a	15	n/a	3	n/a	n/a	n/a	n/a	52.831	n/a
25.454	0.497	happy	Picture	84.096	n/a	1	1	16	n/a	16	96	3	n/a	n/a	n/a	n/a	53.362	AF26ANS.jpg
25.952	0.514	Blank	Blank	83.582	n/a	1	1	16	n/a	16	n/a	3	n/a	n/a	n/a	n/a	53.859	n/a
26.482	0.497	happy	Picture	83.068	n/a	1	1	17	n/a	17	109	3	n/a	n/a	n/a	n/a	54.39	AM10ANS.jpg
26.98	0.514	Blank	Blank	82.554	n/a	1	1	17	n/a	17	n/a	3	n/a	n/a	n/a	n/a	54.887	n/a
27.51	0.497	happy	Picture	82.04	n/a	1	1	18	n/a	18	114	3	n/a	n/a	n/a	n/a	55.418	AM22ANS.jpg
28.008	0.514	Blank	Blank	81.526	n/a	1	1	18	n/a	18	n/a	3	n/a	n/a	n/a	n/a	55.915	n/a
28.538	0.497	happy	Picture	81.012	n/a	1	1	19	n/a	19	120	3	n/a	n/a	n/a	n/a	56.446	AM35ANS.jpg
29.036	0.514	Blank	Blank	80.498	n/a	1	1	19	n/a	19	n/a	3	n/a	n/a	n/a	n/a	56.943	n/a
29.566	0.497	happy	Picture	79.984	n/a	1	1	20	n/a	20	81	3	n/a	n/a	n/a	n/a	57.474	AF01ANS.jpg
30.063	0.514	Blank	Blank	79.47	n/a	1	1	20	n/a	20	n/a	3	n/a	n/a	n/a	n/a	57.971	n/a
30.594	10.014	ITI	Fixation+	69.44	n/a	1	n/a	n/a	n/a	n/a	n/a	n/a	n/a	n/a	n/a	n/a	58.502	n/a
40.624	0.497	neutral	Picture	68.926	n/a	1	2	1	n/a	21	28	1	n/a	n/a	n/a	n/a	68.532	AM09NES.jpg
41.121	0.514	Blank	Blank	68.412	n/a	1	2	1	n/a	21	n/a	1	n/a	n/a	n/a	n/a	69.029	n/a
41.652	0.497	neutral	Picture	67.898	n/a	1	2	2	n/a	22	27	1	n/a	n/a	n/a	n/a	69.56	BM08NES.jpg
42.149	0.514	Blank	Blank	67.384	n/a	1	2	2	n/a	22	n/a	1	n/a	n/a	n/a	n/a	70.057	n/a
42.68	0.497	neutral	Picture	66.87	n/a	1	2	3	n/a	23	16	1	n/a	n/a	n/a	n/a	70.588	AF26NES.jpg
43.177	0.514	Blank	Blank	66.356	n/a	1	2	3	n/a	23	n/a	1	n/a	n/a	n/a	n/a	71.085	n/a
43.708	0.497	neutral	Picture	65.843	n/a	1	2	4	n/a	24	3	1	n/a	n/a	n/a	n/a	71.615	BF04NES.jpg
44.205	0.514	Blank	Blank	65.329	n/a	1	2	4	n/a	24	n/a	1	n/a	n/a	n/a	n/a	72.113	n/a
44.736	0.497	neutral	Picture	64.815	n/a	1	2	5	n/a	25	32	1	n/a	n/a	n/a	n/a	72.643	AM14NES.jpg
45.233	0.514	Blank	Blank	64.301	n/a	1	2	5	n/a	25	n/a	1	n/a	n/a	n/a	n/a	73.141	n/a
45.764	0.497	neutral	Picture	63.787	n/a	1	2	6	n/a	26	37	1	n/a	n/a	n/a	n/a	73.671	BM25NES.jpg
46.261	0.514	Blank	Blank	63.273	n/a	1	2	6	n/a	26	n/a	1	n/a	n/a	n/a	n/a	74.169	n/a
46.791	0.497	neutral	Picture	62.759	n/a	1	2	7	n/a	27	15	1	n/a	n/a	n/a	n/a	74.699	AF25NES.jpg
47.289	0.514	Blank	Blank	62.245	n/a	1	2	7	n/a	27	n/a	1	n/a	n/a	n/a	n/a	75.197	n/a
47.819	0.497	neutral	Picture	61.731	n/a	1	2	8	n/a	28	23	1	n/a	n/a	n/a	n/a	75.727	AM04NES.jpg
48.317	0.514	Blank	Blank	61.217	n/a	1	2	8	n/a	28	n/a	1	n/a	n/a	n/a	n/a	76.224	n/a
48.847	0.497	neutral	Picture	60.703	n/a	1	2	9	n/a	29	34	1	n/a	n/a	n/a	n/a	76.755	AM22NES.jpg
49.345	0.514	Blank	Blank	60.189	n/a	1	2	9	n/a	29	n/a	1	n/a	n/a	n/a	n/a	77.252	n/a
49.875	0.497	neutral	Picture	59.675	n/a	1	2	10	n/a	30	24	1	n/a	n/a	n/a	n/a	77.783	BM05NES.jpg
50.373	0.514	Blank	Blank	59.161	n/a	1	2	10	n/a	30	n/a	1	n/a	n/a	n/a	n/a	78.28	n/a
50.903	0.497	neutral	Picture	58.647	n/a	1	2	11	n/a	31	12	1	n/a	n/a	n/a	n/a	78.811	AF21NES.jpg
51.4	0.514	Blank	Blank	58.133	n/a	1	2	11	n/a	31	n/a	1	n/a	n/a	n/a	n/a	79.308	n/a
51.931	0.497	neutral	Picture	57.619	n/a	1	2	12	n/a	32	6	1	n/a	n/a	n/a	n/a	79.838	AF09NES.jpg
52.428	0.514	Blank	Blank	57.105	n/a	1	2	12	n/a	32	n/a	1	n/a	n/a	n/a	n/a	80.336	n/a
52.959	0.497	neutral	Picture	56.591	n/a	1	2	13	n/a	33	17	1	n/a	n/a	n/a	n/a	80.866	BF28NES.jpg
53.456	0.514	Blank	Blank	56.078	n/a	1	2	13	n/a	33	n/a	1	n/a	n/a	n/a	n/a	81.364	n/a
53.987	0.497	neutral	Picture	55.564	n/a	1	2	14	n/a	34	2	1	n/a	n/a	n/a	n/a	81.894	AF03NES.jpg
54.484	0.514	Blank	Blank	55.05	n/a	1	2	14	n/a	34	n/a	1	n/a	n/a	n/a	n/a	82.392	n/a
55.015	0.497	neutral	Picture	54.536	n/a	1	2	15	n/a	35	9	1	n/a	n/a	n/a	n/a	82.922	AF17NES.jpg
55.512	0.514	Blank	Blank	54.022	n/a	1	2	15	n/a	35	n/a	1	n/a	n/a	n/a	n/a	83.42	n/a
56.043	0.497	neutral	Picture	53.508	n/a	1	2	16	n/a	36	25	1	n/a	n/a	n/a	n/a	83.95	BM06NES.jpg
56.54	0.514	Blank	Blank	52.994	n/a	1	2	16	n/a	36	n/a	1	n/a	n/a	n/a	n/a	84.448	n/a
57.07	0.497	neutral	Picture	52.48	n/a	1	2	17	n/a	37	8	1	n/a	n/a	n/a	n/a	84.978	AF14NES.jpg
57.568	0.514	Blank	Blank	51.966	n/a	1	2	17	n/a	37	n/a	1	n/a	n/a	n/a	n/a	85.475	n/a
58.098	0.497	neutral	Picture	51.452	n/a	1	2	18	n/a	38	19	1	n/a	n/a	n/a	n/a	86.006	AF31NES.jpg
58.596	0.514	Blank	Blank	50.938	n/a	1	2	18	n/a	38	n/a	1	n/a	n/a	n/a	n/a	86.503	n/a
59.126	0.497	neutral	Picture	50.424	n/a	1	2	19	n/a	39	14	1	n/a	n/a	n/a	n/a	87.034	AF23NES.jpg
59.623	0.514	Blank	Blank	49.91	n/a	1	2	19	n/a	39	n/a	1	n/a	n/a	n/a	n/a	87.531	n/a
60.154	0.497	neutral	Picture	49.396	n/a	1	2	20	n/a	40	4	1	n/a	n/a	n/a	n/a	88.062	AF05NES.jpg
60.651	0.514	Blank	Blank	48.882	n/a	1	2	20	n/a	40	n/a	1	n/a	n/a	n/a	n/a	88.559	n/a
61.182	10.014	ITI	Fixation+	38.852	n/a	1	n/a	n/a	n/a	n/a	n/a	n/a	n/a	n/a	n/a	n/a	89.09	n/a
71.212	0.497	happy	Picture	38.338	n/a	1	3	1	n/a	41	84	3	n/a	n/a	n/a	n/a	99.12	AF05ANS.jpg
71.709	0.514	Blank	Blank	37.824	n/a	1	3	1	n/a	41	n/a	3	n/a	n/a	n/a	n/a	99.617	n/a
72.24	0.497	happy	Picture	37.31	n/a	1	3	2	n/a	42	92	3	n/a	n/a	n/a	n/a	100.148	AF21ANS.jpg
72.737	0.514	Blank	Blank	36.796	n/a	1	3	2	n/a	42	n/a	3	n/a	n/a	n/a	n/a	100.645	n/a
73.268	0.497	happy	Picture	36.282	n/a	1	3	3	n/a	43	86	3	n/a	n/a	n/a	n/a	101.176	AF09ANS.jpg
73.765	0.514	Blank	Blank	35.768	n/a	1	3	3	n/a	43	n/a	3	n/a	n/a	n/a	n/a	101.673	n/a
74.296	0.497	happy	Picture	35.254	n/a	1	3	4	n/a	44	93	3	n/a	n/a	n/a	n/a	102.203	BF22ANS.jpg
74.793	0.514	Blank	Blank	34.74	n/a	1	3	4	n/a	44	n/a	3	n/a	n/a	n/a	n/a	102.701	n/a
75.324	0.497	happy	Picture	34.227	n/a	1	3	5	n/a	45	88	3	n/a	n/a	n/a	n/a	103.231	AF14ANS.jpg
75.821	0.514	Blank	Blank	33.713	n/a	1	3	5	n/a	45	n/a	3	n/a	n/a	n/a	n/a	103.729	n/a
76.352	0.497	happy	Picture	33.199	n/a	1	3	6	n/a	46	113	3	n/a	n/a	n/a	n/a	104.259	AM21ANS.jpg
76.849	0.514	Blank	Blank	32.685	n/a	1	3	6	n/a	46	n/a	3	n/a	n/a	n/a	n/a	104.757	n/a
77.379	0.497	happy	Picture	32.171	n/a	1	3	7	n/a	47	95	3	n/a	n/a	n/a	n/a	105.287	AF25ANS.jpg
77.877	0.514	Blank	Blank	31.657	n/a	1	3	7	n/a	47	n/a	3	n/a	n/a	n/a	n/a	105.784	n/a
78.407	0.497	happy	Picture	31.143	n/a	1	3	8	n/a	48	102	3	n/a	n/a	n/a	n/a	106.315	BM03ANS.jpg
78.905	0.514	Blank	Blank	30.629	n/a	1	3	8	n/a	48	n/a	3	n/a	n/a	n/a	n/a	106.812	n/a
79.435	0.497	happy	Picture	30.115	n/a	1	3	9	n/a	49	112	3	n/a	n/a	n/a	n/a	107.343	AM14ANS.jpg
79.933	0.514	Blank	Blank	29.601	n/a	1	3	9	n/a	49	n/a	3	n/a	n/a	n/a	n/a	107.84	n/a
80.463	0.497	happy	Picture	29.087	n/a	1	3	10	n/a	50	83	3	n/a	n/a	n/a	n/a	108.371	BF04ANS.jpg
80.961	0.514	Blank	Blank	28.573	n/a	1	3	10	n/a	50	n/a	3	n/a	n/a	n/a	n/a	108.868	n/a
81.491	0.497	happy	Picture	28.059	n/a	1	3	11	n/a	51	90	3	n/a	n/a	n/a	n/a	109.399	AF18ANS.jpg
81.988	0.514	Blank	Blank	27.545	n/a	1	3	11	n/a	51	n/a	3	n/a	n/a	n/a	n/a	109.896	n/a
82.519	0.497	happy	Picture	27.031	n/a	1	3	12	n/a	52	117	3	n/a	n/a	n/a	n/a	110.427	BM25ANS.jpg
83.016	0.514	Blank	Blank	26.517	n/a	1	3	12	n/a	52	n/a	3	n/a	n/a	n/a	n/a	110.924	n/a
83.547	0.497	happy	Picture	26.004	n/a	1	3	13	n/a	53	94	3	n/a	n/a	n/a	n/a	111.454	AF23ANS.jpg
84.044	0.514	Blank	Blank	25.489	n/a	1	3	13	n/a	53	n/a	3	n/a	n/a	n/a	n/a	111.952	n/a
84.575	0.497	happy	Picture	24.976	n/a	1	3	14	n/a	54	106	3	n/a	n/a	n/a	n/a	112.482	AM07ANS.jpg
85.072	0.514	Blank	Blank	24.462	n/a	1	3	14	n/a	54	n/a	3	n/a	n/a	n/a	n/a	112.98	n/a
85.603	0.497	happy	Picture	23.948	n/a	1	3	15	n/a	55	105	3	n/a	n/a	n/a	n/a	113.51	BM06ANS.jpg
86.1	0.514	Blank	Blank	23.434	n/a	1	3	15	n/a	55	n/a	3	n/a	n/a	n/a	n/a	114.008	n/a
86.63	0.497	happy	Picture	22.92	n/a	1	3	16	n/a	56	116	3	n/a	n/a	n/a	n/a	114.538	BM24ANS.jpg
87.128	0.514	Blank	Blank	22.406	n/a	1	3	16	n/a	56	n/a	3	n/a	n/a	n/a	n/a	115.035	n/a
87.658	0.497	happy	Picture	21.892	n/a	1	3	17	n/a	57	89	3	n/a	n/a	n/a	n/a	115.566	AF17ANS.jpg
88.156	0.514	Blank	Blank	21.378	n/a	1	3	17	n/a	57	n/a	3	n/a	n/a	n/a	n/a	116.063	n/a
88.686	0.497	happy	Picture	20.864	n/a	1	3	18	n/a	58	118	3	n/a	n/a	n/a	n/a	116.594	BM26ANS.jpg
89.184	0.514	Blank	Blank	20.35	n/a	1	3	18	n/a	58	n/a	3	n/a	n/a	n/a	n/a	117.091	n/a
89.714	0.497	happy	Picture	19.836	n/a	1	3	19	n/a	59	100	3	n/a	n/a	n/a	n/a	117.622	AF32ANS.jpg
90.212	0.514	Blank	Blank	19.322	n/a	1	3	19	n/a	59	n/a	3	n/a	n/a	n/a	n/a	118.119	n/a
90.742	0.497	happy	Picture	18.808	n/a	1	3	20	n/a	60	119	3	n/a	n/a	n/a	n/a	118.65	BM28ANS.jpg
91.239	0.514	Blank	Blank	18.294	n/a	1	3	20	n/a	60	n/a	3	n/a	n/a	n/a	n/a	119.147	n/a
91.77	10.014	ITI	Fixation+	8.264	n/a	1	n/a	n/a	n/a	n/a	n/a	n/a	n/a	n/a	n/a	n/a	119.678	n/a
110.048	n/a	ConfirmRating	Rate	n/a	8.257	1	n/a	n/a	0	n/a	n/a	n/a	2	Happy	22	49	137.955	n/a
118.928	n/a	ConfirmRating	Rate	n/a	8.87	1	n/a	n/a	1	n/a	n/a	n/a	3	Happy	7	48	146.836	n/a
118.959	10.014	ITI	Fixation+	100.999	n/a	2	n/a	n/a	n/a	n/a	n/a	n/a	n/a	n/a	n/a	n/a	146.867	n/a
128.99	0.497	angry	Picture	100.486	n/a	2	4	1	n/a	61	79	2	n/a	n/a	n/a	n/a	156.897	BM28HAS.jpg
129.487	0.514	Blank	Blank	99.971	n/a	2	4	1	n/a	61	n/a	2	n/a	n/a	n/a	n/a	157.394	n/a
130.017	0.497	angry	Picture	99.458	n/a	2	4	2	n/a	62	61	2	n/a	n/a	n/a	n/a	157.925	AM01HAS.jpg
130.515	0.514	Blank	Blank	98.944	n/a	2	4	2	n/a	62	n/a	2	n/a	n/a	n/a	n/a	158.422	n/a
131.045	0.497	angry	Picture	98.43	n/a	2	4	3	n/a	63	57	2	n/a	n/a	n/a	n/a	158.953	BF28HAS.jpg
131.543	0.514	Blank	Blank	97.916	n/a	2	4	3	n/a	63	n/a	2	n/a	n/a	n/a	n/a	159.45	n/a
132.073	0.497	angry	Picture	97.402	n/a	2	4	4	n/a	64	77	2	n/a	n/a	n/a	n/a	159.981	BM25HAS.jpg
132.571	0.514	Blank	Blank	96.888	n/a	2	4	4	n/a	64	n/a	2	n/a	n/a	n/a	n/a	160.478	n/a
133.101	0.497	angry	Picture	96.374	n/a	2	4	5	n/a	65	47	2	n/a	n/a	n/a	n/a	161.009	BF11HAS.jpg
133.599	0.514	Blank	Blank	95.86	n/a	2	4	5	n/a	65	n/a	2	n/a	n/a	n/a	n/a	161.506	n/a
134.129	0.497	angry	Picture	95.346	n/a	2	4	6	n/a	66	50	2	n/a	n/a	n/a	n/a	162.037	AF18HAS.jpg
134.626	0.514	Blank	Blank	94.832	n/a	2	4	6	n/a	66	n/a	2	n/a	n/a	n/a	n/a	162.534	n/a
135.157	0.497	angry	Picture	94.318	n/a	2	4	7	n/a	67	78	2	n/a	n/a	n/a	n/a	163.065	BM26HAS.jpg
135.654	0.514	Blank	Blank	93.804	n/a	2	4	7	n/a	67	n/a	2	n/a	n/a	n/a	n/a	163.562	n/a
136.185	0.497	angry	Picture	93.29	n/a	2	4	8	n/a	68	45	2	n/a	n/a	n/a	n/a	164.092	BF07HAS.jpg
136.682	0.514	Blank	Blank	92.776	n/a	2	4	8	n/a	68	n/a	2	n/a	n/a	n/a	n/a	164.59	n/a
137.213	0.497	angry	Picture	92.262	n/a	2	4	9	n/a	69	56	2	n/a	n/a	n/a	n/a	165.12	AF26HAS.jpg
137.71	0.514	Blank	Blank	91.748	n/a	2	4	9	n/a	69	n/a	2	n/a	n/a	n/a	n/a	165.618	n/a
138.241	0.497	angry	Picture	91.234	n/a	2	4	10	n/a	70	65	2	n/a	n/a	n/a	n/a	166.148	BM06HAS.jpg
138.738	0.514	Blank	Blank	90.72	n/a	2	4	10	n/a	70	n/a	2	n/a	n/a	n/a	n/a	166.645	n/a
139.268	0.497	angry	Picture	90.207	n/a	2	4	11	n/a	71	73	2	n/a	n/a	n/a	n/a	167.176	AM21HAS.jpg
139.766	0.514	Blank	Blank	89.693	n/a	2	4	11	n/a	71	n/a	2	n/a	n/a	n/a	n/a	167.673	n/a
140.296	0.497	angry	Picture	89.179	n/a	2	4	12	n/a	72	41	2	n/a	n/a	n/a	n/a	168.204	AF01HAS.jpg
140.794	0.514	Blank	Blank	88.665	n/a	2	4	12	n/a	72	n/a	2	n/a	n/a	n/a	n/a	168.701	n/a
141.324	0.497	angry	Picture	88.151	n/a	2	4	13	n/a	73	59	2	n/a	n/a	n/a	n/a	169.232	AF31HAS.jpg
141.822	0.514	Blank	Blank	87.637	n/a	2	4	13	n/a	73	n/a	2	n/a	n/a	n/a	n/a	169.729	n/a
142.352	0.497	angry	Picture	87.123	n/a	2	4	14	n/a	74	64	2	n/a	n/a	n/a	n/a	170.26	BM05HAS.jpg
142.85	0.514	Blank	Blank	86.609	n/a	2	4	14	n/a	74	n/a	2	n/a	n/a	n/a	n/a	170.757	n/a
143.38	0.497	angry	Picture	86.095	n/a	2	4	15	n/a	75	68	2	n/a	n/a	n/a	n/a	171.288	AM09HAS.jpg
143.877	0.514	Blank	Blank	85.581	n/a	2	4	15	n/a	75	n/a	2	n/a	n/a	n/a	n/a	171.785	n/a
144.408	0.497	angry	Picture	85.067	n/a	2	4	16	n/a	76	54	2	n/a	n/a	n/a	n/a	172.315	AF23HAS.jpg
144.905	0.514	Blank	Blank	84.553	n/a	2	4	16	n/a	76	n/a	2	n/a	n/a	n/a	n/a	172.813	n/a
145.436	0.497	angry	Picture	84.039	n/a	2	4	17	n/a	77	53	2	n/a	n/a	n/a	n/a	173.343	BF22HAS.jpg
145.933	0.514	Blank	Blank	83.525	n/a	2	4	17	n/a	77	n/a	2	n/a	n/a	n/a	n/a	173.841	n/a
146.464	0.497	angry	Picture	83.011	n/a	2	4	18	n/a	78	44	2	n/a	n/a	n/a	n/a	174.371	AF05HAS.jpg
146.961	0.514	Blank	Blank	82.497	n/a	2	4	18	n/a	78	n/a	2	n/a	n/a	n/a	n/a	174.869	n/a
147.492	0.497	angry	Picture	81.983	n/a	2	4	19	n/a	79	52	2	n/a	n/a	n/a	n/a	175.399	AF21HAS.jpg
147.989	0.514	Blank	Blank	81.469	n/a	2	4	19	n/a	79	n/a	2	n/a	n/a	n/a	n/a	175.897	n/a
148.519	0.497	angry	Picture	80.956	n/a	2	4	20	n/a	80	62	2	n/a	n/a	n/a	n/a	176.427	BM03HAS.jpg
149.017	0.514	Blank	Blank	80.442	n/a	2	4	20	n/a	80	n/a	2	n/a	n/a	n/a	n/a	176.924	n/a
149.547	10.014	ITI	Fixation+	70.411	n/a	2	n/a	n/a	n/a	n/a	n/a	n/a	n/a	n/a	n/a	n/a	177.455	n/a
159.578	0.497	neutral	Picture	69.897	n/a	2	5	1	n/a	81	23	1	n/a	n/a	n/a	n/a	187.485	AM04NES.jpg
160.075	0.514	Blank	Blank	69.383	n/a	2	5	1	n/a	81	n/a	1	n/a	n/a	n/a	n/a	187.983	n/a
160.606	0.497	neutral	Picture	68.869	n/a	2	5	2	n/a	82	29	1	n/a	n/a	n/a	n/a	188.513	AM10NES.jpg
161.103	0.514	Blank	Blank	68.356	n/a	2	5	2	n/a	82	n/a	1	n/a	n/a	n/a	n/a	189.011	n/a
161.633	0.497	neutral	Picture	67.842	n/a	2	5	3	n/a	83	24	1	n/a	n/a	n/a	n/a	189.541	BM05NES.jpg
162.131	0.514	Blank	Blank	67.328	n/a	2	5	3	n/a	83	n/a	1	n/a	n/a	n/a	n/a	190.038	n/a
162.661	0.497	neutral	Picture	66.814	n/a	2	5	4	n/a	84	12	1	n/a	n/a	n/a	n/a	190.569	AF21NES.jpg
163.159	0.514	Blank	Blank	66.3	n/a	2	5	4	n/a	84	n/a	1	n/a	n/a	n/a	n/a	191.066	n/a
163.689	0.497	neutral	Picture	65.786	n/a	2	5	5	n/a	85	13	1	n/a	n/a	n/a	n/a	191.597	BF22NES.jpg
164.186	0.514	Blank	Blank	65.272	n/a	2	5	5	n/a	85	n/a	1	n/a	n/a	n/a	n/a	192.094	n/a
164.717	0.497	neutral	Picture	64.758	n/a	2	5	6	n/a	86	17	1	n/a	n/a	n/a	n/a	192.625	BF28NES.jpg
165.214	0.514	Blank	Blank	64.244	n/a	2	5	6	n/a	86	n/a	1	n/a	n/a	n/a	n/a	193.122	n/a
165.745	0.497	neutral	Picture	63.73	n/a	2	5	7	n/a	87	4	1	n/a	n/a	n/a	n/a	193.653	AF05NES.jpg
166.242	0.514	Blank	Blank	63.216	n/a	2	5	7	n/a	87	n/a	1	n/a	n/a	n/a	n/a	194.15	n/a
166.773	0.497	neutral	Picture	62.702	n/a	2	5	8	n/a	88	11	1	n/a	n/a	n/a	n/a	194.68	AF20NES.jpg
167.27	0.514	Blank	Blank	62.188	n/a	2	5	8	n/a	88	n/a	1	n/a	n/a	n/a	n/a	195.178	n/a
167.801	0.497	neutral	Picture	61.674	n/a	2	5	9	n/a	89	22	1	n/a	n/a	n/a	n/a	195.708	BM03NES.jpg
168.298	0.514	Blank	Blank	61.16	n/a	2	5	9	n/a	89	n/a	1	n/a	n/a	n/a	n/a	196.206	n/a
168.829	0.497	neutral	Picture	60.646	n/a	2	5	10	n/a	90	15	1	n/a	n/a	n/a	n/a	196.736	AF25NES.jpg
169.326	0.514	Blank	Blank	60.132	n/a	2	5	10	n/a	90	n/a	1	n/a	n/a	n/a	n/a	197.234	n/a
169.857	0.497	neutral	Picture	59.618	n/a	2	5	11	n/a	91	19	1	n/a	n/a	n/a	n/a	197.764	AF31NES.jpg
170.354	0.514	Blank	Blank	59.105	n/a	2	5	11	n/a	91	n/a	1	n/a	n/a	n/a	n/a	198.262	n/a
170.884	0.497	neutral	Picture	58.591	n/a	2	5	12	n/a	92	9	1	n/a	n/a	n/a	n/a	198.792	AF17NES.jpg
171.382	0.514	Blank	Blank	58.077	n/a	2	5	12	n/a	92	n/a	1	n/a	n/a	n/a	n/a	199.289	n/a
171.912	0.497	neutral	Picture	57.563	n/a	2	5	13	n/a	93	14	1	n/a	n/a	n/a	n/a	199.82	AF23NES.jpg
172.41	0.514	Blank	Blank	57.049	n/a	2	5	13	n/a	93	n/a	1	n/a	n/a	n/a	n/a	200.317	n/a
172.94	0.497	neutral	Picture	56.535	n/a	2	5	14	n/a	94	36	1	n/a	n/a	n/a	n/a	200.848	BM24NES.jpg
173.438	0.514	Blank	Blank	56.021	n/a	2	5	14	n/a	94	n/a	1	n/a	n/a	n/a	n/a	201.345	n/a
173.968	0.497	neutral	Picture	55.507	n/a	2	5	15	n/a	95	34	1	n/a	n/a	n/a	n/a	201.876	AM22NES.jpg
174.465	0.514	Blank	Blank	54.993	n/a	2	5	15	n/a	95	n/a	1	n/a	n/a	n/a	n/a	202.373	n/a
174.996	0.497	neutral	Picture	54.479	n/a	2	5	16	n/a	96	10	1	n/a	n/a	n/a	n/a	202.904	AF18NES.jpg
175.493	0.514	Blank	Blank	53.965	n/a	2	5	16	n/a	96	n/a	1	n/a	n/a	n/a	n/a	203.401	n/a
176.024	0.497	neutral	Picture	53.451	n/a	2	5	17	n/a	97	5	1	n/a	n/a	n/a	n/a	203.931	BF07NES.jpg
176.521	0.514	Blank	Blank	52.937	n/a	2	5	17	n/a	97	n/a	1	n/a	n/a	n/a	n/a	204.429	n/a
177.052	0.497	neutral	Picture	52.423	n/a	2	5	18	n/a	98	25	1	n/a	n/a	n/a	n/a	204.959	BM06NES.jpg
177.549	0.514	Blank	Blank	51.909	n/a	2	5	18	n/a	98	n/a	1	n/a	n/a	n/a	n/a	205.457	n/a
178.08	0.497	neutral	Picture	51.395	n/a	2	5	19	n/a	99	39	1	n/a	n/a	n/a	n/a	205.987	AM28NES.jpg
178.577	0.514	Blank	Blank	50.881	n/a	2	5	19	n/a	99	n/a	1	n/a	n/a	n/a	n/a	206.485	n/a
179.107	0.497	neutral	Picture	50.368	n/a	2	5	20	n/a	100	33	1	n/a	n/a	n/a	n/a	207.015	AM21NES.jpg
179.605	0.514	Blank	Blank	49.854	n/a	2	5	20	n/a	100	n/a	1	n/a	n/a	n/a	n/a	207.512	n/a
180.135	10.014	ITI	Fixation+	39.823	n/a	2	n/a	n/a	n/a	n/a	n/a	n/a	n/a	n/a	n/a	n/a	208.043	n/a
190.166	0.497	angry	Picture	39.309	n/a	2	6	1	n/a	101	74	2	n/a	n/a	n/a	n/a	218.073	AM22HAS.jpg
190.663	0.514	Blank	Blank	38.795	n/a	2	6	1	n/a	101	n/a	2	n/a	n/a	n/a	n/a	218.571	n/a
191.194	0.497	angry	Picture	38.281	n/a	2	6	2	n/a	102	76	2	n/a	n/a	n/a	n/a	219.101	BM24HAS.jpg
191.691	0.514	Blank	Blank	37.768	n/a	2	6	2	n/a	102	n/a	2	n/a	n/a	n/a	n/a	219.599	n/a
192.221	0.497	angry	Picture	37.254	n/a	2	6	3	n/a	103	80	2	n/a	n/a	n/a	n/a	220.129	BM35HAS.jpg
192.719	0.514	Blank	Blank	36.74	n/a	2	6	3	n/a	103	n/a	2	n/a	n/a	n/a	n/a	220.626	n/a
193.249	0.497	angry	Picture	36.226	n/a	2	6	4	n/a	104	75	2	n/a	n/a	n/a	n/a	221.157	AM23HAS.jpg
193.747	0.514	Blank	Blank	35.712	n/a	2	6	4	n/a	104	n/a	2	n/a	n/a	n/a	n/a	221.654	n/a
194.277	0.497	angry	Picture	35.198	n/a	2	6	5	n/a	105	49	2	n/a	n/a	n/a	n/a	222.185	AF17HAS.jpg
194.775	0.514	Blank	Blank	34.684	n/a	2	6	5	n/a	105	n/a	2	n/a	n/a	n/a	n/a	222.682	n/a
195.305	0.497	angry	Picture	34.17	n/a	2	6	6	n/a	106	43	2	n/a	n/a	n/a	n/a	223.213	BF04HAS.jpg
195.802	0.514	Blank	Blank	33.656	n/a	2	6	6	n/a	106	n/a	2	n/a	n/a	n/a	n/a	223.71	n/a
196.333	0.497	angry	Picture	33.142	n/a	2	6	7	n/a	107	70	2	n/a	n/a	n/a	n/a	224.241	BM11HAS.jpg
196.83	0.514	Blank	Blank	32.628	n/a	2	6	7	n/a	107	n/a	2	n/a	n/a	n/a	n/a	224.738	n/a
197.361	0.497	angry	Picture	32.114	n/a	2	6	8	n/a	108	66	2	n/a	n/a	n/a	n/a	225.268	BM07HAS.jpg
197.858	0.514	Blank	Blank	31.6	n/a	2	6	8	n/a	108	n/a	2	n/a	n/a	n/a	n/a	225.766	n/a
198.389	0.497	angry	Picture	31.086	n/a	2	6	9	n/a	109	48	2	n/a	n/a	n/a	n/a	226.296	AF14HAS.jpg
198.886	0.514	Blank	Blank	30.572	n/a	2	6	9	n/a	109	n/a	2	n/a	n/a	n/a	n/a	226.794	n/a
199.417	0.497	angry	Picture	30.058	n/a	2	6	10	n/a	110	58	2	n/a	n/a	n/a	n/a	227.324	BF29HAS.jpg
199.914	0.514	Blank	Blank	29.544	n/a	2	6	10	n/a	110	n/a	2	n/a	n/a	n/a	n/a	227.822	n/a
200.445	0.497	angry	Picture	29.03	n/a	2	6	11	n/a	111	63	2	n/a	n/a	n/a	n/a	228.352	AM04HAS.jpg
200.942	0.514	Blank	Blank	28.517	n/a	2	6	11	n/a	111	n/a	2	n/a	n/a	n/a	n/a	228.85	n/a
201.472	0.497	angry	Picture	28.003	n/a	2	6	12	n/a	112	72	2	n/a	n/a	n/a	n/a	229.38	AM14HAS.jpg
201.97	0.514	Blank	Blank	27.489	n/a	2	6	12	n/a	112	n/a	2	n/a	n/a	n/a	n/a	229.877	n/a
202.5	0.497	angry	Picture	26.975	n/a	2	6	13	n/a	113	55	2	n/a	n/a	n/a	n/a	230.408	AF25HAS.jpg
202.998	0.514	Blank	Blank	26.461	n/a	2	6	13	n/a	113	n/a	2	n/a	n/a	n/a	n/a	230.905	n/a
203.528	0.497	angry	Picture	25.947	n/a	2	6	14	n/a	114	42	2	n/a	n/a	n/a	n/a	231.436	AF03HAS.jpg
204.026	0.514	Blank	Blank	25.433	n/a	2	6	14	n/a	114	n/a	2	n/a	n/a	n/a	n/a	231.933	n/a
204.556	0.497	angry	Picture	24.919	n/a	2	6	15	n/a	115	60	2	n/a	n/a	n/a	n/a	232.464	AF32HAS.jpg
205.053	0.514	Blank	Blank	24.405	n/a	2	6	15	n/a	115	n/a	2	n/a	n/a	n/a	n/a	232.961	n/a
205.584	0.497	angry	Picture	23.891	n/a	2	6	16	n/a	116	67	2	n/a	n/a	n/a	n/a	233.492	BM08HAS.jpg
206.081	0.514	Blank	Blank	23.377	n/a	2	6	16	n/a	116	n/a	2	n/a	n/a	n/a	n/a	233.989	n/a
206.612	0.497	angry	Picture	22.863	n/a	2	6	17	n/a	117	51	2	n/a	n/a	n/a	n/a	234.519	AF20HAS.jpg
207.109	0.514	Blank	Blank	22.349	n/a	2	6	17	n/a	117	n/a	2	n/a	n/a	n/a	n/a	235.017	n/a
207.64	0.497	angry	Picture	21.835	n/a	2	6	18	n/a	118	71	2	n/a	n/a	n/a	n/a	235.547	BM12HAS.jpg
208.137	0.514	Blank	Blank	21.321	n/a	2	6	18	n/a	118	n/a	2	n/a	n/a	n/a	n/a	236.045	n/a
208.668	0.497	angry	Picture	20.807	n/a	2	6	19	n/a	119	69	2	n/a	n/a	n/a	n/a	236.575	AM10HAS.jpg
209.165	0.514	Blank	Blank	20.293	n/a	2	6	19	n/a	119	n/a	2	n/a	n/a	n/a	n/a	237.073	n/a
209.696	0.497	angry	Picture	19.779	n/a	2	6	20	n/a	120	46	2	n/a	n/a	n/a	n/a	237.603	AF09HAS.jpg
210.193	0.514	Blank	Blank	19.266	n/a	2	6	20	n/a	120	n/a	2	n/a	n/a	n/a	n/a	238.101	n/a
210.723	10.014	ITI	Fixation+	9.235	n/a	2	n/a	n/a	n/a	n/a	n/a	n/a	n/a	n/a	n/a	n/a	238.631	n/a
229.972	n/a	ConfirmRating	Rate	n/a	9.234	2	n/a	n/a	0	n/a	n/a	n/a	2	Angry	57	51	257.88	n/a
238.967	n/a	ConfirmRating	Rate	n/a	8.969	2	n/a	n/a	1	n/a	n/a	n/a	3	Angry	30	50	266.875	n/a
238.99	15.004	Rest	Picture	n/a	n/a	n/a	n/a	n/a	n/a	n/a	n/a	n/a	0	n/a	0	0	266.898	n/a
254.011	10.014	ITI	Fixation+	96.949	n/a	3	n/a	n/a	n/a	n/a	n/a	n/a	n/a	n/a	n/a	n/a	281.918	n/a
264.041	0.497	happy	Picture	96.435	n/a	3	7	1	n/a	1	108	3	n/a	n/a	n/a	n/a	291.949	AM09ANS.jpg
264.538	0.514	Blank	Blank	95.921	n/a	3	7	1	n/a	1	n/a	3	n/a	n/a	n/a	n/a	292.446	n/a
265.069	0.497	happy	Picture	95.407	n/a	3	7	2	n/a	2	99	3	n/a	n/a	n/a	n/a	292.977	AF31ANS.jpg
265.566	0.514	Blank	Blank	94.893	n/a	3	7	2	n/a	2	n/a	3	n/a	n/a	n/a	n/a	293.474	n/a
266.097	0.497	happy	Picture	94.379	n/a	3	7	3	n/a	3	98	3	n/a	n/a	n/a	n/a	294.005	BF29ANS.jpg
266.594	0.514	Blank	Blank	93.865	n/a	3	7	3	n/a	3	n/a	3	n/a	n/a	n/a	n/a	294.502	n/a
267.125	0.497	happy	Picture	93.351	n/a	3	7	4	n/a	4	107	3	n/a	n/a	n/a	n/a	295.032	BM08ANS.jpg
267.622	0.514	Blank	Blank	92.837	n/a	3	7	4	n/a	4	n/a	3	n/a	n/a	n/a	n/a	295.53	n/a
268.153	0.497	happy	Picture	92.323	n/a	3	7	5	n/a	5	104	3	n/a	n/a	n/a	n/a	296.06	BM05ANS.jpg
268.65	0.514	Blank	Blank	91.809	n/a	3	7	5	n/a	5	n/a	3	n/a	n/a	n/a	n/a	296.558	n/a
269.181	0.497	happy	Picture	91.295	n/a	3	7	6	n/a	6	101	3	n/a	n/a	n/a	n/a	297.088	AM01ANS.jpg
269.678	0.514	Blank	Blank	90.781	n/a	3	7	6	n/a	6	n/a	3	n/a	n/a	n/a	n/a	297.586	n/a
270.208	0.497	happy	Picture	90.267	n/a	3	7	7	n/a	7	103	3	n/a	n/a	n/a	n/a	298.116	AM04ANS.jpg
270.706	0.514	Blank	Blank	89.753	n/a	3	7	7	n/a	7	n/a	3	n/a	n/a	n/a	n/a	298.613	n/a
271.236	0.497	happy	Picture	89.239	n/a	3	7	8	n/a	8	111	3	n/a	n/a	n/a	n/a	299.144	BM12ANS.jpg
271.734	0.514	Blank	Blank	88.725	n/a	3	7	8	n/a	8	n/a	3	n/a	n/a	n/a	n/a	299.641	n/a
272.264	0.497	happy	Picture	88.211	n/a	3	7	9	n/a	9	110	3	n/a	n/a	n/a	n/a	300.172	AM11ANS.jpg
272.762	0.514	Blank	Blank	87.698	n/a	3	7	9	n/a	9	n/a	3	n/a	n/a	n/a	n/a	300.669	n/a
273.292	0.497	happy	Picture	87.183	n/a	3	7	10	n/a	10	85	3	n/a	n/a	n/a	n/a	301.2	BF07ANS.jpg
273.789	0.514	Blank	Blank	86.67	n/a	3	7	10	n/a	10	n/a	3	n/a	n/a	n/a	n/a	301.697	n/a
274.32	0.497	happy	Picture	86.156	n/a	3	7	11	n/a	11	87	3	n/a	n/a	n/a	n/a	302.228	BF11ANS.jpg
274.817	0.514	Blank	Blank	85.642	n/a	3	7	11	n/a	11	n/a	3	n/a	n/a	n/a	n/a	302.725	n/a
275.348	0.497	happy	Picture	85.128	n/a	3	7	12	n/a	12	91	3	n/a	n/a	n/a	n/a	303.255	AF20ANS.jpg
275.845	0.514	Blank	Blank	84.614	n/a	3	7	12	n/a	12	n/a	3	n/a	n/a	n/a	n/a	303.753	n/a
276.376	0.497	happy	Picture	84.1	n/a	3	7	13	n/a	13	115	3	n/a	n/a	n/a	n/a	304.283	AM23ANS.jpg
276.873	0.514	Blank	Blank	83.586	n/a	3	7	13	n/a	13	n/a	3	n/a	n/a	n/a	n/a	304.781	n/a
277.404	0.497	happy	Picture	83.072	n/a	3	7	14	n/a	14	97	3	n/a	n/a	n/a	n/a	305.311	BF28ANS.jpg
277.901	0.514	Blank	Blank	82.558	n/a	3	7	14	n/a	14	n/a	3	n/a	n/a	n/a	n/a	305.809	n/a
278.432	0.497	happy	Picture	82.044	n/a	3	7	15	n/a	15	82	3	n/a	n/a	n/a	n/a	306.339	AF03ANS.jpg
278.929	0.514	Blank	Blank	81.53	n/a	3	7	15	n/a	15	n/a	3	n/a	n/a	n/a	n/a	306.837	n/a
279.459	0.497	happy	Picture	81.016	n/a	3	7	16	n/a	16	96	3	n/a	n/a	n/a	n/a	307.367	AF26ANS.jpg
279.957	0.514	Blank	Blank	80.502	n/a	3	7	16	n/a	16	n/a	3	n/a	n/a	n/a	n/a	307.864	n/a
280.487	0.497	happy	Picture	79.988	n/a	3	7	17	n/a	17	109	3	n/a	n/a	n/a	n/a	308.395	AM10ANS.jpg
280.985	0.514	Blank	Blank	79.474	n/a	3	7	17	n/a	17	n/a	3	n/a	n/a	n/a	n/a	308.892	n/a
281.515	0.497	happy	Picture	78.96	n/a	3	7	18	n/a	18	114	3	n/a	n/a	n/a	n/a	309.423	AM22ANS.jpg
282.013	0.514	Blank	Blank	78.447	n/a	3	7	18	n/a	18	n/a	3	n/a	n/a	n/a	n/a	309.92	n/a
282.543	0.497	happy	Picture	77.933	n/a	3	7	19	n/a	19	120	3	n/a	n/a	n/a	n/a	310.451	AM35ANS.jpg
283.041	0.514	Blank	Blank	77.419	n/a	3	7	19	n/a	19	n/a	3	n/a	n/a	n/a	n/a	310.948	n/a
283.571	0.497	happy	Picture	76.905	n/a	3	7	20	n/a	20	81	3	n/a	n/a	n/a	n/a	311.479	AF01ANS.jpg
284.068	0.514	Blank	Blank	76.391	n/a	3	7	20	n/a	20	n/a	3	n/a	n/a	n/a	n/a	311.976	n/a
284.599	10.014	ITI	Fixation+	66.36	n/a	3	n/a	n/a	n/a	n/a	n/a	n/a	n/a	n/a	n/a	n/a	312.507	n/a
294.629	0.497	neutral	Picture	65.846	n/a	3	8	1	n/a	21	28	1	n/a	n/a	n/a	n/a	322.537	AM09NES.jpg
295.127	0.514	Blank	Blank	65.333	n/a	3	8	1	n/a	21	n/a	1	n/a	n/a	n/a	n/a	323.034	n/a
295.657	0.497	neutral	Picture	64.819	n/a	3	8	2	n/a	22	27	1	n/a	n/a	n/a	n/a	323.565	BM08NES.jpg
296.154	0.514	Blank	Blank	64.305	n/a	3	8	2	n/a	22	n/a	1	n/a	n/a	n/a	n/a	324.062	n/a
296.685	0.497	neutral	Picture	63.791	n/a	3	8	3	n/a	23	16	1	n/a	n/a	n/a	n/a	324.592	AF26NES.jpg
297.182	0.514	Blank	Blank	63.277	n/a	3	8	3	n/a	23	n/a	1	n/a	n/a	n/a	n/a	325.09	n/a
297.713	0.497	neutral	Picture	62.763	n/a	3	8	4	n/a	24	3	1	n/a	n/a	n/a	n/a	325.62	BF04NES.jpg
298.21	0.514	Blank	Blank	62.249	n/a	3	8	4	n/a	24	n/a	1	n/a	n/a	n/a	n/a	326.118	n/a
298.741	0.497	neutral	Picture	61.735	n/a	3	8	5	n/a	25	32	1	n/a	n/a	n/a	n/a	326.648	AM14NES.jpg
299.238	0.514	Blank	Blank	61.221	n/a	3	8	5	n/a	25	n/a	1	n/a	n/a	n/a	n/a	327.146	n/a
299.769	0.497	neutral	Picture	60.707	n/a	3	8	6	n/a	26	37	1	n/a	n/a	n/a	n/a	327.676	BM25NES.jpg
300.266	0.514	Blank	Blank	60.193	n/a	3	8	6	n/a	26	n/a	1	n/a	n/a	n/a	n/a	328.173	n/a
300.796	0.497	neutral	Picture	59.679	n/a	3	8	7	n/a	27	15	1	n/a	n/a	n/a	n/a	328.704	AF25NES.jpg
301.294	0.514	Blank	Blank	59.165	n/a	3	8	7	n/a	27	n/a	1	n/a	n/a	n/a	n/a	329.201	n/a
301.824	0.497	neutral	Picture	58.651	n/a	3	8	8	n/a	28	23	1	n/a	n/a	n/a	n/a	329.732	AM04NES.jpg
302.322	0.514	Blank	Blank	58.137	n/a	3	8	8	n/a	28	n/a	1	n/a	n/a	n/a	n/a	330.229	n/a
302.852	0.497	neutral	Picture	57.623	n/a	3	8	9	n/a	29	34	1	n/a	n/a	n/a	n/a	330.76	AM22NES.jpg
303.35	0.514	Blank	Blank	57.109	n/a	3	8	9	n/a	29	n/a	1	n/a	n/a	n/a	n/a	331.257	n/a
303.88	0.497	neutral	Picture	56.596	n/a	3	8	10	n/a	30	24	1	n/a	n/a	n/a	n/a	331.788	BM05NES.jpg
304.377	0.514	Blank	Blank	56.082	n/a	3	8	10	n/a	30	n/a	1	n/a	n/a	n/a	n/a	332.285	n/a
304.908	0.497	neutral	Picture	55.568	n/a	3	8	11	n/a	31	12	1	n/a	n/a	n/a	n/a	332.816	AF21NES.jpg
305.405	0.514	Blank	Blank	55.054	n/a	3	8	11	n/a	31	n/a	1	n/a	n/a	n/a	n/a	333.313	n/a
305.936	0.497	neutral	Picture	54.54	n/a	3	8	12	n/a	32	6	1	n/a	n/a	n/a	n/a	333.844	AF09NES.jpg
306.433	0.514	Blank	Blank	54.026	n/a	3	8	12	n/a	32	n/a	1	n/a	n/a	n/a	n/a	334.341	n/a
306.964	0.497	neutral	Picture	53.512	n/a	3	8	13	n/a	33	17	1	n/a	n/a	n/a	n/a	334.871	BF28NES.jpg
307.461	0.514	Blank	Blank	52.998	n/a	3	8	13	n/a	33	n/a	1	n/a	n/a	n/a	n/a	335.369	n/a
307.992	0.497	neutral	Picture	52.484	n/a	3	8	14	n/a	34	2	1	n/a	n/a	n/a	n/a	335.899	AF03NES.jpg
308.489	0.514	Blank	Blank	51.97	n/a	3	8	14	n/a	34	n/a	1	n/a	n/a	n/a	n/a	336.397	n/a
309.02	0.497	neutral	Picture	51.456	n/a	3	8	15	n/a	35	9	1	n/a	n/a	n/a	n/a	336.927	AF17NES.jpg
309.517	0.514	Blank	Blank	50.942	n/a	3	8	15	n/a	35	n/a	1	n/a	n/a	n/a	n/a	337.425	n/a
310.048	0.497	neutral	Picture	50.428	n/a	3	8	16	n/a	36	25	1	n/a	n/a	n/a	n/a	337.955	BM06NES.jpg
310.545	0.514	Blank	Blank	49.914	n/a	3	8	16	n/a	36	n/a	1	n/a	n/a	n/a	n/a	338.452	n/a
311.075	0.497	neutral	Picture	49.4	n/a	3	8	17	n/a	37	8	1	n/a	n/a	n/a	n/a	338.983	AF14NES.jpg
311.573	0.514	Blank	Blank	48.886	n/a	3	8	17	n/a	37	n/a	1	n/a	n/a	n/a	n/a	339.48	n/a
312.103	0.497	neutral	Picture	48.372	n/a	3	8	18	n/a	38	19	1	n/a	n/a	n/a	n/a	340.011	AF31NES.jpg
312.601	0.514	Blank	Blank	47.858	n/a	3	8	18	n/a	38	n/a	1	n/a	n/a	n/a	n/a	340.508	n/a
313.131	0.497	neutral	Picture	47.345	n/a	3	8	19	n/a	39	14	1	n/a	n/a	n/a	n/a	341.039	AF23NES.jpg
313.628	0.514	Blank	Blank	46.831	n/a	3	8	19	n/a	39	n/a	1	n/a	n/a	n/a	n/a	341.536	n/a
314.159	0.497	neutral	Picture	46.317	n/a	3	8	20	n/a	40	4	1	n/a	n/a	n/a	n/a	342.067	AF05NES.jpg
314.656	0.514	Blank	Blank	45.803	n/a	3	8	20	n/a	40	n/a	1	n/a	n/a	n/a	n/a	342.564	n/a
315.187	10.014	ITI	Fixation+	35.772	n/a	3	n/a	n/a	n/a	n/a	n/a	n/a	n/a	n/a	n/a	n/a	343.094	n/a
325.217	0.497	happy	Picture	35.259	n/a	3	9	1	n/a	41	84	3	n/a	n/a	n/a	n/a	353.125	AF05ANS.jpg
325.714	0.514	Blank	Blank	34.745	n/a	3	9	1	n/a	41	n/a	3	n/a	n/a	n/a	n/a	353.622	n/a
326.245	0.497	happy	Picture	34.231	n/a	3	9	2	n/a	42	92	3	n/a	n/a	n/a	n/a	354.153	AF21ANS.jpg
326.742	0.514	Blank	Blank	33.717	n/a	3	9	2	n/a	42	n/a	3	n/a	n/a	n/a	n/a	354.65	n/a
327.273	0.497	happy	Picture	33.203	n/a	3	9	3	n/a	43	86	3	n/a	n/a	n/a	n/a	355.18	AF09ANS.jpg
327.77	0.514	Blank	Blank	32.689	n/a	3	9	3	n/a	43	n/a	3	n/a	n/a	n/a	n/a	355.678	n/a
328.301	0.497	happy	Picture	32.175	n/a	3	9	4	n/a	44	93	3	n/a	n/a	n/a	n/a	356.208	BF22ANS.jpg
328.798	0.514	Blank	Blank	31.661	n/a	3	9	4	n/a	44	n/a	3	n/a	n/a	n/a	n/a	356.706	n/a
329.329	0.497	happy	Picture	31.147	n/a	3	9	5	n/a	45	88	3	n/a	n/a	n/a	n/a	357.236	AF14ANS.jpg
329.826	0.514	Blank	Blank	30.633	n/a	3	9	5	n/a	45	n/a	3	n/a	n/a	n/a	n/a	357.734	n/a
330.357	0.497	happy	Picture	30.119	n/a	3	9	6	n/a	46	113	3	n/a	n/a	n/a	n/a	358.264	AM21ANS.jpg
330.854	0.514	Blank	Blank	29.605	n/a	3	9	6	n/a	46	n/a	3	n/a	n/a	n/a	n/a	358.762	n/a
331.385	0.497	happy	Picture	29.091	n/a	3	9	7	n/a	47	95	3	n/a	n/a	n/a	n/a	359.292	AF25ANS.jpg
331.882	0.514	Blank	Blank	28.577	n/a	3	9	7	n/a	47	n/a	3	n/a	n/a	n/a	n/a	359.789	n/a
332.412	0.497	happy	Picture	28.063	n/a	3	9	8	n/a	48	102	3	n/a	n/a	n/a	n/a	360.32	BM03ANS.jpg
332.91	0.514	Blank	Blank	27.549	n/a	3	9	8	n/a	48	n/a	3	n/a	n/a	n/a	n/a	360.817	n/a
333.44	0.497	happy	Picture	27.035	n/a	3	9	9	n/a	49	112	3	n/a	n/a	n/a	n/a	361.348	AM14ANS.jpg
333.938	0.514	Blank	Blank	26.521	n/a	3	9	9	n/a	49	n/a	3	n/a	n/a	n/a	n/a	361.845	n/a
334.468	0.497	happy	Picture	26.007	n/a	3	9	10	n/a	50	83	3	n/a	n/a	n/a	n/a	362.376	BF04ANS.jpg
334.966	0.514	Blank	Blank	25.493	n/a	3	9	10	n/a	50	n/a	3	n/a	n/a	n/a	n/a	362.873	n/a
335.496	0.497	happy	Picture	24.98	n/a	3	9	11	n/a	51	90	3	n/a	n/a	n/a	n/a	363.404	AF18ANS.jpg
335.993	0.514	Blank	Blank	24.466	n/a	3	9	11	n/a	51	n/a	3	n/a	n/a	n/a	n/a	363.901	n/a
336.524	0.497	happy	Picture	23.952	n/a	3	9	12	n/a	52	117	3	n/a	n/a	n/a	n/a	364.432	BM25ANS.jpg
337.021	0.514	Blank	Blank	23.438	n/a	3	9	12	n/a	52	n/a	3	n/a	n/a	n/a	n/a	364.929	n/a
337.552	0.497	happy	Picture	22.924	n/a	3	9	13	n/a	53	94	3	n/a	n/a	n/a	n/a	365.459	AF23ANS.jpg
338.049	0.514	Blank	Blank	22.41	n/a	3	9	13	n/a	53	n/a	3	n/a	n/a	n/a	n/a	365.957	n/a
338.58	0.497	happy	Picture	21.896	n/a	3	9	14	n/a	54	106	3	n/a	n/a	n/a	n/a	366.487	AM07ANS.jpg
339.077	0.514	Blank	Blank	21.382	n/a	3	9	14	n/a	54	n/a	3	n/a	n/a	n/a	n/a	366.985	n/a
339.608	0.497	happy	Picture	20.868	n/a	3	9	15	n/a	55	105	3	n/a	n/a	n/a	n/a	367.515	BM06ANS.jpg
340.105	0.514	Blank	Blank	20.354	n/a	3	9	15	n/a	55	n/a	3	n/a	n/a	n/a	n/a	368.013	n/a
340.635	0.497	happy	Picture	19.84	n/a	3	9	16	n/a	56	116	3	n/a	n/a	n/a	n/a	368.543	BM24ANS.jpg
341.133	0.514	Blank	Blank	19.326	n/a	3	9	16	n/a	56	n/a	3	n/a	n/a	n/a	n/a	369.041	n/a
341.663	0.497	happy	Picture	18.812	n/a	3	9	17	n/a	57	89	3	n/a	n/a	n/a	n/a	369.571	AF17ANS.jpg
342.161	0.514	Blank	Blank	18.298	n/a	3	9	17	n/a	57	n/a	3	n/a	n/a	n/a	n/a	370.068	n/a
342.691	0.497	happy	Picture	17.784	n/a	3	9	18	n/a	58	118	3	n/a	n/a	n/a	n/a	370.599	BM26ANS.jpg
343.189	0.514	Blank	Blank	17.27	n/a	3	9	18	n/a	58	n/a	3	n/a	n/a	n/a	n/a	371.096	n/a
343.719	0.497	happy	Picture	16.757	n/a	3	9	19	n/a	59	100	3	n/a	n/a	n/a	n/a	371.627	AF32ANS.jpg
344.216	0.514	Blank	Blank	16.243	n/a	3	9	19	n/a	59	n/a	3	n/a	n/a	n/a	n/a	372.124	n/a
344.747	0.497	happy	Picture	15.729	n/a	3	9	20	n/a	60	119	3	n/a	n/a	n/a	n/a	372.655	BM28ANS.jpg
345.244	0.514	Blank	Blank	15.215	n/a	3	9	20	n/a	60	n/a	3	n/a	n/a	n/a	n/a	373.152	n/a
345.775	10.014	ITI	Fixation+	5.184	n/a	3	n/a	n/a	n/a	n/a	n/a	n/a	n/a	n/a	n/a	n/a	373.683	n/a
360.973	n/a	ConfirmRating	Rate	n/a	5.173	3	n/a	n/a	0	n/a	n/a	n/a	2	Happy	73	52	388.881	n/a
367.091	n/a	ConfirmRating	Rate	n/a	6.101	3	n/a	n/a	1	n/a	n/a	n/a	3	Happy	16	48	394.999	n/a
367.112	10.014	ITI	Fixation+	97.068	n/a	4	n/a	n/a	n/a	n/a	n/a	n/a	n/a	n/a	n/a	n/a	395.02	n/a
377.142	0.497	angry	Picture	96.554	n/a	4	10	1	n/a	61	79	2	n/a	n/a	n/a	n/a	405.05	BM28HAS.jpg
377.64	0.514	Blank	Blank	96.04	n/a	4	10	1	n/a	61	n/a	2	n/a	n/a	n/a	n/a	405.547	n/a
378.17	0.497	angry	Picture	95.526	n/a	4	10	2	n/a	62	61	2	n/a	n/a	n/a	n/a	406.078	AM01HAS.jpg
378.668	0.514	Blank	Blank	95.012	n/a	4	10	2	n/a	62	n/a	2	n/a	n/a	n/a	n/a	406.575	n/a
379.198	0.497	angry	Picture	94.498	n/a	4	10	3	n/a	63	57	2	n/a	n/a	n/a	n/a	407.106	BF28HAS.jpg
379.695	0.514	Blank	Blank	93.985	n/a	4	10	3	n/a	63	n/a	2	n/a	n/a	n/a	n/a	407.603	n/a
380.226	0.497	angry	Picture	93.471	n/a	4	10	4	n/a	64	77	2	n/a	n/a	n/a	n/a	408.134	BM25HAS.jpg
380.723	0.514	Blank	Blank	92.957	n/a	4	10	4	n/a	64	n/a	2	n/a	n/a	n/a	n/a	408.631	n/a
381.254	0.497	angry	Picture	92.443	n/a	4	10	5	n/a	65	47	2	n/a	n/a	n/a	n/a	409.161	BF11HAS.jpg
381.751	0.514	Blank	Blank	91.929	n/a	4	10	5	n/a	65	n/a	2	n/a	n/a	n/a	n/a	409.659	n/a
382.282	0.497	angry	Picture	91.415	n/a	4	10	6	n/a	66	50	2	n/a	n/a	n/a	n/a	410.189	AF18HAS.jpg
382.779	0.514	Blank	Blank	90.901	n/a	4	10	6	n/a	66	n/a	2	n/a	n/a	n/a	n/a	410.687	n/a
383.31	0.497	angry	Picture	90.387	n/a	4	10	7	n/a	67	78	2	n/a	n/a	n/a	n/a	411.217	BM26HAS.jpg
383.807	0.514	Blank	Blank	89.873	n/a	4	10	7	n/a	67	n/a	2	n/a	n/a	n/a	n/a	411.714	n/a
384.337	0.497	angry	Picture	89.359	n/a	4	10	8	n/a	68	45	2	n/a	n/a	n/a	n/a	412.245	BF07HAS.jpg
384.835	0.514	Blank	Blank	88.845	n/a	4	10	8	n/a	68	n/a	2	n/a	n/a	n/a	n/a	412.742	n/a
385.365	0.497	angry	Picture	88.331	n/a	4	10	9	n/a	69	56	2	n/a	n/a	n/a	n/a	413.273	AF26HAS.jpg
385.863	0.514	Blank	Blank	87.817	n/a	4	10	9	n/a	69	n/a	2	n/a	n/a	n/a	n/a	413.77	n/a
386.393	0.497	angry	Picture	87.303	n/a	4	10	10	n/a	70	65	2	n/a	n/a	n/a	n/a	414.301	BM06HAS.jpg
386.891	0.514	Blank	Blank	86.789	n/a	4	10	10	n/a	70	n/a	2	n/a	n/a	n/a	n/a	414.798	n/a
387.421	0.497	angry	Picture	86.275	n/a	4	10	11	n/a	71	73	2	n/a	n/a	n/a	n/a	415.329	AM21HAS.jpg
387.918	0.514	Blank	Blank	85.761	n/a	4	10	11	n/a	71	n/a	2	n/a	n/a	n/a	n/a	415.826	n/a
388.449	0.497	angry	Picture	85.247	n/a	4	10	12	n/a	72	41	2	n/a	n/a	n/a	n/a	416.357	AF01HAS.jpg
388.946	0.514	Blank	Blank	84.734	n/a	4	10	12	n/a	72	n/a	2	n/a	n/a	n/a	n/a	416.854	n/a
389.477	0.497	angry	Picture	84.22	n/a	4	10	13	n/a	73	59	2	n/a	n/a	n/a	n/a	417.385	AF31HAS.jpg
389.974	0.514	Blank	Blank	83.706	n/a	4	10	13	n/a	73	n/a	2	n/a	n/a	n/a	n/a	417.882	n/a
390.505	0.497	angry	Picture	83.192	n/a	4	10	14	n/a	74	64	2	n/a	n/a	n/a	n/a	418.412	BM05HAS.jpg
391.002	0.514	Blank	Blank	82.678	n/a	4	10	14	n/a	74	n/a	2	n/a	n/a	n/a	n/a	418.91	n/a
391.533	0.497	angry	Picture	82.164	n/a	4	10	15	n/a	75	68	2	n/a	n/a	n/a	n/a	419.44	AM09HAS.jpg
392.03	0.514	Blank	Blank	81.65	n/a	4	10	15	n/a	75	n/a	2	n/a	n/a	n/a	n/a	419.938	n/a
392.561	0.497	angry	Picture	81.136	n/a	4	10	16	n/a	76	54	2	n/a	n/a	n/a	n/a	420.468	AF23HAS.jpg
393.058	0.514	Blank	Blank	80.622	n/a	4	10	16	n/a	76	n/a	2	n/a	n/a	n/a	n/a	420.966	n/a
393.588	0.497	angry	Picture	80.108	n/a	4	10	17	n/a	77	53	2	n/a	n/a	n/a	n/a	421.496	BF22HAS.jpg
394.086	0.514	Blank	Blank	79.594	n/a	4	10	17	n/a	77	n/a	2	n/a	n/a	n/a	n/a	421.993	n/a
394.616	0.497	angry	Picture	79.08	n/a	4	10	18	n/a	78	44	2	n/a	n/a	n/a	n/a	422.524	AF05HAS.jpg
395.114	0.514	Blank	Blank	78.566	n/a	4	10	18	n/a	78	n/a	2	n/a	n/a	n/a	n/a	423.021	n/a
395.644	0.497	angry	Picture	78.052	n/a	4	10	19	n/a	79	52	2	n/a	n/a	n/a	n/a	423.552	AF21HAS.jpg
396.142	0.514	Blank	Blank	77.538	n/a	4	10	19	n/a	79	n/a	2	n/a	n/a	n/a	n/a	424.049	n/a
396.672	0.497	angry	Picture	77.024	n/a	4	10	20	n/a	80	62	2	n/a	n/a	n/a	n/a	424.58	BM03HAS.jpg
397.169	0.514	Blank	Blank	76.51	n/a	4	10	20	n/a	80	n/a	2	n/a	n/a	n/a	n/a	425.077	n/a
397.7	10.014	ITI	Fixation+	66.48	n/a	4	n/a	n/a	n/a	n/a	n/a	n/a	n/a	n/a	n/a	n/a	425.608	n/a
407.73	0.497	neutral	Picture	65.966	n/a	4	11	1	n/a	81	23	1	n/a	n/a	n/a	n/a	435.638	AM04NES.jpg
408.228	0.514	Blank	Blank	65.452	n/a	4	11	1	n/a	81	n/a	1	n/a	n/a	n/a	n/a	436.135	n/a
408.758	0.497	neutral	Picture	64.938	n/a	4	11	2	n/a	82	29	1	n/a	n/a	n/a	n/a	436.666	AM10NES.jpg
409.255	0.514	Blank	Blank	64.424	n/a	4	11	2	n/a	82	n/a	1	n/a	n/a	n/a	n/a	437.163	n/a
409.786	0.497	neutral	Picture	63.91	n/a	4	11	3	n/a	83	24	1	n/a	n/a	n/a	n/a	437.694	BM05NES.jpg
410.283	0.514	Blank	Blank	63.397	n/a	4	11	3	n/a	83	n/a	1	n/a	n/a	n/a	n/a	438.191	n/a
410.814	0.497	neutral	Picture	62.882	n/a	4	11	4	n/a	84	12	1	n/a	n/a	n/a	n/a	438.721	AF21NES.jpg
411.311	0.514	Blank	Blank	62.369	n/a	4	11	4	n/a	84	n/a	1	n/a	n/a	n/a	n/a	439.219	n/a
411.842	0.497	neutral	Picture	61.855	n/a	4	11	5	n/a	85	13	1	n/a	n/a	n/a	n/a	439.749	BF22NES.jpg
412.339	0.514	Blank	Blank	61.341	n/a	4	11	5	n/a	85	n/a	1	n/a	n/a	n/a	n/a	440.247	n/a
412.87	0.497	neutral	Picture	60.827	n/a	4	11	6	n/a	86	17	1	n/a	n/a	n/a	n/a	440.777	BF28NES.jpg
413.367	0.514	Blank	Blank	60.313	n/a	4	11	6	n/a	86	n/a	1	n/a	n/a	n/a	n/a	441.275	n/a
413.898	0.497	neutral	Picture	59.799	n/a	4	11	7	n/a	87	4	1	n/a	n/a	n/a	n/a	441.805	AF05NES.jpg
414.395	0.514	Blank	Blank	59.285	n/a	4	11	7	n/a	87	n/a	1	n/a	n/a	n/a	n/a	442.303	n/a
414.925	0.497	neutral	Picture	58.771	n/a	4	11	8	n/a	88	11	1	n/a	n/a	n/a	n/a	442.833	AF20NES.jpg
415.423	0.514	Blank	Blank	58.257	n/a	4	11	8	n/a	88	n/a	1	n/a	n/a	n/a	n/a	443.33	n/a
415.953	0.497	neutral	Picture	57.743	n/a	4	11	9	n/a	89	22	1	n/a	n/a	n/a	n/a	443.861	BM03NES.jpg
416.451	0.514	Blank	Blank	57.229	n/a	4	11	9	n/a	89	n/a	1	n/a	n/a	n/a	n/a	444.358	n/a
416.981	0.497	neutral	Picture	56.715	n/a	4	11	10	n/a	90	15	1	n/a	n/a	n/a	n/a	444.889	AF25NES.jpg
417.479	0.514	Blank	Blank	56.201	n/a	4	11	10	n/a	90	n/a	1	n/a	n/a	n/a	n/a	445.386	n/a
418.009	0.497	neutral	Picture	55.687	n/a	4	11	11	n/a	91	19	1	n/a	n/a	n/a	n/a	445.917	AF31NES.jpg
418.507	0.514	Blank	Blank	55.173	n/a	4	11	11	n/a	91	n/a	1	n/a	n/a	n/a	n/a	446.414	n/a
419.037	0.497	neutral	Picture	54.659	n/a	4	11	12	n/a	92	9	1	n/a	n/a	n/a	n/a	446.945	AF17NES.jpg
419.534	0.514	Blank	Blank	54.146	n/a	4	11	12	n/a	92	n/a	1	n/a	n/a	n/a	n/a	447.442	n/a
420.065	0.497	neutral	Picture	53.631	n/a	4	11	13	n/a	93	14	1	n/a	n/a	n/a	n/a	447.973	AF23NES.jpg
420.562	0.514	Blank	Blank	53.118	n/a	4	11	13	n/a	93	n/a	1	n/a	n/a	n/a	n/a	448.47	n/a
421.093	0.497	neutral	Picture	52.604	n/a	4	11	14	n/a	94	36	1	n/a	n/a	n/a	n/a	449.0	BM24NES.jpg
421.59	0.514	Blank	Blank	52.09	n/a	4	11	14	n/a	94	n/a	1	n/a	n/a	n/a	n/a	449.498	n/a
422.121	0.497	neutral	Picture	51.576	n/a	4	11	15	n/a	95	34	1	n/a	n/a	n/a	n/a	450.028	AM22NES.jpg
422.618	0.514	Blank	Blank	51.062	n/a	4	11	15	n/a	95	n/a	1	n/a	n/a	n/a	n/a	450.526	n/a
423.149	0.497	neutral	Picture	50.548	n/a	4	11	16	n/a	96	10	1	n/a	n/a	n/a	n/a	451.056	AF18NES.jpg
423.646	0.514	Blank	Blank	50.034	n/a	4	11	16	n/a	96	n/a	1	n/a	n/a	n/a	n/a	451.554	n/a
424.176	0.497	neutral	Picture	49.52	n/a	4	11	17	n/a	97	5	1	n/a	n/a	n/a	n/a	452.084	BF07NES.jpg
424.674	0.514	Blank	Blank	49.006	n/a	4	11	17	n/a	97	n/a	1	n/a	n/a	n/a	n/a	452.581	n/a
425.204	0.497	neutral	Picture	48.492	n/a	4	11	18	n/a	98	25	1	n/a	n/a	n/a	n/a	453.112	BM06NES.jpg
425.702	0.514	Blank	Blank	47.978	n/a	4	11	18	n/a	98	n/a	1	n/a	n/a	n/a	n/a	453.609	n/a
426.232	0.497	neutral	Picture	47.464	n/a	4	11	19	n/a	99	39	1	n/a	n/a	n/a	n/a	454.14	AM28NES.jpg
426.73	0.514	Blank	Blank	46.95	n/a	4	11	19	n/a	99	n/a	1	n/a	n/a	n/a	n/a	454.637	n/a
427.26	0.497	neutral	Picture	46.436	n/a	4	11	20	n/a	100	33	1	n/a	n/a	n/a	n/a	455.168	AM21NES.jpg
427.757	0.514	Blank	Blank	45.922	n/a	4	11	20	n/a	100	n/a	1	n/a	n/a	n/a	n/a	455.665	n/a
428.288	10.014	ITI	Fixation+	35.892	n/a	4	n/a	n/a	n/a	n/a	n/a	n/a	n/a	n/a	n/a	n/a	456.196	n/a
438.318	0.497	angry	Picture	35.378	n/a	4	12	1	n/a	101	74	2	n/a	n/a	n/a	n/a	466.226	AM22HAS.jpg
438.816	0.514	Blank	Blank	34.864	n/a	4	12	1	n/a	101	n/a	2	n/a	n/a	n/a	n/a	466.723	n/a
439.346	0.497	angry	Picture	34.35	n/a	4	12	2	n/a	102	76	2	n/a	n/a	n/a	n/a	467.254	BM24HAS.jpg
439.844	0.514	Blank	Blank	33.836	n/a	4	12	2	n/a	102	n/a	2	n/a	n/a	n/a	n/a	467.751	n/a
440.374	0.497	angry	Picture	33.322	n/a	4	12	3	n/a	103	80	2	n/a	n/a	n/a	n/a	468.282	BM35HAS.jpg
440.871	0.514	Blank	Blank	32.809	n/a	4	12	3	n/a	103	n/a	2	n/a	n/a	n/a	n/a	468.779	n/a
441.402	0.497	angry	Picture	32.294	n/a	4	12	4	n/a	104	75	2	n/a	n/a	n/a	n/a	469.31	AM23HAS.jpg
441.899	0.514	Blank	Blank	31.781	n/a	4	12	4	n/a	104	n/a	2	n/a	n/a	n/a	n/a	469.807	n/a
442.43	0.497	angry	Picture	31.267	n/a	4	12	5	n/a	105	49	2	n/a	n/a	n/a	n/a	470.337	AF17HAS.jpg
442.927	0.514	Blank	Blank	30.753	n/a	4	12	5	n/a	105	n/a	2	n/a	n/a	n/a	n/a	470.835	n/a
443.458	0.497	angry	Picture	30.239	n/a	4	12	6	n/a	106	43	2	n/a	n/a	n/a	n/a	471.365	BF04HAS.jpg
443.955	0.514	Blank	Blank	29.725	n/a	4	12	6	n/a	106	n/a	2	n/a	n/a	n/a	n/a	471.863	n/a
444.486	0.497	angry	Picture	29.211	n/a	4	12	7	n/a	107	70	2	n/a	n/a	n/a	n/a	472.393	BM11HAS.jpg
444.983	0.514	Blank	Blank	28.697	n/a	4	12	7	n/a	107	n/a	2	n/a	n/a	n/a	n/a	472.891	n/a
445.514	0.497	angry	Picture	28.183	n/a	4	12	8	n/a	108	66	2	n/a	n/a	n/a	n/a	473.421	BM07HAS.jpg
446.011	0.514	Blank	Blank	27.669	n/a	4	12	8	n/a	108	n/a	2	n/a	n/a	n/a	n/a	473.918	n/a
446.541	0.497	angry	Picture	27.155	n/a	4	12	9	n/a	109	48	2	n/a	n/a	n/a	n/a	474.449	AF14HAS.jpg
447.039	0.514	Blank	Blank	26.641	n/a	4	12	9	n/a	109	n/a	2	n/a	n/a	n/a	n/a	474.946	n/a
447.569	0.497	angry	Picture	26.127	n/a	4	12	10	n/a	110	58	2	n/a	n/a	n/a	n/a	475.477	BF29HAS.jpg
448.067	0.514	Blank	Blank	25.613	n/a	4	12	10	n/a	110	n/a	2	n/a	n/a	n/a	n/a	475.974	n/a
448.597	0.497	angry	Picture	25.099	n/a	4	12	11	n/a	111	63	2	n/a	n/a	n/a	n/a	476.505	AM04HAS.jpg
449.094	0.514	Blank	Blank	24.585	n/a	4	12	11	n/a	111	n/a	2	n/a	n/a	n/a	n/a	477.002	n/a
449.625	0.497	angry	Picture	24.071	n/a	4	12	12	n/a	112	72	2	n/a	n/a	n/a	n/a	477.533	AM14HAS.jpg
450.122	0.514	Blank	Blank	23.557	n/a	4	12	12	n/a	112	n/a	2	n/a	n/a	n/a	n/a	478.03	n/a
450.653	0.497	angry	Picture	23.043	n/a	4	12	13	n/a	113	55	2	n/a	n/a	n/a	n/a	478.56	AF25HAS.jpg
451.15	0.514	Blank	Blank	22.529	n/a	4	12	13	n/a	113	n/a	2	n/a	n/a	n/a	n/a	479.058	n/a
451.681	0.497	angry	Picture	22.016	n/a	4	12	14	n/a	114	42	2	n/a	n/a	n/a	n/a	479.588	AF03HAS.jpg
452.178	0.514	Blank	Blank	21.502	n/a	4	12	14	n/a	114	n/a	2	n/a	n/a	n/a	n/a	480.086	n/a
452.709	0.497	angry	Picture	20.988	n/a	4	12	15	n/a	115	60	2	n/a	n/a	n/a	n/a	480.616	AF32HAS.jpg
453.206	0.514	Blank	Blank	20.474	n/a	4	12	15	n/a	115	n/a	2	n/a	n/a	n/a	n/a	481.114	n/a
453.737	0.497	angry	Picture	19.96	n/a	4	12	16	n/a	116	67	2	n/a	n/a	n/a	n/a	481.644	BM08HAS.jpg
454.234	0.514	Blank	Blank	19.446	n/a	4	12	16	n/a	116	n/a	2	n/a	n/a	n/a	n/a	482.142	n/a
454.764	0.497	angry	Picture	18.932	n/a	4	12	17	n/a	117	51	2	n/a	n/a	n/a	n/a	482.672	AF20HAS.jpg
455.262	0.514	Blank	Blank	18.418	n/a	4	12	17	n/a	117	n/a	2	n/a	n/a	n/a	n/a	483.17	n/a
455.792	0.497	angry	Picture	17.904	n/a	4	12	18	n/a	118	71	2	n/a	n/a	n/a	n/a	483.7	BM12HAS.jpg
456.29	0.514	Blank	Blank	17.39	n/a	4	12	18	n/a	118	n/a	2	n/a	n/a	n/a	n/a	484.197	n/a
456.82	0.497	angry	Picture	16.876	n/a	4	12	19	n/a	119	69	2	n/a	n/a	n/a	n/a	484.728	AM10HAS.jpg
457.318	0.514	Blank	Blank	16.362	n/a	4	12	19	n/a	119	n/a	2	n/a	n/a	n/a	n/a	485.225	n/a
457.848	0.497	angry	Picture	15.848	n/a	4	12	20	n/a	120	46	2	n/a	n/a	n/a	n/a	485.756	AF09HAS.jpg
458.346	0.514	Blank	Blank	15.334	n/a	4	12	20	n/a	120	n/a	2	n/a	n/a	n/a	n/a	486.253	n/a
458.876	10.014	ITI	Fixation+	5.304	n/a	4	n/a	n/a	n/a	n/a	n/a	n/a	n/a	n/a	n/a	n/a	486.784	n/a
474.194	n/a	ConfirmRating	Rate	n/a	5.289	4	n/a	n/a	0	n/a	n/a	n/a	2	Angry	50	50	502.101	n/a
486.474	n/a	ConfirmRating	Rate	n/a	12.268	4	n/a	n/a	1	n/a	n/a	n/a	3	Angry	58	51	514.381	n/a
