onset	duration	trial_type	event_type	time_until_response	response_time	trial_number	block_num_within_trial	image_seq_num_within_block	question_seq_num_within_block	image_seq_num	picture_number	condition	question_type	block_type	rating	rating_computed	onset_uncorrected	KDEV_imagefile
0.008	10.014	ITI	Fixation+	99.191	n/a	1	n/a	n/a	n/a	n/a	n/a	n/a	n/a	n/a	n/a	n/a	25.941	n/a
10.038	0.497	angry	Picture	98.678	n/a	1	1	1	n/a	1	108	3	n/a	n/a	n/a	n/a	35.971	AM09ANS.jpg
10.535	0.514	Blank	Blank	98.164	n/a	1	1	1	n/a	1	n/a	3	n/a	n/a	n/a	n/a	36.468	n/a
11.066	0.497	angry	Picture	97.65	n/a	1	1	2	n/a	2	99	3	n/a	n/a	n/a	n/a	36.999	AF31ANS.jpg
11.563	0.514	Blank	Blank	97.136	n/a	1	1	2	n/a	2	n/a	3	n/a	n/a	n/a	n/a	37.496	n/a
12.094	0.497	angry	Picture	96.622	n/a	1	1	3	n/a	3	98	3	n/a	n/a	n/a	n/a	38.026	BF29ANS.jpg
12.591	0.514	Blank	Blank	96.108	n/a	1	1	3	n/a	3	n/a	3	n/a	n/a	n/a	n/a	38.524	n/a
13.121	0.497	angry	Picture	95.594	n/a	1	1	4	n/a	4	107	3	n/a	n/a	n/a	n/a	39.054	BM08ANS.jpg
13.619	0.514	Blank	Blank	95.08	n/a	1	1	4	n/a	4	n/a	3	n/a	n/a	n/a	n/a	39.552	n/a
14.149	0.497	angry	Picture	94.566	n/a	1	1	5	n/a	5	104	3	n/a	n/a	n/a	n/a	40.082	BM05ANS.jpg
14.647	0.514	Blank	Blank	94.052	n/a	1	1	5	n/a	5	n/a	3	n/a	n/a	n/a	n/a	40.58	n/a
15.177	0.497	angry	Picture	93.538	n/a	1	1	6	n/a	6	101	3	n/a	n/a	n/a	n/a	41.11	AM01ANS.jpg
15.675	0.514	Blank	Blank	93.024	n/a	1	1	6	n/a	6	n/a	3	n/a	n/a	n/a	n/a	41.608	n/a
16.205	0.497	angry	Picture	92.51	n/a	1	1	7	n/a	7	103	3	n/a	n/a	n/a	n/a	42.138	AM04ANS.jpg
16.702	0.514	Blank	Blank	91.996	n/a	1	1	7	n/a	7	n/a	3	n/a	n/a	n/a	n/a	42.635	n/a
17.233	0.497	angry	Picture	91.482	n/a	1	1	8	n/a	8	111	3	n/a	n/a	n/a	n/a	43.166	BM12ANS.jpg
17.73	0.514	Blank	Blank	90.968	n/a	1	1	8	n/a	8	n/a	3	n/a	n/a	n/a	n/a	43.663	n/a
18.261	0.497	angry	Picture	90.454	n/a	1	1	9	n/a	9	110	3	n/a	n/a	n/a	n/a	44.194	AM11ANS.jpg
18.758	0.514	Blank	Blank	89.941	n/a	1	1	9	n/a	9	n/a	3	n/a	n/a	n/a	n/a	44.691	n/a
19.289	0.497	angry	Picture	89.427	n/a	1	1	10	n/a	10	85	3	n/a	n/a	n/a	n/a	45.222	BF07ANS.jpg
19.786	0.514	Blank	Blank	88.913	n/a	1	1	10	n/a	10	n/a	3	n/a	n/a	n/a	n/a	45.719	n/a
20.317	0.497	angry	Picture	88.399	n/a	1	1	11	n/a	11	87	3	n/a	n/a	n/a	n/a	46.249	BF11ANS.jpg
20.814	0.514	Blank	Blank	87.885	n/a	1	1	11	n/a	11	n/a	3	n/a	n/a	n/a	n/a	46.747	n/a
21.345	0.497	angry	Picture	87.371	n/a	1	1	12	n/a	12	91	3	n/a	n/a	n/a	n/a	47.277	AF20ANS.jpg
21.842	0.514	Blank	Blank	86.857	n/a	1	1	12	n/a	12	n/a	3	n/a	n/a	n/a	n/a	47.775	n/a
22.372	0.497	angry	Picture	86.343	n/a	1	1	13	n/a	13	115	3	n/a	n/a	n/a	n/a	48.305	AM23ANS.jpg
22.87	0.514	Blank	Blank	85.829	n/a	1	1	13	n/a	13	n/a	3	n/a	n/a	n/a	n/a	48.803	n/a
23.4	0.497	angry	Picture	85.315	n/a	1	1	14	n/a	14	97	3	n/a	n/a	n/a	n/a	49.333	BF28ANS.jpg
23.898	0.514	Blank	Blank	84.801	n/a	1	1	14	n/a	14	n/a	3	n/a	n/a	n/a	n/a	49.831	n/a
24.428	0.497	angry	Picture	84.287	n/a	1	1	15	n/a	15	82	3	n/a	n/a	n/a	n/a	50.361	AF03ANS.jpg
24.926	0.514	Blank	Blank	83.773	n/a	1	1	15	n/a	15	n/a	3	n/a	n/a	n/a	n/a	50.858	n/a
25.456	0.497	angry	Picture	83.259	n/a	1	1	16	n/a	16	96	3	n/a	n/a	n/a	n/a	51.389	AF26ANS.jpg
25.953	0.514	Blank	Blank	82.745	n/a	1	1	16	n/a	16	n/a	3	n/a	n/a	n/a	n/a	51.886	n/a
26.484	0.497	angry	Picture	82.231	n/a	1	1	17	n/a	17	109	3	n/a	n/a	n/a	n/a	52.417	AM10ANS.jpg
26.981	0.514	Blank	Blank	81.717	n/a	1	1	17	n/a	17	n/a	3	n/a	n/a	n/a	n/a	52.914	n/a
27.512	0.497	angry	Picture	81.204	n/a	1	1	18	n/a	18	114	3	n/a	n/a	n/a	n/a	53.445	AM22ANS.jpg
28.009	0.514	Blank	Blank	80.689	n/a	1	1	18	n/a	18	n/a	3	n/a	n/a	n/a	n/a	53.942	n/a
28.54	0.497	angry	Picture	80.176	n/a	1	1	19	n/a	19	120	3	n/a	n/a	n/a	n/a	54.473	AM35ANS.jpg
29.037	0.514	Blank	Blank	79.662	n/a	1	1	19	n/a	19	n/a	3	n/a	n/a	n/a	n/a	54.97	n/a
29.568	0.497	angry	Picture	79.148	n/a	1	1	20	n/a	20	81	3	n/a	n/a	n/a	n/a	55.501	AF01ANS.jpg
30.065	0.514	Blank	Blank	78.634	n/a	1	1	20	n/a	20	n/a	3	n/a	n/a	n/a	n/a	55.998	n/a
30.595	10.014	ITI	Fixation+	68.604	n/a	1	n/a	n/a	n/a	n/a	n/a	n/a	n/a	n/a	n/a	n/a	56.528	n/a
40.626	0.497	neutral	Picture	68.09	n/a	1	2	1	n/a	21	28	1	n/a	n/a	n/a	n/a	66.559	AM09NES.jpg
41.123	0.514	Blank	Blank	67.576	n/a	1	2	1	n/a	21	n/a	1	n/a	n/a	n/a	n/a	67.056	n/a
41.654	0.497	neutral	Picture	67.062	n/a	1	2	2	n/a	22	27	1	n/a	n/a	n/a	n/a	67.587	BM08NES.jpg
42.151	0.514	Blank	Blank	66.548	n/a	1	2	2	n/a	22	n/a	1	n/a	n/a	n/a	n/a	68.084	n/a
42.681	0.497	neutral	Picture	66.034	n/a	1	2	3	n/a	23	16	1	n/a	n/a	n/a	n/a	68.614	AF26NES.jpg
43.179	0.514	Blank	Blank	65.52	n/a	1	2	3	n/a	23	n/a	1	n/a	n/a	n/a	n/a	69.112	n/a
43.709	0.497	neutral	Picture	65.006	n/a	1	2	4	n/a	24	3	1	n/a	n/a	n/a	n/a	69.642	BF04NES.jpg
44.207	0.514	Blank	Blank	64.492	n/a	1	2	4	n/a	24	n/a	1	n/a	n/a	n/a	n/a	70.14	n/a
44.737	0.497	neutral	Picture	63.978	n/a	1	2	5	n/a	25	32	1	n/a	n/a	n/a	n/a	70.67	AM14NES.jpg
45.235	0.514	Blank	Blank	63.464	n/a	1	2	5	n/a	25	n/a	1	n/a	n/a	n/a	n/a	71.168	n/a
45.765	0.497	neutral	Picture	62.95	n/a	1	2	6	n/a	26	37	1	n/a	n/a	n/a	n/a	71.698	BM25NES.jpg
46.263	0.514	Blank	Blank	62.436	n/a	1	2	6	n/a	26	n/a	1	n/a	n/a	n/a	n/a	72.195	n/a
46.793	0.497	neutral	Picture	61.922	n/a	1	2	7	n/a	27	15	1	n/a	n/a	n/a	n/a	72.726	AF25NES.jpg
47.29	0.514	Blank	Blank	61.408	n/a	1	2	7	n/a	27	n/a	1	n/a	n/a	n/a	n/a	73.223	n/a
47.821	0.497	neutral	Picture	60.894	n/a	1	2	8	n/a	28	23	1	n/a	n/a	n/a	n/a	73.754	AM04NES.jpg
48.318	0.514	Blank	Blank	60.381	n/a	1	2	8	n/a	28	n/a	1	n/a	n/a	n/a	n/a	74.251	n/a
48.849	0.497	neutral	Picture	59.867	n/a	1	2	9	n/a	29	34	1	n/a	n/a	n/a	n/a	74.782	AM22NES.jpg
49.346	0.514	Blank	Blank	59.353	n/a	1	2	9	n/a	29	n/a	1	n/a	n/a	n/a	n/a	75.279	n/a
49.877	0.497	neutral	Picture	58.839	n/a	1	2	10	n/a	30	24	1	n/a	n/a	n/a	n/a	75.81	BM05NES.jpg
50.374	0.514	Blank	Blank	58.325	n/a	1	2	10	n/a	30	n/a	1	n/a	n/a	n/a	n/a	76.307	n/a
50.904	0.497	neutral	Picture	57.811	n/a	1	2	11	n/a	31	12	1	n/a	n/a	n/a	n/a	76.837	AF21NES.jpg
51.402	0.514	Blank	Blank	57.297	n/a	1	2	11	n/a	31	n/a	1	n/a	n/a	n/a	n/a	77.335	n/a
51.932	0.497	neutral	Picture	56.783	n/a	1	2	12	n/a	32	6	1	n/a	n/a	n/a	n/a	77.865	AF09NES.jpg
52.43	0.514	Blank	Blank	56.269	n/a	1	2	12	n/a	32	n/a	1	n/a	n/a	n/a	n/a	78.363	n/a
52.96	0.497	neutral	Picture	55.755	n/a	1	2	13	n/a	33	17	1	n/a	n/a	n/a	n/a	78.893	BF28NES.jpg
53.458	0.514	Blank	Blank	55.241	n/a	1	2	13	n/a	33	n/a	1	n/a	n/a	n/a	n/a	79.391	n/a
53.988	0.497	neutral	Picture	54.727	n/a	1	2	14	n/a	34	2	1	n/a	n/a	n/a	n/a	79.921	AF03NES.jpg
54.486	0.514	Blank	Blank	54.213	n/a	1	2	14	n/a	34	n/a	1	n/a	n/a	n/a	n/a	80.418	n/a
55.016	0.497	neutral	Picture	53.699	n/a	1	2	15	n/a	35	9	1	n/a	n/a	n/a	n/a	80.949	AF17NES.jpg
55.513	0.514	Blank	Blank	53.185	n/a	1	2	15	n/a	35	n/a	1	n/a	n/a	n/a	n/a	81.446	n/a
56.044	0.497	neutral	Picture	52.671	n/a	1	2	16	n/a	36	25	1	n/a	n/a	n/a	n/a	81.977	BM06NES.jpg
56.541	0.514	Blank	Blank	52.157	n/a	1	2	16	n/a	36	n/a	1	n/a	n/a	n/a	n/a	82.474	n/a
57.072	0.497	neutral	Picture	51.643	n/a	1	2	17	n/a	37	8	1	n/a	n/a	n/a	n/a	83.005	AF14NES.jpg
57.569	0.514	Blank	Blank	51.13	n/a	1	2	17	n/a	37	n/a	1	n/a	n/a	n/a	n/a	83.502	n/a
58.1	0.497	neutral	Picture	50.616	n/a	1	2	18	n/a	38	19	1	n/a	n/a	n/a	n/a	84.033	AF31NES.jpg
58.597	0.514	Blank	Blank	50.102	n/a	1	2	18	n/a	38	n/a	1	n/a	n/a	n/a	n/a	84.53	n/a
59.128	0.497	neutral	Picture	49.588	n/a	1	2	19	n/a	39	14	1	n/a	n/a	n/a	n/a	85.061	AF23NES.jpg
59.625	0.514	Blank	Blank	49.074	n/a	1	2	19	n/a	39	n/a	1	n/a	n/a	n/a	n/a	85.558	n/a
60.155	0.497	neutral	Picture	48.56	n/a	1	2	20	n/a	40	4	1	n/a	n/a	n/a	n/a	86.088	AF05NES.jpg
60.653	0.514	Blank	Blank	48.046	n/a	1	2	20	n/a	40	n/a	1	n/a	n/a	n/a	n/a	86.586	n/a
61.183	10.014	ITI	Fixation+	38.016	n/a	1	n/a	n/a	n/a	n/a	n/a	n/a	n/a	n/a	n/a	n/a	87.116	n/a
71.214	0.497	angry	Picture	37.502	n/a	1	3	1	n/a	41	84	3	n/a	n/a	n/a	n/a	97.147	AF05ANS.jpg
71.711	0.514	Blank	Blank	36.988	n/a	1	3	1	n/a	41	n/a	3	n/a	n/a	n/a	n/a	97.644	n/a
72.242	0.497	angry	Picture	36.474	n/a	1	3	2	n/a	42	92	3	n/a	n/a	n/a	n/a	98.174	AF21ANS.jpg
72.739	0.514	Blank	Blank	35.96	n/a	1	3	2	n/a	42	n/a	3	n/a	n/a	n/a	n/a	98.672	n/a
73.269	0.497	angry	Picture	35.446	n/a	1	3	3	n/a	43	86	3	n/a	n/a	n/a	n/a	99.202	AF09ANS.jpg
73.767	0.514	Blank	Blank	34.932	n/a	1	3	3	n/a	43	n/a	3	n/a	n/a	n/a	n/a	99.7	n/a
74.297	0.497	angry	Picture	34.418	n/a	1	3	4	n/a	44	93	3	n/a	n/a	n/a	n/a	100.23	BF22ANS.jpg
74.795	0.514	Blank	Blank	33.904	n/a	1	3	4	n/a	44	n/a	3	n/a	n/a	n/a	n/a	100.728	n/a
75.325	0.497	angry	Picture	33.39	n/a	1	3	5	n/a	45	88	3	n/a	n/a	n/a	n/a	101.258	AF14ANS.jpg
75.822	0.514	Blank	Blank	32.876	n/a	1	3	5	n/a	45	n/a	3	n/a	n/a	n/a	n/a	101.755	n/a
76.353	0.497	angry	Picture	32.362	n/a	1	3	6	n/a	46	113	3	n/a	n/a	n/a	n/a	102.286	AM21ANS.jpg
76.85	0.514	Blank	Blank	31.848	n/a	1	3	6	n/a	46	n/a	3	n/a	n/a	n/a	n/a	102.783	n/a
77.381	0.497	angry	Picture	31.334	n/a	1	3	7	n/a	47	95	3	n/a	n/a	n/a	n/a	103.314	AF25ANS.jpg
77.878	0.514	Blank	Blank	30.82	n/a	1	3	7	n/a	47	n/a	3	n/a	n/a	n/a	n/a	103.811	n/a
78.409	0.497	angry	Picture	30.306	n/a	1	3	8	n/a	48	102	3	n/a	n/a	n/a	n/a	104.342	BM03ANS.jpg
78.906	0.514	Blank	Blank	29.793	n/a	1	3	8	n/a	48	n/a	3	n/a	n/a	n/a	n/a	104.839	n/a
79.437	0.497	angry	Picture	29.279	n/a	1	3	9	n/a	49	112	3	n/a	n/a	n/a	n/a	105.37	AM14ANS.jpg
79.934	0.514	Blank	Blank	28.765	n/a	1	3	9	n/a	49	n/a	3	n/a	n/a	n/a	n/a	105.867	n/a
80.465	0.497	angry	Picture	28.251	n/a	1	3	10	n/a	50	83	3	n/a	n/a	n/a	n/a	106.397	BF04ANS.jpg
80.962	0.514	Blank	Blank	27.737	n/a	1	3	10	n/a	50	n/a	3	n/a	n/a	n/a	n/a	106.895	n/a
81.492	0.497	angry	Picture	27.223	n/a	1	3	11	n/a	51	90	3	n/a	n/a	n/a	n/a	107.425	AF18ANS.jpg
81.99	0.514	Blank	Blank	26.709	n/a	1	3	11	n/a	51	n/a	3	n/a	n/a	n/a	n/a	107.923	n/a
82.52	0.497	angry	Picture	26.195	n/a	1	3	12	n/a	52	117	3	n/a	n/a	n/a	n/a	108.453	BM25ANS.jpg
83.018	0.514	Blank	Blank	25.681	n/a	1	3	12	n/a	52	n/a	3	n/a	n/a	n/a	n/a	108.951	n/a
83.548	0.497	angry	Picture	25.167	n/a	1	3	13	n/a	53	94	3	n/a	n/a	n/a	n/a	109.481	AF23ANS.jpg
84.046	0.514	Blank	Blank	24.653	n/a	1	3	13	n/a	53	n/a	3	n/a	n/a	n/a	n/a	109.978	n/a
84.576	0.497	angry	Picture	24.139	n/a	1	3	14	n/a	54	106	3	n/a	n/a	n/a	n/a	110.509	AM07ANS.jpg
85.073	0.514	Blank	Blank	23.625	n/a	1	3	14	n/a	54	n/a	3	n/a	n/a	n/a	n/a	111.006	n/a
85.604	0.497	angry	Picture	23.111	n/a	1	3	15	n/a	55	105	3	n/a	n/a	n/a	n/a	111.537	BM06ANS.jpg
86.101	0.514	Blank	Blank	22.597	n/a	1	3	15	n/a	55	n/a	3	n/a	n/a	n/a	n/a	112.034	n/a
86.632	0.497	angry	Picture	22.084	n/a	1	3	16	n/a	56	116	3	n/a	n/a	n/a	n/a	112.565	BM24ANS.jpg
87.129	0.514	Blank	Blank	21.57	n/a	1	3	16	n/a	56	n/a	3	n/a	n/a	n/a	n/a	113.062	n/a
87.66	0.497	angry	Picture	21.056	n/a	1	3	17	n/a	57	89	3	n/a	n/a	n/a	n/a	113.593	AF17ANS.jpg
88.157	0.514	Blank	Blank	20.542	n/a	1	3	17	n/a	57	n/a	3	n/a	n/a	n/a	n/a	114.09	n/a
88.688	0.497	angry	Picture	20.028	n/a	1	3	18	n/a	58	118	3	n/a	n/a	n/a	n/a	114.621	BM26ANS.jpg
89.185	0.514	Blank	Blank	19.514	n/a	1	3	18	n/a	58	n/a	3	n/a	n/a	n/a	n/a	115.118	n/a
89.715	0.497	angry	Picture	19.0	n/a	1	3	19	n/a	59	100	3	n/a	n/a	n/a	n/a	115.648	AF32ANS.jpg
90.213	0.514	Blank	Blank	18.486	n/a	1	3	19	n/a	59	n/a	3	n/a	n/a	n/a	n/a	116.146	n/a
90.743	0.497	angry	Picture	17.972	n/a	1	3	20	n/a	60	119	3	n/a	n/a	n/a	n/a	116.676	BM28ANS.jpg
91.241	0.514	Blank	Blank	17.458	n/a	1	3	20	n/a	60	n/a	3	n/a	n/a	n/a	n/a	117.174	n/a
91.771	10.014	ITI	Fixation+	7.428	n/a	1	n/a	n/a	n/a	n/a	n/a	n/a	n/a	n/a	n/a	n/a	117.704	n/a
109.213	n/a	ConfirmRating	Rate	n/a	7.41	1	n/a	n/a	0	n/a	n/a	n/a	2	Angry	23	49	135.146	n/a
116.727	n/a	ConfirmRating	Rate	n/a	7.493	1	n/a	n/a	1	n/a	n/a	n/a	3	Angry	50	50	142.66	n/a
116.756	10.014	ITI	Fixation+	98.826	n/a	2	n/a	n/a	n/a	n/a	n/a	n/a	n/a	n/a	n/a	n/a	142.689	n/a
126.786	0.497	happy	Picture	98.312	n/a	2	4	1	n/a	61	79	2	n/a	n/a	n/a	n/a	152.719	BM28HAS.jpg
127.283	0.514	Blank	Blank	97.798	n/a	2	4	1	n/a	61	n/a	2	n/a	n/a	n/a	n/a	153.216	n/a
127.814	0.497	happy	Picture	97.284	n/a	2	4	2	n/a	62	61	2	n/a	n/a	n/a	n/a	153.746	AM01HAS.jpg
128.311	0.514	Blank	Blank	96.77	n/a	2	4	2	n/a	62	n/a	2	n/a	n/a	n/a	n/a	154.244	n/a
128.842	0.497	happy	Picture	96.256	n/a	2	4	3	n/a	63	57	2	n/a	n/a	n/a	n/a	154.774	BF28HAS.jpg
129.339	0.514	Blank	Blank	95.742	n/a	2	4	3	n/a	63	n/a	2	n/a	n/a	n/a	n/a	155.272	n/a
129.869	0.497	happy	Picture	95.228	n/a	2	4	4	n/a	64	77	2	n/a	n/a	n/a	n/a	155.802	BM25HAS.jpg
130.367	0.514	Blank	Blank	94.714	n/a	2	4	4	n/a	64	n/a	2	n/a	n/a	n/a	n/a	156.3	n/a
130.897	0.497	happy	Picture	94.2	n/a	2	4	5	n/a	65	47	2	n/a	n/a	n/a	n/a	156.83	BF11HAS.jpg
131.395	0.514	Blank	Blank	93.686	n/a	2	4	5	n/a	65	n/a	2	n/a	n/a	n/a	n/a	157.328	n/a
131.925	0.497	happy	Picture	93.172	n/a	2	4	6	n/a	66	50	2	n/a	n/a	n/a	n/a	157.858	AF18HAS.jpg
132.423	0.514	Blank	Blank	92.658	n/a	2	4	6	n/a	66	n/a	2	n/a	n/a	n/a	n/a	158.356	n/a
132.953	0.497	happy	Picture	92.145	n/a	2	4	7	n/a	67	78	2	n/a	n/a	n/a	n/a	158.886	BM26HAS.jpg
133.45	0.514	Blank	Blank	91.631	n/a	2	4	7	n/a	67	n/a	2	n/a	n/a	n/a	n/a	159.383	n/a
133.981	0.497	happy	Picture	91.117	n/a	2	4	8	n/a	68	45	2	n/a	n/a	n/a	n/a	159.914	BF07HAS.jpg
134.478	0.514	Blank	Blank	90.603	n/a	2	4	8	n/a	68	n/a	2	n/a	n/a	n/a	n/a	160.411	n/a
135.009	0.497	happy	Picture	90.089	n/a	2	4	9	n/a	69	56	2	n/a	n/a	n/a	n/a	160.942	AF26HAS.jpg
135.506	0.514	Blank	Blank	89.575	n/a	2	4	9	n/a	69	n/a	2	n/a	n/a	n/a	n/a	161.439	n/a
136.037	0.497	happy	Picture	89.061	n/a	2	4	10	n/a	70	65	2	n/a	n/a	n/a	n/a	161.97	BM06HAS.jpg
136.534	0.514	Blank	Blank	88.547	n/a	2	4	10	n/a	70	n/a	2	n/a	n/a	n/a	n/a	162.467	n/a
137.065	0.497	happy	Picture	88.033	n/a	2	4	11	n/a	71	73	2	n/a	n/a	n/a	n/a	162.998	AM21HAS.jpg
137.562	0.514	Blank	Blank	87.519	n/a	2	4	11	n/a	71	n/a	2	n/a	n/a	n/a	n/a	163.495	n/a
138.093	0.497	happy	Picture	87.005	n/a	2	4	12	n/a	72	41	2	n/a	n/a	n/a	n/a	164.025	AF01HAS.jpg
138.59	0.514	Blank	Blank	86.491	n/a	2	4	12	n/a	72	n/a	2	n/a	n/a	n/a	n/a	164.523	n/a
139.12	0.497	happy	Picture	85.977	n/a	2	4	13	n/a	73	59	2	n/a	n/a	n/a	n/a	165.053	AF31HAS.jpg
139.618	0.514	Blank	Blank	85.463	n/a	2	4	13	n/a	73	n/a	2	n/a	n/a	n/a	n/a	165.551	n/a
140.148	0.497	happy	Picture	84.949	n/a	2	4	14	n/a	74	64	2	n/a	n/a	n/a	n/a	166.081	BM05HAS.jpg
140.646	0.514	Blank	Blank	84.435	n/a	2	4	14	n/a	74	n/a	2	n/a	n/a	n/a	n/a	166.578	n/a
141.176	0.497	happy	Picture	83.921	n/a	2	4	15	n/a	75	68	2	n/a	n/a	n/a	n/a	167.109	AM09HAS.jpg
141.674	0.514	Blank	Blank	83.407	n/a	2	4	15	n/a	75	n/a	2	n/a	n/a	n/a	n/a	167.606	n/a
142.204	0.497	happy	Picture	82.894	n/a	2	4	16	n/a	76	54	2	n/a	n/a	n/a	n/a	168.137	AF23HAS.jpg
142.701	0.514	Blank	Blank	82.38	n/a	2	4	16	n/a	76	n/a	2	n/a	n/a	n/a	n/a	168.634	n/a
143.232	0.497	happy	Picture	81.866	n/a	2	4	17	n/a	77	53	2	n/a	n/a	n/a	n/a	169.165	BF22HAS.jpg
143.729	0.514	Blank	Blank	81.352	n/a	2	4	17	n/a	77	n/a	2	n/a	n/a	n/a	n/a	169.662	n/a
144.26	0.497	happy	Picture	80.838	n/a	2	4	18	n/a	78	44	2	n/a	n/a	n/a	n/a	170.193	AF05HAS.jpg
144.757	0.514	Blank	Blank	80.324	n/a	2	4	18	n/a	78	n/a	2	n/a	n/a	n/a	n/a	170.69	n/a
145.288	0.497	happy	Picture	79.81	n/a	2	4	19	n/a	79	52	2	n/a	n/a	n/a	n/a	171.221	AF21HAS.jpg
145.785	0.514	Blank	Blank	79.296	n/a	2	4	19	n/a	79	n/a	2	n/a	n/a	n/a	n/a	171.718	n/a
146.316	0.497	happy	Picture	78.782	n/a	2	4	20	n/a	80	62	2	n/a	n/a	n/a	n/a	172.249	BM03HAS.jpg
146.813	0.514	Blank	Blank	78.268	n/a	2	4	20	n/a	80	n/a	2	n/a	n/a	n/a	n/a	172.746	n/a
147.344	10.014	ITI	Fixation+	68.238	n/a	2	n/a	n/a	n/a	n/a	n/a	n/a	n/a	n/a	n/a	n/a	173.276	n/a
157.374	0.497	neutral	Picture	67.724	n/a	2	5	1	n/a	81	23	1	n/a	n/a	n/a	n/a	183.307	AM04NES.jpg
157.871	0.514	Blank	Blank	67.21	n/a	2	5	1	n/a	81	n/a	1	n/a	n/a	n/a	n/a	183.804	n/a
158.401	0.497	neutral	Picture	66.696	n/a	2	5	2	n/a	82	29	1	n/a	n/a	n/a	n/a	184.334	AM10NES.jpg
158.899	0.514	Blank	Blank	66.182	n/a	2	5	2	n/a	82	n/a	1	n/a	n/a	n/a	n/a	184.832	n/a
159.429	0.497	neutral	Picture	65.668	n/a	2	5	3	n/a	83	24	1	n/a	n/a	n/a	n/a	185.362	BM05NES.jpg
159.927	0.514	Blank	Blank	65.154	n/a	2	5	3	n/a	83	n/a	1	n/a	n/a	n/a	n/a	185.86	n/a
160.457	0.497	neutral	Picture	64.64	n/a	2	5	4	n/a	84	12	1	n/a	n/a	n/a	n/a	186.39	AF21NES.jpg
160.955	0.514	Blank	Blank	64.126	n/a	2	5	4	n/a	84	n/a	1	n/a	n/a	n/a	n/a	186.888	n/a
161.485	0.497	neutral	Picture	63.612	n/a	2	5	5	n/a	85	13	1	n/a	n/a	n/a	n/a	187.418	BF22NES.jpg
161.983	0.514	Blank	Blank	63.098	n/a	2	5	5	n/a	85	n/a	1	n/a	n/a	n/a	n/a	187.916	n/a
162.513	0.497	neutral	Picture	62.584	n/a	2	5	6	n/a	86	17	1	n/a	n/a	n/a	n/a	188.446	BF28NES.jpg
163.011	0.514	Blank	Blank	62.071	n/a	2	5	6	n/a	86	n/a	1	n/a	n/a	n/a	n/a	188.943	n/a
163.541	0.497	neutral	Picture	61.557	n/a	2	5	7	n/a	87	4	1	n/a	n/a	n/a	n/a	189.474	AF05NES.jpg
164.038	0.514	Blank	Blank	61.043	n/a	2	5	7	n/a	87	n/a	1	n/a	n/a	n/a	n/a	189.971	n/a
164.569	0.497	neutral	Picture	60.529	n/a	2	5	8	n/a	88	11	1	n/a	n/a	n/a	n/a	190.502	AF20NES.jpg
165.066	0.514	Blank	Blank	60.015	n/a	2	5	8	n/a	88	n/a	1	n/a	n/a	n/a	n/a	190.999	n/a
165.597	0.497	neutral	Picture	59.501	n/a	2	5	9	n/a	89	22	1	n/a	n/a	n/a	n/a	191.53	BM03NES.jpg
166.094	0.514	Blank	Blank	58.987	n/a	2	5	9	n/a	89	n/a	1	n/a	n/a	n/a	n/a	192.027	n/a
166.625	0.497	neutral	Picture	58.473	n/a	2	5	10	n/a	90	15	1	n/a	n/a	n/a	n/a	192.558	AF25NES.jpg
167.122	0.514	Blank	Blank	57.959	n/a	2	5	10	n/a	90	n/a	1	n/a	n/a	n/a	n/a	193.055	n/a
167.653	0.497	neutral	Picture	57.445	n/a	2	5	11	n/a	91	19	1	n/a	n/a	n/a	n/a	193.585	AF31NES.jpg
168.15	0.514	Blank	Blank	56.931	n/a	2	5	11	n/a	91	n/a	1	n/a	n/a	n/a	n/a	194.083	n/a
168.68	0.497	neutral	Picture	56.417	n/a	2	5	12	n/a	92	9	1	n/a	n/a	n/a	n/a	194.613	AF17NES.jpg
169.178	0.514	Blank	Blank	55.903	n/a	2	5	12	n/a	92	n/a	1	n/a	n/a	n/a	n/a	195.111	n/a
169.708	0.497	neutral	Picture	55.389	n/a	2	5	13	n/a	93	14	1	n/a	n/a	n/a	n/a	195.641	AF23NES.jpg
170.206	0.514	Blank	Blank	54.875	n/a	2	5	13	n/a	93	n/a	1	n/a	n/a	n/a	n/a	196.139	n/a
170.736	0.497	neutral	Picture	54.361	n/a	2	5	14	n/a	94	36	1	n/a	n/a	n/a	n/a	196.669	BM24NES.jpg
171.234	0.514	Blank	Blank	53.847	n/a	2	5	14	n/a	94	n/a	1	n/a	n/a	n/a	n/a	197.167	n/a
171.764	0.497	neutral	Picture	53.334	n/a	2	5	15	n/a	95	34	1	n/a	n/a	n/a	n/a	197.697	AM22NES.jpg
172.261	0.514	Blank	Blank	52.82	n/a	2	5	15	n/a	95	n/a	1	n/a	n/a	n/a	n/a	198.194	n/a
172.792	0.497	neutral	Picture	52.306	n/a	2	5	16	n/a	96	10	1	n/a	n/a	n/a	n/a	198.725	AF18NES.jpg
173.289	0.514	Blank	Blank	51.792	n/a	2	5	16	n/a	96	n/a	1	n/a	n/a	n/a	n/a	199.222	n/a
173.82	0.497	neutral	Picture	51.278	n/a	2	5	17	n/a	97	5	1	n/a	n/a	n/a	n/a	199.753	BF07NES.jpg
174.317	0.514	Blank	Blank	50.764	n/a	2	5	17	n/a	97	n/a	1	n/a	n/a	n/a	n/a	200.25	n/a
174.848	0.497	neutral	Picture	50.25	n/a	2	5	18	n/a	98	25	1	n/a	n/a	n/a	n/a	200.781	BM06NES.jpg
175.345	0.514	Blank	Blank	49.736	n/a	2	5	18	n/a	98	n/a	1	n/a	n/a	n/a	n/a	201.278	n/a
175.876	0.497	neutral	Picture	49.222	n/a	2	5	19	n/a	99	39	1	n/a	n/a	n/a	n/a	201.809	AM28NES.jpg
176.373	0.514	Blank	Blank	48.708	n/a	2	5	19	n/a	99	n/a	1	n/a	n/a	n/a	n/a	202.306	n/a
176.904	0.497	neutral	Picture	48.194	n/a	2	5	20	n/a	100	33	1	n/a	n/a	n/a	n/a	202.836	AM21NES.jpg
177.401	0.514	Blank	Blank	47.68	n/a	2	5	20	n/a	100	n/a	1	n/a	n/a	n/a	n/a	203.334	n/a
177.931	10.014	ITI	Fixation+	37.65	n/a	2	n/a	n/a	n/a	n/a	n/a	n/a	n/a	n/a	n/a	n/a	203.864	n/a
187.962	0.497	happy	Picture	37.136	n/a	2	6	1	n/a	101	74	2	n/a	n/a	n/a	n/a	213.894	AM22HAS.jpg
188.459	0.514	Blank	Blank	36.622	n/a	2	6	1	n/a	101	n/a	2	n/a	n/a	n/a	n/a	214.392	n/a
188.99	0.497	happy	Picture	36.108	n/a	2	6	2	n/a	102	76	2	n/a	n/a	n/a	n/a	214.922	BM24HAS.jpg
189.487	0.514	Blank	Blank	35.594	n/a	2	6	2	n/a	102	n/a	2	n/a	n/a	n/a	n/a	215.42	n/a
190.017	0.497	happy	Picture	35.08	n/a	2	6	3	n/a	103	80	2	n/a	n/a	n/a	n/a	215.95	BM35HAS.jpg
190.515	0.514	Blank	Blank	34.566	n/a	2	6	3	n/a	103	n/a	2	n/a	n/a	n/a	n/a	216.448	n/a
191.045	0.497	happy	Picture	34.052	n/a	2	6	4	n/a	104	75	2	n/a	n/a	n/a	n/a	216.978	AM23HAS.jpg
191.543	0.514	Blank	Blank	33.538	n/a	2	6	4	n/a	104	n/a	2	n/a	n/a	n/a	n/a	217.476	n/a
192.073	0.497	happy	Picture	33.024	n/a	2	6	5	n/a	105	49	2	n/a	n/a	n/a	n/a	218.006	AF17HAS.jpg
192.571	0.514	Blank	Blank	32.511	n/a	2	6	5	n/a	105	n/a	2	n/a	n/a	n/a	n/a	218.503	n/a
193.101	0.497	happy	Picture	31.997	n/a	2	6	6	n/a	106	43	2	n/a	n/a	n/a	n/a	219.034	BF04HAS.jpg
193.598	0.514	Blank	Blank	31.483	n/a	2	6	6	n/a	106	n/a	2	n/a	n/a	n/a	n/a	219.531	n/a
194.129	0.497	happy	Picture	30.969	n/a	2	6	7	n/a	107	70	2	n/a	n/a	n/a	n/a	220.062	BM11HAS.jpg
194.626	0.514	Blank	Blank	30.455	n/a	2	6	7	n/a	107	n/a	2	n/a	n/a	n/a	n/a	220.559	n/a
195.157	0.497	happy	Picture	29.941	n/a	2	6	8	n/a	108	66	2	n/a	n/a	n/a	n/a	221.09	BM07HAS.jpg
195.654	0.514	Blank	Blank	29.427	n/a	2	6	8	n/a	108	n/a	2	n/a	n/a	n/a	n/a	221.587	n/a
196.185	0.497	happy	Picture	28.913	n/a	2	6	9	n/a	109	48	2	n/a	n/a	n/a	n/a	222.118	AF14HAS.jpg
196.682	0.514	Blank	Blank	28.399	n/a	2	6	9	n/a	109	n/a	2	n/a	n/a	n/a	n/a	222.615	n/a
197.213	0.497	happy	Picture	27.885	n/a	2	6	10	n/a	110	58	2	n/a	n/a	n/a	n/a	223.145	BF29HAS.jpg
197.71	0.514	Blank	Blank	27.371	n/a	2	6	10	n/a	110	n/a	2	n/a	n/a	n/a	n/a	223.643	n/a
198.24	0.497	happy	Picture	26.857	n/a	2	6	11	n/a	111	63	2	n/a	n/a	n/a	n/a	224.173	AM04HAS.jpg
198.738	0.514	Blank	Blank	26.343	n/a	2	6	11	n/a	111	n/a	2	n/a	n/a	n/a	n/a	224.671	n/a
199.268	0.497	happy	Picture	25.829	n/a	2	6	12	n/a	112	72	2	n/a	n/a	n/a	n/a	225.201	AM14HAS.jpg
199.766	0.514	Blank	Blank	25.315	n/a	2	6	12	n/a	112	n/a	2	n/a	n/a	n/a	n/a	225.699	n/a
200.296	0.497	happy	Picture	24.801	n/a	2	6	13	n/a	113	55	2	n/a	n/a	n/a	n/a	226.229	AF25HAS.jpg
200.794	0.514	Blank	Blank	24.287	n/a	2	6	13	n/a	113	n/a	2	n/a	n/a	n/a	n/a	226.726	n/a
201.324	0.497	happy	Picture	23.773	n/a	2	6	14	n/a	114	42	2	n/a	n/a	n/a	n/a	227.257	AF03HAS.jpg
201.822	0.514	Blank	Blank	23.26	n/a	2	6	14	n/a	114	n/a	2	n/a	n/a	n/a	n/a	227.754	n/a
202.352	0.497	happy	Picture	22.746	n/a	2	6	15	n/a	115	60	2	n/a	n/a	n/a	n/a	228.285	AF32HAS.jpg
202.849	0.514	Blank	Blank	22.232	n/a	2	6	15	n/a	115	n/a	2	n/a	n/a	n/a	n/a	228.782	n/a
203.38	0.497	happy	Picture	21.718	n/a	2	6	16	n/a	116	67	2	n/a	n/a	n/a	n/a	229.313	BM08HAS.jpg
203.877	0.514	Blank	Blank	21.204	n/a	2	6	16	n/a	116	n/a	2	n/a	n/a	n/a	n/a	229.81	n/a
204.408	0.497	happy	Picture	20.69	n/a	2	6	17	n/a	117	51	2	n/a	n/a	n/a	n/a	230.341	AF20HAS.jpg
204.905	0.514	Blank	Blank	20.176	n/a	2	6	17	n/a	117	n/a	2	n/a	n/a	n/a	n/a	230.838	n/a
205.436	0.497	happy	Picture	19.662	n/a	2	6	18	n/a	118	71	2	n/a	n/a	n/a	n/a	231.369	BM12HAS.jpg
205.933	0.514	Blank	Blank	19.148	n/a	2	6	18	n/a	118	n/a	2	n/a	n/a	n/a	n/a	231.866	n/a
206.464	0.497	happy	Picture	18.634	n/a	2	6	19	n/a	119	69	2	n/a	n/a	n/a	n/a	232.396	AM10HAS.jpg
206.961	0.514	Blank	Blank	18.12	n/a	2	6	19	n/a	119	n/a	2	n/a	n/a	n/a	n/a	232.894	n/a
207.491	0.497	happy	Picture	17.606	n/a	2	6	20	n/a	120	46	2	n/a	n/a	n/a	n/a	233.424	AF09HAS.jpg
207.989	0.514	Blank	Blank	17.092	n/a	2	6	20	n/a	120	n/a	2	n/a	n/a	n/a	n/a	233.922	n/a
208.519	10.014	ITI	Fixation+	7.062	n/a	2	n/a	n/a	n/a	n/a	n/a	n/a	n/a	n/a	n/a	n/a	234.452	n/a
225.595	n/a	ConfirmRating	Rate	n/a	7.046	2	n/a	n/a	0	n/a	n/a	n/a	2	Happy	71	52	251.528	n/a
236.164	n/a	ConfirmRating	Rate	n/a	10.56	2	n/a	n/a	1	n/a	n/a	n/a	3	Happy	32	48	262.097	n/a
236.189	15.004	Rest	Picture	n/a	n/a	n/a	n/a	n/a	n/a	n/a	n/a	n/a	0	n/a	0	0	262.122	n/a
251.21	10.014	ITI	Fixation+	99.22	n/a	3	n/a	n/a	n/a	n/a	n/a	n/a	n/a	n/a	n/a	n/a	277.143	n/a
261.24	0.497	angry	Picture	98.706	n/a	3	7	1	n/a	1	108	3	n/a	n/a	n/a	n/a	287.173	AM09ANS.jpg
261.737	0.514	Blank	Blank	98.192	n/a	3	7	1	n/a	1	n/a	3	n/a	n/a	n/a	n/a	287.67	n/a
262.268	0.497	angry	Picture	97.678	n/a	3	7	2	n/a	2	99	3	n/a	n/a	n/a	n/a	288.201	AF31ANS.jpg
262.765	0.514	Blank	Blank	97.164	n/a	3	7	2	n/a	2	n/a	3	n/a	n/a	n/a	n/a	288.698	n/a
263.296	0.497	angry	Picture	96.65	n/a	3	7	3	n/a	3	98	3	n/a	n/a	n/a	n/a	289.229	BF29ANS.jpg
263.793	0.514	Blank	Blank	96.136	n/a	3	7	3	n/a	3	n/a	3	n/a	n/a	n/a	n/a	289.726	n/a
264.324	0.497	angry	Picture	95.622	n/a	3	7	4	n/a	4	107	3	n/a	n/a	n/a	n/a	290.257	BM08ANS.jpg
264.821	0.514	Blank	Blank	95.108	n/a	3	7	4	n/a	4	n/a	3	n/a	n/a	n/a	n/a	290.754	n/a
265.351	0.497	angry	Picture	94.594	n/a	3	7	5	n/a	5	104	3	n/a	n/a	n/a	n/a	291.284	BM05ANS.jpg
265.849	0.514	Blank	Blank	94.08	n/a	3	7	5	n/a	5	n/a	3	n/a	n/a	n/a	n/a	291.782	n/a
266.379	0.497	angry	Picture	93.566	n/a	3	7	6	n/a	6	101	3	n/a	n/a	n/a	n/a	292.312	AM01ANS.jpg
266.877	0.514	Blank	Blank	93.052	n/a	3	7	6	n/a	6	n/a	3	n/a	n/a	n/a	n/a	292.81	n/a
267.407	0.497	angry	Picture	92.538	n/a	3	7	7	n/a	7	103	3	n/a	n/a	n/a	n/a	293.34	AM04ANS.jpg
267.905	0.514	Blank	Blank	92.025	n/a	3	7	7	n/a	7	n/a	3	n/a	n/a	n/a	n/a	293.837	n/a
268.435	0.497	angry	Picture	91.511	n/a	3	7	8	n/a	8	111	3	n/a	n/a	n/a	n/a	294.368	BM12ANS.jpg
268.933	0.514	Blank	Blank	90.997	n/a	3	7	8	n/a	8	n/a	3	n/a	n/a	n/a	n/a	294.865	n/a
269.463	0.497	angry	Picture	90.483	n/a	3	7	9	n/a	9	110	3	n/a	n/a	n/a	n/a	295.396	AM11ANS.jpg
269.96	0.514	Blank	Blank	89.969	n/a	3	7	9	n/a	9	n/a	3	n/a	n/a	n/a	n/a	295.893	n/a
270.491	0.497	angry	Picture	89.455	n/a	3	7	10	n/a	10	85	3	n/a	n/a	n/a	n/a	296.424	BF07ANS.jpg
270.988	0.514	Blank	Blank	88.941	n/a	3	7	10	n/a	10	n/a	3	n/a	n/a	n/a	n/a	296.921	n/a
271.519	0.497	angry	Picture	88.427	n/a	3	7	11	n/a	11	87	3	n/a	n/a	n/a	n/a	297.452	BF11ANS.jpg
272.016	0.514	Blank	Blank	87.913	n/a	3	7	11	n/a	11	n/a	3	n/a	n/a	n/a	n/a	297.949	n/a
272.547	0.497	angry	Picture	87.399	n/a	3	7	12	n/a	12	91	3	n/a	n/a	n/a	n/a	298.48	AF20ANS.jpg
273.044	0.514	Blank	Blank	86.885	n/a	3	7	12	n/a	12	n/a	3	n/a	n/a	n/a	n/a	298.977	n/a
273.575	0.497	angry	Picture	86.371	n/a	3	7	13	n/a	13	115	3	n/a	n/a	n/a	n/a	299.507	AM23ANS.jpg
274.072	0.514	Blank	Blank	85.857	n/a	3	7	13	n/a	13	n/a	3	n/a	n/a	n/a	n/a	300.005	n/a
274.602	0.497	angry	Picture	85.343	n/a	3	7	14	n/a	14	97	3	n/a	n/a	n/a	n/a	300.535	BF28ANS.jpg
275.1	0.514	Blank	Blank	84.829	n/a	3	7	14	n/a	14	n/a	3	n/a	n/a	n/a	n/a	301.033	n/a
275.63	0.497	angry	Picture	84.315	n/a	3	7	15	n/a	15	82	3	n/a	n/a	n/a	n/a	301.563	AF03ANS.jpg
276.128	0.514	Blank	Blank	83.801	n/a	3	7	15	n/a	15	n/a	3	n/a	n/a	n/a	n/a	302.061	n/a
276.658	0.497	angry	Picture	83.287	n/a	3	7	16	n/a	16	96	3	n/a	n/a	n/a	n/a	302.591	AF26ANS.jpg
277.156	0.514	Blank	Blank	82.774	n/a	3	7	16	n/a	16	n/a	3	n/a	n/a	n/a	n/a	303.089	n/a
277.686	0.497	angry	Picture	82.26	n/a	3	7	17	n/a	17	109	3	n/a	n/a	n/a	n/a	303.619	AM10ANS.jpg
278.183	0.514	Blank	Blank	81.746	n/a	3	7	17	n/a	17	n/a	3	n/a	n/a	n/a	n/a	304.116	n/a
278.714	0.497	angry	Picture	81.232	n/a	3	7	18	n/a	18	114	3	n/a	n/a	n/a	n/a	304.647	AM22ANS.jpg
279.211	0.514	Blank	Blank	80.718	n/a	3	7	18	n/a	18	n/a	3	n/a	n/a	n/a	n/a	305.144	n/a
279.742	0.497	angry	Picture	80.204	n/a	3	7	19	n/a	19	120	3	n/a	n/a	n/a	n/a	305.675	AM35ANS.jpg
280.239	0.514	Blank	Blank	79.69	n/a	3	7	19	n/a	19	n/a	3	n/a	n/a	n/a	n/a	306.172	n/a
280.77	0.497	angry	Picture	79.176	n/a	3	7	20	n/a	20	81	3	n/a	n/a	n/a	n/a	306.703	AF01ANS.jpg
281.267	0.514	Blank	Blank	78.662	n/a	3	7	20	n/a	20	n/a	3	n/a	n/a	n/a	n/a	307.2	n/a
281.798	10.014	ITI	Fixation+	68.632	n/a	3	n/a	n/a	n/a	n/a	n/a	n/a	n/a	n/a	n/a	n/a	307.731	n/a
291.828	0.497	neutral	Picture	68.118	n/a	3	8	1	n/a	21	28	1	n/a	n/a	n/a	n/a	317.761	AM09NES.jpg
292.325	0.514	Blank	Blank	67.604	n/a	3	8	1	n/a	21	n/a	1	n/a	n/a	n/a	n/a	318.258	n/a
292.856	0.497	neutral	Picture	67.09	n/a	3	8	2	n/a	22	27	1	n/a	n/a	n/a	n/a	318.789	BM08NES.jpg
293.353	0.514	Blank	Blank	66.576	n/a	3	8	2	n/a	22	n/a	1	n/a	n/a	n/a	n/a	319.286	n/a
293.884	0.497	neutral	Picture	66.062	n/a	3	8	3	n/a	23	16	1	n/a	n/a	n/a	n/a	319.817	AF26NES.jpg
294.381	0.514	Blank	Blank	65.548	n/a	3	8	3	n/a	23	n/a	1	n/a	n/a	n/a	n/a	320.314	n/a
294.911	0.497	neutral	Picture	65.034	n/a	3	8	4	n/a	24	3	1	n/a	n/a	n/a	n/a	320.844	BF04NES.jpg
295.409	0.514	Blank	Blank	64.52	n/a	3	8	4	n/a	24	n/a	1	n/a	n/a	n/a	n/a	321.342	n/a
295.939	0.497	neutral	Picture	64.006	n/a	3	8	5	n/a	25	32	1	n/a	n/a	n/a	n/a	321.872	AM14NES.jpg
296.437	0.514	Blank	Blank	63.492	n/a	3	8	5	n/a	25	n/a	1	n/a	n/a	n/a	n/a	322.37	n/a
296.967	0.497	neutral	Picture	62.978	n/a	3	8	6	n/a	26	37	1	n/a	n/a	n/a	n/a	322.9	BM25NES.jpg
297.465	0.514	Blank	Blank	62.465	n/a	3	8	6	n/a	26	n/a	1	n/a	n/a	n/a	n/a	323.397	n/a
297.995	0.497	neutral	Picture	61.951	n/a	3	8	7	n/a	27	15	1	n/a	n/a	n/a	n/a	323.928	AF25NES.jpg
298.493	0.514	Blank	Blank	61.437	n/a	3	8	7	n/a	27	n/a	1	n/a	n/a	n/a	n/a	324.425	n/a
299.023	0.497	neutral	Picture	60.923	n/a	3	8	8	n/a	28	23	1	n/a	n/a	n/a	n/a	324.956	AM04NES.jpg
299.52	0.514	Blank	Blank	60.409	n/a	3	8	8	n/a	28	n/a	1	n/a	n/a	n/a	n/a	325.453	n/a
300.051	0.497	neutral	Picture	59.895	n/a	3	8	9	n/a	29	34	1	n/a	n/a	n/a	n/a	325.984	AM22NES.jpg
300.548	0.514	Blank	Blank	59.381	n/a	3	8	9	n/a	29	n/a	1	n/a	n/a	n/a	n/a	326.481	n/a
301.079	0.497	neutral	Picture	58.867	n/a	3	8	10	n/a	30	24	1	n/a	n/a	n/a	n/a	327.012	BM05NES.jpg
301.576	0.514	Blank	Blank	58.353	n/a	3	8	10	n/a	30	n/a	1	n/a	n/a	n/a	n/a	327.509	n/a
302.107	0.497	neutral	Picture	57.839	n/a	3	8	11	n/a	31	12	1	n/a	n/a	n/a	n/a	328.04	AF21NES.jpg
302.604	0.514	Blank	Blank	57.325	n/a	3	8	11	n/a	31	n/a	1	n/a	n/a	n/a	n/a	328.537	n/a
303.135	0.497	neutral	Picture	56.811	n/a	3	8	12	n/a	32	6	1	n/a	n/a	n/a	n/a	329.067	AF09NES.jpg
303.632	0.514	Blank	Blank	56.297	n/a	3	8	12	n/a	32	n/a	1	n/a	n/a	n/a	n/a	329.565	n/a
304.162	0.497	neutral	Picture	55.783	n/a	3	8	13	n/a	33	17	1	n/a	n/a	n/a	n/a	330.095	BF28NES.jpg
304.66	0.514	Blank	Blank	55.269	n/a	3	8	13	n/a	33	n/a	1	n/a	n/a	n/a	n/a	330.593	n/a
305.19	0.497	neutral	Picture	54.755	n/a	3	8	14	n/a	34	2	1	n/a	n/a	n/a	n/a	331.123	AF03NES.jpg
305.688	0.514	Blank	Blank	54.241	n/a	3	8	14	n/a	34	n/a	1	n/a	n/a	n/a	n/a	331.621	n/a
306.218	0.497	neutral	Picture	53.727	n/a	3	8	15	n/a	35	9	1	n/a	n/a	n/a	n/a	332.151	AF17NES.jpg
306.716	0.514	Blank	Blank	53.214	n/a	3	8	15	n/a	35	n/a	1	n/a	n/a	n/a	n/a	332.649	n/a
307.246	0.497	neutral	Picture	52.7	n/a	3	8	16	n/a	36	25	1	n/a	n/a	n/a	n/a	333.179	BM06NES.jpg
307.743	0.514	Blank	Blank	52.186	n/a	3	8	16	n/a	36	n/a	1	n/a	n/a	n/a	n/a	333.676	n/a
308.274	0.497	neutral	Picture	51.672	n/a	3	8	17	n/a	37	8	1	n/a	n/a	n/a	n/a	334.207	AF14NES.jpg
308.771	0.514	Blank	Blank	51.158	n/a	3	8	17	n/a	37	n/a	1	n/a	n/a	n/a	n/a	334.704	n/a
309.302	0.497	neutral	Picture	50.644	n/a	3	8	18	n/a	38	19	1	n/a	n/a	n/a	n/a	335.235	AF31NES.jpg
309.799	0.514	Blank	Blank	50.13	n/a	3	8	18	n/a	38	n/a	1	n/a	n/a	n/a	n/a	335.732	n/a
310.33	0.497	neutral	Picture	49.616	n/a	3	8	19	n/a	39	14	1	n/a	n/a	n/a	n/a	336.263	AF23NES.jpg
310.827	0.514	Blank	Blank	49.102	n/a	3	8	19	n/a	39	n/a	1	n/a	n/a	n/a	n/a	336.76	n/a
311.358	0.497	neutral	Picture	48.588	n/a	3	8	20	n/a	40	4	1	n/a	n/a	n/a	n/a	337.291	AF05NES.jpg
311.855	0.514	Blank	Blank	48.074	n/a	3	8	20	n/a	40	n/a	1	n/a	n/a	n/a	n/a	337.788	n/a
312.385	10.014	ITI	Fixation+	38.044	n/a	3	n/a	n/a	n/a	n/a	n/a	n/a	n/a	n/a	n/a	n/a	338.318	n/a
322.416	0.497	angry	Picture	37.53	n/a	3	9	1	n/a	41	84	3	n/a	n/a	n/a	n/a	348.349	AF05ANS.jpg
322.913	0.514	Blank	Blank	37.016	n/a	3	9	1	n/a	41	n/a	3	n/a	n/a	n/a	n/a	348.846	n/a
323.444	0.497	angry	Picture	36.502	n/a	3	9	2	n/a	42	92	3	n/a	n/a	n/a	n/a	349.377	AF21ANS.jpg
323.941	0.514	Blank	Blank	35.988	n/a	3	9	2	n/a	42	n/a	3	n/a	n/a	n/a	n/a	349.874	n/a
324.471	0.497	angry	Picture	35.474	n/a	3	9	3	n/a	43	86	3	n/a	n/a	n/a	n/a	350.404	AF09ANS.jpg
324.969	0.514	Blank	Blank	34.96	n/a	3	9	3	n/a	43	n/a	3	n/a	n/a	n/a	n/a	350.902	n/a
325.499	0.497	angry	Picture	34.446	n/a	3	9	4	n/a	44	93	3	n/a	n/a	n/a	n/a	351.432	BF22ANS.jpg
325.997	0.514	Blank	Blank	33.932	n/a	3	9	4	n/a	44	n/a	3	n/a	n/a	n/a	n/a	351.93	n/a
326.527	0.497	angry	Picture	33.418	n/a	3	9	5	n/a	45	88	3	n/a	n/a	n/a	n/a	352.46	AF14ANS.jpg
327.025	0.514	Blank	Blank	32.904	n/a	3	9	5	n/a	45	n/a	3	n/a	n/a	n/a	n/a	352.957	n/a
327.555	0.497	angry	Picture	32.391	n/a	3	9	6	n/a	46	113	3	n/a	n/a	n/a	n/a	353.488	AM21ANS.jpg
328.053	0.514	Blank	Blank	31.877	n/a	3	9	6	n/a	46	n/a	3	n/a	n/a	n/a	n/a	353.985	n/a
328.583	0.497	angry	Picture	31.363	n/a	3	9	7	n/a	47	95	3	n/a	n/a	n/a	n/a	354.516	AF25ANS.jpg
329.08	0.514	Blank	Blank	30.849	n/a	3	9	7	n/a	47	n/a	3	n/a	n/a	n/a	n/a	355.013	n/a
329.611	0.497	angry	Picture	30.335	n/a	3	9	8	n/a	48	102	3	n/a	n/a	n/a	n/a	355.544	BM03ANS.jpg
330.108	0.514	Blank	Blank	29.821	n/a	3	9	8	n/a	48	n/a	3	n/a	n/a	n/a	n/a	356.041	n/a
330.639	0.497	angry	Picture	29.307	n/a	3	9	9	n/a	49	112	3	n/a	n/a	n/a	n/a	356.572	AM14ANS.jpg
331.136	0.514	Blank	Blank	28.793	n/a	3	9	9	n/a	49	n/a	3	n/a	n/a	n/a	n/a	357.069	n/a
331.667	0.497	angry	Picture	28.279	n/a	3	9	10	n/a	50	83	3	n/a	n/a	n/a	n/a	357.6	BF04ANS.jpg
332.164	0.514	Blank	Blank	27.765	n/a	3	9	10	n/a	50	n/a	3	n/a	n/a	n/a	n/a	358.097	n/a
332.695	0.497	angry	Picture	27.251	n/a	3	9	11	n/a	51	90	3	n/a	n/a	n/a	n/a	358.627	AF18ANS.jpg
333.192	0.514	Blank	Blank	26.737	n/a	3	9	11	n/a	51	n/a	3	n/a	n/a	n/a	n/a	359.125	n/a
333.722	0.497	angry	Picture	26.223	n/a	3	9	12	n/a	52	117	3	n/a	n/a	n/a	n/a	359.655	BM25ANS.jpg
334.22	0.514	Blank	Blank	25.709	n/a	3	9	12	n/a	52	n/a	3	n/a	n/a	n/a	n/a	360.153	n/a
334.75	0.497	angry	Picture	25.195	n/a	3	9	13	n/a	53	94	3	n/a	n/a	n/a	n/a	360.683	AF23ANS.jpg
335.248	0.514	Blank	Blank	24.681	n/a	3	9	13	n/a	53	n/a	3	n/a	n/a	n/a	n/a	361.181	n/a
335.778	0.497	angry	Picture	24.167	n/a	3	9	14	n/a	54	106	3	n/a	n/a	n/a	n/a	361.711	AM07ANS.jpg
336.276	0.514	Blank	Blank	23.654	n/a	3	9	14	n/a	54	n/a	3	n/a	n/a	n/a	n/a	362.209	n/a
336.806	0.497	angry	Picture	23.14	n/a	3	9	15	n/a	55	105	3	n/a	n/a	n/a	n/a	362.739	BM06ANS.jpg
337.303	0.514	Blank	Blank	22.626	n/a	3	9	15	n/a	55	n/a	3	n/a	n/a	n/a	n/a	363.236	n/a
337.834	0.497	angry	Picture	22.112	n/a	3	9	16	n/a	56	116	3	n/a	n/a	n/a	n/a	363.767	BM24ANS.jpg
338.331	0.514	Blank	Blank	21.598	n/a	3	9	16	n/a	56	n/a	3	n/a	n/a	n/a	n/a	364.264	n/a
338.862	0.497	angry	Picture	21.084	n/a	3	9	17	n/a	57	89	3	n/a	n/a	n/a	n/a	364.795	AF17ANS.jpg
339.359	0.514	Blank	Blank	20.57	n/a	3	9	17	n/a	57	n/a	3	n/a	n/a	n/a	n/a	365.292	n/a
339.89	0.497	angry	Picture	20.056	n/a	3	9	18	n/a	58	118	3	n/a	n/a	n/a	n/a	365.823	BM26ANS.jpg
340.387	0.514	Blank	Blank	19.542	n/a	3	9	18	n/a	58	n/a	3	n/a	n/a	n/a	n/a	366.32	n/a
340.918	0.497	angry	Picture	19.028	n/a	3	9	19	n/a	59	100	3	n/a	n/a	n/a	n/a	366.851	AF32ANS.jpg
341.415	0.514	Blank	Blank	18.514	n/a	3	9	19	n/a	59	n/a	3	n/a	n/a	n/a	n/a	367.348	n/a
341.946	0.497	angry	Picture	18.0	n/a	3	9	20	n/a	60	119	3	n/a	n/a	n/a	n/a	367.878	BM28ANS.jpg
342.443	0.514	Blank	Blank	17.486	n/a	3	9	20	n/a	60	n/a	3	n/a	n/a	n/a	n/a	368.376	n/a
342.973	10.014	ITI	Fixation+	7.456	n/a	3	n/a	n/a	n/a	n/a	n/a	n/a	n/a	n/a	n/a	n/a	368.906	n/a
360.443	n/a	ConfirmRating	Rate	n/a	7.444	3	n/a	n/a	0	n/a	n/a	n/a	2	Angry	34	49	386.376	n/a
366.821	n/a	ConfirmRating	Rate	n/a	6.366	3	n/a	n/a	1	n/a	n/a	n/a	3	Angry	50	50	392.754	n/a
366.847	10.014	ITI	Fixation+	96.805	n/a	4	n/a	n/a	n/a	n/a	n/a	n/a	n/a	n/a	n/a	n/a	392.78	n/a
376.877	0.497	happy	Picture	96.291	n/a	4	10	1	n/a	61	79	2	n/a	n/a	n/a	n/a	402.81	BM28HAS.jpg
377.374	0.514	Blank	Blank	95.777	n/a	4	10	1	n/a	61	n/a	2	n/a	n/a	n/a	n/a	403.307	n/a
377.905	0.497	happy	Picture	95.263	n/a	4	10	2	n/a	62	61	2	n/a	n/a	n/a	n/a	403.838	AM01HAS.jpg
378.402	0.514	Blank	Blank	94.749	n/a	4	10	2	n/a	62	n/a	2	n/a	n/a	n/a	n/a	404.335	n/a
378.933	0.497	happy	Picture	94.235	n/a	4	10	3	n/a	63	57	2	n/a	n/a	n/a	n/a	404.866	BF28HAS.jpg
379.43	0.514	Blank	Blank	93.721	n/a	4	10	3	n/a	63	n/a	2	n/a	n/a	n/a	n/a	405.363	n/a
379.961	0.497	happy	Picture	93.207	n/a	4	10	4	n/a	64	77	2	n/a	n/a	n/a	n/a	405.894	BM25HAS.jpg
380.458	0.514	Blank	Blank	92.693	n/a	4	10	4	n/a	64	n/a	2	n/a	n/a	n/a	n/a	406.391	n/a
380.989	0.497	happy	Picture	92.18	n/a	4	10	5	n/a	65	47	2	n/a	n/a	n/a	n/a	406.922	BF11HAS.jpg
381.486	0.514	Blank	Blank	91.666	n/a	4	10	5	n/a	65	n/a	2	n/a	n/a	n/a	n/a	407.419	n/a
382.017	0.497	happy	Picture	91.152	n/a	4	10	6	n/a	66	50	2	n/a	n/a	n/a	n/a	407.949	AF18HAS.jpg
382.514	0.514	Blank	Blank	90.638	n/a	4	10	6	n/a	66	n/a	2	n/a	n/a	n/a	n/a	408.447	n/a
383.044	0.497	happy	Picture	90.124	n/a	4	10	7	n/a	67	78	2	n/a	n/a	n/a	n/a	408.977	BM26HAS.jpg
383.542	0.514	Blank	Blank	89.61	n/a	4	10	7	n/a	67	n/a	2	n/a	n/a	n/a	n/a	409.475	n/a
384.072	0.497	happy	Picture	89.096	n/a	4	10	8	n/a	68	45	2	n/a	n/a	n/a	n/a	410.005	BF07HAS.jpg
384.57	0.514	Blank	Blank	88.582	n/a	4	10	8	n/a	68	n/a	2	n/a	n/a	n/a	n/a	410.503	n/a
385.1	0.497	happy	Picture	88.068	n/a	4	10	9	n/a	69	56	2	n/a	n/a	n/a	n/a	411.033	AF26HAS.jpg
385.598	0.514	Blank	Blank	87.554	n/a	4	10	9	n/a	69	n/a	2	n/a	n/a	n/a	n/a	411.531	n/a
386.128	0.497	happy	Picture	87.04	n/a	4	10	10	n/a	70	65	2	n/a	n/a	n/a	n/a	412.061	BM06HAS.jpg
386.625	0.514	Blank	Blank	86.526	n/a	4	10	10	n/a	70	n/a	2	n/a	n/a	n/a	n/a	412.558	n/a
387.156	0.497	happy	Picture	86.012	n/a	4	10	11	n/a	71	73	2	n/a	n/a	n/a	n/a	413.089	AM21HAS.jpg
387.653	0.514	Blank	Blank	85.498	n/a	4	10	11	n/a	71	n/a	2	n/a	n/a	n/a	n/a	413.586	n/a
388.184	0.497	happy	Picture	84.984	n/a	4	10	12	n/a	72	41	2	n/a	n/a	n/a	n/a	414.117	AF01HAS.jpg
388.681	0.514	Blank	Blank	84.47	n/a	4	10	12	n/a	72	n/a	2	n/a	n/a	n/a	n/a	414.614	n/a
389.212	0.497	happy	Picture	83.956	n/a	4	10	13	n/a	73	59	2	n/a	n/a	n/a	n/a	415.145	AF31HAS.jpg
389.709	0.514	Blank	Blank	83.443	n/a	4	10	13	n/a	73	n/a	2	n/a	n/a	n/a	n/a	415.642	n/a
390.24	0.497	happy	Picture	82.928	n/a	4	10	14	n/a	74	64	2	n/a	n/a	n/a	n/a	416.173	BM05HAS.jpg
390.737	0.514	Blank	Blank	82.415	n/a	4	10	14	n/a	74	n/a	2	n/a	n/a	n/a	n/a	416.67	n/a
391.267	0.497	happy	Picture	81.901	n/a	4	10	15	n/a	75	68	2	n/a	n/a	n/a	n/a	417.2	AM09HAS.jpg
391.765	0.514	Blank	Blank	81.387	n/a	4	10	15	n/a	75	n/a	2	n/a	n/a	n/a	n/a	417.698	n/a
392.295	0.497	happy	Picture	80.873	n/a	4	10	16	n/a	76	54	2	n/a	n/a	n/a	n/a	418.228	AF23HAS.jpg
392.793	0.514	Blank	Blank	80.359	n/a	4	10	16	n/a	76	n/a	2	n/a	n/a	n/a	n/a	418.726	n/a
393.323	0.497	happy	Picture	79.845	n/a	4	10	17	n/a	77	53	2	n/a	n/a	n/a	n/a	419.256	BF22HAS.jpg
393.821	0.514	Blank	Blank	79.331	n/a	4	10	17	n/a	77	n/a	2	n/a	n/a	n/a	n/a	419.753	n/a
394.351	0.497	happy	Picture	78.817	n/a	4	10	18	n/a	78	44	2	n/a	n/a	n/a	n/a	420.284	AF05HAS.jpg
394.849	0.514	Blank	Blank	78.303	n/a	4	10	18	n/a	78	n/a	2	n/a	n/a	n/a	n/a	420.781	n/a
395.379	0.497	happy	Picture	77.789	n/a	4	10	19	n/a	79	52	2	n/a	n/a	n/a	n/a	421.312	AF21HAS.jpg
395.876	0.514	Blank	Blank	77.275	n/a	4	10	19	n/a	79	n/a	2	n/a	n/a	n/a	n/a	421.809	n/a
396.407	0.497	happy	Picture	76.761	n/a	4	10	20	n/a	80	62	2	n/a	n/a	n/a	n/a	422.34	BM03HAS.jpg
396.904	0.514	Blank	Blank	76.247	n/a	4	10	20	n/a	80	n/a	2	n/a	n/a	n/a	n/a	422.837	n/a
397.435	10.014	ITI	Fixation+	66.217	n/a	4	n/a	n/a	n/a	n/a	n/a	n/a	n/a	n/a	n/a	n/a	423.368	n/a
407.465	0.497	neutral	Picture	65.703	n/a	4	11	1	n/a	81	23	1	n/a	n/a	n/a	n/a	433.398	AM04NES.jpg
407.962	0.514	Blank	Blank	65.189	n/a	4	11	1	n/a	81	n/a	1	n/a	n/a	n/a	n/a	433.895	n/a
408.493	0.497	neutral	Picture	64.675	n/a	4	11	2	n/a	82	29	1	n/a	n/a	n/a	n/a	434.426	AM10NES.jpg
408.99	0.514	Blank	Blank	64.161	n/a	4	11	2	n/a	82	n/a	1	n/a	n/a	n/a	n/a	434.923	n/a
409.521	0.497	neutral	Picture	63.647	n/a	4	11	3	n/a	83	24	1	n/a	n/a	n/a	n/a	435.454	BM05NES.jpg
410.018	0.514	Blank	Blank	63.133	n/a	4	11	3	n/a	83	n/a	1	n/a	n/a	n/a	n/a	435.951	n/a
410.549	0.497	neutral	Picture	62.62	n/a	4	11	4	n/a	84	12	1	n/a	n/a	n/a	n/a	436.482	AF21NES.jpg
411.046	0.514	Blank	Blank	62.106	n/a	4	11	4	n/a	84	n/a	1	n/a	n/a	n/a	n/a	436.979	n/a
411.577	0.497	neutral	Picture	61.592	n/a	4	11	5	n/a	85	13	1	n/a	n/a	n/a	n/a	437.51	BF22NES.jpg
412.074	0.514	Blank	Blank	61.078	n/a	4	11	5	n/a	85	n/a	1	n/a	n/a	n/a	n/a	438.007	n/a
412.604	0.497	neutral	Picture	60.564	n/a	4	11	6	n/a	86	17	1	n/a	n/a	n/a	n/a	438.537	BF28NES.jpg
413.102	0.514	Blank	Blank	60.05	n/a	4	11	6	n/a	86	n/a	1	n/a	n/a	n/a	n/a	439.035	n/a
413.632	0.497	neutral	Picture	59.536	n/a	4	11	7	n/a	87	4	1	n/a	n/a	n/a	n/a	439.565	AF05NES.jpg
414.13	0.514	Blank	Blank	59.022	n/a	4	11	7	n/a	87	n/a	1	n/a	n/a	n/a	n/a	440.063	n/a
414.66	0.497	neutral	Picture	58.508	n/a	4	11	8	n/a	88	11	1	n/a	n/a	n/a	n/a	440.593	AF20NES.jpg
415.158	0.514	Blank	Blank	57.994	n/a	4	11	8	n/a	88	n/a	1	n/a	n/a	n/a	n/a	441.091	n/a
415.688	0.497	neutral	Picture	57.48	n/a	4	11	9	n/a	89	22	1	n/a	n/a	n/a	n/a	441.621	BM03NES.jpg
416.185	0.514	Blank	Blank	56.966	n/a	4	11	9	n/a	89	n/a	1	n/a	n/a	n/a	n/a	442.118	n/a
416.716	0.497	neutral	Picture	56.452	n/a	4	11	10	n/a	90	15	1	n/a	n/a	n/a	n/a	442.649	AF25NES.jpg
417.213	0.514	Blank	Blank	55.938	n/a	4	11	10	n/a	90	n/a	1	n/a	n/a	n/a	n/a	443.146	n/a
417.744	0.497	neutral	Picture	55.424	n/a	4	11	11	n/a	91	19	1	n/a	n/a	n/a	n/a	443.677	AF31NES.jpg
418.241	0.514	Blank	Blank	54.91	n/a	4	11	11	n/a	91	n/a	1	n/a	n/a	n/a	n/a	444.174	n/a
418.772	0.497	neutral	Picture	54.396	n/a	4	11	12	n/a	92	9	1	n/a	n/a	n/a	n/a	444.705	AF17NES.jpg
419.269	0.514	Blank	Blank	53.882	n/a	4	11	12	n/a	92	n/a	1	n/a	n/a	n/a	n/a	445.202	n/a
419.8	0.497	neutral	Picture	53.368	n/a	4	11	13	n/a	93	14	1	n/a	n/a	n/a	n/a	445.733	AF23NES.jpg
420.297	0.514	Blank	Blank	52.855	n/a	4	11	13	n/a	93	n/a	1	n/a	n/a	n/a	n/a	446.23	n/a
420.827	0.497	neutral	Picture	52.341	n/a	4	11	14	n/a	94	36	1	n/a	n/a	n/a	n/a	446.76	BM24NES.jpg
421.325	0.514	Blank	Blank	51.827	n/a	4	11	14	n/a	94	n/a	1	n/a	n/a	n/a	n/a	447.258	n/a
421.855	0.497	neutral	Picture	51.313	n/a	4	11	15	n/a	95	34	1	n/a	n/a	n/a	n/a	447.788	AM22NES.jpg
422.353	0.514	Blank	Blank	50.799	n/a	4	11	15	n/a	95	n/a	1	n/a	n/a	n/a	n/a	448.286	n/a
422.883	0.497	neutral	Picture	50.285	n/a	4	11	16	n/a	96	10	1	n/a	n/a	n/a	n/a	448.816	AF18NES.jpg
423.381	0.514	Blank	Blank	49.771	n/a	4	11	16	n/a	96	n/a	1	n/a	n/a	n/a	n/a	449.314	n/a
423.911	0.497	neutral	Picture	49.257	n/a	4	11	17	n/a	97	5	1	n/a	n/a	n/a	n/a	449.844	BF07NES.jpg
424.409	0.514	Blank	Blank	48.743	n/a	4	11	17	n/a	97	n/a	1	n/a	n/a	n/a	n/a	450.341	n/a
424.939	0.497	neutral	Picture	48.229	n/a	4	11	18	n/a	98	25	1	n/a	n/a	n/a	n/a	450.872	BM06NES.jpg
425.436	0.514	Blank	Blank	47.715	n/a	4	11	18	n/a	98	n/a	1	n/a	n/a	n/a	n/a	451.369	n/a
425.967	0.497	neutral	Picture	47.201	n/a	4	11	19	n/a	99	39	1	n/a	n/a	n/a	n/a	451.9	AM28NES.jpg
426.464	0.514	Blank	Blank	46.687	n/a	4	11	19	n/a	99	n/a	1	n/a	n/a	n/a	n/a	452.397	n/a
426.995	0.497	neutral	Picture	46.173	n/a	4	11	20	n/a	100	33	1	n/a	n/a	n/a	n/a	452.928	AM21NES.jpg
427.492	0.514	Blank	Blank	45.659	n/a	4	11	20	n/a	100	n/a	1	n/a	n/a	n/a	n/a	453.425	n/a
428.023	10.014	ITI	Fixation+	35.629	n/a	4	n/a	n/a	n/a	n/a	n/a	n/a	n/a	n/a	n/a	n/a	453.956	n/a
438.053	0.497	happy	Picture	35.115	n/a	4	12	1	n/a	101	74	2	n/a	n/a	n/a	n/a	463.986	AM22HAS.jpg
438.55	0.514	Blank	Blank	34.601	n/a	4	12	1	n/a	101	n/a	2	n/a	n/a	n/a	n/a	464.483	n/a
439.081	0.497	happy	Picture	34.087	n/a	4	12	2	n/a	102	76	2	n/a	n/a	n/a	n/a	465.014	BM24HAS.jpg
439.578	0.514	Blank	Blank	33.573	n/a	4	12	2	n/a	102	n/a	2	n/a	n/a	n/a	n/a	465.511	n/a
440.109	0.497	happy	Picture	33.06	n/a	4	12	3	n/a	103	80	2	n/a	n/a	n/a	n/a	466.042	BM35HAS.jpg
440.606	0.514	Blank	Blank	32.546	n/a	4	12	3	n/a	103	n/a	2	n/a	n/a	n/a	n/a	466.539	n/a
441.137	0.497	happy	Picture	32.032	n/a	4	12	4	n/a	104	75	2	n/a	n/a	n/a	n/a	467.07	AM23HAS.jpg
441.634	0.514	Blank	Blank	31.518	n/a	4	12	4	n/a	104	n/a	2	n/a	n/a	n/a	n/a	467.567	n/a
442.164	0.497	happy	Picture	31.004	n/a	4	12	5	n/a	105	49	2	n/a	n/a	n/a	n/a	468.097	AF17HAS.jpg
442.662	0.514	Blank	Blank	30.49	n/a	4	12	5	n/a	105	n/a	2	n/a	n/a	n/a	n/a	468.595	n/a
443.192	0.497	happy	Picture	29.976	n/a	4	12	6	n/a	106	43	2	n/a	n/a	n/a	n/a	469.125	BF04HAS.jpg
443.69	0.514	Blank	Blank	29.462	n/a	4	12	6	n/a	106	n/a	2	n/a	n/a	n/a	n/a	469.623	n/a
444.22	0.497	happy	Picture	28.948	n/a	4	12	7	n/a	107	70	2	n/a	n/a	n/a	n/a	470.153	BM11HAS.jpg
444.718	0.514	Blank	Blank	28.434	n/a	4	12	7	n/a	107	n/a	2	n/a	n/a	n/a	n/a	470.651	n/a
445.248	0.497	happy	Picture	27.92	n/a	4	12	8	n/a	108	66	2	n/a	n/a	n/a	n/a	471.181	BM07HAS.jpg
445.745	0.514	Blank	Blank	27.406	n/a	4	12	8	n/a	108	n/a	2	n/a	n/a	n/a	n/a	471.678	n/a
446.276	0.497	happy	Picture	26.892	n/a	4	12	9	n/a	109	48	2	n/a	n/a	n/a	n/a	472.209	AF14HAS.jpg
446.773	0.514	Blank	Blank	26.378	n/a	4	12	9	n/a	109	n/a	2	n/a	n/a	n/a	n/a	472.706	n/a
447.304	0.497	happy	Picture	25.864	n/a	4	12	10	n/a	110	58	2	n/a	n/a	n/a	n/a	473.237	BF29HAS.jpg
447.801	0.514	Blank	Blank	25.35	n/a	4	12	10	n/a	110	n/a	2	n/a	n/a	n/a	n/a	473.734	n/a
448.332	0.497	happy	Picture	24.836	n/a	4	12	11	n/a	111	63	2	n/a	n/a	n/a	n/a	474.265	AM04HAS.jpg
448.829	0.514	Blank	Blank	24.322	n/a	4	12	11	n/a	111	n/a	2	n/a	n/a	n/a	n/a	474.762	n/a
449.36	0.497	happy	Picture	23.809	n/a	4	12	12	n/a	112	72	2	n/a	n/a	n/a	n/a	475.293	AM14HAS.jpg
449.857	0.514	Blank	Blank	23.295	n/a	4	12	12	n/a	112	n/a	2	n/a	n/a	n/a	n/a	475.79	n/a
450.387	0.497	happy	Picture	22.781	n/a	4	12	13	n/a	113	55	2	n/a	n/a	n/a	n/a	476.32	AF25HAS.jpg
450.885	0.514	Blank	Blank	22.267	n/a	4	12	13	n/a	113	n/a	2	n/a	n/a	n/a	n/a	476.818	n/a
451.415	0.497	happy	Picture	21.753	n/a	4	12	14	n/a	114	42	2	n/a	n/a	n/a	n/a	477.348	AF03HAS.jpg
451.913	0.514	Blank	Blank	21.239	n/a	4	12	14	n/a	114	n/a	2	n/a	n/a	n/a	n/a	477.846	n/a
452.443	0.497	happy	Picture	20.725	n/a	4	12	15	n/a	115	60	2	n/a	n/a	n/a	n/a	478.376	AF32HAS.jpg
452.941	0.514	Blank	Blank	20.211	n/a	4	12	15	n/a	115	n/a	2	n/a	n/a	n/a	n/a	478.874	n/a
453.471	0.497	happy	Picture	19.697	n/a	4	12	16	n/a	116	67	2	n/a	n/a	n/a	n/a	479.404	BM08HAS.jpg
453.969	0.514	Blank	Blank	19.183	n/a	4	12	16	n/a	116	n/a	2	n/a	n/a	n/a	n/a	479.901	n/a
454.499	0.497	happy	Picture	18.669	n/a	4	12	17	n/a	117	51	2	n/a	n/a	n/a	n/a	480.432	AF20HAS.jpg
454.996	0.514	Blank	Blank	18.155	n/a	4	12	17	n/a	117	n/a	2	n/a	n/a	n/a	n/a	480.929	n/a
455.527	0.497	happy	Picture	17.641	n/a	4	12	18	n/a	118	71	2	n/a	n/a	n/a	n/a	481.46	BM12HAS.jpg
456.024	0.514	Blank	Blank	17.127	n/a	4	12	18	n/a	118	n/a	2	n/a	n/a	n/a	n/a	481.957	n/a
456.555	0.497	happy	Picture	16.613	n/a	4	12	19	n/a	119	69	2	n/a	n/a	n/a	n/a	482.488	AM10HAS.jpg
457.052	0.514	Blank	Blank	16.099	n/a	4	12	19	n/a	119	n/a	2	n/a	n/a	n/a	n/a	482.985	n/a
457.583	0.497	happy	Picture	15.585	n/a	4	12	20	n/a	120	46	2	n/a	n/a	n/a	n/a	483.516	AF09HAS.jpg
458.08	0.514	Blank	Blank	15.071	n/a	4	12	20	n/a	120	n/a	2	n/a	n/a	n/a	n/a	484.013	n/a
458.611	10.014	ITI	Fixation+	5.041	n/a	4	n/a	n/a	n/a	n/a	n/a	n/a	n/a	n/a	n/a	n/a	484.543	n/a
473.666	n/a	ConfirmRating	Rate	n/a	5.04	4	n/a	n/a	0	n/a	n/a	n/a	2	Happy	71	52	499.598	n/a
481.348	n/a	ConfirmRating	Rate	n/a	7.659	4	n/a	n/a	1	n/a	n/a	n/a	3	Happy	26	49	507.281	n/a
