onset	duration	trial_type	event_type	time_until_response	response_time	trial_number	block_num_within_trial	image_seq_num_within_block	question_seq_num_within_block	image_seq_num	picture_number	condition	question_type	block_type	rating	rating_computed	onset_uncorrected	KDEV_imagefile
0.009	10.014	ITI	Fixation+	104.661	n/a	1	n/a	n/a	n/a	n/a	n/a	n/a	n/a	n/a	n/a	n/a	30.699	n/a
10.039	0.497	angry	Picture	104.147	n/a	1	1	1	n/a	1	108	3	n/a	n/a	n/a	n/a	40.729	AM09ANS.jpg
10.537	0.514	Blank	Blank	103.633	n/a	1	1	1	n/a	1	n/a	3	n/a	n/a	n/a	n/a	41.226	n/a
11.067	0.497	angry	Picture	103.119	n/a	1	1	2	n/a	2	99	3	n/a	n/a	n/a	n/a	41.757	AF31ANS.jpg
11.565	0.514	Blank	Blank	102.605	n/a	1	1	2	n/a	2	n/a	3	n/a	n/a	n/a	n/a	42.254	n/a
12.095	0.497	angry	Picture	102.091	n/a	1	1	3	n/a	3	98	3	n/a	n/a	n/a	n/a	42.785	BF29ANS.jpg
12.593	0.514	Blank	Blank	101.577	n/a	1	1	3	n/a	3	n/a	3	n/a	n/a	n/a	n/a	43.282	n/a
13.123	0.497	angry	Picture	101.063	n/a	1	1	4	n/a	4	107	3	n/a	n/a	n/a	n/a	43.812	BM08ANS.jpg
13.62	0.514	Blank	Blank	100.549	n/a	1	1	4	n/a	4	n/a	3	n/a	n/a	n/a	n/a	44.31	n/a
14.151	0.497	angry	Picture	100.035	n/a	1	1	5	n/a	5	104	3	n/a	n/a	n/a	n/a	44.84	BM05ANS.jpg
14.648	0.514	Blank	Blank	99.521	n/a	1	1	5	n/a	5	n/a	3	n/a	n/a	n/a	n/a	45.338	n/a
15.179	0.497	angry	Picture	99.007	n/a	1	1	6	n/a	6	101	3	n/a	n/a	n/a	n/a	45.868	AM01ANS.jpg
15.676	0.514	Blank	Blank	98.493	n/a	1	1	6	n/a	6	n/a	3	n/a	n/a	n/a	n/a	46.366	n/a
16.207	0.497	angry	Picture	97.979	n/a	1	1	7	n/a	7	103	3	n/a	n/a	n/a	n/a	46.896	AM04ANS.jpg
16.704	0.514	Blank	Blank	97.465	n/a	1	1	7	n/a	7	n/a	3	n/a	n/a	n/a	n/a	47.394	n/a
17.235	0.497	angry	Picture	96.951	n/a	1	1	8	n/a	8	111	3	n/a	n/a	n/a	n/a	47.924	BM12ANS.jpg
17.732	0.514	Blank	Blank	96.438	n/a	1	1	8	n/a	8	n/a	3	n/a	n/a	n/a	n/a	48.421	n/a
18.263	0.497	angry	Picture	95.924	n/a	1	1	9	n/a	9	110	3	n/a	n/a	n/a	n/a	48.952	AM11ANS.jpg
18.76	0.514	Blank	Blank	95.41	n/a	1	1	9	n/a	9	n/a	3	n/a	n/a	n/a	n/a	49.449	n/a
19.29	0.497	angry	Picture	94.896	n/a	1	1	10	n/a	10	85	3	n/a	n/a	n/a	n/a	49.98	BF07ANS.jpg
19.788	0.514	Blank	Blank	94.382	n/a	1	1	10	n/a	10	n/a	3	n/a	n/a	n/a	n/a	50.477	n/a
20.318	0.497	angry	Picture	93.868	n/a	1	1	11	n/a	11	87	3	n/a	n/a	n/a	n/a	51.008	BF11ANS.jpg
20.816	0.514	Blank	Blank	93.354	n/a	1	1	11	n/a	11	n/a	3	n/a	n/a	n/a	n/a	51.505	n/a
21.346	0.497	angry	Picture	92.84	n/a	1	1	12	n/a	12	91	3	n/a	n/a	n/a	n/a	52.035	AF20ANS.jpg
21.843	0.514	Blank	Blank	92.326	n/a	1	1	12	n/a	12	n/a	3	n/a	n/a	n/a	n/a	52.533	n/a
22.374	0.497	angry	Picture	91.812	n/a	1	1	13	n/a	13	115	3	n/a	n/a	n/a	n/a	53.063	AM23ANS.jpg
22.871	0.514	Blank	Blank	91.298	n/a	1	1	13	n/a	13	n/a	3	n/a	n/a	n/a	n/a	53.561	n/a
23.402	0.497	angry	Picture	90.784	n/a	1	1	14	n/a	14	97	3	n/a	n/a	n/a	n/a	54.091	BF28ANS.jpg
23.899	0.514	Blank	Blank	90.27	n/a	1	1	14	n/a	14	n/a	3	n/a	n/a	n/a	n/a	54.589	n/a
24.43	0.497	angry	Picture	89.756	n/a	1	1	15	n/a	15	82	3	n/a	n/a	n/a	n/a	55.119	AF03ANS.jpg
24.927	0.514	Blank	Blank	89.242	n/a	1	1	15	n/a	15	n/a	3	n/a	n/a	n/a	n/a	55.617	n/a
25.458	0.497	angry	Picture	88.728	n/a	1	1	16	n/a	16	96	3	n/a	n/a	n/a	n/a	56.147	AF26ANS.jpg
25.955	0.514	Blank	Blank	88.214	n/a	1	1	16	n/a	16	n/a	3	n/a	n/a	n/a	n/a	56.644	n/a
26.486	0.497	angry	Picture	87.701	n/a	1	1	17	n/a	17	109	3	n/a	n/a	n/a	n/a	57.175	AM10ANS.jpg
26.983	0.514	Blank	Blank	87.187	n/a	1	1	17	n/a	17	n/a	3	n/a	n/a	n/a	n/a	57.672	n/a
27.513	0.497	angry	Picture	86.673	n/a	1	1	18	n/a	18	114	3	n/a	n/a	n/a	n/a	58.203	AM22ANS.jpg
28.011	0.514	Blank	Blank	86.159	n/a	1	1	18	n/a	18	n/a	3	n/a	n/a	n/a	n/a	58.7	n/a
28.541	0.497	angry	Picture	85.645	n/a	1	1	19	n/a	19	120	3	n/a	n/a	n/a	n/a	59.231	AM35ANS.jpg
29.039	0.514	Blank	Blank	85.131	n/a	1	1	19	n/a	19	n/a	3	n/a	n/a	n/a	n/a	59.728	n/a
29.569	0.497	angry	Picture	84.617	n/a	1	1	20	n/a	20	81	3	n/a	n/a	n/a	n/a	60.259	AF01ANS.jpg
30.067	0.514	Blank	Blank	84.103	n/a	1	1	20	n/a	20	n/a	3	n/a	n/a	n/a	n/a	60.756	n/a
30.597	10.014	ITI	Fixation+	74.073	n/a	1	n/a	n/a	n/a	n/a	n/a	n/a	n/a	n/a	n/a	n/a	61.286	n/a
40.627	0.497	neutral	Picture	73.559	n/a	1	2	1	n/a	21	28	1	n/a	n/a	n/a	n/a	71.317	AM09NES.jpg
41.125	0.514	Blank	Blank	73.045	n/a	1	2	1	n/a	21	n/a	1	n/a	n/a	n/a	n/a	71.814	n/a
41.655	0.497	neutral	Picture	72.531	n/a	1	2	2	n/a	22	27	1	n/a	n/a	n/a	n/a	72.345	BM08NES.jpg
42.152	0.514	Blank	Blank	72.017	n/a	1	2	2	n/a	22	n/a	1	n/a	n/a	n/a	n/a	72.842	n/a
42.683	0.497	neutral	Picture	71.503	n/a	1	2	3	n/a	23	16	1	n/a	n/a	n/a	n/a	73.373	AF26NES.jpg
43.18	0.514	Blank	Blank	70.989	n/a	1	2	3	n/a	23	n/a	1	n/a	n/a	n/a	n/a	73.87	n/a
43.711	0.497	neutral	Picture	70.475	n/a	1	2	4	n/a	24	3	1	n/a	n/a	n/a	n/a	74.4	BF04NES.jpg
44.208	0.514	Blank	Blank	69.961	n/a	1	2	4	n/a	24	n/a	1	n/a	n/a	n/a	n/a	74.898	n/a
44.739	0.497	neutral	Picture	69.447	n/a	1	2	5	n/a	25	32	1	n/a	n/a	n/a	n/a	75.428	AM14NES.jpg
45.236	0.514	Blank	Blank	68.933	n/a	1	2	5	n/a	25	n/a	1	n/a	n/a	n/a	n/a	75.926	n/a
45.767	0.497	neutral	Picture	68.419	n/a	1	2	6	n/a	26	37	1	n/a	n/a	n/a	n/a	76.456	BM25NES.jpg
46.264	0.514	Blank	Blank	67.905	n/a	1	2	6	n/a	26	n/a	1	n/a	n/a	n/a	n/a	76.954	n/a
46.795	0.497	neutral	Picture	67.391	n/a	1	2	7	n/a	27	15	1	n/a	n/a	n/a	n/a	77.484	AF25NES.jpg
47.292	0.514	Blank	Blank	66.878	n/a	1	2	7	n/a	27	n/a	1	n/a	n/a	n/a	n/a	77.981	n/a
47.822	0.497	neutral	Picture	66.364	n/a	1	2	8	n/a	28	23	1	n/a	n/a	n/a	n/a	78.512	AM04NES.jpg
48.32	0.514	Blank	Blank	65.85	n/a	1	2	8	n/a	28	n/a	1	n/a	n/a	n/a	n/a	79.009	n/a
48.85	0.497	neutral	Picture	65.336	n/a	1	2	9	n/a	29	34	1	n/a	n/a	n/a	n/a	79.54	AM22NES.jpg
49.348	0.514	Blank	Blank	64.822	n/a	1	2	9	n/a	29	n/a	1	n/a	n/a	n/a	n/a	80.037	n/a
49.878	0.497	neutral	Picture	64.308	n/a	1	2	10	n/a	30	24	1	n/a	n/a	n/a	n/a	80.568	BM05NES.jpg
50.376	0.514	Blank	Blank	63.794	n/a	1	2	10	n/a	30	n/a	1	n/a	n/a	n/a	n/a	81.065	n/a
50.906	0.497	neutral	Picture	63.28	n/a	1	2	11	n/a	31	12	1	n/a	n/a	n/a	n/a	81.596	AF21NES.jpg
51.404	0.514	Blank	Blank	62.766	n/a	1	2	11	n/a	31	n/a	1	n/a	n/a	n/a	n/a	82.093	n/a
51.934	0.497	neutral	Picture	62.252	n/a	1	2	12	n/a	32	6	1	n/a	n/a	n/a	n/a	82.623	AF09NES.jpg
52.431	0.514	Blank	Blank	61.738	n/a	1	2	12	n/a	32	n/a	1	n/a	n/a	n/a	n/a	83.121	n/a
52.962	0.497	neutral	Picture	61.224	n/a	1	2	13	n/a	33	17	1	n/a	n/a	n/a	n/a	83.651	BF28NES.jpg
53.459	0.514	Blank	Blank	60.71	n/a	1	2	13	n/a	33	n/a	1	n/a	n/a	n/a	n/a	84.149	n/a
53.99	0.497	neutral	Picture	60.196	n/a	1	2	14	n/a	34	2	1	n/a	n/a	n/a	n/a	84.679	AF03NES.jpg
54.487	0.514	Blank	Blank	59.682	n/a	1	2	14	n/a	34	n/a	1	n/a	n/a	n/a	n/a	85.177	n/a
55.018	0.497	neutral	Picture	59.168	n/a	1	2	15	n/a	35	9	1	n/a	n/a	n/a	n/a	85.707	AF17NES.jpg
55.515	0.514	Blank	Blank	58.654	n/a	1	2	15	n/a	35	n/a	1	n/a	n/a	n/a	n/a	86.204	n/a
56.046	0.497	neutral	Picture	58.141	n/a	1	2	16	n/a	36	25	1	n/a	n/a	n/a	n/a	86.735	BM06NES.jpg
56.543	0.514	Blank	Blank	57.627	n/a	1	2	16	n/a	36	n/a	1	n/a	n/a	n/a	n/a	87.232	n/a
57.074	0.497	neutral	Picture	57.113	n/a	1	2	17	n/a	37	8	1	n/a	n/a	n/a	n/a	87.763	AF14NES.jpg
57.571	0.514	Blank	Blank	56.599	n/a	1	2	17	n/a	37	n/a	1	n/a	n/a	n/a	n/a	88.26	n/a
58.101	0.497	neutral	Picture	56.085	n/a	1	2	18	n/a	38	19	1	n/a	n/a	n/a	n/a	88.791	AF31NES.jpg
58.599	0.514	Blank	Blank	55.571	n/a	1	2	18	n/a	38	n/a	1	n/a	n/a	n/a	n/a	89.288	n/a
59.129	0.497	neutral	Picture	55.057	n/a	1	2	19	n/a	39	14	1	n/a	n/a	n/a	n/a	89.819	AF23NES.jpg
59.627	0.514	Blank	Blank	54.543	n/a	1	2	19	n/a	39	n/a	1	n/a	n/a	n/a	n/a	90.316	n/a
60.157	0.497	neutral	Picture	54.029	n/a	1	2	20	n/a	40	4	1	n/a	n/a	n/a	n/a	90.847	AF05NES.jpg
60.655	0.514	Blank	Blank	53.515	n/a	1	2	20	n/a	40	n/a	1	n/a	n/a	n/a	n/a	91.344	n/a
61.185	10.014	ITI	Fixation+	43.485	n/a	1	n/a	n/a	n/a	n/a	n/a	n/a	n/a	n/a	n/a	n/a	91.874	n/a
71.215	0.497	angry	Picture	42.971	n/a	1	3	1	n/a	41	84	3	n/a	n/a	n/a	n/a	101.905	AF05ANS.jpg
71.713	0.514	Blank	Blank	42.457	n/a	1	3	1	n/a	41	n/a	3	n/a	n/a	n/a	n/a	102.402	n/a
72.243	0.497	angry	Picture	41.943	n/a	1	3	2	n/a	42	92	3	n/a	n/a	n/a	n/a	102.933	AF21ANS.jpg
72.74	0.514	Blank	Blank	41.429	n/a	1	3	2	n/a	42	n/a	3	n/a	n/a	n/a	n/a	103.43	n/a
73.271	0.497	angry	Picture	40.915	n/a	1	3	3	n/a	43	86	3	n/a	n/a	n/a	n/a	103.96	AF09ANS.jpg
73.768	0.514	Blank	Blank	40.401	n/a	1	3	3	n/a	43	n/a	3	n/a	n/a	n/a	n/a	104.458	n/a
74.299	0.497	angry	Picture	39.887	n/a	1	3	4	n/a	44	93	3	n/a	n/a	n/a	n/a	104.988	BF22ANS.jpg
74.796	0.514	Blank	Blank	39.373	n/a	1	3	4	n/a	44	n/a	3	n/a	n/a	n/a	n/a	105.486	n/a
75.327	0.497	angry	Picture	38.859	n/a	1	3	5	n/a	45	88	3	n/a	n/a	n/a	n/a	106.016	AF14ANS.jpg
75.824	0.514	Blank	Blank	38.345	n/a	1	3	5	n/a	45	n/a	3	n/a	n/a	n/a	n/a	106.513	n/a
76.355	0.497	angry	Picture	37.831	n/a	1	3	6	n/a	46	113	3	n/a	n/a	n/a	n/a	107.044	AM21ANS.jpg
76.852	0.514	Blank	Blank	37.317	n/a	1	3	6	n/a	46	n/a	3	n/a	n/a	n/a	n/a	107.541	n/a
77.382	0.497	angry	Picture	36.804	n/a	1	3	7	n/a	47	95	3	n/a	n/a	n/a	n/a	108.072	AF25ANS.jpg
77.88	0.514	Blank	Blank	36.29	n/a	1	3	7	n/a	47	n/a	3	n/a	n/a	n/a	n/a	108.569	n/a
78.41	0.497	angry	Picture	35.776	n/a	1	3	8	n/a	48	102	3	n/a	n/a	n/a	n/a	109.1	BM03ANS.jpg
78.908	0.514	Blank	Blank	35.262	n/a	1	3	8	n/a	48	n/a	3	n/a	n/a	n/a	n/a	109.597	n/a
79.438	0.497	angry	Picture	34.748	n/a	1	3	9	n/a	49	112	3	n/a	n/a	n/a	n/a	110.128	AM14ANS.jpg
79.936	0.514	Blank	Blank	34.234	n/a	1	3	9	n/a	49	n/a	3	n/a	n/a	n/a	n/a	110.625	n/a
80.466	0.497	angry	Picture	33.72	n/a	1	3	10	n/a	50	83	3	n/a	n/a	n/a	n/a	111.156	BF04ANS.jpg
80.964	0.514	Blank	Blank	33.206	n/a	1	3	10	n/a	50	n/a	3	n/a	n/a	n/a	n/a	111.653	n/a
81.494	0.497	angry	Picture	32.692	n/a	1	3	11	n/a	51	90	3	n/a	n/a	n/a	n/a	112.183	AF18ANS.jpg
81.991	0.514	Blank	Blank	32.178	n/a	1	3	11	n/a	51	n/a	3	n/a	n/a	n/a	n/a	112.681	n/a
82.522	0.497	angry	Picture	31.664	n/a	1	3	12	n/a	52	117	3	n/a	n/a	n/a	n/a	113.211	BM25ANS.jpg
83.019	0.514	Blank	Blank	31.15	n/a	1	3	12	n/a	52	n/a	3	n/a	n/a	n/a	n/a	113.709	n/a
83.55	0.497	angry	Picture	30.636	n/a	1	3	13	n/a	53	94	3	n/a	n/a	n/a	n/a	114.239	AF23ANS.jpg
84.047	0.514	Blank	Blank	30.122	n/a	1	3	13	n/a	53	n/a	3	n/a	n/a	n/a	n/a	114.737	n/a
84.578	0.497	angry	Picture	29.608	n/a	1	3	14	n/a	54	106	3	n/a	n/a	n/a	n/a	115.267	AM07ANS.jpg
85.075	0.514	Blank	Blank	29.094	n/a	1	3	14	n/a	54	n/a	3	n/a	n/a	n/a	n/a	115.764	n/a
85.606	0.497	angry	Picture	28.581	n/a	1	3	15	n/a	55	105	3	n/a	n/a	n/a	n/a	116.295	BM06ANS.jpg
86.103	0.514	Blank	Blank	28.067	n/a	1	3	15	n/a	55	n/a	3	n/a	n/a	n/a	n/a	116.792	n/a
86.633	0.497	angry	Picture	27.553	n/a	1	3	16	n/a	56	116	3	n/a	n/a	n/a	n/a	117.323	BM24ANS.jpg
87.131	0.514	Blank	Blank	27.039	n/a	1	3	16	n/a	56	n/a	3	n/a	n/a	n/a	n/a	117.82	n/a
87.661	0.497	angry	Picture	26.525	n/a	1	3	17	n/a	57	89	3	n/a	n/a	n/a	n/a	118.351	AF17ANS.jpg
88.159	0.514	Blank	Blank	26.011	n/a	1	3	17	n/a	57	n/a	3	n/a	n/a	n/a	n/a	118.848	n/a
88.689	0.497	angry	Picture	25.497	n/a	1	3	18	n/a	58	118	3	n/a	n/a	n/a	n/a	119.379	BM26ANS.jpg
89.187	0.514	Blank	Blank	24.983	n/a	1	3	18	n/a	58	n/a	3	n/a	n/a	n/a	n/a	119.876	n/a
89.717	0.497	angry	Picture	24.469	n/a	1	3	19	n/a	59	100	3	n/a	n/a	n/a	n/a	120.406	AF32ANS.jpg
90.214	0.514	Blank	Blank	23.955	n/a	1	3	19	n/a	59	n/a	3	n/a	n/a	n/a	n/a	120.904	n/a
90.745	0.497	angry	Picture	23.441	n/a	1	3	20	n/a	60	119	3	n/a	n/a	n/a	n/a	121.434	BM28ANS.jpg
91.242	0.514	Blank	Blank	22.927	n/a	1	3	20	n/a	60	n/a	3	n/a	n/a	n/a	n/a	121.932	n/a
91.773	10.014	ITI	Fixation+	12.897	n/a	1	n/a	n/a	n/a	n/a	n/a	n/a	n/a	n/a	n/a	n/a	122.462	n/a
114.683	n/a	ConfirmRating	Rate	n/a	12.865	1	n/a	n/a	0	n/a	n/a	n/a	2	Angry	53	50	145.373	n/a
120.583	n/a	ConfirmRating	Rate	n/a	5.886	1	n/a	n/a	1	n/a	n/a	n/a	3	Angry	50	50	151.273	n/a
120.603	10.014	ITI	Fixation+	101.842	n/a	2	n/a	n/a	n/a	n/a	n/a	n/a	n/a	n/a	n/a	n/a	151.293	n/a
130.634	0.497	happy	Picture	101.328	n/a	2	4	1	n/a	61	79	2	n/a	n/a	n/a	n/a	161.323	BM28HAS.jpg
131.131	0.514	Blank	Blank	100.814	n/a	2	4	1	n/a	61	n/a	2	n/a	n/a	n/a	n/a	161.82	n/a
131.661	0.497	happy	Picture	100.3	n/a	2	4	2	n/a	62	61	2	n/a	n/a	n/a	n/a	162.351	AM01HAS.jpg
132.159	0.514	Blank	Blank	99.786	n/a	2	4	2	n/a	62	n/a	2	n/a	n/a	n/a	n/a	162.848	n/a
132.689	0.497	happy	Picture	99.272	n/a	2	4	3	n/a	63	57	2	n/a	n/a	n/a	n/a	163.379	BF28HAS.jpg
133.187	0.514	Blank	Blank	98.758	n/a	2	4	3	n/a	63	n/a	2	n/a	n/a	n/a	n/a	163.876	n/a
133.717	0.497	happy	Picture	98.244	n/a	2	4	4	n/a	64	77	2	n/a	n/a	n/a	n/a	164.407	BM25HAS.jpg
134.215	0.514	Blank	Blank	97.73	n/a	2	4	4	n/a	64	n/a	2	n/a	n/a	n/a	n/a	164.904	n/a
134.745	0.497	happy	Picture	97.216	n/a	2	4	5	n/a	65	47	2	n/a	n/a	n/a	n/a	165.435	BF11HAS.jpg
135.243	0.514	Blank	Blank	96.702	n/a	2	4	5	n/a	65	n/a	2	n/a	n/a	n/a	n/a	165.932	n/a
135.773	0.497	happy	Picture	96.188	n/a	2	4	6	n/a	66	50	2	n/a	n/a	n/a	n/a	166.462	AF18HAS.jpg
136.27	0.514	Blank	Blank	95.674	n/a	2	4	6	n/a	66	n/a	2	n/a	n/a	n/a	n/a	166.96	n/a
136.801	0.497	happy	Picture	95.16	n/a	2	4	7	n/a	67	78	2	n/a	n/a	n/a	n/a	167.49	BM26HAS.jpg
137.298	0.514	Blank	Blank	94.647	n/a	2	4	7	n/a	67	n/a	2	n/a	n/a	n/a	n/a	167.988	n/a
137.829	0.497	happy	Picture	94.132	n/a	2	4	8	n/a	68	45	2	n/a	n/a	n/a	n/a	168.518	BF07HAS.jpg
138.326	0.514	Blank	Blank	93.619	n/a	2	4	8	n/a	68	n/a	2	n/a	n/a	n/a	n/a	169.016	n/a
138.857	0.497	happy	Picture	93.105	n/a	2	4	9	n/a	69	56	2	n/a	n/a	n/a	n/a	169.546	AF26HAS.jpg
139.354	0.514	Blank	Blank	92.591	n/a	2	4	9	n/a	69	n/a	2	n/a	n/a	n/a	n/a	170.043	n/a
139.885	0.497	happy	Picture	92.077	n/a	2	4	10	n/a	70	65	2	n/a	n/a	n/a	n/a	170.574	BM06HAS.jpg
140.382	0.514	Blank	Blank	91.563	n/a	2	4	10	n/a	70	n/a	2	n/a	n/a	n/a	n/a	171.071	n/a
140.912	0.497	happy	Picture	91.049	n/a	2	4	11	n/a	71	73	2	n/a	n/a	n/a	n/a	171.602	AM21HAS.jpg
141.41	0.514	Blank	Blank	90.535	n/a	2	4	11	n/a	71	n/a	2	n/a	n/a	n/a	n/a	172.099	n/a
141.94	0.497	happy	Picture	90.021	n/a	2	4	12	n/a	72	41	2	n/a	n/a	n/a	n/a	172.63	AF01HAS.jpg
142.438	0.514	Blank	Blank	89.507	n/a	2	4	12	n/a	72	n/a	2	n/a	n/a	n/a	n/a	173.127	n/a
142.968	0.497	happy	Picture	88.993	n/a	2	4	13	n/a	73	59	2	n/a	n/a	n/a	n/a	173.658	AF31HAS.jpg
143.466	0.514	Blank	Blank	88.479	n/a	2	4	13	n/a	73	n/a	2	n/a	n/a	n/a	n/a	174.155	n/a
143.996	0.497	happy	Picture	87.965	n/a	2	4	14	n/a	74	64	2	n/a	n/a	n/a	n/a	174.685	BM05HAS.jpg
144.493	0.514	Blank	Blank	87.451	n/a	2	4	14	n/a	74	n/a	2	n/a	n/a	n/a	n/a	175.183	n/a
145.024	0.497	happy	Picture	86.937	n/a	2	4	15	n/a	75	68	2	n/a	n/a	n/a	n/a	175.713	AM09HAS.jpg
145.521	0.514	Blank	Blank	86.423	n/a	2	4	15	n/a	75	n/a	2	n/a	n/a	n/a	n/a	176.211	n/a
146.052	0.497	happy	Picture	85.909	n/a	2	4	16	n/a	76	54	2	n/a	n/a	n/a	n/a	176.741	AF23HAS.jpg
146.549	0.514	Blank	Blank	85.395	n/a	2	4	16	n/a	76	n/a	2	n/a	n/a	n/a	n/a	177.239	n/a
147.08	0.497	happy	Picture	84.881	n/a	2	4	17	n/a	77	53	2	n/a	n/a	n/a	n/a	177.769	BF22HAS.jpg
147.577	0.514	Blank	Blank	84.368	n/a	2	4	17	n/a	77	n/a	2	n/a	n/a	n/a	n/a	178.267	n/a
148.108	0.497	happy	Picture	83.854	n/a	2	4	18	n/a	78	44	2	n/a	n/a	n/a	n/a	178.797	AF05HAS.jpg
148.605	0.514	Blank	Blank	83.34	n/a	2	4	18	n/a	78	n/a	2	n/a	n/a	n/a	n/a	179.294	n/a
149.136	0.497	happy	Picture	82.826	n/a	2	4	19	n/a	79	52	2	n/a	n/a	n/a	n/a	179.825	AF21HAS.jpg
149.633	0.514	Blank	Blank	82.312	n/a	2	4	19	n/a	79	n/a	2	n/a	n/a	n/a	n/a	180.322	n/a
150.163	0.497	happy	Picture	81.798	n/a	2	4	20	n/a	80	62	2	n/a	n/a	n/a	n/a	180.853	BM03HAS.jpg
150.661	0.514	Blank	Blank	81.284	n/a	2	4	20	n/a	80	n/a	2	n/a	n/a	n/a	n/a	181.35	n/a
151.191	10.014	ITI	Fixation+	71.254	n/a	2	n/a	n/a	n/a	n/a	n/a	n/a	n/a	n/a	n/a	n/a	181.881	n/a
161.221	0.497	neutral	Picture	70.74	n/a	2	5	1	n/a	81	23	1	n/a	n/a	n/a	n/a	191.911	AM04NES.jpg
161.719	0.514	Blank	Blank	70.226	n/a	2	5	1	n/a	81	n/a	1	n/a	n/a	n/a	n/a	192.408	n/a
162.249	0.497	neutral	Picture	69.712	n/a	2	5	2	n/a	82	29	1	n/a	n/a	n/a	n/a	192.939	AM10NES.jpg
162.747	0.514	Blank	Blank	69.198	n/a	2	5	2	n/a	82	n/a	1	n/a	n/a	n/a	n/a	193.436	n/a
163.277	0.497	neutral	Picture	68.684	n/a	2	5	3	n/a	83	24	1	n/a	n/a	n/a	n/a	193.967	BM05NES.jpg
163.775	0.514	Blank	Blank	68.17	n/a	2	5	3	n/a	83	n/a	1	n/a	n/a	n/a	n/a	194.464	n/a
164.305	0.497	neutral	Picture	67.656	n/a	2	5	4	n/a	84	12	1	n/a	n/a	n/a	n/a	194.995	AF21NES.jpg
164.802	0.514	Blank	Blank	67.142	n/a	2	5	4	n/a	84	n/a	1	n/a	n/a	n/a	n/a	195.492	n/a
165.333	0.497	neutral	Picture	66.628	n/a	2	5	5	n/a	85	13	1	n/a	n/a	n/a	n/a	196.023	BF22NES.jpg
165.83	0.514	Blank	Blank	66.114	n/a	2	5	5	n/a	85	n/a	1	n/a	n/a	n/a	n/a	196.52	n/a
166.361	0.497	neutral	Picture	65.6	n/a	2	5	6	n/a	86	17	1	n/a	n/a	n/a	n/a	197.05	BF28NES.jpg
166.858	0.514	Blank	Blank	65.086	n/a	2	5	6	n/a	86	n/a	1	n/a	n/a	n/a	n/a	197.548	n/a
167.389	0.497	neutral	Picture	64.572	n/a	2	5	7	n/a	87	4	1	n/a	n/a	n/a	n/a	198.078	AF05NES.jpg
167.886	0.514	Blank	Blank	64.059	n/a	2	5	7	n/a	87	n/a	1	n/a	n/a	n/a	n/a	198.576	n/a
168.417	0.497	neutral	Picture	63.545	n/a	2	5	8	n/a	88	11	1	n/a	n/a	n/a	n/a	199.106	AF20NES.jpg
168.914	0.514	Blank	Blank	63.031	n/a	2	5	8	n/a	88	n/a	1	n/a	n/a	n/a	n/a	199.603	n/a
169.445	0.497	neutral	Picture	62.517	n/a	2	5	9	n/a	89	22	1	n/a	n/a	n/a	n/a	200.134	BM03NES.jpg
169.942	0.514	Blank	Blank	62.003	n/a	2	5	9	n/a	89	n/a	1	n/a	n/a	n/a	n/a	200.631	n/a
170.472	0.497	neutral	Picture	61.489	n/a	2	5	10	n/a	90	15	1	n/a	n/a	n/a	n/a	201.162	AF25NES.jpg
170.97	0.514	Blank	Blank	60.975	n/a	2	5	10	n/a	90	n/a	1	n/a	n/a	n/a	n/a	201.659	n/a
171.5	0.497	neutral	Picture	60.461	n/a	2	5	11	n/a	91	19	1	n/a	n/a	n/a	n/a	202.19	AF31NES.jpg
171.998	0.514	Blank	Blank	59.947	n/a	2	5	11	n/a	91	n/a	1	n/a	n/a	n/a	n/a	202.687	n/a
172.528	0.497	neutral	Picture	59.433	n/a	2	5	12	n/a	92	9	1	n/a	n/a	n/a	n/a	203.218	AF17NES.jpg
173.026	0.514	Blank	Blank	58.919	n/a	2	5	12	n/a	92	n/a	1	n/a	n/a	n/a	n/a	203.715	n/a
173.556	0.497	neutral	Picture	58.405	n/a	2	5	13	n/a	93	14	1	n/a	n/a	n/a	n/a	204.245	AF23NES.jpg
174.053	0.514	Blank	Blank	57.891	n/a	2	5	13	n/a	93	n/a	1	n/a	n/a	n/a	n/a	204.743	n/a
174.584	0.497	neutral	Picture	57.377	n/a	2	5	14	n/a	94	36	1	n/a	n/a	n/a	n/a	205.273	BM24NES.jpg
175.081	0.514	Blank	Blank	56.863	n/a	2	5	14	n/a	94	n/a	1	n/a	n/a	n/a	n/a	205.771	n/a
175.612	0.497	neutral	Picture	56.349	n/a	2	5	15	n/a	95	34	1	n/a	n/a	n/a	n/a	206.301	AM22NES.jpg
176.109	0.514	Blank	Blank	55.835	n/a	2	5	15	n/a	95	n/a	1	n/a	n/a	n/a	n/a	206.799	n/a
176.64	0.497	neutral	Picture	55.322	n/a	2	5	16	n/a	96	10	1	n/a	n/a	n/a	n/a	207.329	AF18NES.jpg
177.137	0.514	Blank	Blank	54.808	n/a	2	5	16	n/a	96	n/a	1	n/a	n/a	n/a	n/a	207.827	n/a
177.668	0.497	neutral	Picture	54.294	n/a	2	5	17	n/a	97	5	1	n/a	n/a	n/a	n/a	208.357	BF07NES.jpg
178.165	0.514	Blank	Blank	53.78	n/a	2	5	17	n/a	97	n/a	1	n/a	n/a	n/a	n/a	208.855	n/a
178.696	0.497	neutral	Picture	53.266	n/a	2	5	18	n/a	98	25	1	n/a	n/a	n/a	n/a	209.385	BM06NES.jpg
179.193	0.514	Blank	Blank	52.752	n/a	2	5	18	n/a	98	n/a	1	n/a	n/a	n/a	n/a	209.882	n/a
179.724	0.497	neutral	Picture	52.238	n/a	2	5	19	n/a	99	39	1	n/a	n/a	n/a	n/a	210.413	AM28NES.jpg
180.221	0.514	Blank	Blank	51.724	n/a	2	5	19	n/a	99	n/a	1	n/a	n/a	n/a	n/a	210.91	n/a
180.751	0.497	neutral	Picture	51.21	n/a	2	5	20	n/a	100	33	1	n/a	n/a	n/a	n/a	211.441	AM21NES.jpg
181.249	0.514	Blank	Blank	50.696	n/a	2	5	20	n/a	100	n/a	1	n/a	n/a	n/a	n/a	211.938	n/a
181.779	10.014	ITI	Fixation+	40.666	n/a	2	n/a	n/a	n/a	n/a	n/a	n/a	n/a	n/a	n/a	n/a	212.469	n/a
191.809	0.497	happy	Picture	40.152	n/a	2	6	1	n/a	101	74	2	n/a	n/a	n/a	n/a	222.499	AM22HAS.jpg
192.307	0.514	Blank	Blank	39.638	n/a	2	6	1	n/a	101	n/a	2	n/a	n/a	n/a	n/a	222.996	n/a
192.837	0.497	happy	Picture	39.124	n/a	2	6	2	n/a	102	76	2	n/a	n/a	n/a	n/a	223.527	BM24HAS.jpg
193.335	0.514	Blank	Blank	38.61	n/a	2	6	2	n/a	102	n/a	2	n/a	n/a	n/a	n/a	224.024	n/a
193.865	0.497	happy	Picture	38.096	n/a	2	6	3	n/a	103	80	2	n/a	n/a	n/a	n/a	224.554	BM35HAS.jpg
194.363	0.514	Blank	Blank	37.582	n/a	2	6	3	n/a	103	n/a	2	n/a	n/a	n/a	n/a	225.052	n/a
194.893	0.497	happy	Picture	37.068	n/a	2	6	4	n/a	104	75	2	n/a	n/a	n/a	n/a	225.583	AM23HAS.jpg
195.39	0.514	Blank	Blank	36.554	n/a	2	6	4	n/a	104	n/a	2	n/a	n/a	n/a	n/a	226.08	n/a
195.921	0.497	happy	Picture	36.04	n/a	2	6	5	n/a	105	49	2	n/a	n/a	n/a	n/a	226.61	AF17HAS.jpg
196.418	0.514	Blank	Blank	35.526	n/a	2	6	5	n/a	105	n/a	2	n/a	n/a	n/a	n/a	227.108	n/a
196.949	0.497	happy	Picture	35.012	n/a	2	6	6	n/a	106	43	2	n/a	n/a	n/a	n/a	227.638	BF04HAS.jpg
197.446	0.514	Blank	Blank	34.499	n/a	2	6	6	n/a	106	n/a	2	n/a	n/a	n/a	n/a	228.136	n/a
197.977	0.497	happy	Picture	33.985	n/a	2	6	7	n/a	107	70	2	n/a	n/a	n/a	n/a	228.666	BM11HAS.jpg
198.474	0.514	Blank	Blank	33.471	n/a	2	6	7	n/a	107	n/a	2	n/a	n/a	n/a	n/a	229.163	n/a
199.005	0.497	happy	Picture	32.957	n/a	2	6	8	n/a	108	66	2	n/a	n/a	n/a	n/a	229.694	BM07HAS.jpg
199.502	0.514	Blank	Blank	32.443	n/a	2	6	8	n/a	108	n/a	2	n/a	n/a	n/a	n/a	230.191	n/a
200.032	0.497	happy	Picture	31.929	n/a	2	6	9	n/a	109	48	2	n/a	n/a	n/a	n/a	230.722	AF14HAS.jpg
200.53	0.514	Blank	Blank	31.415	n/a	2	6	9	n/a	109	n/a	2	n/a	n/a	n/a	n/a	231.219	n/a
201.06	0.497	happy	Picture	30.901	n/a	2	6	10	n/a	110	58	2	n/a	n/a	n/a	n/a	231.75	BF29HAS.jpg
201.558	0.514	Blank	Blank	30.387	n/a	2	6	10	n/a	110	n/a	2	n/a	n/a	n/a	n/a	232.247	n/a
202.088	0.497	happy	Picture	29.873	n/a	2	6	11	n/a	111	63	2	n/a	n/a	n/a	n/a	232.778	AM04HAS.jpg
202.586	0.514	Blank	Blank	29.359	n/a	2	6	11	n/a	111	n/a	2	n/a	n/a	n/a	n/a	233.275	n/a
203.116	0.497	happy	Picture	28.845	n/a	2	6	12	n/a	112	72	2	n/a	n/a	n/a	n/a	233.806	AM14HAS.jpg
203.613	0.514	Blank	Blank	28.331	n/a	2	6	12	n/a	112	n/a	2	n/a	n/a	n/a	n/a	234.303	n/a
204.144	0.497	happy	Picture	27.817	n/a	2	6	13	n/a	113	55	2	n/a	n/a	n/a	n/a	234.833	AF25HAS.jpg
204.641	0.514	Blank	Blank	27.303	n/a	2	6	13	n/a	113	n/a	2	n/a	n/a	n/a	n/a	235.331	n/a
205.172	0.497	happy	Picture	26.789	n/a	2	6	14	n/a	114	42	2	n/a	n/a	n/a	n/a	235.861	AF03HAS.jpg
205.669	0.514	Blank	Blank	26.275	n/a	2	6	14	n/a	114	n/a	2	n/a	n/a	n/a	n/a	236.359	n/a
206.2	0.497	happy	Picture	25.762	n/a	2	6	15	n/a	115	60	2	n/a	n/a	n/a	n/a	236.889	AF32HAS.jpg
206.697	0.514	Blank	Blank	25.248	n/a	2	6	15	n/a	115	n/a	2	n/a	n/a	n/a	n/a	237.387	n/a
207.228	0.497	happy	Picture	24.734	n/a	2	6	16	n/a	116	67	2	n/a	n/a	n/a	n/a	237.917	BM08HAS.jpg
207.725	0.514	Blank	Blank	24.22	n/a	2	6	16	n/a	116	n/a	2	n/a	n/a	n/a	n/a	238.415	n/a
208.256	0.497	happy	Picture	23.706	n/a	2	6	17	n/a	117	51	2	n/a	n/a	n/a	n/a	238.945	AF20HAS.jpg
208.753	0.514	Blank	Blank	23.192	n/a	2	6	17	n/a	117	n/a	2	n/a	n/a	n/a	n/a	239.442	n/a
209.284	0.497	happy	Picture	22.678	n/a	2	6	18	n/a	118	71	2	n/a	n/a	n/a	n/a	239.973	BM12HAS.jpg
209.781	0.514	Blank	Blank	22.164	n/a	2	6	18	n/a	118	n/a	2	n/a	n/a	n/a	n/a	240.47	n/a
210.311	0.497	happy	Picture	21.65	n/a	2	6	19	n/a	119	69	2	n/a	n/a	n/a	n/a	241.001	AM10HAS.jpg
210.809	0.514	Blank	Blank	21.136	n/a	2	6	19	n/a	119	n/a	2	n/a	n/a	n/a	n/a	241.498	n/a
211.339	0.497	happy	Picture	20.622	n/a	2	6	20	n/a	120	46	2	n/a	n/a	n/a	n/a	242.029	AF09HAS.jpg
211.837	0.514	Blank	Blank	20.108	n/a	2	6	20	n/a	120	n/a	2	n/a	n/a	n/a	n/a	242.526	n/a
212.367	10.014	ITI	Fixation+	10.078	n/a	2	n/a	n/a	n/a	n/a	n/a	n/a	n/a	n/a	n/a	n/a	243.056	n/a
232.459	n/a	ConfirmRating	Rate	n/a	10.064	2	n/a	n/a	0	n/a	n/a	n/a	2	Happy	51	50	263.148	n/a
237.944	n/a	ConfirmRating	Rate	n/a	5.471	2	n/a	n/a	1	n/a	n/a	n/a	3	Happy	41	49	268.634	n/a
237.965	15.004	Rest	Picture	n/a	n/a	n/a	n/a	n/a	n/a	n/a	n/a	n/a	0	n/a	0	0	268.654	n/a
252.985	10.014	ITI	Fixation+	94.104	n/a	3	n/a	n/a	n/a	n/a	n/a	n/a	n/a	n/a	n/a	n/a	283.675	n/a
263.015	0.497	angry	Picture	93.59	n/a	3	7	1	n/a	1	108	3	n/a	n/a	n/a	n/a	293.705	AM09ANS.jpg
263.513	0.514	Blank	Blank	93.076	n/a	3	7	1	n/a	1	n/a	3	n/a	n/a	n/a	n/a	294.202	n/a
264.043	0.497	angry	Picture	92.562	n/a	3	7	2	n/a	2	99	3	n/a	n/a	n/a	n/a	294.733	AF31ANS.jpg
264.541	0.514	Blank	Blank	92.048	n/a	3	7	2	n/a	2	n/a	3	n/a	n/a	n/a	n/a	295.23	n/a
265.071	0.497	angry	Picture	91.534	n/a	3	7	3	n/a	3	98	3	n/a	n/a	n/a	n/a	295.76	BF29ANS.jpg
265.569	0.514	Blank	Blank	91.02	n/a	3	7	3	n/a	3	n/a	3	n/a	n/a	n/a	n/a	296.258	n/a
266.099	0.497	angry	Picture	90.506	n/a	3	7	4	n/a	4	107	3	n/a	n/a	n/a	n/a	296.788	BM08ANS.jpg
266.596	0.514	Blank	Blank	89.993	n/a	3	7	4	n/a	4	n/a	3	n/a	n/a	n/a	n/a	297.286	n/a
267.127	0.497	angry	Picture	89.478	n/a	3	7	5	n/a	5	104	3	n/a	n/a	n/a	n/a	297.816	BM05ANS.jpg
267.624	0.514	Blank	Blank	88.965	n/a	3	7	5	n/a	5	n/a	3	n/a	n/a	n/a	n/a	298.314	n/a
268.155	0.497	angry	Picture	88.451	n/a	3	7	6	n/a	6	101	3	n/a	n/a	n/a	n/a	298.844	AM01ANS.jpg
268.652	0.514	Blank	Blank	87.937	n/a	3	7	6	n/a	6	n/a	3	n/a	n/a	n/a	n/a	299.342	n/a
269.183	0.497	angry	Picture	87.423	n/a	3	7	7	n/a	7	103	3	n/a	n/a	n/a	n/a	299.872	AM04ANS.jpg
269.68	0.514	Blank	Blank	86.909	n/a	3	7	7	n/a	7	n/a	3	n/a	n/a	n/a	n/a	300.37	n/a
270.211	0.497	angry	Picture	86.395	n/a	3	7	8	n/a	8	111	3	n/a	n/a	n/a	n/a	300.9	BM12ANS.jpg
270.708	0.514	Blank	Blank	85.881	n/a	3	7	8	n/a	8	n/a	3	n/a	n/a	n/a	n/a	301.397	n/a
271.239	0.497	angry	Picture	85.367	n/a	3	7	9	n/a	9	110	3	n/a	n/a	n/a	n/a	301.928	AM11ANS.jpg
271.736	0.514	Blank	Blank	84.853	n/a	3	7	9	n/a	9	n/a	3	n/a	n/a	n/a	n/a	302.425	n/a
272.266	0.497	angry	Picture	84.339	n/a	3	7	10	n/a	10	85	3	n/a	n/a	n/a	n/a	302.956	BF07ANS.jpg
272.764	0.514	Blank	Blank	83.825	n/a	3	7	10	n/a	10	n/a	3	n/a	n/a	n/a	n/a	303.453	n/a
273.294	0.497	angry	Picture	83.311	n/a	3	7	11	n/a	11	87	3	n/a	n/a	n/a	n/a	303.984	BF11ANS.jpg
273.792	0.514	Blank	Blank	82.797	n/a	3	7	11	n/a	11	n/a	3	n/a	n/a	n/a	n/a	304.481	n/a
274.322	0.497	angry	Picture	82.283	n/a	3	7	12	n/a	12	91	3	n/a	n/a	n/a	n/a	305.012	AF20ANS.jpg
274.82	0.514	Blank	Blank	81.769	n/a	3	7	12	n/a	12	n/a	3	n/a	n/a	n/a	n/a	305.509	n/a
275.35	0.497	angry	Picture	81.255	n/a	3	7	13	n/a	13	115	3	n/a	n/a	n/a	n/a	306.039	AM23ANS.jpg
275.847	0.514	Blank	Blank	80.741	n/a	3	7	13	n/a	13	n/a	3	n/a	n/a	n/a	n/a	306.537	n/a
276.378	0.497	angry	Picture	80.227	n/a	3	7	14	n/a	14	97	3	n/a	n/a	n/a	n/a	307.067	BF28ANS.jpg
276.875	0.514	Blank	Blank	79.714	n/a	3	7	14	n/a	14	n/a	3	n/a	n/a	n/a	n/a	307.565	n/a
277.406	0.497	angry	Picture	79.2	n/a	3	7	15	n/a	15	82	3	n/a	n/a	n/a	n/a	308.095	AF03ANS.jpg
277.903	0.514	Blank	Blank	78.686	n/a	3	7	15	n/a	15	n/a	3	n/a	n/a	n/a	n/a	308.592	n/a
278.434	0.497	angry	Picture	78.172	n/a	3	7	16	n/a	16	96	3	n/a	n/a	n/a	n/a	309.123	AF26ANS.jpg
278.931	0.514	Blank	Blank	77.658	n/a	3	7	16	n/a	16	n/a	3	n/a	n/a	n/a	n/a	309.62	n/a
279.462	0.497	angry	Picture	77.144	n/a	3	7	17	n/a	17	109	3	n/a	n/a	n/a	n/a	310.151	AM10ANS.jpg
279.959	0.514	Blank	Blank	76.63	n/a	3	7	17	n/a	17	n/a	3	n/a	n/a	n/a	n/a	310.648	n/a
280.489	0.497	angry	Picture	76.116	n/a	3	7	18	n/a	18	114	3	n/a	n/a	n/a	n/a	311.179	AM22ANS.jpg
280.987	0.514	Blank	Blank	75.602	n/a	3	7	18	n/a	18	n/a	3	n/a	n/a	n/a	n/a	311.676	n/a
281.517	0.497	angry	Picture	75.088	n/a	3	7	19	n/a	19	120	3	n/a	n/a	n/a	n/a	312.207	AM35ANS.jpg
282.015	0.514	Blank	Blank	74.574	n/a	3	7	19	n/a	19	n/a	3	n/a	n/a	n/a	n/a	312.704	n/a
282.545	0.497	angry	Picture	74.06	n/a	3	7	20	n/a	20	81	3	n/a	n/a	n/a	n/a	313.235	AF01ANS.jpg
283.043	0.514	Blank	Blank	73.546	n/a	3	7	20	n/a	20	n/a	3	n/a	n/a	n/a	n/a	313.732	n/a
283.573	10.014	ITI	Fixation+	63.516	n/a	3	n/a	n/a	n/a	n/a	n/a	n/a	n/a	n/a	n/a	n/a	314.262	n/a
293.603	0.497	neutral	Picture	63.002	n/a	3	8	1	n/a	21	28	1	n/a	n/a	n/a	n/a	324.293	AM09NES.jpg
294.101	0.514	Blank	Blank	62.488	n/a	3	8	1	n/a	21	n/a	1	n/a	n/a	n/a	n/a	324.79	n/a
294.631	0.497	neutral	Picture	61.974	n/a	3	8	2	n/a	22	27	1	n/a	n/a	n/a	n/a	325.321	BM08NES.jpg
295.129	0.514	Blank	Blank	61.46	n/a	3	8	2	n/a	22	n/a	1	n/a	n/a	n/a	n/a	325.818	n/a
295.659	0.497	neutral	Picture	60.946	n/a	3	8	3	n/a	23	16	1	n/a	n/a	n/a	n/a	326.348	AF26NES.jpg
296.156	0.514	Blank	Blank	60.432	n/a	3	8	3	n/a	23	n/a	1	n/a	n/a	n/a	n/a	326.846	n/a
296.687	0.497	neutral	Picture	59.918	n/a	3	8	4	n/a	24	3	1	n/a	n/a	n/a	n/a	327.376	BF04NES.jpg
297.184	0.514	Blank	Blank	59.405	n/a	3	8	4	n/a	24	n/a	1	n/a	n/a	n/a	n/a	327.874	n/a
297.715	0.497	neutral	Picture	58.891	n/a	3	8	5	n/a	25	32	1	n/a	n/a	n/a	n/a	328.404	AM14NES.jpg
298.212	0.514	Blank	Blank	58.377	n/a	3	8	5	n/a	25	n/a	1	n/a	n/a	n/a	n/a	328.902	n/a
298.743	0.497	neutral	Picture	57.863	n/a	3	8	6	n/a	26	37	1	n/a	n/a	n/a	n/a	329.432	BM25NES.jpg
299.24	0.514	Blank	Blank	57.349	n/a	3	8	6	n/a	26	n/a	1	n/a	n/a	n/a	n/a	329.93	n/a
299.771	0.497	neutral	Picture	56.835	n/a	3	8	7	n/a	27	15	1	n/a	n/a	n/a	n/a	330.46	AF25NES.jpg
300.268	0.514	Blank	Blank	56.321	n/a	3	8	7	n/a	27	n/a	1	n/a	n/a	n/a	n/a	330.957	n/a
300.799	0.497	neutral	Picture	55.807	n/a	3	8	8	n/a	28	23	1	n/a	n/a	n/a	n/a	331.488	AM04NES.jpg
301.296	0.514	Blank	Blank	55.293	n/a	3	8	8	n/a	28	n/a	1	n/a	n/a	n/a	n/a	331.985	n/a
301.826	0.497	neutral	Picture	54.779	n/a	3	8	9	n/a	29	34	1	n/a	n/a	n/a	n/a	332.516	AM22NES.jpg
302.324	0.514	Blank	Blank	54.265	n/a	3	8	9	n/a	29	n/a	1	n/a	n/a	n/a	n/a	333.013	n/a
302.854	0.497	neutral	Picture	53.751	n/a	3	8	10	n/a	30	24	1	n/a	n/a	n/a	n/a	333.544	BM05NES.jpg
303.352	0.514	Blank	Blank	53.237	n/a	3	8	10	n/a	30	n/a	1	n/a	n/a	n/a	n/a	334.041	n/a
303.882	0.497	neutral	Picture	52.723	n/a	3	8	11	n/a	31	12	1	n/a	n/a	n/a	n/a	334.572	AF21NES.jpg
304.38	0.514	Blank	Blank	52.209	n/a	3	8	11	n/a	31	n/a	1	n/a	n/a	n/a	n/a	335.069	n/a
304.91	0.497	neutral	Picture	51.695	n/a	3	8	12	n/a	32	6	1	n/a	n/a	n/a	n/a	335.599	AF09NES.jpg
305.407	0.514	Blank	Blank	51.182	n/a	3	8	12	n/a	32	n/a	1	n/a	n/a	n/a	n/a	336.097	n/a
305.938	0.497	neutral	Picture	50.667	n/a	3	8	13	n/a	33	17	1	n/a	n/a	n/a	n/a	336.627	BF28NES.jpg
306.435	0.514	Blank	Blank	50.154	n/a	3	8	13	n/a	33	n/a	1	n/a	n/a	n/a	n/a	337.125	n/a
306.966	0.497	neutral	Picture	49.64	n/a	3	8	14	n/a	34	2	1	n/a	n/a	n/a	n/a	337.655	AF03NES.jpg
307.463	0.514	Blank	Blank	49.126	n/a	3	8	14	n/a	34	n/a	1	n/a	n/a	n/a	n/a	338.153	n/a
307.994	0.497	neutral	Picture	48.612	n/a	3	8	15	n/a	35	9	1	n/a	n/a	n/a	n/a	338.683	AF17NES.jpg
308.491	0.514	Blank	Blank	48.098	n/a	3	8	15	n/a	35	n/a	1	n/a	n/a	n/a	n/a	339.18	n/a
309.022	0.497	neutral	Picture	47.584	n/a	3	8	16	n/a	36	25	1	n/a	n/a	n/a	n/a	339.711	BM06NES.jpg
309.519	0.514	Blank	Blank	47.07	n/a	3	8	16	n/a	36	n/a	1	n/a	n/a	n/a	n/a	340.208	n/a
310.05	0.497	neutral	Picture	46.556	n/a	3	8	17	n/a	37	8	1	n/a	n/a	n/a	n/a	340.739	AF14NES.jpg
310.547	0.514	Blank	Blank	46.042	n/a	3	8	17	n/a	37	n/a	1	n/a	n/a	n/a	n/a	341.236	n/a
311.077	0.497	neutral	Picture	45.528	n/a	3	8	18	n/a	38	19	1	n/a	n/a	n/a	n/a	341.767	AF31NES.jpg
311.575	0.514	Blank	Blank	45.014	n/a	3	8	18	n/a	38	n/a	1	n/a	n/a	n/a	n/a	342.264	n/a
312.105	0.497	neutral	Picture	44.5	n/a	3	8	19	n/a	39	14	1	n/a	n/a	n/a	n/a	342.795	AF23NES.jpg
312.603	0.514	Blank	Blank	43.986	n/a	3	8	19	n/a	39	n/a	1	n/a	n/a	n/a	n/a	343.292	n/a
313.133	0.497	neutral	Picture	43.472	n/a	3	8	20	n/a	40	4	1	n/a	n/a	n/a	n/a	343.822	AF05NES.jpg
313.631	0.514	Blank	Blank	42.958	n/a	3	8	20	n/a	40	n/a	1	n/a	n/a	n/a	n/a	344.32	n/a
314.161	10.014	ITI	Fixation+	32.928	n/a	3	n/a	n/a	n/a	n/a	n/a	n/a	n/a	n/a	n/a	n/a	344.85	n/a
324.191	0.497	angry	Picture	32.414	n/a	3	9	1	n/a	41	84	3	n/a	n/a	n/a	n/a	354.881	AF05ANS.jpg
324.689	0.514	Blank	Blank	31.9	n/a	3	9	1	n/a	41	n/a	3	n/a	n/a	n/a	n/a	355.378	n/a
325.219	0.497	angry	Picture	31.386	n/a	3	9	2	n/a	42	92	3	n/a	n/a	n/a	n/a	355.909	AF21ANS.jpg
325.716	0.514	Blank	Blank	30.872	n/a	3	9	2	n/a	42	n/a	3	n/a	n/a	n/a	n/a	356.406	n/a
326.247	0.497	angry	Picture	30.358	n/a	3	9	3	n/a	43	86	3	n/a	n/a	n/a	n/a	356.936	AF09ANS.jpg
326.744	0.514	Blank	Blank	29.845	n/a	3	9	3	n/a	43	n/a	3	n/a	n/a	n/a	n/a	357.434	n/a
327.275	0.497	angry	Picture	29.331	n/a	3	9	4	n/a	44	93	3	n/a	n/a	n/a	n/a	357.964	BF22ANS.jpg
327.772	0.514	Blank	Blank	28.817	n/a	3	9	4	n/a	44	n/a	3	n/a	n/a	n/a	n/a	358.462	n/a
328.303	0.497	angry	Picture	28.303	n/a	3	9	5	n/a	45	88	3	n/a	n/a	n/a	n/a	358.992	AF14ANS.jpg
328.8	0.514	Blank	Blank	27.789	n/a	3	9	5	n/a	45	n/a	3	n/a	n/a	n/a	n/a	359.49	n/a
329.331	0.497	angry	Picture	27.275	n/a	3	9	6	n/a	46	113	3	n/a	n/a	n/a	n/a	360.02	AM21ANS.jpg
329.828	0.514	Blank	Blank	26.761	n/a	3	9	6	n/a	46	n/a	3	n/a	n/a	n/a	n/a	360.517	n/a
330.359	0.497	angry	Picture	26.247	n/a	3	9	7	n/a	47	95	3	n/a	n/a	n/a	n/a	361.048	AF25ANS.jpg
330.856	0.514	Blank	Blank	25.733	n/a	3	9	7	n/a	47	n/a	3	n/a	n/a	n/a	n/a	361.545	n/a
331.386	0.497	angry	Picture	25.219	n/a	3	9	8	n/a	48	102	3	n/a	n/a	n/a	n/a	362.076	BM03ANS.jpg
331.884	0.514	Blank	Blank	24.705	n/a	3	9	8	n/a	48	n/a	3	n/a	n/a	n/a	n/a	362.573	n/a
332.414	0.497	angry	Picture	24.191	n/a	3	9	9	n/a	49	112	3	n/a	n/a	n/a	n/a	363.104	AM14ANS.jpg
332.912	0.514	Blank	Blank	23.677	n/a	3	9	9	n/a	49	n/a	3	n/a	n/a	n/a	n/a	363.601	n/a
333.442	0.497	angry	Picture	23.163	n/a	3	9	10	n/a	50	83	3	n/a	n/a	n/a	n/a	364.132	BF04ANS.jpg
333.94	0.514	Blank	Blank	22.649	n/a	3	9	10	n/a	50	n/a	3	n/a	n/a	n/a	n/a	364.629	n/a
334.47	0.497	angry	Picture	22.135	n/a	3	9	11	n/a	51	90	3	n/a	n/a	n/a	n/a	365.159	AF18ANS.jpg
334.967	0.514	Blank	Blank	21.622	n/a	3	9	11	n/a	51	n/a	3	n/a	n/a	n/a	n/a	365.657	n/a
335.498	0.497	angry	Picture	21.107	n/a	3	9	12	n/a	52	117	3	n/a	n/a	n/a	n/a	366.187	BM25ANS.jpg
335.995	0.514	Blank	Blank	20.594	n/a	3	9	12	n/a	52	n/a	3	n/a	n/a	n/a	n/a	366.685	n/a
336.526	0.497	angry	Picture	20.08	n/a	3	9	13	n/a	53	94	3	n/a	n/a	n/a	n/a	367.215	AF23ANS.jpg
337.023	0.514	Blank	Blank	19.566	n/a	3	9	13	n/a	53	n/a	3	n/a	n/a	n/a	n/a	367.713	n/a
337.554	0.497	angry	Picture	19.052	n/a	3	9	14	n/a	54	106	3	n/a	n/a	n/a	n/a	368.243	AM07ANS.jpg
338.051	0.514	Blank	Blank	18.538	n/a	3	9	14	n/a	54	n/a	3	n/a	n/a	n/a	n/a	368.74	n/a
338.582	0.497	angry	Picture	18.024	n/a	3	9	15	n/a	55	105	3	n/a	n/a	n/a	n/a	369.271	BM06ANS.jpg
339.079	0.514	Blank	Blank	17.51	n/a	3	9	15	n/a	55	n/a	3	n/a	n/a	n/a	n/a	369.768	n/a
339.61	0.497	angry	Picture	16.996	n/a	3	9	16	n/a	56	116	3	n/a	n/a	n/a	n/a	370.299	BM24ANS.jpg
340.107	0.514	Blank	Blank	16.482	n/a	3	9	16	n/a	56	n/a	3	n/a	n/a	n/a	n/a	370.796	n/a
340.637	0.497	angry	Picture	15.968	n/a	3	9	17	n/a	57	89	3	n/a	n/a	n/a	n/a	371.327	AF17ANS.jpg
341.135	0.514	Blank	Blank	15.454	n/a	3	9	17	n/a	57	n/a	3	n/a	n/a	n/a	n/a	371.824	n/a
341.665	0.497	angry	Picture	14.94	n/a	3	9	18	n/a	58	118	3	n/a	n/a	n/a	n/a	372.355	BM26ANS.jpg
342.163	0.514	Blank	Blank	14.426	n/a	3	9	18	n/a	58	n/a	3	n/a	n/a	n/a	n/a	372.852	n/a
342.693	0.497	angry	Picture	13.912	n/a	3	9	19	n/a	59	100	3	n/a	n/a	n/a	n/a	373.382	AF32ANS.jpg
343.191	0.514	Blank	Blank	13.398	n/a	3	9	19	n/a	59	n/a	3	n/a	n/a	n/a	n/a	373.88	n/a
343.721	0.497	angry	Picture	12.884	n/a	3	9	20	n/a	60	119	3	n/a	n/a	n/a	n/a	374.41	BM28ANS.jpg
344.218	0.514	Blank	Blank	12.37	n/a	3	9	20	n/a	60	n/a	3	n/a	n/a	n/a	n/a	374.908	n/a
344.749	10.014	ITI	Fixation+	2.34	n/a	3	n/a	n/a	n/a	n/a	n/a	n/a	n/a	n/a	n/a	n/a	375.438	n/a
357.103	n/a	ConfirmRating	Rate	n/a	2.338	3	n/a	n/a	0	n/a	n/a	n/a	2	Angry	50	50	387.792	n/a
361.759	n/a	ConfirmRating	Rate	n/a	4.626	3	n/a	n/a	1	n/a	n/a	n/a	3	Angry	43	49	392.448	n/a
361.775	10.014	ITI	Fixation+	94.354	n/a	4	n/a	n/a	n/a	n/a	n/a	n/a	n/a	n/a	n/a	n/a	392.465	n/a
371.805	0.497	happy	Picture	93.84	n/a	4	10	1	n/a	61	79	2	n/a	n/a	n/a	n/a	402.495	BM28HAS.jpg
372.303	0.514	Blank	Blank	93.326	n/a	4	10	1	n/a	61	n/a	2	n/a	n/a	n/a	n/a	402.992	n/a
372.833	0.497	happy	Picture	92.812	n/a	4	10	2	n/a	62	61	2	n/a	n/a	n/a	n/a	403.523	AM01HAS.jpg
373.331	0.514	Blank	Blank	92.299	n/a	4	10	2	n/a	62	n/a	2	n/a	n/a	n/a	n/a	404.02	n/a
373.861	0.497	happy	Picture	91.785	n/a	4	10	3	n/a	63	57	2	n/a	n/a	n/a	n/a	404.551	BF28HAS.jpg
374.359	0.514	Blank	Blank	91.271	n/a	4	10	3	n/a	63	n/a	2	n/a	n/a	n/a	n/a	405.048	n/a
374.889	0.497	happy	Picture	90.757	n/a	4	10	4	n/a	64	77	2	n/a	n/a	n/a	n/a	405.579	BM25HAS.jpg
375.387	0.514	Blank	Blank	90.243	n/a	4	10	4	n/a	64	n/a	2	n/a	n/a	n/a	n/a	406.076	n/a
375.917	0.497	happy	Picture	89.729	n/a	4	10	5	n/a	65	47	2	n/a	n/a	n/a	n/a	406.606	BF11HAS.jpg
376.414	0.514	Blank	Blank	89.215	n/a	4	10	5	n/a	65	n/a	2	n/a	n/a	n/a	n/a	407.104	n/a
376.945	0.497	happy	Picture	88.701	n/a	4	10	6	n/a	66	50	2	n/a	n/a	n/a	n/a	407.634	AF18HAS.jpg
377.442	0.514	Blank	Blank	88.187	n/a	4	10	6	n/a	66	n/a	2	n/a	n/a	n/a	n/a	408.132	n/a
377.973	0.497	happy	Picture	87.673	n/a	4	10	7	n/a	67	78	2	n/a	n/a	n/a	n/a	408.662	BM26HAS.jpg
378.47	0.514	Blank	Blank	87.159	n/a	4	10	7	n/a	67	n/a	2	n/a	n/a	n/a	n/a	409.16	n/a
379.001	0.497	happy	Picture	86.645	n/a	4	10	8	n/a	68	45	2	n/a	n/a	n/a	n/a	409.69	BF07HAS.jpg
379.498	0.514	Blank	Blank	86.131	n/a	4	10	8	n/a	68	n/a	2	n/a	n/a	n/a	n/a	410.188	n/a
380.029	0.497	happy	Picture	85.617	n/a	4	10	9	n/a	69	56	2	n/a	n/a	n/a	n/a	410.718	AF26HAS.jpg
380.526	0.514	Blank	Blank	85.103	n/a	4	10	9	n/a	69	n/a	2	n/a	n/a	n/a	n/a	411.215	n/a
381.057	0.497	happy	Picture	84.589	n/a	4	10	10	n/a	70	65	2	n/a	n/a	n/a	n/a	411.746	BM06HAS.jpg
381.554	0.514	Blank	Blank	84.075	n/a	4	10	10	n/a	70	n/a	2	n/a	n/a	n/a	n/a	412.243	n/a
382.084	0.497	happy	Picture	83.562	n/a	4	10	11	n/a	71	73	2	n/a	n/a	n/a	n/a	412.774	AM21HAS.jpg
382.582	0.514	Blank	Blank	83.048	n/a	4	10	11	n/a	71	n/a	2	n/a	n/a	n/a	n/a	413.271	n/a
383.112	0.497	happy	Picture	82.534	n/a	4	10	12	n/a	72	41	2	n/a	n/a	n/a	n/a	413.802	AF01HAS.jpg
383.61	0.514	Blank	Blank	82.02	n/a	4	10	12	n/a	72	n/a	2	n/a	n/a	n/a	n/a	414.299	n/a
384.14	0.497	happy	Picture	81.506	n/a	4	10	13	n/a	73	59	2	n/a	n/a	n/a	n/a	414.829	AF31HAS.jpg
384.638	0.514	Blank	Blank	80.992	n/a	4	10	13	n/a	73	n/a	2	n/a	n/a	n/a	n/a	415.327	n/a
385.168	0.497	happy	Picture	80.478	n/a	4	10	14	n/a	74	64	2	n/a	n/a	n/a	n/a	415.857	BM05HAS.jpg
385.665	0.514	Blank	Blank	79.964	n/a	4	10	14	n/a	74	n/a	2	n/a	n/a	n/a	n/a	416.355	n/a
386.196	0.497	happy	Picture	79.45	n/a	4	10	15	n/a	75	68	2	n/a	n/a	n/a	n/a	416.885	AM09HAS.jpg
386.693	0.514	Blank	Blank	78.936	n/a	4	10	15	n/a	75	n/a	2	n/a	n/a	n/a	n/a	417.383	n/a
387.224	0.497	happy	Picture	78.422	n/a	4	10	16	n/a	76	54	2	n/a	n/a	n/a	n/a	417.913	AF23HAS.jpg
387.721	0.514	Blank	Blank	77.908	n/a	4	10	16	n/a	76	n/a	2	n/a	n/a	n/a	n/a	418.411	n/a
388.252	0.497	happy	Picture	77.394	n/a	4	10	17	n/a	77	53	2	n/a	n/a	n/a	n/a	418.941	BF22HAS.jpg
388.749	0.514	Blank	Blank	76.88	n/a	4	10	17	n/a	77	n/a	2	n/a	n/a	n/a	n/a	419.438	n/a
389.28	0.497	happy	Picture	76.366	n/a	4	10	18	n/a	78	44	2	n/a	n/a	n/a	n/a	419.969	AF05HAS.jpg
389.777	0.514	Blank	Blank	75.852	n/a	4	10	18	n/a	78	n/a	2	n/a	n/a	n/a	n/a	420.466	n/a
390.308	0.497	happy	Picture	75.338	n/a	4	10	19	n/a	79	52	2	n/a	n/a	n/a	n/a	420.997	AF21HAS.jpg
390.805	0.514	Blank	Blank	74.824	n/a	4	10	19	n/a	79	n/a	2	n/a	n/a	n/a	n/a	421.494	n/a
391.335	0.497	happy	Picture	74.31	n/a	4	10	20	n/a	80	62	2	n/a	n/a	n/a	n/a	422.025	BM03HAS.jpg
391.833	0.514	Blank	Blank	73.797	n/a	4	10	20	n/a	80	n/a	2	n/a	n/a	n/a	n/a	422.522	n/a
392.363	10.014	ITI	Fixation+	63.766	n/a	4	n/a	n/a	n/a	n/a	n/a	n/a	n/a	n/a	n/a	n/a	423.053	n/a
402.393	0.497	neutral	Picture	63.252	n/a	4	11	1	n/a	81	23	1	n/a	n/a	n/a	n/a	433.083	AM04NES.jpg
402.891	0.514	Blank	Blank	62.739	n/a	4	11	1	n/a	81	n/a	1	n/a	n/a	n/a	n/a	433.58	n/a
403.421	0.497	neutral	Picture	62.224	n/a	4	11	2	n/a	82	29	1	n/a	n/a	n/a	n/a	434.111	AM10NES.jpg
403.919	0.514	Blank	Blank	61.711	n/a	4	11	2	n/a	82	n/a	1	n/a	n/a	n/a	n/a	434.608	n/a
404.449	0.497	neutral	Picture	61.197	n/a	4	11	3	n/a	83	24	1	n/a	n/a	n/a	n/a	435.139	BM05NES.jpg
404.947	0.514	Blank	Blank	60.683	n/a	4	11	3	n/a	83	n/a	1	n/a	n/a	n/a	n/a	435.636	n/a
405.477	0.497	neutral	Picture	60.169	n/a	4	11	4	n/a	84	12	1	n/a	n/a	n/a	n/a	436.166	AF21NES.jpg
405.974	0.514	Blank	Blank	59.655	n/a	4	11	4	n/a	84	n/a	1	n/a	n/a	n/a	n/a	436.664	n/a
406.505	0.497	neutral	Picture	59.141	n/a	4	11	5	n/a	85	13	1	n/a	n/a	n/a	n/a	437.194	BF22NES.jpg
407.002	0.514	Blank	Blank	58.627	n/a	4	11	5	n/a	85	n/a	1	n/a	n/a	n/a	n/a	437.692	n/a
407.533	0.497	neutral	Picture	58.113	n/a	4	11	6	n/a	86	17	1	n/a	n/a	n/a	n/a	438.222	BF28NES.jpg
408.03	0.514	Blank	Blank	57.599	n/a	4	11	6	n/a	86	n/a	1	n/a	n/a	n/a	n/a	438.72	n/a
408.561	0.497	neutral	Picture	57.085	n/a	4	11	7	n/a	87	4	1	n/a	n/a	n/a	n/a	439.25	AF05NES.jpg
409.058	0.514	Blank	Blank	56.571	n/a	4	11	7	n/a	87	n/a	1	n/a	n/a	n/a	n/a	439.748	n/a
409.589	0.497	neutral	Picture	56.057	n/a	4	11	8	n/a	88	11	1	n/a	n/a	n/a	n/a	440.278	AF20NES.jpg
410.086	0.514	Blank	Blank	55.543	n/a	4	11	8	n/a	88	n/a	1	n/a	n/a	n/a	n/a	440.775	n/a
410.617	0.497	neutral	Picture	55.029	n/a	4	11	9	n/a	89	22	1	n/a	n/a	n/a	n/a	441.306	BM03NES.jpg
411.114	0.514	Blank	Blank	54.515	n/a	4	11	9	n/a	89	n/a	1	n/a	n/a	n/a	n/a	441.803	n/a
411.644	0.497	neutral	Picture	54.002	n/a	4	11	10	n/a	90	15	1	n/a	n/a	n/a	n/a	442.334	AF25NES.jpg
412.142	0.514	Blank	Blank	53.488	n/a	4	11	10	n/a	90	n/a	1	n/a	n/a	n/a	n/a	442.831	n/a
412.672	0.497	neutral	Picture	52.974	n/a	4	11	11	n/a	91	19	1	n/a	n/a	n/a	n/a	443.362	AF31NES.jpg
413.17	0.514	Blank	Blank	52.46	n/a	4	11	11	n/a	91	n/a	1	n/a	n/a	n/a	n/a	443.859	n/a
413.7	0.497	neutral	Picture	51.946	n/a	4	11	12	n/a	92	9	1	n/a	n/a	n/a	n/a	444.389	AF17NES.jpg
414.198	0.514	Blank	Blank	51.432	n/a	4	11	12	n/a	92	n/a	1	n/a	n/a	n/a	n/a	444.887	n/a
414.728	0.497	neutral	Picture	50.918	n/a	4	11	13	n/a	93	14	1	n/a	n/a	n/a	n/a	445.417	AF23NES.jpg
415.225	0.514	Blank	Blank	50.404	n/a	4	11	13	n/a	93	n/a	1	n/a	n/a	n/a	n/a	445.915	n/a
415.756	0.497	neutral	Picture	49.89	n/a	4	11	14	n/a	94	36	1	n/a	n/a	n/a	n/a	446.445	BM24NES.jpg
416.253	0.514	Blank	Blank	49.376	n/a	4	11	14	n/a	94	n/a	1	n/a	n/a	n/a	n/a	446.943	n/a
416.784	0.497	neutral	Picture	48.862	n/a	4	11	15	n/a	95	34	1	n/a	n/a	n/a	n/a	447.473	AM22NES.jpg
417.281	0.514	Blank	Blank	48.348	n/a	4	11	15	n/a	95	n/a	1	n/a	n/a	n/a	n/a	447.971	n/a
417.812	0.497	neutral	Picture	47.834	n/a	4	11	16	n/a	96	10	1	n/a	n/a	n/a	n/a	448.501	AF18NES.jpg
418.309	0.514	Blank	Blank	47.32	n/a	4	11	16	n/a	96	n/a	1	n/a	n/a	n/a	n/a	448.998	n/a
418.84	0.497	neutral	Picture	46.806	n/a	4	11	17	n/a	97	5	1	n/a	n/a	n/a	n/a	449.529	BF07NES.jpg
419.337	0.514	Blank	Blank	46.292	n/a	4	11	17	n/a	97	n/a	1	n/a	n/a	n/a	n/a	450.026	n/a
419.868	0.497	neutral	Picture	45.778	n/a	4	11	18	n/a	98	25	1	n/a	n/a	n/a	n/a	450.557	BM06NES.jpg
420.365	0.514	Blank	Blank	45.264	n/a	4	11	18	n/a	98	n/a	1	n/a	n/a	n/a	n/a	451.054	n/a
420.895	0.497	neutral	Picture	44.75	n/a	4	11	19	n/a	99	39	1	n/a	n/a	n/a	n/a	451.585	AM28NES.jpg
421.393	0.514	Blank	Blank	44.236	n/a	4	11	19	n/a	99	n/a	1	n/a	n/a	n/a	n/a	452.082	n/a
421.923	0.497	neutral	Picture	43.723	n/a	4	11	20	n/a	100	33	1	n/a	n/a	n/a	n/a	452.613	AM21NES.jpg
422.421	0.514	Blank	Blank	43.209	n/a	4	11	20	n/a	100	n/a	1	n/a	n/a	n/a	n/a	453.11	n/a
422.951	10.014	ITI	Fixation+	33.179	n/a	4	n/a	n/a	n/a	n/a	n/a	n/a	n/a	n/a	n/a	n/a	453.64	n/a
432.981	0.497	happy	Picture	32.664	n/a	4	12	1	n/a	101	74	2	n/a	n/a	n/a	n/a	463.671	AM22HAS.jpg
433.479	0.514	Blank	Blank	32.151	n/a	4	12	1	n/a	101	n/a	2	n/a	n/a	n/a	n/a	464.168	n/a
434.009	0.497	happy	Picture	31.637	n/a	4	12	2	n/a	102	76	2	n/a	n/a	n/a	n/a	464.699	BM24HAS.jpg
434.507	0.514	Blank	Blank	31.123	n/a	4	12	2	n/a	102	n/a	2	n/a	n/a	n/a	n/a	465.196	n/a
435.037	0.497	happy	Picture	30.609	n/a	4	12	3	n/a	103	80	2	n/a	n/a	n/a	n/a	465.726	BM35HAS.jpg
435.534	0.514	Blank	Blank	30.095	n/a	4	12	3	n/a	103	n/a	2	n/a	n/a	n/a	n/a	466.224	n/a
436.065	0.497	happy	Picture	29.581	n/a	4	12	4	n/a	104	75	2	n/a	n/a	n/a	n/a	466.754	AM23HAS.jpg
436.562	0.514	Blank	Blank	29.067	n/a	4	12	4	n/a	104	n/a	2	n/a	n/a	n/a	n/a	467.252	n/a
437.093	0.497	happy	Picture	28.553	n/a	4	12	5	n/a	105	49	2	n/a	n/a	n/a	n/a	467.782	AF17HAS.jpg
437.59	0.514	Blank	Blank	28.039	n/a	4	12	5	n/a	105	n/a	2	n/a	n/a	n/a	n/a	468.28	n/a
438.121	0.497	happy	Picture	27.525	n/a	4	12	6	n/a	106	43	2	n/a	n/a	n/a	n/a	468.81	BF04HAS.jpg
438.618	0.514	Blank	Blank	27.011	n/a	4	12	6	n/a	106	n/a	2	n/a	n/a	n/a	n/a	469.308	n/a
439.149	0.497	happy	Picture	26.497	n/a	4	12	7	n/a	107	70	2	n/a	n/a	n/a	n/a	469.838	BM11HAS.jpg
439.646	0.514	Blank	Blank	25.983	n/a	4	12	7	n/a	107	n/a	2	n/a	n/a	n/a	n/a	470.335	n/a
440.177	0.497	happy	Picture	25.469	n/a	4	12	8	n/a	108	66	2	n/a	n/a	n/a	n/a	470.866	BM07HAS.jpg
440.674	0.514	Blank	Blank	24.955	n/a	4	12	8	n/a	108	n/a	2	n/a	n/a	n/a	n/a	471.363	n/a
441.204	0.497	happy	Picture	24.442	n/a	4	12	9	n/a	109	48	2	n/a	n/a	n/a	n/a	471.894	AF14HAS.jpg
441.702	0.514	Blank	Blank	23.928	n/a	4	12	9	n/a	109	n/a	2	n/a	n/a	n/a	n/a	472.391	n/a
442.232	0.497	happy	Picture	23.414	n/a	4	12	10	n/a	110	58	2	n/a	n/a	n/a	n/a	472.922	BF29HAS.jpg
442.73	0.514	Blank	Blank	22.9	n/a	4	12	10	n/a	110	n/a	2	n/a	n/a	n/a	n/a	473.419	n/a
443.26	0.497	happy	Picture	22.386	n/a	4	12	11	n/a	111	63	2	n/a	n/a	n/a	n/a	473.95	AM04HAS.jpg
443.758	0.514	Blank	Blank	21.872	n/a	4	12	11	n/a	111	n/a	2	n/a	n/a	n/a	n/a	474.447	n/a
444.288	0.497	happy	Picture	21.358	n/a	4	12	12	n/a	112	72	2	n/a	n/a	n/a	n/a	474.977	AM14HAS.jpg
444.785	0.514	Blank	Blank	20.844	n/a	4	12	12	n/a	112	n/a	2	n/a	n/a	n/a	n/a	475.475	n/a
445.316	0.497	happy	Picture	20.33	n/a	4	12	13	n/a	113	55	2	n/a	n/a	n/a	n/a	476.005	AF25HAS.jpg
445.813	0.514	Blank	Blank	19.816	n/a	4	12	13	n/a	113	n/a	2	n/a	n/a	n/a	n/a	476.503	n/a
446.344	0.497	happy	Picture	19.302	n/a	4	12	14	n/a	114	42	2	n/a	n/a	n/a	n/a	477.033	AF03HAS.jpg
446.841	0.514	Blank	Blank	18.788	n/a	4	12	14	n/a	114	n/a	2	n/a	n/a	n/a	n/a	477.531	n/a
447.372	0.497	happy	Picture	18.274	n/a	4	12	15	n/a	115	60	2	n/a	n/a	n/a	n/a	478.061	AF32HAS.jpg
447.869	0.514	Blank	Blank	17.76	n/a	4	12	15	n/a	115	n/a	2	n/a	n/a	n/a	n/a	478.558	n/a
448.4	0.497	happy	Picture	17.246	n/a	4	12	16	n/a	116	67	2	n/a	n/a	n/a	n/a	479.089	BM08HAS.jpg
448.897	0.514	Blank	Blank	16.732	n/a	4	12	16	n/a	116	n/a	2	n/a	n/a	n/a	n/a	479.586	n/a
449.428	0.497	happy	Picture	16.218	n/a	4	12	17	n/a	117	51	2	n/a	n/a	n/a	n/a	480.117	AF20HAS.jpg
449.925	0.514	Blank	Blank	15.704	n/a	4	12	17	n/a	117	n/a	2	n/a	n/a	n/a	n/a	480.614	n/a
450.455	0.497	happy	Picture	15.191	n/a	4	12	18	n/a	118	71	2	n/a	n/a	n/a	n/a	481.145	BM12HAS.jpg
450.953	0.514	Blank	Blank	14.676	n/a	4	12	18	n/a	118	n/a	2	n/a	n/a	n/a	n/a	481.642	n/a
451.483	0.497	happy	Picture	14.163	n/a	4	12	19	n/a	119	69	2	n/a	n/a	n/a	n/a	482.173	AM10HAS.jpg
451.981	0.514	Blank	Blank	13.649	n/a	4	12	19	n/a	119	n/a	2	n/a	n/a	n/a	n/a	482.67	n/a
452.511	0.497	happy	Picture	13.135	n/a	4	12	20	n/a	120	46	2	n/a	n/a	n/a	n/a	483.2	AF09HAS.jpg
453.009	0.514	Blank	Blank	12.621	n/a	4	12	20	n/a	120	n/a	2	n/a	n/a	n/a	n/a	483.698	n/a
453.539	10.014	ITI	Fixation+	2.591	n/a	4	n/a	n/a	n/a	n/a	n/a	n/a	n/a	n/a	n/a	n/a	484.228	n/a
466.143	n/a	ConfirmRating	Rate	n/a	2.586	4	n/a	n/a	0	n/a	n/a	n/a	2	Happy	50	50	496.833	n/a
468.261	n/a	ConfirmRating	Rate	n/a	2.106	4	n/a	n/a	1	n/a	n/a	n/a	3	Happy	50	50	498.951	n/a
