onset	duration	trial_type	event_type	time_until_response	response_time	trial_number	block_num_within_trial	image_seq_num_within_block	question_seq_num_within_block	image_seq_num	picture_number	condition	question_type	block_type	rating	rating_computed	onset_uncorrected	KDEV_imagefile
0.013	10.014	ITI	Fixation+	101.397	n/a	1	n/a	n/a	n/a	n/a	n/a	n/a	n/a	n/a	n/a	n/a	30.616	n/a
10.043	0.497	angry	Picture	100.883	n/a	1	1	1	n/a	1	46	2	n/a	n/a	n/a	n/a	40.646	AF09HAS.jpg
10.54	0.514	Blank	Blank	100.369	n/a	1	1	1	n/a	1	n/a	2	n/a	n/a	n/a	n/a	41.143	n/a
11.071	0.497	angry	Picture	99.855	n/a	1	1	2	n/a	2	69	2	n/a	n/a	n/a	n/a	41.673	AM10HAS.jpg
11.568	0.514	Blank	Blank	99.341	n/a	1	1	2	n/a	2	n/a	2	n/a	n/a	n/a	n/a	42.171	n/a
12.099	0.497	angry	Picture	98.827	n/a	1	1	3	n/a	3	71	2	n/a	n/a	n/a	n/a	42.701	BM12HAS.jpg
12.596	0.514	Blank	Blank	98.313	n/a	1	1	3	n/a	3	n/a	2	n/a	n/a	n/a	n/a	43.199	n/a
13.126	0.497	angry	Picture	97.799	n/a	1	1	4	n/a	4	51	2	n/a	n/a	n/a	n/a	43.729	AF20HAS.jpg
13.624	0.514	Blank	Blank	97.286	n/a	1	1	4	n/a	4	n/a	2	n/a	n/a	n/a	n/a	44.227	n/a
14.154	0.497	angry	Picture	96.772	n/a	1	1	5	n/a	5	67	2	n/a	n/a	n/a	n/a	44.757	BM08HAS.jpg
14.652	0.514	Blank	Blank	96.258	n/a	1	1	5	n/a	5	n/a	2	n/a	n/a	n/a	n/a	45.255	n/a
15.182	0.497	angry	Picture	95.744	n/a	1	1	6	n/a	6	60	2	n/a	n/a	n/a	n/a	45.785	AF32HAS.jpg
15.68	0.514	Blank	Blank	95.23	n/a	1	1	6	n/a	6	n/a	2	n/a	n/a	n/a	n/a	46.282	n/a
16.21	0.497	angry	Picture	94.716	n/a	1	1	7	n/a	7	42	2	n/a	n/a	n/a	n/a	46.813	AF03HAS.jpg
16.707	0.514	Blank	Blank	94.202	n/a	1	1	7	n/a	7	n/a	2	n/a	n/a	n/a	n/a	47.31	n/a
17.238	0.497	angry	Picture	93.688	n/a	1	1	8	n/a	8	55	2	n/a	n/a	n/a	n/a	47.841	AF25HAS.jpg
17.735	0.514	Blank	Blank	93.174	n/a	1	1	8	n/a	8	n/a	2	n/a	n/a	n/a	n/a	48.338	n/a
18.266	0.497	angry	Picture	92.66	n/a	1	1	9	n/a	9	72	2	n/a	n/a	n/a	n/a	48.869	AM14HAS.jpg
18.763	0.514	Blank	Blank	92.146	n/a	1	1	9	n/a	9	n/a	2	n/a	n/a	n/a	n/a	49.366	n/a
19.294	0.497	angry	Picture	91.632	n/a	1	1	10	n/a	10	63	2	n/a	n/a	n/a	n/a	49.897	AM04HAS.jpg
19.791	0.514	Blank	Blank	91.118	n/a	1	1	10	n/a	10	n/a	2	n/a	n/a	n/a	n/a	50.394	n/a
20.322	0.497	angry	Picture	90.604	n/a	1	1	11	n/a	11	58	2	n/a	n/a	n/a	n/a	50.924	BF29HAS.jpg
20.819	0.514	Blank	Blank	90.09	n/a	1	1	11	n/a	11	n/a	2	n/a	n/a	n/a	n/a	51.422	n/a
21.35	0.497	angry	Picture	89.576	n/a	1	1	12	n/a	12	48	2	n/a	n/a	n/a	n/a	51.952	AF14HAS.jpg
21.847	0.514	Blank	Blank	89.062	n/a	1	1	12	n/a	12	n/a	2	n/a	n/a	n/a	n/a	52.45	n/a
22.377	0.497	angry	Picture	88.549	n/a	1	1	13	n/a	13	66	2	n/a	n/a	n/a	n/a	52.98	BM07HAS.jpg
22.875	0.514	Blank	Blank	88.035	n/a	1	1	13	n/a	13	n/a	2	n/a	n/a	n/a	n/a	53.477	n/a
23.405	0.497	angry	Picture	87.521	n/a	1	1	14	n/a	14	70	2	n/a	n/a	n/a	n/a	54.008	BM11HAS.jpg
23.903	0.514	Blank	Blank	87.007	n/a	1	1	14	n/a	14	n/a	2	n/a	n/a	n/a	n/a	54.505	n/a
24.433	0.497	angry	Picture	86.493	n/a	1	1	15	n/a	15	43	2	n/a	n/a	n/a	n/a	55.036	BF04HAS.jpg
24.93	0.514	Blank	Blank	85.979	n/a	1	1	15	n/a	15	n/a	2	n/a	n/a	n/a	n/a	55.533	n/a
25.461	0.497	angry	Picture	85.465	n/a	1	1	16	n/a	16	49	2	n/a	n/a	n/a	n/a	56.064	AF17HAS.jpg
25.958	0.514	Blank	Blank	84.951	n/a	1	1	16	n/a	16	n/a	2	n/a	n/a	n/a	n/a	56.561	n/a
26.489	0.497	angry	Picture	84.437	n/a	1	1	17	n/a	17	75	2	n/a	n/a	n/a	n/a	57.092	AM23HAS.jpg
26.986	0.514	Blank	Blank	83.923	n/a	1	1	17	n/a	17	n/a	2	n/a	n/a	n/a	n/a	57.589	n/a
27.517	0.497	angry	Picture	83.409	n/a	1	1	18	n/a	18	80	2	n/a	n/a	n/a	n/a	58.12	BM35HAS.jpg
28.014	0.514	Blank	Blank	82.895	n/a	1	1	18	n/a	18	n/a	2	n/a	n/a	n/a	n/a	58.617	n/a
28.545	0.497	angry	Picture	82.381	n/a	1	1	19	n/a	19	76	2	n/a	n/a	n/a	n/a	59.147	BM24HAS.jpg
29.042	0.514	Blank	Blank	81.867	n/a	1	1	19	n/a	19	n/a	2	n/a	n/a	n/a	n/a	59.645	n/a
29.573	0.497	angry	Picture	81.353	n/a	1	1	20	n/a	20	74	2	n/a	n/a	n/a	n/a	60.175	AM22HAS.jpg
30.07	0.514	Blank	Blank	80.839	n/a	1	1	20	n/a	20	n/a	2	n/a	n/a	n/a	n/a	60.673	n/a
30.6	10.014	ITI	Fixation+	70.809	n/a	1	n/a	n/a	n/a	n/a	n/a	n/a	n/a	n/a	n/a	n/a	61.203	n/a
40.63	0.497	neutral	Picture	70.295	n/a	1	2	1	n/a	21	33	1	n/a	n/a	n/a	n/a	71.233	AM21NES.jpg
41.128	0.514	Blank	Blank	69.781	n/a	1	2	1	n/a	21	n/a	1	n/a	n/a	n/a	n/a	71.731	n/a
41.658	0.497	neutral	Picture	69.268	n/a	1	2	2	n/a	22	39	1	n/a	n/a	n/a	n/a	72.261	AM28NES.jpg
42.156	0.514	Blank	Blank	68.754	n/a	1	2	2	n/a	22	n/a	1	n/a	n/a	n/a	n/a	72.758	n/a
42.686	0.497	neutral	Picture	68.24	n/a	1	2	3	n/a	23	25	1	n/a	n/a	n/a	n/a	73.289	BM06NES.jpg
43.184	0.514	Blank	Blank	67.726	n/a	1	2	3	n/a	23	n/a	1	n/a	n/a	n/a	n/a	73.786	n/a
43.714	0.497	neutral	Picture	67.212	n/a	1	2	4	n/a	24	5	1	n/a	n/a	n/a	n/a	74.317	BF07NES.jpg
44.212	0.514	Blank	Blank	66.698	n/a	1	2	4	n/a	24	n/a	1	n/a	n/a	n/a	n/a	74.814	n/a
44.742	0.497	neutral	Picture	66.184	n/a	1	2	5	n/a	25	10	1	n/a	n/a	n/a	n/a	75.345	AF18NES.jpg
45.239	0.514	Blank	Blank	65.67	n/a	1	2	5	n/a	25	n/a	1	n/a	n/a	n/a	n/a	75.842	n/a
45.77	0.497	neutral	Picture	65.156	n/a	1	2	6	n/a	26	34	1	n/a	n/a	n/a	n/a	76.373	AM22NES.jpg
46.267	0.514	Blank	Blank	64.642	n/a	1	2	6	n/a	26	n/a	1	n/a	n/a	n/a	n/a	76.87	n/a
46.798	0.497	neutral	Picture	64.128	n/a	1	2	7	n/a	27	36	1	n/a	n/a	n/a	n/a	77.401	BM24NES.jpg
47.295	0.514	Blank	Blank	63.614	n/a	1	2	7	n/a	27	n/a	1	n/a	n/a	n/a	n/a	77.898	n/a
47.826	0.497	neutral	Picture	63.1	n/a	1	2	8	n/a	28	14	1	n/a	n/a	n/a	n/a	78.428	AF23NES.jpg
48.323	0.514	Blank	Blank	62.586	n/a	1	2	8	n/a	28	n/a	1	n/a	n/a	n/a	n/a	78.926	n/a
48.853	0.497	neutral	Picture	62.072	n/a	1	2	9	n/a	29	9	1	n/a	n/a	n/a	n/a	79.456	AF17NES.jpg
49.351	0.514	Blank	Blank	61.558	n/a	1	2	9	n/a	29	n/a	1	n/a	n/a	n/a	n/a	79.954	n/a
49.881	0.497	neutral	Picture	61.044	n/a	1	2	10	n/a	30	19	1	n/a	n/a	n/a	n/a	80.484	AF31NES.jpg
50.379	0.514	Blank	Blank	60.531	n/a	1	2	10	n/a	30	n/a	1	n/a	n/a	n/a	n/a	80.982	n/a
50.909	0.497	neutral	Picture	60.017	n/a	1	2	11	n/a	31	15	1	n/a	n/a	n/a	n/a	81.512	AF25NES.jpg
51.407	0.514	Blank	Blank	59.503	n/a	1	2	11	n/a	31	n/a	1	n/a	n/a	n/a	n/a	82.009	n/a
51.937	0.497	neutral	Picture	58.989	n/a	1	2	12	n/a	32	22	1	n/a	n/a	n/a	n/a	82.54	BM03NES.jpg
52.434	0.514	Blank	Blank	58.475	n/a	1	2	12	n/a	32	n/a	1	n/a	n/a	n/a	n/a	83.037	n/a
52.965	0.497	neutral	Picture	57.961	n/a	1	2	13	n/a	33	11	1	n/a	n/a	n/a	n/a	83.568	AF20NES.jpg
53.462	0.514	Blank	Blank	57.447	n/a	1	2	13	n/a	33	n/a	1	n/a	n/a	n/a	n/a	84.065	n/a
53.993	0.497	neutral	Picture	56.933	n/a	1	2	14	n/a	34	4	1	n/a	n/a	n/a	n/a	84.596	AF05NES.jpg
54.49	0.514	Blank	Blank	56.419	n/a	1	2	14	n/a	34	n/a	1	n/a	n/a	n/a	n/a	85.093	n/a
55.021	0.497	neutral	Picture	55.906	n/a	1	2	15	n/a	35	17	1	n/a	n/a	n/a	n/a	85.624	BF28NES.jpg
55.517	0.515	Blank	Blank	55.391	n/a	1	2	15	n/a	35	n/a	1	n/a	n/a	n/a	n/a	86.12	n/a
56.049	0.497	neutral	Picture	54.877	n/a	1	2	16	n/a	36	13	1	n/a	n/a	n/a	n/a	86.651	BF22NES.jpg
56.546	0.514	Blank	Blank	54.363	n/a	1	2	16	n/a	36	n/a	1	n/a	n/a	n/a	n/a	87.149	n/a
57.077	0.497	neutral	Picture	53.849	n/a	1	2	17	n/a	37	12	1	n/a	n/a	n/a	n/a	87.679	AF21NES.jpg
57.574	0.514	Blank	Blank	53.335	n/a	1	2	17	n/a	37	n/a	1	n/a	n/a	n/a	n/a	88.177	n/a
58.104	0.497	neutral	Picture	52.821	n/a	1	2	18	n/a	38	24	1	n/a	n/a	n/a	n/a	88.707	BM05NES.jpg
58.602	0.514	Blank	Blank	52.308	n/a	1	2	18	n/a	38	n/a	1	n/a	n/a	n/a	n/a	89.205	n/a
59.132	0.497	neutral	Picture	51.794	n/a	1	2	19	n/a	39	29	1	n/a	n/a	n/a	n/a	89.735	AM10NES.jpg
59.63	0.514	Blank	Blank	51.28	n/a	1	2	19	n/a	39	n/a	1	n/a	n/a	n/a	n/a	90.233	n/a
60.16	0.497	neutral	Picture	50.766	n/a	1	2	20	n/a	40	23	1	n/a	n/a	n/a	n/a	90.763	AM04NES.jpg
60.658	0.514	Blank	Blank	50.252	n/a	1	2	20	n/a	40	n/a	1	n/a	n/a	n/a	n/a	91.26	n/a
61.188	10.014	ITI	Fixation+	40.222	n/a	1	n/a	n/a	n/a	n/a	n/a	n/a	n/a	n/a	n/a	n/a	91.791	n/a
71.218	0.497	angry	Picture	39.708	n/a	1	3	1	n/a	41	62	2	n/a	n/a	n/a	n/a	101.821	BM03HAS.jpg
71.715	0.514	Blank	Blank	39.194	n/a	1	3	1	n/a	41	n/a	2	n/a	n/a	n/a	n/a	102.318	n/a
72.246	0.497	angry	Picture	38.68	n/a	1	3	2	n/a	42	52	2	n/a	n/a	n/a	n/a	102.849	AF21HAS.jpg
72.743	0.514	Blank	Blank	38.166	n/a	1	3	2	n/a	42	n/a	2	n/a	n/a	n/a	n/a	103.346	n/a
73.274	0.497	angry	Picture	37.652	n/a	1	3	3	n/a	43	44	2	n/a	n/a	n/a	n/a	103.877	AF05HAS.jpg
73.771	0.514	Blank	Blank	37.138	n/a	1	3	3	n/a	43	n/a	2	n/a	n/a	n/a	n/a	104.374	n/a
74.302	0.497	angry	Picture	36.624	n/a	1	3	4	n/a	44	53	2	n/a	n/a	n/a	n/a	104.905	BF22HAS.jpg
74.799	0.514	Blank	Blank	36.11	n/a	1	3	4	n/a	44	n/a	2	n/a	n/a	n/a	n/a	105.402	n/a
75.33	0.497	angry	Picture	35.596	n/a	1	3	5	n/a	45	54	2	n/a	n/a	n/a	n/a	105.933	AF23HAS.jpg
75.827	0.514	Blank	Blank	35.082	n/a	1	3	5	n/a	45	n/a	2	n/a	n/a	n/a	n/a	106.43	n/a
76.358	0.497	angry	Picture	34.568	n/a	1	3	6	n/a	46	68	2	n/a	n/a	n/a	n/a	106.96	AM09HAS.jpg
76.855	0.514	Blank	Blank	34.054	n/a	1	3	6	n/a	46	n/a	2	n/a	n/a	n/a	n/a	107.458	n/a
77.385	0.497	angry	Picture	33.54	n/a	1	3	7	n/a	47	64	2	n/a	n/a	n/a	n/a	107.988	BM05HAS.jpg
77.883	0.514	Blank	Blank	33.026	n/a	1	3	7	n/a	47	n/a	2	n/a	n/a	n/a	n/a	108.486	n/a
78.413	0.497	angry	Picture	32.513	n/a	1	3	8	n/a	48	59	2	n/a	n/a	n/a	n/a	109.016	AF31HAS.jpg
78.911	0.514	Blank	Blank	31.999	n/a	1	3	8	n/a	48	n/a	2	n/a	n/a	n/a	n/a	109.513	n/a
79.441	0.497	angry	Picture	31.485	n/a	1	3	9	n/a	49	41	2	n/a	n/a	n/a	n/a	110.044	AF01HAS.jpg
79.939	0.514	Blank	Blank	30.971	n/a	1	3	9	n/a	49	n/a	2	n/a	n/a	n/a	n/a	110.541	n/a
80.469	0.497	angry	Picture	30.457	n/a	1	3	10	n/a	50	73	2	n/a	n/a	n/a	n/a	111.072	AM21HAS.jpg
80.966	0.514	Blank	Blank	29.943	n/a	1	3	10	n/a	50	n/a	2	n/a	n/a	n/a	n/a	111.569	n/a
81.497	0.497	angry	Picture	29.429	n/a	1	3	11	n/a	51	65	2	n/a	n/a	n/a	n/a	112.1	BM06HAS.jpg
81.994	0.514	Blank	Blank	28.915	n/a	1	3	11	n/a	51	n/a	2	n/a	n/a	n/a	n/a	112.597	n/a
82.525	0.497	angry	Picture	28.401	n/a	1	3	12	n/a	52	56	2	n/a	n/a	n/a	n/a	113.128	AF26HAS.jpg
83.022	0.514	Blank	Blank	27.887	n/a	1	3	12	n/a	52	n/a	2	n/a	n/a	n/a	n/a	113.625	n/a
83.553	0.497	angry	Picture	27.373	n/a	1	3	13	n/a	53	45	2	n/a	n/a	n/a	n/a	114.156	BF07HAS.jpg
84.05	0.514	Blank	Blank	26.859	n/a	1	3	13	n/a	53	n/a	2	n/a	n/a	n/a	n/a	114.653	n/a
84.581	0.497	angry	Picture	26.345	n/a	1	3	14	n/a	54	78	2	n/a	n/a	n/a	n/a	115.183	BM26HAS.jpg
85.078	0.514	Blank	Blank	25.831	n/a	1	3	14	n/a	54	n/a	2	n/a	n/a	n/a	n/a	115.681	n/a
85.608	0.497	angry	Picture	25.317	n/a	1	3	15	n/a	55	50	2	n/a	n/a	n/a	n/a	116.211	AF18HAS.jpg
86.106	0.514	Blank	Blank	24.803	n/a	1	3	15	n/a	55	n/a	2	n/a	n/a	n/a	n/a	116.709	n/a
86.636	0.497	angry	Picture	24.29	n/a	1	3	16	n/a	56	47	2	n/a	n/a	n/a	n/a	117.239	BF11HAS.jpg
87.134	0.514	Blank	Blank	23.776	n/a	1	3	16	n/a	56	n/a	2	n/a	n/a	n/a	n/a	117.737	n/a
87.664	0.497	angry	Picture	23.262	n/a	1	3	17	n/a	57	77	2	n/a	n/a	n/a	n/a	118.267	BM25HAS.jpg
88.162	0.514	Blank	Blank	22.748	n/a	1	3	17	n/a	57	n/a	2	n/a	n/a	n/a	n/a	118.764	n/a
88.692	0.497	angry	Picture	22.234	n/a	1	3	18	n/a	58	57	2	n/a	n/a	n/a	n/a	119.295	BF28HAS.jpg
89.189	0.514	Blank	Blank	21.72	n/a	1	3	18	n/a	58	n/a	2	n/a	n/a	n/a	n/a	119.792	n/a
89.72	0.497	angry	Picture	21.206	n/a	1	3	19	n/a	59	61	2	n/a	n/a	n/a	n/a	120.323	AM01HAS.jpg
90.217	0.514	Blank	Blank	20.692	n/a	1	3	19	n/a	59	n/a	2	n/a	n/a	n/a	n/a	120.82	n/a
90.748	0.497	angry	Picture	20.178	n/a	1	3	20	n/a	60	79	2	n/a	n/a	n/a	n/a	121.351	BM28HAS.jpg
91.245	0.514	Blank	Blank	19.664	n/a	1	3	20	n/a	60	n/a	2	n/a	n/a	n/a	n/a	121.848	n/a
91.776	10.014	ITI	Fixation+	9.634	n/a	1	n/a	n/a	n/a	n/a	n/a	n/a	n/a	n/a	n/a	n/a	122.379	n/a
111.423	n/a	ConfirmRating	Rate	n/a	9.615	1	n/a	n/a	0	n/a	n/a	n/a	2	Angry	68	51	142.026	n/a
118.593	n/a	ConfirmRating	Rate	n/a	7.145	1	n/a	n/a	1	n/a	n/a	n/a	3	Angry	5	48	149.196	n/a
118.617	10.014	ITI	Fixation+	96.191	n/a	2	n/a	n/a	n/a	n/a	n/a	n/a	n/a	n/a	n/a	n/a	149.22	n/a
128.647	0.497	happy	Picture	95.677	n/a	2	4	1	n/a	61	119	3	n/a	n/a	n/a	n/a	159.25	BM28ANS.jpg
129.144	0.514	Blank	Blank	95.163	n/a	2	4	1	n/a	61	n/a	3	n/a	n/a	n/a	n/a	159.747	n/a
129.675	0.497	happy	Picture	94.649	n/a	2	4	2	n/a	62	100	3	n/a	n/a	n/a	n/a	160.277	AF32ANS.jpg
130.172	0.514	Blank	Blank	94.135	n/a	2	4	2	n/a	62	n/a	3	n/a	n/a	n/a	n/a	160.775	n/a
130.702	0.497	happy	Picture	93.621	n/a	2	4	3	n/a	63	118	3	n/a	n/a	n/a	n/a	161.305	BM26ANS.jpg
131.2	0.514	Blank	Blank	93.107	n/a	2	4	3	n/a	63	n/a	3	n/a	n/a	n/a	n/a	161.803	n/a
131.73	0.497	happy	Picture	92.593	n/a	2	4	4	n/a	64	89	3	n/a	n/a	n/a	n/a	162.333	AF17ANS.jpg
132.228	0.514	Blank	Blank	92.079	n/a	2	4	4	n/a	64	n/a	3	n/a	n/a	n/a	n/a	162.831	n/a
132.758	0.497	happy	Picture	91.566	n/a	2	4	5	n/a	65	116	3	n/a	n/a	n/a	n/a	163.361	BM24ANS.jpg
133.256	0.514	Blank	Blank	91.052	n/a	2	4	5	n/a	65	n/a	3	n/a	n/a	n/a	n/a	163.858	n/a
133.786	0.497	happy	Picture	90.538	n/a	2	4	6	n/a	66	105	3	n/a	n/a	n/a	n/a	164.389	BM06ANS.jpg
134.284	0.514	Blank	Blank	90.024	n/a	2	4	6	n/a	66	n/a	3	n/a	n/a	n/a	n/a	164.886	n/a
134.814	0.497	happy	Picture	89.51	n/a	2	4	7	n/a	67	106	3	n/a	n/a	n/a	n/a	165.417	AM07ANS.jpg
135.311	0.514	Blank	Blank	88.996	n/a	2	4	7	n/a	67	n/a	3	n/a	n/a	n/a	n/a	165.914	n/a
135.842	0.497	happy	Picture	88.482	n/a	2	4	8	n/a	68	94	3	n/a	n/a	n/a	n/a	166.445	AF23ANS.jpg
136.339	0.514	Blank	Blank	87.968	n/a	2	4	8	n/a	68	n/a	3	n/a	n/a	n/a	n/a	166.942	n/a
136.87	0.497	happy	Picture	87.454	n/a	2	4	9	n/a	69	117	3	n/a	n/a	n/a	n/a	167.473	BM25ANS.jpg
137.367	0.514	Blank	Blank	86.94	n/a	2	4	9	n/a	69	n/a	3	n/a	n/a	n/a	n/a	167.97	n/a
137.898	0.497	happy	Picture	86.426	n/a	2	4	10	n/a	70	90	3	n/a	n/a	n/a	n/a	168.5	AF18ANS.jpg
138.395	0.514	Blank	Blank	85.912	n/a	2	4	10	n/a	70	n/a	3	n/a	n/a	n/a	n/a	168.998	n/a
138.926	0.497	happy	Picture	85.398	n/a	2	4	11	n/a	71	83	3	n/a	n/a	n/a	n/a	169.528	BF04ANS.jpg
139.423	0.514	Blank	Blank	84.884	n/a	2	4	11	n/a	71	n/a	3	n/a	n/a	n/a	n/a	170.026	n/a
139.953	0.497	happy	Picture	84.37	n/a	2	4	12	n/a	72	112	3	n/a	n/a	n/a	n/a	170.556	AM14ANS.jpg
140.451	0.514	Blank	Blank	83.856	n/a	2	4	12	n/a	72	n/a	3	n/a	n/a	n/a	n/a	171.054	n/a
140.981	0.497	happy	Picture	83.342	n/a	2	4	13	n/a	73	102	3	n/a	n/a	n/a	n/a	171.584	BM03ANS.jpg
141.479	0.514	Blank	Blank	82.828	n/a	2	4	13	n/a	73	n/a	3	n/a	n/a	n/a	n/a	172.082	n/a
142.009	0.497	happy	Picture	82.315	n/a	2	4	14	n/a	74	95	3	n/a	n/a	n/a	n/a	172.612	AF25ANS.jpg
142.506	0.514	Blank	Blank	81.801	n/a	2	4	14	n/a	74	n/a	3	n/a	n/a	n/a	n/a	173.109	n/a
143.037	0.497	happy	Picture	81.287	n/a	2	4	15	n/a	75	113	3	n/a	n/a	n/a	n/a	173.64	AM21ANS.jpg
143.534	0.514	Blank	Blank	80.773	n/a	2	4	15	n/a	75	n/a	3	n/a	n/a	n/a	n/a	174.137	n/a
144.065	0.497	happy	Picture	80.259	n/a	2	4	16	n/a	76	88	3	n/a	n/a	n/a	n/a	174.668	AF14ANS.jpg
144.562	0.514	Blank	Blank	79.745	n/a	2	4	16	n/a	76	n/a	3	n/a	n/a	n/a	n/a	175.165	n/a
145.093	0.497	happy	Picture	79.231	n/a	2	4	17	n/a	77	93	3	n/a	n/a	n/a	n/a	175.696	BF22ANS.jpg
145.59	0.514	Blank	Blank	78.717	n/a	2	4	17	n/a	77	n/a	3	n/a	n/a	n/a	n/a	176.193	n/a
146.121	0.497	happy	Picture	78.203	n/a	2	4	18	n/a	78	86	3	n/a	n/a	n/a	n/a	176.724	AF09ANS.jpg
146.618	0.514	Blank	Blank	77.689	n/a	2	4	18	n/a	78	n/a	3	n/a	n/a	n/a	n/a	177.221	n/a
147.149	0.497	happy	Picture	77.175	n/a	2	4	19	n/a	79	92	3	n/a	n/a	n/a	n/a	177.751	AF21ANS.jpg
147.646	0.514	Blank	Blank	76.661	n/a	2	4	19	n/a	79	n/a	3	n/a	n/a	n/a	n/a	178.249	n/a
148.177	0.497	happy	Picture	76.147	n/a	2	4	20	n/a	80	84	3	n/a	n/a	n/a	n/a	178.779	AF05ANS.jpg
148.674	0.514	Blank	Blank	75.633	n/a	2	4	20	n/a	80	n/a	3	n/a	n/a	n/a	n/a	179.277	n/a
149.204	10.014	ITI	Fixation+	65.603	n/a	2	n/a	n/a	n/a	n/a	n/a	n/a	n/a	n/a	n/a	n/a	179.807	n/a
159.234	0.497	neutral	Picture	65.089	n/a	2	5	1	n/a	81	4	1	n/a	n/a	n/a	n/a	189.837	AF05NES.jpg
159.732	0.514	Blank	Blank	64.575	n/a	2	5	1	n/a	81	n/a	1	n/a	n/a	n/a	n/a	190.335	n/a
160.262	0.497	neutral	Picture	64.061	n/a	2	5	2	n/a	82	14	1	n/a	n/a	n/a	n/a	190.865	AF23NES.jpg
160.76	0.514	Blank	Blank	63.547	n/a	2	5	2	n/a	82	n/a	1	n/a	n/a	n/a	n/a	191.363	n/a
161.29	0.497	neutral	Picture	63.034	n/a	2	5	3	n/a	83	19	1	n/a	n/a	n/a	n/a	191.893	AF31NES.jpg
161.788	0.514	Blank	Blank	62.52	n/a	2	5	3	n/a	83	n/a	1	n/a	n/a	n/a	n/a	192.39	n/a
162.318	0.497	neutral	Picture	62.006	n/a	2	5	4	n/a	84	8	1	n/a	n/a	n/a	n/a	192.921	AF14NES.jpg
162.815	0.514	Blank	Blank	61.492	n/a	2	5	4	n/a	84	n/a	1	n/a	n/a	n/a	n/a	193.418	n/a
163.346	0.497	neutral	Picture	60.978	n/a	2	5	5	n/a	85	25	1	n/a	n/a	n/a	n/a	193.949	BM06NES.jpg
163.843	0.514	Blank	Blank	60.464	n/a	2	5	5	n/a	85	n/a	1	n/a	n/a	n/a	n/a	194.446	n/a
164.374	0.497	neutral	Picture	59.95	n/a	2	5	6	n/a	86	9	1	n/a	n/a	n/a	n/a	194.977	AF17NES.jpg
164.871	0.514	Blank	Blank	59.436	n/a	2	5	6	n/a	86	n/a	1	n/a	n/a	n/a	n/a	195.474	n/a
165.402	0.497	neutral	Picture	58.922	n/a	2	5	7	n/a	87	2	1	n/a	n/a	n/a	n/a	196.005	AF03NES.jpg
165.899	0.514	Blank	Blank	58.408	n/a	2	5	7	n/a	87	n/a	1	n/a	n/a	n/a	n/a	196.502	n/a
166.43	0.497	neutral	Picture	57.894	n/a	2	5	8	n/a	88	17	1	n/a	n/a	n/a	n/a	197.032	BF28NES.jpg
166.927	0.514	Blank	Blank	57.38	n/a	2	5	8	n/a	88	n/a	1	n/a	n/a	n/a	n/a	197.53	n/a
167.458	0.497	neutral	Picture	56.866	n/a	2	5	9	n/a	89	6	1	n/a	n/a	n/a	n/a	198.06	AF09NES.jpg
167.955	0.514	Blank	Blank	56.352	n/a	2	5	9	n/a	89	n/a	1	n/a	n/a	n/a	n/a	198.558	n/a
168.485	0.497	neutral	Picture	55.838	n/a	2	5	10	n/a	90	12	1	n/a	n/a	n/a	n/a	199.088	AF21NES.jpg
168.983	0.514	Blank	Blank	55.324	n/a	2	5	10	n/a	90	n/a	1	n/a	n/a	n/a	n/a	199.585	n/a
169.512	0.498	neutral	Picture	54.811	n/a	2	5	11	n/a	91	24	1	n/a	n/a	n/a	n/a	200.115	BM05NES.jpg
170.011	0.514	Blank	Blank	54.297	n/a	2	5	11	n/a	91	n/a	1	n/a	n/a	n/a	n/a	200.613	n/a
170.541	0.497	neutral	Picture	53.783	n/a	2	5	12	n/a	92	34	1	n/a	n/a	n/a	n/a	201.144	AM22NES.jpg
171.038	0.514	Blank	Blank	53.269	n/a	2	5	12	n/a	92	n/a	1	n/a	n/a	n/a	n/a	201.641	n/a
171.569	0.497	neutral	Picture	52.755	n/a	2	5	13	n/a	93	23	1	n/a	n/a	n/a	n/a	202.172	AM04NES.jpg
172.066	0.514	Blank	Blank	52.241	n/a	2	5	13	n/a	93	n/a	1	n/a	n/a	n/a	n/a	202.669	n/a
172.597	0.497	neutral	Picture	51.727	n/a	2	5	14	n/a	94	15	1	n/a	n/a	n/a	n/a	203.2	AF25NES.jpg
173.094	0.514	Blank	Blank	51.213	n/a	2	5	14	n/a	94	n/a	1	n/a	n/a	n/a	n/a	203.697	n/a
173.625	0.497	neutral	Picture	50.699	n/a	2	5	15	n/a	95	37	1	n/a	n/a	n/a	n/a	204.228	BM25NES.jpg
174.122	0.514	Blank	Blank	50.185	n/a	2	5	15	n/a	95	n/a	1	n/a	n/a	n/a	n/a	204.725	n/a
174.653	0.497	neutral	Picture	49.671	n/a	2	5	16	n/a	96	32	1	n/a	n/a	n/a	n/a	205.255	AM14NES.jpg
175.15	0.514	Blank	Blank	49.157	n/a	2	5	16	n/a	96	n/a	1	n/a	n/a	n/a	n/a	205.753	n/a
175.68	0.497	neutral	Picture	48.643	n/a	2	5	17	n/a	97	3	1	n/a	n/a	n/a	n/a	206.283	BF04NES.jpg
176.178	0.514	Blank	Blank	48.129	n/a	2	5	17	n/a	97	n/a	1	n/a	n/a	n/a	n/a	206.781	n/a
176.708	0.497	neutral	Picture	47.615	n/a	2	5	18	n/a	98	16	1	n/a	n/a	n/a	n/a	207.311	AF26NES.jpg
177.206	0.514	Blank	Blank	47.101	n/a	2	5	18	n/a	98	n/a	1	n/a	n/a	n/a	n/a	207.809	n/a
177.736	0.497	neutral	Picture	46.588	n/a	2	5	19	n/a	99	27	1	n/a	n/a	n/a	n/a	208.339	BM08NES.jpg
178.234	0.514	Blank	Blank	46.073	n/a	2	5	19	n/a	99	n/a	1	n/a	n/a	n/a	n/a	208.836	n/a
178.764	0.497	neutral	Picture	45.56	n/a	2	5	20	n/a	100	28	1	n/a	n/a	n/a	n/a	209.367	AM09NES.jpg
179.261	0.514	Blank	Blank	45.046	n/a	2	5	20	n/a	100	n/a	1	n/a	n/a	n/a	n/a	209.864	n/a
179.792	10.014	ITI	Fixation+	35.016	n/a	2	n/a	n/a	n/a	n/a	n/a	n/a	n/a	n/a	n/a	n/a	210.395	n/a
189.822	0.497	happy	Picture	34.502	n/a	2	6	1	n/a	101	81	3	n/a	n/a	n/a	n/a	220.425	AF01ANS.jpg
190.32	0.514	Blank	Blank	33.988	n/a	2	6	1	n/a	101	n/a	3	n/a	n/a	n/a	n/a	220.922	n/a
190.85	0.497	happy	Picture	33.474	n/a	2	6	2	n/a	102	120	3	n/a	n/a	n/a	n/a	221.453	AM35ANS.jpg
191.347	0.514	Blank	Blank	32.96	n/a	2	6	2	n/a	102	n/a	3	n/a	n/a	n/a	n/a	221.95	n/a
191.878	0.497	happy	Picture	32.446	n/a	2	6	3	n/a	103	114	3	n/a	n/a	n/a	n/a	222.481	AM22ANS.jpg
192.375	0.514	Blank	Blank	31.932	n/a	2	6	3	n/a	103	n/a	3	n/a	n/a	n/a	n/a	222.978	n/a
192.906	0.497	happy	Picture	31.418	n/a	2	6	4	n/a	104	109	3	n/a	n/a	n/a	n/a	223.509	AM10ANS.jpg
193.403	0.514	Blank	Blank	30.904	n/a	2	6	4	n/a	104	n/a	3	n/a	n/a	n/a	n/a	224.006	n/a
193.934	0.497	happy	Picture	30.39	n/a	2	6	5	n/a	105	96	3	n/a	n/a	n/a	n/a	224.536	AF26ANS.jpg
194.431	0.514	Blank	Blank	29.876	n/a	2	6	5	n/a	105	n/a	3	n/a	n/a	n/a	n/a	225.034	n/a
194.962	0.497	happy	Picture	29.362	n/a	2	6	6	n/a	106	82	3	n/a	n/a	n/a	n/a	225.564	AF03ANS.jpg
195.459	0.514	Blank	Blank	28.848	n/a	2	6	6	n/a	106	n/a	3	n/a	n/a	n/a	n/a	226.062	n/a
195.989	0.497	happy	Picture	28.334	n/a	2	6	7	n/a	107	97	3	n/a	n/a	n/a	n/a	226.592	BF28ANS.jpg
196.487	0.514	Blank	Blank	27.82	n/a	2	6	7	n/a	107	n/a	3	n/a	n/a	n/a	n/a	227.09	n/a
197.017	0.497	happy	Picture	27.307	n/a	2	6	8	n/a	108	115	3	n/a	n/a	n/a	n/a	227.62	AM23ANS.jpg
197.514	0.515	Blank	Blank	26.792	n/a	2	6	8	n/a	108	n/a	3	n/a	n/a	n/a	n/a	228.117	n/a
198.045	0.497	happy	Picture	26.279	n/a	2	6	9	n/a	109	91	3	n/a	n/a	n/a	n/a	228.648	AF20ANS.jpg
198.542	0.514	Blank	Blank	25.765	n/a	2	6	9	n/a	109	n/a	3	n/a	n/a	n/a	n/a	229.145	n/a
199.073	0.497	happy	Picture	25.251	n/a	2	6	10	n/a	110	87	3	n/a	n/a	n/a	n/a	229.676	BF11ANS.jpg
199.57	0.514	Blank	Blank	24.737	n/a	2	6	10	n/a	110	n/a	3	n/a	n/a	n/a	n/a	230.173	n/a
200.101	0.497	happy	Picture	24.223	n/a	2	6	11	n/a	111	85	3	n/a	n/a	n/a	n/a	230.704	BF07ANS.jpg
200.598	0.514	Blank	Blank	23.709	n/a	2	6	11	n/a	111	n/a	3	n/a	n/a	n/a	n/a	231.201	n/a
201.129	0.497	happy	Picture	23.195	n/a	2	6	12	n/a	112	110	3	n/a	n/a	n/a	n/a	231.732	AM11ANS.jpg
201.626	0.514	Blank	Blank	22.681	n/a	2	6	12	n/a	112	n/a	3	n/a	n/a	n/a	n/a	232.229	n/a
202.157	0.497	happy	Picture	22.167	n/a	2	6	13	n/a	113	111	3	n/a	n/a	n/a	n/a	232.76	BM12ANS.jpg
202.654	0.514	Blank	Blank	21.653	n/a	2	6	13	n/a	113	n/a	3	n/a	n/a	n/a	n/a	233.257	n/a
203.185	0.497	happy	Picture	21.139	n/a	2	6	14	n/a	114	103	3	n/a	n/a	n/a	n/a	233.787	AM04ANS.jpg
203.682	0.514	Blank	Blank	20.625	n/a	2	6	14	n/a	114	n/a	3	n/a	n/a	n/a	n/a	234.285	n/a
204.212	0.497	happy	Picture	20.111	n/a	2	6	15	n/a	115	101	3	n/a	n/a	n/a	n/a	234.815	AM01ANS.jpg
204.71	0.514	Blank	Blank	19.597	n/a	2	6	15	n/a	115	n/a	3	n/a	n/a	n/a	n/a	235.313	n/a
205.24	0.497	happy	Picture	19.083	n/a	2	6	16	n/a	116	104	3	n/a	n/a	n/a	n/a	235.843	BM05ANS.jpg
205.738	0.514	Blank	Blank	18.57	n/a	2	6	16	n/a	116	n/a	3	n/a	n/a	n/a	n/a	236.34	n/a
206.268	0.497	happy	Picture	18.055	n/a	2	6	17	n/a	117	107	3	n/a	n/a	n/a	n/a	236.871	BM08ANS.jpg
206.766	0.514	Blank	Blank	17.542	n/a	2	6	17	n/a	117	n/a	3	n/a	n/a	n/a	n/a	237.368	n/a
207.296	0.497	happy	Picture	17.028	n/a	2	6	18	n/a	118	98	3	n/a	n/a	n/a	n/a	237.899	BF29ANS.jpg
207.793	0.514	Blank	Blank	16.514	n/a	2	6	18	n/a	118	n/a	3	n/a	n/a	n/a	n/a	238.396	n/a
208.324	0.497	happy	Picture	16.0	n/a	2	6	19	n/a	119	99	3	n/a	n/a	n/a	n/a	238.927	AF31ANS.jpg
208.821	0.514	Blank	Blank	15.486	n/a	2	6	19	n/a	119	n/a	3	n/a	n/a	n/a	n/a	239.424	n/a
209.352	0.497	happy	Picture	14.972	n/a	2	6	20	n/a	120	108	3	n/a	n/a	n/a	n/a	239.955	AM09ANS.jpg
209.849	0.514	Blank	Blank	14.458	n/a	2	6	20	n/a	120	n/a	3	n/a	n/a	n/a	n/a	240.452	n/a
210.38	10.014	ITI	Fixation+	4.428	n/a	2	n/a	n/a	n/a	n/a	n/a	n/a	n/a	n/a	n/a	n/a	240.982	n/a
224.821	n/a	ConfirmRating	Rate	n/a	4.427	2	n/a	n/a	0	n/a	n/a	n/a	2	Happy	77	51	255.424	n/a
227.68	n/a	ConfirmRating	Rate	n/a	2.835	2	n/a	n/a	1	n/a	n/a	n/a	3	Happy	0	49	258.283	n/a
227.704	15.004	Rest	Picture	n/a	n/a	n/a	n/a	n/a	n/a	n/a	n/a	n/a	0	n/a	0	0	258.307	n/a
242.725	10.014	ITI	Fixation+	95.78	n/a	3	n/a	n/a	n/a	n/a	n/a	n/a	n/a	n/a	n/a	n/a	273.327	n/a
252.755	0.497	angry	Picture	95.266	n/a	3	7	1	n/a	1	46	2	n/a	n/a	n/a	n/a	283.358	AF09HAS.jpg
253.252	0.514	Blank	Blank	94.752	n/a	3	7	1	n/a	1	n/a	2	n/a	n/a	n/a	n/a	283.855	n/a
253.783	0.497	angry	Picture	94.238	n/a	3	7	2	n/a	2	69	2	n/a	n/a	n/a	n/a	284.385	AM10HAS.jpg
254.28	0.514	Blank	Blank	93.724	n/a	3	7	2	n/a	2	n/a	2	n/a	n/a	n/a	n/a	284.883	n/a
254.811	0.497	angry	Picture	93.21	n/a	3	7	3	n/a	3	71	2	n/a	n/a	n/a	n/a	285.413	BM12HAS.jpg
255.308	0.514	Blank	Blank	92.696	n/a	3	7	3	n/a	3	n/a	2	n/a	n/a	n/a	n/a	285.911	n/a
255.839	0.497	angry	Picture	92.182	n/a	3	7	4	n/a	4	51	2	n/a	n/a	n/a	n/a	286.441	AF20HAS.jpg
256.336	0.514	Blank	Blank	91.668	n/a	3	7	4	n/a	4	n/a	2	n/a	n/a	n/a	n/a	286.939	n/a
256.866	0.497	angry	Picture	91.154	n/a	3	7	5	n/a	5	67	2	n/a	n/a	n/a	n/a	287.469	BM08HAS.jpg
257.364	0.514	Blank	Blank	90.64	n/a	3	7	5	n/a	5	n/a	2	n/a	n/a	n/a	n/a	287.966	n/a
257.894	0.497	angry	Picture	90.126	n/a	3	7	6	n/a	6	60	2	n/a	n/a	n/a	n/a	288.497	AF32HAS.jpg
258.392	0.514	Blank	Blank	89.612	n/a	3	7	6	n/a	6	n/a	2	n/a	n/a	n/a	n/a	288.994	n/a
258.922	0.497	angry	Picture	89.098	n/a	3	7	7	n/a	7	42	2	n/a	n/a	n/a	n/a	289.525	AF03HAS.jpg
259.419	0.514	Blank	Blank	88.584	n/a	3	7	7	n/a	7	n/a	2	n/a	n/a	n/a	n/a	290.022	n/a
259.95	0.497	angry	Picture	88.071	n/a	3	7	8	n/a	8	55	2	n/a	n/a	n/a	n/a	290.553	AF25HAS.jpg
260.447	0.514	Blank	Blank	87.557	n/a	3	7	8	n/a	8	n/a	2	n/a	n/a	n/a	n/a	291.05	n/a
260.978	0.497	angry	Picture	87.043	n/a	3	7	9	n/a	9	72	2	n/a	n/a	n/a	n/a	291.581	AM14HAS.jpg
261.475	0.514	Blank	Blank	86.529	n/a	3	7	9	n/a	9	n/a	2	n/a	n/a	n/a	n/a	292.078	n/a
262.006	0.497	angry	Picture	86.015	n/a	3	7	10	n/a	10	63	2	n/a	n/a	n/a	n/a	292.609	AM04HAS.jpg
262.503	0.514	Blank	Blank	85.501	n/a	3	7	10	n/a	10	n/a	2	n/a	n/a	n/a	n/a	293.106	n/a
263.034	0.497	angry	Picture	84.987	n/a	3	7	11	n/a	11	58	2	n/a	n/a	n/a	n/a	293.636	BF29HAS.jpg
263.531	0.514	Blank	Blank	84.473	n/a	3	7	11	n/a	11	n/a	2	n/a	n/a	n/a	n/a	294.134	n/a
264.062	0.497	angry	Picture	83.959	n/a	3	7	12	n/a	12	48	2	n/a	n/a	n/a	n/a	294.664	AF14HAS.jpg
264.559	0.514	Blank	Blank	83.445	n/a	3	7	12	n/a	12	n/a	2	n/a	n/a	n/a	n/a	295.162	n/a
265.089	0.497	angry	Picture	82.931	n/a	3	7	13	n/a	13	66	2	n/a	n/a	n/a	n/a	295.692	BM07HAS.jpg
265.587	0.514	Blank	Blank	82.417	n/a	3	7	13	n/a	13	n/a	2	n/a	n/a	n/a	n/a	296.19	n/a
266.117	0.497	angry	Picture	81.903	n/a	3	7	14	n/a	14	70	2	n/a	n/a	n/a	n/a	296.72	BM11HAS.jpg
266.615	0.514	Blank	Blank	81.389	n/a	3	7	14	n/a	14	n/a	2	n/a	n/a	n/a	n/a	297.217	n/a
267.145	0.497	angry	Picture	80.875	n/a	3	7	15	n/a	15	43	2	n/a	n/a	n/a	n/a	297.748	BF04HAS.jpg
267.642	0.514	Blank	Blank	80.361	n/a	3	7	15	n/a	15	n/a	2	n/a	n/a	n/a	n/a	298.245	n/a
268.173	0.497	angry	Picture	79.847	n/a	3	7	16	n/a	16	49	2	n/a	n/a	n/a	n/a	298.776	AF17HAS.jpg
268.67	0.514	Blank	Blank	79.334	n/a	3	7	16	n/a	16	n/a	2	n/a	n/a	n/a	n/a	299.273	n/a
269.201	0.497	angry	Picture	78.82	n/a	3	7	17	n/a	17	75	2	n/a	n/a	n/a	n/a	299.804	AM23HAS.jpg
269.698	0.514	Blank	Blank	78.306	n/a	3	7	17	n/a	17	n/a	2	n/a	n/a	n/a	n/a	300.301	n/a
270.229	0.497	angry	Picture	77.792	n/a	3	7	18	n/a	18	80	2	n/a	n/a	n/a	n/a	300.832	BM35HAS.jpg
270.726	0.514	Blank	Blank	77.278	n/a	3	7	18	n/a	18	n/a	2	n/a	n/a	n/a	n/a	301.329	n/a
271.257	0.497	angry	Picture	76.764	n/a	3	7	19	n/a	19	76	2	n/a	n/a	n/a	n/a	301.86	BM24HAS.jpg
271.754	0.514	Blank	Blank	76.25	n/a	3	7	19	n/a	19	n/a	2	n/a	n/a	n/a	n/a	302.357	n/a
272.284	0.497	angry	Picture	75.736	n/a	3	7	20	n/a	20	74	2	n/a	n/a	n/a	n/a	302.887	AM22HAS.jpg
272.782	0.514	Blank	Blank	75.222	n/a	3	7	20	n/a	20	n/a	2	n/a	n/a	n/a	n/a	303.385	n/a
273.312	10.014	ITI	Fixation+	65.192	n/a	3	n/a	n/a	n/a	n/a	n/a	n/a	n/a	n/a	n/a	n/a	303.915	n/a
283.342	0.497	neutral	Picture	64.678	n/a	3	8	1	n/a	21	33	1	n/a	n/a	n/a	n/a	313.945	AM21NES.jpg
283.84	0.514	Blank	Blank	64.164	n/a	3	8	1	n/a	21	n/a	1	n/a	n/a	n/a	n/a	314.443	n/a
284.37	0.497	neutral	Picture	63.65	n/a	3	8	2	n/a	22	39	1	n/a	n/a	n/a	n/a	314.973	AM28NES.jpg
284.868	0.514	Blank	Blank	63.136	n/a	3	8	2	n/a	22	n/a	1	n/a	n/a	n/a	n/a	315.471	n/a
285.398	0.497	neutral	Picture	62.622	n/a	3	8	3	n/a	23	25	1	n/a	n/a	n/a	n/a	316.001	BM06NES.jpg
285.896	0.514	Blank	Blank	62.108	n/a	3	8	3	n/a	23	n/a	1	n/a	n/a	n/a	n/a	316.498	n/a
286.426	0.497	neutral	Picture	61.594	n/a	3	8	4	n/a	24	5	1	n/a	n/a	n/a	n/a	317.029	BF07NES.jpg
286.923	0.514	Blank	Blank	61.08	n/a	3	8	4	n/a	24	n/a	1	n/a	n/a	n/a	n/a	317.526	n/a
287.454	0.497	neutral	Picture	60.566	n/a	3	8	5	n/a	25	10	1	n/a	n/a	n/a	n/a	318.057	AF18NES.jpg
287.951	0.514	Blank	Blank	60.053	n/a	3	8	5	n/a	25	n/a	1	n/a	n/a	n/a	n/a	318.554	n/a
288.482	0.497	neutral	Picture	59.538	n/a	3	8	6	n/a	26	34	1	n/a	n/a	n/a	n/a	319.085	AM22NES.jpg
288.979	0.514	Blank	Blank	59.025	n/a	3	8	6	n/a	26	n/a	1	n/a	n/a	n/a	n/a	319.582	n/a
289.509	0.498	neutral	Picture	58.511	n/a	3	8	7	n/a	27	36	1	n/a	n/a	n/a	n/a	320.112	BM24NES.jpg
290.007	0.514	Blank	Blank	57.997	n/a	3	8	7	n/a	27	n/a	1	n/a	n/a	n/a	n/a	320.61	n/a
290.538	0.497	neutral	Picture	57.483	n/a	3	8	8	n/a	28	14	1	n/a	n/a	n/a	n/a	321.14	AF23NES.jpg
291.035	0.514	Blank	Blank	56.969	n/a	3	8	8	n/a	28	n/a	1	n/a	n/a	n/a	n/a	321.638	n/a
291.566	0.497	neutral	Picture	56.455	n/a	3	8	9	n/a	29	9	1	n/a	n/a	n/a	n/a	322.168	AF17NES.jpg
292.063	0.514	Blank	Blank	55.941	n/a	3	8	9	n/a	29	n/a	1	n/a	n/a	n/a	n/a	322.666	n/a
292.593	0.497	neutral	Picture	55.427	n/a	3	8	10	n/a	30	19	1	n/a	n/a	n/a	n/a	323.196	AF31NES.jpg
293.091	0.514	Blank	Blank	54.913	n/a	3	8	10	n/a	30	n/a	1	n/a	n/a	n/a	n/a	323.694	n/a
293.621	0.497	neutral	Picture	54.399	n/a	3	8	11	n/a	31	15	1	n/a	n/a	n/a	n/a	324.224	AF25NES.jpg
294.119	0.514	Blank	Blank	53.885	n/a	3	8	11	n/a	31	n/a	1	n/a	n/a	n/a	n/a	324.721	n/a
294.649	0.497	neutral	Picture	53.371	n/a	3	8	12	n/a	32	22	1	n/a	n/a	n/a	n/a	325.252	BM03NES.jpg
295.147	0.514	Blank	Blank	52.857	n/a	3	8	12	n/a	32	n/a	1	n/a	n/a	n/a	n/a	325.749	n/a
295.677	0.497	neutral	Picture	52.343	n/a	3	8	13	n/a	33	11	1	n/a	n/a	n/a	n/a	326.28	AF20NES.jpg
296.174	0.514	Blank	Blank	51.829	n/a	3	8	13	n/a	33	n/a	1	n/a	n/a	n/a	n/a	326.777	n/a
296.705	0.497	neutral	Picture	51.316	n/a	3	8	14	n/a	34	4	1	n/a	n/a	n/a	n/a	327.308	AF05NES.jpg
297.202	0.514	Blank	Blank	50.802	n/a	3	8	14	n/a	34	n/a	1	n/a	n/a	n/a	n/a	327.805	n/a
297.733	0.497	neutral	Picture	50.288	n/a	3	8	15	n/a	35	17	1	n/a	n/a	n/a	n/a	328.336	BF28NES.jpg
298.23	0.514	Blank	Blank	49.774	n/a	3	8	15	n/a	35	n/a	1	n/a	n/a	n/a	n/a	328.833	n/a
298.761	0.497	neutral	Picture	49.26	n/a	3	8	16	n/a	36	13	1	n/a	n/a	n/a	n/a	329.363	BF22NES.jpg
299.258	0.514	Blank	Blank	48.746	n/a	3	8	16	n/a	36	n/a	1	n/a	n/a	n/a	n/a	329.861	n/a
299.789	0.497	neutral	Picture	48.232	n/a	3	8	17	n/a	37	12	1	n/a	n/a	n/a	n/a	330.391	AF21NES.jpg
300.286	0.514	Blank	Blank	47.718	n/a	3	8	17	n/a	37	n/a	1	n/a	n/a	n/a	n/a	330.889	n/a
300.817	0.497	neutral	Picture	47.204	n/a	3	8	18	n/a	38	24	1	n/a	n/a	n/a	n/a	331.419	BM05NES.jpg
301.314	0.514	Blank	Blank	46.69	n/a	3	8	18	n/a	38	n/a	1	n/a	n/a	n/a	n/a	331.917	n/a
301.844	0.497	neutral	Picture	46.176	n/a	3	8	19	n/a	39	29	1	n/a	n/a	n/a	n/a	332.447	AM10NES.jpg
302.342	0.514	Blank	Blank	45.662	n/a	3	8	19	n/a	39	n/a	1	n/a	n/a	n/a	n/a	332.945	n/a
302.872	0.497	neutral	Picture	45.148	n/a	3	8	20	n/a	40	23	1	n/a	n/a	n/a	n/a	333.475	AM04NES.jpg
303.37	0.514	Blank	Blank	44.634	n/a	3	8	20	n/a	40	n/a	1	n/a	n/a	n/a	n/a	333.972	n/a
303.9	10.014	ITI	Fixation+	34.604	n/a	3	n/a	n/a	n/a	n/a	n/a	n/a	n/a	n/a	n/a	n/a	334.503	n/a
313.93	0.497	angry	Picture	34.09	n/a	3	9	1	n/a	41	62	2	n/a	n/a	n/a	n/a	344.533	BM03HAS.jpg
314.428	0.514	Blank	Blank	33.576	n/a	3	9	1	n/a	41	n/a	2	n/a	n/a	n/a	n/a	345.03	n/a
314.958	0.497	angry	Picture	33.062	n/a	3	9	2	n/a	42	52	2	n/a	n/a	n/a	n/a	345.561	AF21HAS.jpg
315.455	0.514	Blank	Blank	32.548	n/a	3	9	2	n/a	42	n/a	2	n/a	n/a	n/a	n/a	346.058	n/a
315.986	0.497	angry	Picture	32.035	n/a	3	9	3	n/a	43	44	2	n/a	n/a	n/a	n/a	346.589	AF05HAS.jpg
316.483	0.514	Blank	Blank	31.521	n/a	3	9	3	n/a	43	n/a	2	n/a	n/a	n/a	n/a	347.086	n/a
317.014	0.497	angry	Picture	31.007	n/a	3	9	4	n/a	44	53	2	n/a	n/a	n/a	n/a	347.617	BF22HAS.jpg
317.511	0.514	Blank	Blank	30.493	n/a	3	9	4	n/a	44	n/a	2	n/a	n/a	n/a	n/a	348.114	n/a
318.042	0.497	angry	Picture	29.979	n/a	3	9	5	n/a	45	54	2	n/a	n/a	n/a	n/a	348.644	AF23HAS.jpg
318.539	0.514	Blank	Blank	29.465	n/a	3	9	5	n/a	45	n/a	2	n/a	n/a	n/a	n/a	349.142	n/a
319.07	0.497	angry	Picture	28.951	n/a	3	9	6	n/a	46	68	2	n/a	n/a	n/a	n/a	349.672	AM09HAS.jpg
319.567	0.514	Blank	Blank	28.437	n/a	3	9	6	n/a	46	n/a	2	n/a	n/a	n/a	n/a	350.17	n/a
320.098	0.497	angry	Picture	27.923	n/a	3	9	7	n/a	47	64	2	n/a	n/a	n/a	n/a	350.7	BM05HAS.jpg
320.595	0.514	Blank	Blank	27.409	n/a	3	9	7	n/a	47	n/a	2	n/a	n/a	n/a	n/a	351.198	n/a
321.125	0.497	angry	Picture	26.895	n/a	3	9	8	n/a	48	59	2	n/a	n/a	n/a	n/a	351.728	AF31HAS.jpg
321.623	0.514	Blank	Blank	26.381	n/a	3	9	8	n/a	48	n/a	2	n/a	n/a	n/a	n/a	352.226	n/a
322.153	0.497	angry	Picture	25.867	n/a	3	9	9	n/a	49	41	2	n/a	n/a	n/a	n/a	352.756	AF01HAS.jpg
322.651	0.514	Blank	Blank	25.353	n/a	3	9	9	n/a	49	n/a	2	n/a	n/a	n/a	n/a	353.253	n/a
323.181	0.497	angry	Picture	24.839	n/a	3	9	10	n/a	50	73	2	n/a	n/a	n/a	n/a	353.784	AM21HAS.jpg
323.678	0.514	Blank	Blank	24.325	n/a	3	9	10	n/a	50	n/a	2	n/a	n/a	n/a	n/a	354.281	n/a
324.209	0.497	angry	Picture	23.811	n/a	3	9	11	n/a	51	65	2	n/a	n/a	n/a	n/a	354.812	BM06HAS.jpg
324.706	0.514	Blank	Blank	23.298	n/a	3	9	11	n/a	51	n/a	2	n/a	n/a	n/a	n/a	355.309	n/a
325.237	0.497	angry	Picture	22.784	n/a	3	9	12	n/a	52	56	2	n/a	n/a	n/a	n/a	355.84	AF26HAS.jpg
325.734	0.514	Blank	Blank	22.27	n/a	3	9	12	n/a	52	n/a	2	n/a	n/a	n/a	n/a	356.337	n/a
326.265	0.497	angry	Picture	21.756	n/a	3	9	13	n/a	53	45	2	n/a	n/a	n/a	n/a	356.868	BF07HAS.jpg
326.762	0.514	Blank	Blank	21.242	n/a	3	9	13	n/a	53	n/a	2	n/a	n/a	n/a	n/a	357.365	n/a
327.293	0.497	angry	Picture	20.728	n/a	3	9	14	n/a	54	78	2	n/a	n/a	n/a	n/a	357.895	BM26HAS.jpg
327.79	0.514	Blank	Blank	20.214	n/a	3	9	14	n/a	54	n/a	2	n/a	n/a	n/a	n/a	358.393	n/a
328.32	0.497	angry	Picture	19.7	n/a	3	9	15	n/a	55	50	2	n/a	n/a	n/a	n/a	358.923	AF18HAS.jpg
328.818	0.514	Blank	Blank	19.186	n/a	3	9	15	n/a	55	n/a	2	n/a	n/a	n/a	n/a	359.421	n/a
329.348	0.497	angry	Picture	18.672	n/a	3	9	16	n/a	56	47	2	n/a	n/a	n/a	n/a	359.951	BF11HAS.jpg
329.846	0.514	Blank	Blank	18.158	n/a	3	9	16	n/a	56	n/a	2	n/a	n/a	n/a	n/a	360.449	n/a
330.376	0.497	angry	Picture	17.644	n/a	3	9	17	n/a	57	77	2	n/a	n/a	n/a	n/a	360.979	BM25HAS.jpg
330.874	0.514	Blank	Blank	17.13	n/a	3	9	17	n/a	57	n/a	2	n/a	n/a	n/a	n/a	361.476	n/a
331.404	0.497	angry	Picture	16.616	n/a	3	9	18	n/a	58	57	2	n/a	n/a	n/a	n/a	362.007	BF28HAS.jpg
331.901	0.514	Blank	Blank	16.102	n/a	3	9	18	n/a	58	n/a	2	n/a	n/a	n/a	n/a	362.504	n/a
332.432	0.497	angry	Picture	15.588	n/a	3	9	19	n/a	59	61	2	n/a	n/a	n/a	n/a	363.035	AM01HAS.jpg
332.929	0.514	Blank	Blank	15.075	n/a	3	9	19	n/a	59	n/a	2	n/a	n/a	n/a	n/a	363.532	n/a
333.46	0.497	angry	Picture	14.56	n/a	3	9	20	n/a	60	79	2	n/a	n/a	n/a	n/a	364.063	BM28HAS.jpg
333.957	0.514	Blank	Blank	14.047	n/a	3	9	20	n/a	60	n/a	2	n/a	n/a	n/a	n/a	364.56	n/a
334.488	10.014	ITI	Fixation+	4.017	n/a	3	n/a	n/a	n/a	n/a	n/a	n/a	n/a	n/a	n/a	n/a	365.091	n/a
348.518	n/a	ConfirmRating	Rate	n/a	4.012	3	n/a	n/a	0	n/a	n/a	n/a	2	Angry	69	51	379.121	n/a
350.783	n/a	ConfirmRating	Rate	n/a	2.238	3	n/a	n/a	1	n/a	n/a	n/a	3	Angry	4	49	381.385	n/a
350.801	10.014	ITI	Fixation+	96.006	n/a	4	n/a	n/a	n/a	n/a	n/a	n/a	n/a	n/a	n/a	n/a	381.404	n/a
360.831	0.497	happy	Picture	95.492	n/a	4	10	1	n/a	61	119	3	n/a	n/a	n/a	n/a	391.434	BM28ANS.jpg
361.329	0.514	Blank	Blank	94.978	n/a	4	10	1	n/a	61	n/a	3	n/a	n/a	n/a	n/a	391.932	n/a
361.859	0.497	happy	Picture	94.464	n/a	4	10	2	n/a	62	100	3	n/a	n/a	n/a	n/a	392.462	AF32ANS.jpg
362.357	0.514	Blank	Blank	93.95	n/a	4	10	2	n/a	62	n/a	3	n/a	n/a	n/a	n/a	392.959	n/a
362.887	0.497	happy	Picture	93.436	n/a	4	10	3	n/a	63	118	3	n/a	n/a	n/a	n/a	393.49	BM26ANS.jpg
363.384	0.514	Blank	Blank	92.922	n/a	4	10	3	n/a	63	n/a	3	n/a	n/a	n/a	n/a	393.987	n/a
363.915	0.497	happy	Picture	92.409	n/a	4	10	4	n/a	64	89	3	n/a	n/a	n/a	n/a	394.518	AF17ANS.jpg
364.412	0.514	Blank	Blank	91.894	n/a	4	10	4	n/a	64	n/a	3	n/a	n/a	n/a	n/a	395.015	n/a
364.943	0.497	happy	Picture	91.381	n/a	4	10	5	n/a	65	116	3	n/a	n/a	n/a	n/a	395.546	BM24ANS.jpg
365.44	0.514	Blank	Blank	90.867	n/a	4	10	5	n/a	65	n/a	3	n/a	n/a	n/a	n/a	396.043	n/a
365.971	0.497	happy	Picture	90.353	n/a	4	10	6	n/a	66	105	3	n/a	n/a	n/a	n/a	396.574	BM06ANS.jpg
366.468	0.514	Blank	Blank	89.839	n/a	4	10	6	n/a	66	n/a	3	n/a	n/a	n/a	n/a	397.071	n/a
366.999	0.497	happy	Picture	89.325	n/a	4	10	7	n/a	67	106	3	n/a	n/a	n/a	n/a	397.601	AM07ANS.jpg
367.496	0.514	Blank	Blank	88.811	n/a	4	10	7	n/a	67	n/a	3	n/a	n/a	n/a	n/a	398.099	n/a
368.026	0.497	happy	Picture	88.297	n/a	4	10	8	n/a	68	94	3	n/a	n/a	n/a	n/a	398.629	AF23ANS.jpg
368.524	0.514	Blank	Blank	87.783	n/a	4	10	8	n/a	68	n/a	3	n/a	n/a	n/a	n/a	399.127	n/a
369.054	0.497	happy	Picture	87.269	n/a	4	10	9	n/a	69	117	3	n/a	n/a	n/a	n/a	399.657	BM25ANS.jpg
369.552	0.514	Blank	Blank	86.755	n/a	4	10	9	n/a	69	n/a	3	n/a	n/a	n/a	n/a	400.154	n/a
370.082	0.497	happy	Picture	86.241	n/a	4	10	10	n/a	70	90	3	n/a	n/a	n/a	n/a	400.685	AF18ANS.jpg
370.58	0.514	Blank	Blank	85.727	n/a	4	10	10	n/a	70	n/a	3	n/a	n/a	n/a	n/a	401.182	n/a
371.11	0.497	happy	Picture	85.213	n/a	4	10	11	n/a	71	83	3	n/a	n/a	n/a	n/a	401.713	BF04ANS.jpg
371.608	0.514	Blank	Blank	84.699	n/a	4	10	11	n/a	71	n/a	3	n/a	n/a	n/a	n/a	402.21	n/a
372.138	0.497	happy	Picture	84.185	n/a	4	10	12	n/a	72	112	3	n/a	n/a	n/a	n/a	402.741	AM14ANS.jpg
372.635	0.514	Blank	Blank	83.672	n/a	4	10	12	n/a	72	n/a	3	n/a	n/a	n/a	n/a	403.238	n/a
373.166	0.497	happy	Picture	83.158	n/a	4	10	13	n/a	73	102	3	n/a	n/a	n/a	n/a	403.769	BM03ANS.jpg
373.663	0.514	Blank	Blank	82.644	n/a	4	10	13	n/a	73	n/a	3	n/a	n/a	n/a	n/a	404.266	n/a
374.194	0.497	happy	Picture	82.13	n/a	4	10	14	n/a	74	95	3	n/a	n/a	n/a	n/a	404.797	AF25ANS.jpg
374.691	0.514	Blank	Blank	81.616	n/a	4	10	14	n/a	74	n/a	3	n/a	n/a	n/a	n/a	405.294	n/a
375.222	0.497	happy	Picture	81.102	n/a	4	10	15	n/a	75	113	3	n/a	n/a	n/a	n/a	405.824	AM21ANS.jpg
375.719	0.514	Blank	Blank	80.588	n/a	4	10	15	n/a	75	n/a	3	n/a	n/a	n/a	n/a	406.322	n/a
376.25	0.497	happy	Picture	80.074	n/a	4	10	16	n/a	76	88	3	n/a	n/a	n/a	n/a	406.852	AF14ANS.jpg
376.747	0.514	Blank	Blank	79.56	n/a	4	10	16	n/a	76	n/a	3	n/a	n/a	n/a	n/a	407.35	n/a
377.277	0.497	happy	Picture	79.046	n/a	4	10	17	n/a	77	93	3	n/a	n/a	n/a	n/a	407.88	BF22ANS.jpg
377.775	0.514	Blank	Blank	78.532	n/a	4	10	17	n/a	77	n/a	3	n/a	n/a	n/a	n/a	408.378	n/a
378.305	0.497	happy	Picture	78.018	n/a	4	10	18	n/a	78	86	3	n/a	n/a	n/a	n/a	408.908	AF09ANS.jpg
378.803	0.514	Blank	Blank	77.504	n/a	4	10	18	n/a	78	n/a	3	n/a	n/a	n/a	n/a	409.405	n/a
379.333	0.497	happy	Picture	76.99	n/a	4	10	19	n/a	79	92	3	n/a	n/a	n/a	n/a	409.936	AF21ANS.jpg
379.83	0.514	Blank	Blank	76.476	n/a	4	10	19	n/a	79	n/a	3	n/a	n/a	n/a	n/a	410.433	n/a
380.361	0.497	happy	Picture	75.962	n/a	4	10	20	n/a	80	84	3	n/a	n/a	n/a	n/a	410.964	AF05ANS.jpg
380.858	0.514	Blank	Blank	75.449	n/a	4	10	20	n/a	80	n/a	3	n/a	n/a	n/a	n/a	411.461	n/a
381.389	10.014	ITI	Fixation+	65.418	n/a	4	n/a	n/a	n/a	n/a	n/a	n/a	n/a	n/a	n/a	n/a	411.992	n/a
391.419	0.497	neutral	Picture	64.904	n/a	4	11	1	n/a	81	4	1	n/a	n/a	n/a	n/a	422.022	AF05NES.jpg
391.916	0.514	Blank	Blank	64.391	n/a	4	11	1	n/a	81	n/a	1	n/a	n/a	n/a	n/a	422.519	n/a
392.447	0.497	neutral	Picture	63.877	n/a	4	11	2	n/a	82	14	1	n/a	n/a	n/a	n/a	423.05	AF23NES.jpg
392.944	0.514	Blank	Blank	63.363	n/a	4	11	2	n/a	82	n/a	1	n/a	n/a	n/a	n/a	423.547	n/a
393.475	0.497	neutral	Picture	62.849	n/a	4	11	3	n/a	83	19	1	n/a	n/a	n/a	n/a	424.078	AF31NES.jpg
393.972	0.514	Blank	Blank	62.335	n/a	4	11	3	n/a	83	n/a	1	n/a	n/a	n/a	n/a	424.575	n/a
394.503	0.497	neutral	Picture	61.821	n/a	4	11	4	n/a	84	8	1	n/a	n/a	n/a	n/a	425.106	AF14NES.jpg
395.0	0.514	Blank	Blank	61.307	n/a	4	11	4	n/a	84	n/a	1	n/a	n/a	n/a	n/a	425.603	n/a
395.531	0.497	neutral	Picture	60.793	n/a	4	11	5	n/a	85	25	1	n/a	n/a	n/a	n/a	426.133	BM06NES.jpg
396.028	0.514	Blank	Blank	60.279	n/a	4	11	5	n/a	85	n/a	1	n/a	n/a	n/a	n/a	426.631	n/a
396.558	0.497	neutral	Picture	59.765	n/a	4	11	6	n/a	86	9	1	n/a	n/a	n/a	n/a	427.161	AF17NES.jpg
397.056	0.514	Blank	Blank	59.251	n/a	4	11	6	n/a	86	n/a	1	n/a	n/a	n/a	n/a	427.659	n/a
397.586	0.497	neutral	Picture	58.737	n/a	4	11	7	n/a	87	2	1	n/a	n/a	n/a	n/a	428.189	AF03NES.jpg
398.084	0.514	Blank	Blank	58.223	n/a	4	11	7	n/a	87	n/a	1	n/a	n/a	n/a	n/a	428.687	n/a
398.614	0.497	neutral	Picture	57.709	n/a	4	11	8	n/a	88	17	1	n/a	n/a	n/a	n/a	429.217	BF28NES.jpg
399.111	0.514	Blank	Blank	57.195	n/a	4	11	8	n/a	88	n/a	1	n/a	n/a	n/a	n/a	429.714	n/a
399.642	0.497	neutral	Picture	56.681	n/a	4	11	9	n/a	89	6	1	n/a	n/a	n/a	n/a	430.245	AF09NES.jpg
400.139	0.514	Blank	Blank	56.167	n/a	4	11	9	n/a	89	n/a	1	n/a	n/a	n/a	n/a	430.742	n/a
400.67	0.497	neutral	Picture	55.654	n/a	4	11	10	n/a	90	12	1	n/a	n/a	n/a	n/a	431.273	AF21NES.jpg
401.167	0.514	Blank	Blank	55.14	n/a	4	11	10	n/a	90	n/a	1	n/a	n/a	n/a	n/a	431.77	n/a
401.698	0.497	neutral	Picture	54.626	n/a	4	11	11	n/a	91	24	1	n/a	n/a	n/a	n/a	432.301	BM05NES.jpg
402.195	0.514	Blank	Blank	54.112	n/a	4	11	11	n/a	91	n/a	1	n/a	n/a	n/a	n/a	432.798	n/a
402.726	0.497	neutral	Picture	53.598	n/a	4	11	12	n/a	92	34	1	n/a	n/a	n/a	n/a	433.329	AM22NES.jpg
403.223	0.514	Blank	Blank	53.084	n/a	4	11	12	n/a	92	n/a	1	n/a	n/a	n/a	n/a	433.826	n/a
403.754	0.497	neutral	Picture	52.57	n/a	4	11	13	n/a	93	23	1	n/a	n/a	n/a	n/a	434.356	AM04NES.jpg
404.251	0.514	Blank	Blank	52.056	n/a	4	11	13	n/a	93	n/a	1	n/a	n/a	n/a	n/a	434.854	n/a
404.781	0.497	neutral	Picture	51.542	n/a	4	11	14	n/a	94	15	1	n/a	n/a	n/a	n/a	435.384	AF25NES.jpg
405.279	0.514	Blank	Blank	51.028	n/a	4	11	14	n/a	94	n/a	1	n/a	n/a	n/a	n/a	435.882	n/a
405.809	0.497	neutral	Picture	50.514	n/a	4	11	15	n/a	95	37	1	n/a	n/a	n/a	n/a	436.412	BM25NES.jpg
406.307	0.514	Blank	Blank	50.0	n/a	4	11	15	n/a	95	n/a	1	n/a	n/a	n/a	n/a	436.909	n/a
406.837	0.497	neutral	Picture	49.486	n/a	4	11	16	n/a	96	32	1	n/a	n/a	n/a	n/a	437.44	AM14NES.jpg
407.335	0.514	Blank	Blank	48.972	n/a	4	11	16	n/a	96	n/a	1	n/a	n/a	n/a	n/a	437.937	n/a
407.865	0.497	neutral	Picture	48.458	n/a	4	11	17	n/a	97	3	1	n/a	n/a	n/a	n/a	438.468	BF04NES.jpg
408.362	0.514	Blank	Blank	47.944	n/a	4	11	17	n/a	97	n/a	1	n/a	n/a	n/a	n/a	438.965	n/a
408.893	0.497	neutral	Picture	47.431	n/a	4	11	18	n/a	98	16	1	n/a	n/a	n/a	n/a	439.496	AF26NES.jpg
409.39	0.514	Blank	Blank	46.916	n/a	4	11	18	n/a	98	n/a	1	n/a	n/a	n/a	n/a	439.993	n/a
409.921	0.497	neutral	Picture	46.403	n/a	4	11	19	n/a	99	27	1	n/a	n/a	n/a	n/a	440.524	BM08NES.jpg
410.418	0.514	Blank	Blank	45.889	n/a	4	11	19	n/a	99	n/a	1	n/a	n/a	n/a	n/a	441.021	n/a
410.949	0.497	neutral	Picture	45.375	n/a	4	11	20	n/a	100	28	1	n/a	n/a	n/a	n/a	441.551	AM09NES.jpg
411.446	0.514	Blank	Blank	44.861	n/a	4	11	20	n/a	100	n/a	1	n/a	n/a	n/a	n/a	442.049	n/a
411.977	10.014	ITI	Fixation+	34.831	n/a	4	n/a	n/a	n/a	n/a	n/a	n/a	n/a	n/a	n/a	n/a	442.579	n/a
422.007	0.497	happy	Picture	34.317	n/a	4	12	1	n/a	101	81	3	n/a	n/a	n/a	n/a	452.61	AF01ANS.jpg
422.503	0.515	Blank	Blank	33.803	n/a	4	12	1	n/a	101	n/a	3	n/a	n/a	n/a	n/a	453.106	n/a
423.035	0.497	happy	Picture	33.289	n/a	4	12	2	n/a	102	120	3	n/a	n/a	n/a	n/a	453.637	AM35ANS.jpg
423.532	0.514	Blank	Blank	32.775	n/a	4	12	2	n/a	102	n/a	3	n/a	n/a	n/a	n/a	454.135	n/a
424.063	0.497	happy	Picture	32.261	n/a	4	12	3	n/a	103	114	3	n/a	n/a	n/a	n/a	454.665	AM22ANS.jpg
424.56	0.514	Blank	Blank	31.747	n/a	4	12	3	n/a	103	n/a	3	n/a	n/a	n/a	n/a	455.163	n/a
425.09	0.497	happy	Picture	31.233	n/a	4	12	4	n/a	104	109	3	n/a	n/a	n/a	n/a	455.693	AM10ANS.jpg
425.588	0.514	Blank	Blank	30.719	n/a	4	12	4	n/a	104	n/a	3	n/a	n/a	n/a	n/a	456.19	n/a
426.118	0.497	happy	Picture	30.205	n/a	4	12	5	n/a	105	96	3	n/a	n/a	n/a	n/a	456.721	AF26ANS.jpg
426.616	0.514	Blank	Blank	29.691	n/a	4	12	5	n/a	105	n/a	3	n/a	n/a	n/a	n/a	457.218	n/a
427.146	0.497	happy	Picture	29.177	n/a	4	12	6	n/a	106	82	3	n/a	n/a	n/a	n/a	457.749	AF03ANS.jpg
427.644	0.514	Blank	Blank	28.663	n/a	4	12	6	n/a	106	n/a	3	n/a	n/a	n/a	n/a	458.246	n/a
428.174	0.497	happy	Picture	28.15	n/a	4	12	7	n/a	107	97	3	n/a	n/a	n/a	n/a	458.777	BF28ANS.jpg
428.671	0.514	Blank	Blank	27.636	n/a	4	12	7	n/a	107	n/a	3	n/a	n/a	n/a	n/a	459.274	n/a
429.202	0.497	happy	Picture	27.122	n/a	4	12	8	n/a	108	115	3	n/a	n/a	n/a	n/a	459.805	AM23ANS.jpg
429.699	0.514	Blank	Blank	26.608	n/a	4	12	8	n/a	108	n/a	3	n/a	n/a	n/a	n/a	460.302	n/a
430.23	0.497	happy	Picture	26.094	n/a	4	12	9	n/a	109	91	3	n/a	n/a	n/a	n/a	460.832	AF20ANS.jpg
430.727	0.514	Blank	Blank	25.58	n/a	4	12	9	n/a	109	n/a	3	n/a	n/a	n/a	n/a	461.33	n/a
431.258	0.497	happy	Picture	25.066	n/a	4	12	10	n/a	110	87	3	n/a	n/a	n/a	n/a	461.86	BF11ANS.jpg
431.755	0.514	Blank	Blank	24.552	n/a	4	12	10	n/a	110	n/a	3	n/a	n/a	n/a	n/a	462.358	n/a
432.286	0.497	happy	Picture	24.038	n/a	4	12	11	n/a	111	85	3	n/a	n/a	n/a	n/a	462.888	BF07ANS.jpg
432.783	0.514	Blank	Blank	23.524	n/a	4	12	11	n/a	111	n/a	3	n/a	n/a	n/a	n/a	463.386	n/a
433.313	0.497	happy	Picture	23.01	n/a	4	12	12	n/a	112	110	3	n/a	n/a	n/a	n/a	463.916	AM11ANS.jpg
433.811	0.514	Blank	Blank	22.496	n/a	4	12	12	n/a	112	n/a	3	n/a	n/a	n/a	n/a	464.413	n/a
434.341	0.497	happy	Picture	21.982	n/a	4	12	13	n/a	113	111	3	n/a	n/a	n/a	n/a	464.944	BM12ANS.jpg
434.839	0.514	Blank	Blank	21.468	n/a	4	12	13	n/a	113	n/a	3	n/a	n/a	n/a	n/a	465.441	n/a
435.369	0.497	happy	Picture	20.954	n/a	4	12	14	n/a	114	103	3	n/a	n/a	n/a	n/a	465.972	AM04ANS.jpg
435.866	0.514	Blank	Blank	20.44	n/a	4	12	14	n/a	114	n/a	3	n/a	n/a	n/a	n/a	466.469	n/a
436.397	0.497	happy	Picture	19.926	n/a	4	12	15	n/a	115	101	3	n/a	n/a	n/a	n/a	467.0	AM01ANS.jpg
436.894	0.514	Blank	Blank	19.413	n/a	4	12	15	n/a	115	n/a	3	n/a	n/a	n/a	n/a	467.497	n/a
437.425	0.497	happy	Picture	18.899	n/a	4	12	16	n/a	116	104	3	n/a	n/a	n/a	n/a	468.028	BM05ANS.jpg
437.922	0.514	Blank	Blank	18.385	n/a	4	12	16	n/a	116	n/a	3	n/a	n/a	n/a	n/a	468.525	n/a
438.453	0.497	happy	Picture	17.871	n/a	4	12	17	n/a	117	107	3	n/a	n/a	n/a	n/a	469.056	BM08ANS.jpg
438.95	0.514	Blank	Blank	17.357	n/a	4	12	17	n/a	117	n/a	3	n/a	n/a	n/a	n/a	469.553	n/a
439.481	0.497	happy	Picture	16.843	n/a	4	12	18	n/a	118	98	3	n/a	n/a	n/a	n/a	470.083	BF29ANS.jpg
439.978	0.514	Blank	Blank	16.329	n/a	4	12	18	n/a	118	n/a	3	n/a	n/a	n/a	n/a	470.581	n/a
440.509	0.497	happy	Picture	15.815	n/a	4	12	19	n/a	119	99	3	n/a	n/a	n/a	n/a	471.111	AF31ANS.jpg
441.006	0.514	Blank	Blank	15.301	n/a	4	12	19	n/a	119	n/a	3	n/a	n/a	n/a	n/a	471.609	n/a
441.536	0.497	happy	Picture	14.787	n/a	4	12	20	n/a	120	108	3	n/a	n/a	n/a	n/a	472.139	AM09ANS.jpg
442.034	0.514	Blank	Blank	14.273	n/a	4	12	20	n/a	120	n/a	3	n/a	n/a	n/a	n/a	472.637	n/a
442.564	10.014	ITI	Fixation+	4.243	n/a	4	n/a	n/a	n/a	n/a	n/a	n/a	n/a	n/a	n/a	n/a	473.167	n/a
456.821	n/a	ConfirmRating	Rate	n/a	4.227	4	n/a	n/a	0	n/a	n/a	n/a	2	Happy	86	51	487.424	n/a
459.352	n/a	ConfirmRating	Rate	n/a	2.52	4	n/a	n/a	1	n/a	n/a	n/a	3	Happy	0	49	489.954	n/a
