onset	duration	trial_type	event_type	time_until_response	response_time	trial_number	block_num_within_trial	image_seq_num_within_block	question_seq_num_within_block	image_seq_num	picture_number	condition	question_type	block_type	rating	rating_computed	onset_uncorrected	KDEV_imagefile
0.015	10.014	ITI	Fixation+	102.188	n/a	1	n/a	n/a	n/a	n/a	n/a	n/a	n/a	n/a	n/a	n/a	28.842	n/a
10.045	0.497	angry	Picture	101.674	n/a	1	1	1	n/a	1	46	2	n/a	n/a	n/a	n/a	38.872	AF09HAS.jpg
10.543	0.514	Blank	Blank	101.16	n/a	1	1	1	n/a	1	n/a	2	n/a	n/a	n/a	n/a	39.369	n/a
11.073	0.497	angry	Picture	100.646	n/a	1	1	2	n/a	2	69	2	n/a	n/a	n/a	n/a	39.9	AM10HAS.jpg
11.571	0.514	Blank	Blank	100.132	n/a	1	1	2	n/a	2	n/a	2	n/a	n/a	n/a	n/a	40.397	n/a
12.101	0.497	angry	Picture	99.618	n/a	1	1	3	n/a	3	71	2	n/a	n/a	n/a	n/a	40.928	BM12HAS.jpg
12.598	0.514	Blank	Blank	99.104	n/a	1	1	3	n/a	3	n/a	2	n/a	n/a	n/a	n/a	41.425	n/a
13.129	0.497	angry	Picture	98.59	n/a	1	1	4	n/a	4	51	2	n/a	n/a	n/a	n/a	41.956	AF20HAS.jpg
13.626	0.514	Blank	Blank	98.076	n/a	1	1	4	n/a	4	n/a	2	n/a	n/a	n/a	n/a	42.453	n/a
14.157	0.497	angry	Picture	97.563	n/a	1	1	5	n/a	5	67	2	n/a	n/a	n/a	n/a	42.983	BM08HAS.jpg
14.654	0.514	Blank	Blank	97.049	n/a	1	1	5	n/a	5	n/a	2	n/a	n/a	n/a	n/a	43.481	n/a
15.185	0.497	angry	Picture	96.535	n/a	1	1	6	n/a	6	60	2	n/a	n/a	n/a	n/a	44.011	AF32HAS.jpg
15.682	0.514	Blank	Blank	96.021	n/a	1	1	6	n/a	6	n/a	2	n/a	n/a	n/a	n/a	44.509	n/a
16.213	0.497	angry	Picture	95.507	n/a	1	1	7	n/a	7	42	2	n/a	n/a	n/a	n/a	45.039	AF03HAS.jpg
16.71	0.514	Blank	Blank	94.993	n/a	1	1	7	n/a	7	n/a	2	n/a	n/a	n/a	n/a	45.536	n/a
17.241	0.497	angry	Picture	94.479	n/a	1	1	8	n/a	8	55	2	n/a	n/a	n/a	n/a	46.067	AF25HAS.jpg
17.738	0.514	Blank	Blank	93.965	n/a	1	1	8	n/a	8	n/a	2	n/a	n/a	n/a	n/a	46.564	n/a
18.268	0.497	angry	Picture	93.451	n/a	1	1	9	n/a	9	72	2	n/a	n/a	n/a	n/a	47.095	AM14HAS.jpg
18.766	0.514	Blank	Blank	92.937	n/a	1	1	9	n/a	9	n/a	2	n/a	n/a	n/a	n/a	47.592	n/a
19.296	0.497	angry	Picture	92.423	n/a	1	1	10	n/a	10	63	2	n/a	n/a	n/a	n/a	48.123	AM04HAS.jpg
19.794	0.514	Blank	Blank	91.909	n/a	1	1	10	n/a	10	n/a	2	n/a	n/a	n/a	n/a	48.62	n/a
20.324	0.497	angry	Picture	91.395	n/a	1	1	11	n/a	11	58	2	n/a	n/a	n/a	n/a	49.151	BF29HAS.jpg
20.822	0.514	Blank	Blank	90.881	n/a	1	1	11	n/a	11	n/a	2	n/a	n/a	n/a	n/a	49.648	n/a
21.352	0.497	angry	Picture	90.367	n/a	1	1	12	n/a	12	48	2	n/a	n/a	n/a	n/a	50.178	AF14HAS.jpg
21.849	0.514	Blank	Blank	89.853	n/a	1	1	12	n/a	12	n/a	2	n/a	n/a	n/a	n/a	50.676	n/a
22.38	0.497	angry	Picture	89.34	n/a	1	1	13	n/a	13	66	2	n/a	n/a	n/a	n/a	51.206	BM07HAS.jpg
22.877	0.514	Blank	Blank	88.826	n/a	1	1	13	n/a	13	n/a	2	n/a	n/a	n/a	n/a	51.704	n/a
23.408	0.497	angry	Picture	88.312	n/a	1	1	14	n/a	14	70	2	n/a	n/a	n/a	n/a	52.234	BM11HAS.jpg
23.905	0.514	Blank	Blank	87.798	n/a	1	1	14	n/a	14	n/a	2	n/a	n/a	n/a	n/a	52.732	n/a
24.436	0.497	angry	Picture	87.284	n/a	1	1	15	n/a	15	43	2	n/a	n/a	n/a	n/a	53.262	BF04HAS.jpg
24.933	0.514	Blank	Blank	86.77	n/a	1	1	15	n/a	15	n/a	2	n/a	n/a	n/a	n/a	53.76	n/a
25.463	0.497	angry	Picture	86.256	n/a	1	1	16	n/a	16	49	2	n/a	n/a	n/a	n/a	54.29	AF17HAS.jpg
25.961	0.514	Blank	Blank	85.742	n/a	1	1	16	n/a	16	n/a	2	n/a	n/a	n/a	n/a	54.787	n/a
26.491	0.497	angry	Picture	85.228	n/a	1	1	17	n/a	17	75	2	n/a	n/a	n/a	n/a	55.318	AM23HAS.jpg
26.989	0.514	Blank	Blank	84.714	n/a	1	1	17	n/a	17	n/a	2	n/a	n/a	n/a	n/a	55.815	n/a
27.519	0.497	angry	Picture	84.2	n/a	1	1	18	n/a	18	80	2	n/a	n/a	n/a	n/a	56.346	BM35HAS.jpg
28.017	0.514	Blank	Blank	83.686	n/a	1	1	18	n/a	18	n/a	2	n/a	n/a	n/a	n/a	56.843	n/a
28.547	0.497	angry	Picture	83.172	n/a	1	1	19	n/a	19	76	2	n/a	n/a	n/a	n/a	57.374	BM24HAS.jpg
29.045	0.514	Blank	Blank	82.658	n/a	1	1	19	n/a	19	n/a	2	n/a	n/a	n/a	n/a	57.871	n/a
29.575	0.497	angry	Picture	82.144	n/a	1	1	20	n/a	20	74	2	n/a	n/a	n/a	n/a	58.402	AM22HAS.jpg
30.072	0.514	Blank	Blank	81.63	n/a	1	1	20	n/a	20	n/a	2	n/a	n/a	n/a	n/a	58.899	n/a
30.603	10.014	ITI	Fixation+	71.6	n/a	1	n/a	n/a	n/a	n/a	n/a	n/a	n/a	n/a	n/a	n/a	59.429	n/a
40.633	0.497	neutral	Picture	71.086	n/a	1	2	1	n/a	21	33	1	n/a	n/a	n/a	n/a	69.46	AM21NES.jpg
41.13	0.514	Blank	Blank	70.572	n/a	1	2	1	n/a	21	n/a	1	n/a	n/a	n/a	n/a	69.957	n/a
41.661	0.497	neutral	Picture	70.058	n/a	1	2	2	n/a	22	39	1	n/a	n/a	n/a	n/a	70.487	AM28NES.jpg
42.158	0.514	Blank	Blank	69.544	n/a	1	2	2	n/a	22	n/a	1	n/a	n/a	n/a	n/a	70.985	n/a
42.689	0.497	neutral	Picture	69.031	n/a	1	2	3	n/a	23	25	1	n/a	n/a	n/a	n/a	71.515	BM06NES.jpg
43.186	0.514	Blank	Blank	68.517	n/a	1	2	3	n/a	23	n/a	1	n/a	n/a	n/a	n/a	72.013	n/a
43.717	0.497	neutral	Picture	68.003	n/a	1	2	4	n/a	24	5	1	n/a	n/a	n/a	n/a	72.543	BF07NES.jpg
44.214	0.514	Blank	Blank	67.489	n/a	1	2	4	n/a	24	n/a	1	n/a	n/a	n/a	n/a	73.041	n/a
44.745	0.497	neutral	Picture	66.975	n/a	1	2	5	n/a	25	10	1	n/a	n/a	n/a	n/a	73.571	AF18NES.jpg
45.242	0.514	Blank	Blank	66.461	n/a	1	2	5	n/a	25	n/a	1	n/a	n/a	n/a	n/a	74.069	n/a
45.773	0.497	neutral	Picture	65.947	n/a	1	2	6	n/a	26	34	1	n/a	n/a	n/a	n/a	74.599	AM22NES.jpg
46.27	0.514	Blank	Blank	65.433	n/a	1	2	6	n/a	26	n/a	1	n/a	n/a	n/a	n/a	75.096	n/a
46.8	0.497	neutral	Picture	64.919	n/a	1	2	7	n/a	27	36	1	n/a	n/a	n/a	n/a	75.627	BM24NES.jpg
47.298	0.514	Blank	Blank	64.405	n/a	1	2	7	n/a	27	n/a	1	n/a	n/a	n/a	n/a	76.124	n/a
47.828	0.497	neutral	Picture	63.891	n/a	1	2	8	n/a	28	14	1	n/a	n/a	n/a	n/a	76.655	AF23NES.jpg
48.326	0.514	Blank	Blank	63.377	n/a	1	2	8	n/a	28	n/a	1	n/a	n/a	n/a	n/a	77.152	n/a
48.856	0.497	neutral	Picture	62.863	n/a	1	2	9	n/a	29	9	1	n/a	n/a	n/a	n/a	77.683	AF17NES.jpg
49.354	0.514	Blank	Blank	62.349	n/a	1	2	9	n/a	29	n/a	1	n/a	n/a	n/a	n/a	78.18	n/a
49.884	0.497	neutral	Picture	61.835	n/a	1	2	10	n/a	30	19	1	n/a	n/a	n/a	n/a	78.71	AF31NES.jpg
50.381	0.514	Blank	Blank	61.321	n/a	1	2	10	n/a	30	n/a	1	n/a	n/a	n/a	n/a	79.208	n/a
50.912	0.497	neutral	Picture	60.807	n/a	1	2	11	n/a	31	15	1	n/a	n/a	n/a	n/a	79.738	AF25NES.jpg
51.409	0.514	Blank	Blank	60.294	n/a	1	2	11	n/a	31	n/a	1	n/a	n/a	n/a	n/a	80.236	n/a
51.94	0.497	neutral	Picture	59.78	n/a	1	2	12	n/a	32	22	1	n/a	n/a	n/a	n/a	80.766	BM03NES.jpg
52.437	0.514	Blank	Blank	59.266	n/a	1	2	12	n/a	32	n/a	1	n/a	n/a	n/a	n/a	81.264	n/a
52.968	0.497	neutral	Picture	58.752	n/a	1	2	13	n/a	33	11	1	n/a	n/a	n/a	n/a	81.794	AF20NES.jpg
53.465	0.514	Blank	Blank	58.238	n/a	1	2	13	n/a	33	n/a	1	n/a	n/a	n/a	n/a	82.291	n/a
53.996	0.497	neutral	Picture	57.724	n/a	1	2	14	n/a	34	4	1	n/a	n/a	n/a	n/a	82.822	AF05NES.jpg
54.493	0.514	Blank	Blank	57.21	n/a	1	2	14	n/a	34	n/a	1	n/a	n/a	n/a	n/a	83.319	n/a
55.023	0.497	neutral	Picture	56.696	n/a	1	2	15	n/a	35	17	1	n/a	n/a	n/a	n/a	83.85	BF28NES.jpg
55.521	0.514	Blank	Blank	56.182	n/a	1	2	15	n/a	35	n/a	1	n/a	n/a	n/a	n/a	84.347	n/a
56.051	0.497	neutral	Picture	55.668	n/a	1	2	16	n/a	36	13	1	n/a	n/a	n/a	n/a	84.878	BF22NES.jpg
56.549	0.514	Blank	Blank	55.154	n/a	1	2	16	n/a	36	n/a	1	n/a	n/a	n/a	n/a	85.375	n/a
57.079	0.497	neutral	Picture	54.64	n/a	1	2	17	n/a	37	12	1	n/a	n/a	n/a	n/a	85.906	AF21NES.jpg
57.577	0.514	Blank	Blank	54.126	n/a	1	2	17	n/a	37	n/a	1	n/a	n/a	n/a	n/a	86.403	n/a
58.107	0.497	neutral	Picture	53.612	n/a	1	2	18	n/a	38	24	1	n/a	n/a	n/a	n/a	86.934	BM05NES.jpg
58.604	0.514	Blank	Blank	53.098	n/a	1	2	18	n/a	38	n/a	1	n/a	n/a	n/a	n/a	87.431	n/a
59.135	0.497	neutral	Picture	52.584	n/a	1	2	19	n/a	39	29	1	n/a	n/a	n/a	n/a	87.962	AM10NES.jpg
59.632	0.514	Blank	Blank	52.07	n/a	1	2	19	n/a	39	n/a	1	n/a	n/a	n/a	n/a	88.459	n/a
60.163	0.497	neutral	Picture	51.557	n/a	1	2	20	n/a	40	23	1	n/a	n/a	n/a	n/a	88.989	AM04NES.jpg
60.66	0.514	Blank	Blank	51.043	n/a	1	2	20	n/a	40	n/a	1	n/a	n/a	n/a	n/a	89.487	n/a
61.191	10.014	ITI	Fixation+	41.012	n/a	1	n/a	n/a	n/a	n/a	n/a	n/a	n/a	n/a	n/a	n/a	90.017	n/a
71.221	0.497	angry	Picture	40.499	n/a	1	3	1	n/a	41	62	2	n/a	n/a	n/a	n/a	100.047	BM03HAS.jpg
71.718	0.514	Blank	Blank	39.985	n/a	1	3	1	n/a	41	n/a	2	n/a	n/a	n/a	n/a	100.545	n/a
72.249	0.497	angry	Picture	39.471	n/a	1	3	2	n/a	42	52	2	n/a	n/a	n/a	n/a	101.075	AF21HAS.jpg
72.746	0.514	Blank	Blank	38.957	n/a	1	3	2	n/a	42	n/a	2	n/a	n/a	n/a	n/a	101.573	n/a
73.277	0.497	angry	Picture	38.443	n/a	1	3	3	n/a	43	44	2	n/a	n/a	n/a	n/a	102.103	AF05HAS.jpg
73.774	0.514	Blank	Blank	37.929	n/a	1	3	3	n/a	43	n/a	2	n/a	n/a	n/a	n/a	102.6	n/a
74.305	0.497	angry	Picture	37.415	n/a	1	3	4	n/a	44	53	2	n/a	n/a	n/a	n/a	103.131	BF22HAS.jpg
74.802	0.514	Blank	Blank	36.901	n/a	1	3	4	n/a	44	n/a	2	n/a	n/a	n/a	n/a	103.628	n/a
75.332	0.497	angry	Picture	36.387	n/a	1	3	5	n/a	45	54	2	n/a	n/a	n/a	n/a	104.159	AF23HAS.jpg
75.83	0.514	Blank	Blank	35.873	n/a	1	3	5	n/a	45	n/a	2	n/a	n/a	n/a	n/a	104.656	n/a
76.36	0.497	angry	Picture	35.359	n/a	1	3	6	n/a	46	68	2	n/a	n/a	n/a	n/a	105.187	AM09HAS.jpg
76.858	0.514	Blank	Blank	34.845	n/a	1	3	6	n/a	46	n/a	2	n/a	n/a	n/a	n/a	105.684	n/a
77.388	0.497	angry	Picture	34.331	n/a	1	3	7	n/a	47	64	2	n/a	n/a	n/a	n/a	106.215	BM05HAS.jpg
77.886	0.514	Blank	Blank	33.817	n/a	1	3	7	n/a	47	n/a	2	n/a	n/a	n/a	n/a	106.712	n/a
78.416	0.497	angry	Picture	33.303	n/a	1	3	8	n/a	48	59	2	n/a	n/a	n/a	n/a	107.243	AF31HAS.jpg
78.913	0.514	Blank	Blank	32.789	n/a	1	3	8	n/a	48	n/a	2	n/a	n/a	n/a	n/a	107.74	n/a
79.444	0.497	angry	Picture	32.275	n/a	1	3	9	n/a	49	41	2	n/a	n/a	n/a	n/a	108.27	AF01HAS.jpg
79.941	0.514	Blank	Blank	31.762	n/a	1	3	9	n/a	49	n/a	2	n/a	n/a	n/a	n/a	108.768	n/a
80.472	0.497	angry	Picture	31.248	n/a	1	3	10	n/a	50	73	2	n/a	n/a	n/a	n/a	109.298	AM21HAS.jpg
80.969	0.514	Blank	Blank	30.734	n/a	1	3	10	n/a	50	n/a	2	n/a	n/a	n/a	n/a	109.796	n/a
81.5	0.497	angry	Picture	30.22	n/a	1	3	11	n/a	51	65	2	n/a	n/a	n/a	n/a	110.326	BM06HAS.jpg
81.997	0.514	Blank	Blank	29.706	n/a	1	3	11	n/a	51	n/a	2	n/a	n/a	n/a	n/a	110.823	n/a
82.528	0.497	angry	Picture	29.192	n/a	1	3	12	n/a	52	56	2	n/a	n/a	n/a	n/a	111.354	AF26HAS.jpg
83.025	0.514	Blank	Blank	28.678	n/a	1	3	12	n/a	52	n/a	2	n/a	n/a	n/a	n/a	111.851	n/a
83.555	0.497	angry	Picture	28.164	n/a	1	3	13	n/a	53	45	2	n/a	n/a	n/a	n/a	112.382	BF07HAS.jpg
84.053	0.514	Blank	Blank	27.65	n/a	1	3	13	n/a	53	n/a	2	n/a	n/a	n/a	n/a	112.879	n/a
84.583	0.497	angry	Picture	27.136	n/a	1	3	14	n/a	54	78	2	n/a	n/a	n/a	n/a	113.41	BM26HAS.jpg
85.081	0.514	Blank	Blank	26.622	n/a	1	3	14	n/a	54	n/a	2	n/a	n/a	n/a	n/a	113.907	n/a
85.611	0.497	angry	Picture	26.108	n/a	1	3	15	n/a	55	50	2	n/a	n/a	n/a	n/a	114.438	AF18HAS.jpg
86.109	0.514	Blank	Blank	25.594	n/a	1	3	15	n/a	55	n/a	2	n/a	n/a	n/a	n/a	114.935	n/a
86.639	0.497	angry	Picture	25.08	n/a	1	3	16	n/a	56	47	2	n/a	n/a	n/a	n/a	115.466	BF11HAS.jpg
87.136	0.514	Blank	Blank	24.566	n/a	1	3	16	n/a	56	n/a	2	n/a	n/a	n/a	n/a	115.963	n/a
87.667	0.497	angry	Picture	24.052	n/a	1	3	17	n/a	57	77	2	n/a	n/a	n/a	n/a	116.493	BM25HAS.jpg
88.164	0.514	Blank	Blank	23.538	n/a	1	3	17	n/a	57	n/a	2	n/a	n/a	n/a	n/a	116.991	n/a
88.695	0.497	angry	Picture	23.025	n/a	1	3	18	n/a	58	57	2	n/a	n/a	n/a	n/a	117.521	BF28HAS.jpg
89.192	0.514	Blank	Blank	22.511	n/a	1	3	18	n/a	58	n/a	2	n/a	n/a	n/a	n/a	118.019	n/a
89.723	0.497	angry	Picture	21.997	n/a	1	3	19	n/a	59	61	2	n/a	n/a	n/a	n/a	118.549	AM01HAS.jpg
90.22	0.514	Blank	Blank	21.483	n/a	1	3	19	n/a	59	n/a	2	n/a	n/a	n/a	n/a	119.047	n/a
90.751	0.497	angry	Picture	20.969	n/a	1	3	20	n/a	60	79	2	n/a	n/a	n/a	n/a	119.577	BM28HAS.jpg
91.248	0.514	Blank	Blank	20.455	n/a	1	3	20	n/a	60	n/a	2	n/a	n/a	n/a	n/a	120.075	n/a
91.779	10.014	ITI	Fixation+	10.425	n/a	1	n/a	n/a	n/a	n/a	n/a	n/a	n/a	n/a	n/a	n/a	120.605	n/a
112.217	n/a	ConfirmRating	Rate	n/a	10.395	1	n/a	n/a	0	n/a	n/a	n/a	2	Angry	35	49	141.043	n/a
115.3	n/a	ConfirmRating	Rate	n/a	3.067	1	n/a	n/a	1	n/a	n/a	n/a	3	Angry	0	49	144.126	n/a
115.32	10.014	ITI	Fixation+	97.315	n/a	2	n/a	n/a	n/a	n/a	n/a	n/a	n/a	n/a	n/a	n/a	144.147	n/a
125.35	0.497	happy	Picture	96.801	n/a	2	4	1	n/a	61	119	3	n/a	n/a	n/a	n/a	154.177	BM28ANS.jpg
125.848	0.514	Blank	Blank	96.287	n/a	2	4	1	n/a	61	n/a	3	n/a	n/a	n/a	n/a	154.674	n/a
126.378	0.497	happy	Picture	95.773	n/a	2	4	2	n/a	62	100	3	n/a	n/a	n/a	n/a	155.205	AF32ANS.jpg
126.876	0.514	Blank	Blank	95.259	n/a	2	4	2	n/a	62	n/a	3	n/a	n/a	n/a	n/a	155.702	n/a
127.406	0.497	happy	Picture	94.745	n/a	2	4	3	n/a	63	118	3	n/a	n/a	n/a	n/a	156.233	BM26ANS.jpg
127.904	0.514	Blank	Blank	94.231	n/a	2	4	3	n/a	63	n/a	3	n/a	n/a	n/a	n/a	156.73	n/a
128.434	0.497	happy	Picture	93.717	n/a	2	4	4	n/a	64	89	3	n/a	n/a	n/a	n/a	157.261	AF17ANS.jpg
128.931	0.514	Blank	Blank	93.203	n/a	2	4	4	n/a	64	n/a	3	n/a	n/a	n/a	n/a	157.758	n/a
129.462	0.497	happy	Picture	92.689	n/a	2	4	5	n/a	65	116	3	n/a	n/a	n/a	n/a	158.288	BM24ANS.jpg
129.959	0.514	Blank	Blank	92.175	n/a	2	4	5	n/a	65	n/a	3	n/a	n/a	n/a	n/a	158.786	n/a
130.49	0.497	happy	Picture	91.661	n/a	2	4	6	n/a	66	105	3	n/a	n/a	n/a	n/a	159.316	BM06ANS.jpg
130.987	0.514	Blank	Blank	91.147	n/a	2	4	6	n/a	66	n/a	3	n/a	n/a	n/a	n/a	159.814	n/a
131.518	0.497	happy	Picture	90.633	n/a	2	4	7	n/a	67	106	3	n/a	n/a	n/a	n/a	160.344	AM07ANS.jpg
132.015	0.514	Blank	Blank	90.12	n/a	2	4	7	n/a	67	n/a	3	n/a	n/a	n/a	n/a	160.842	n/a
132.546	0.497	happy	Picture	89.606	n/a	2	4	8	n/a	68	94	3	n/a	n/a	n/a	n/a	161.372	AF23ANS.jpg
133.043	0.514	Blank	Blank	89.092	n/a	2	4	8	n/a	68	n/a	3	n/a	n/a	n/a	n/a	161.869	n/a
133.573	0.497	happy	Picture	88.578	n/a	2	4	9	n/a	69	117	3	n/a	n/a	n/a	n/a	162.4	BM25ANS.jpg
134.071	0.514	Blank	Blank	88.064	n/a	2	4	9	n/a	69	n/a	3	n/a	n/a	n/a	n/a	162.897	n/a
134.601	0.497	happy	Picture	87.55	n/a	2	4	10	n/a	70	90	3	n/a	n/a	n/a	n/a	163.428	AF18ANS.jpg
135.099	0.514	Blank	Blank	87.036	n/a	2	4	10	n/a	70	n/a	3	n/a	n/a	n/a	n/a	163.925	n/a
135.629	0.497	happy	Picture	86.522	n/a	2	4	11	n/a	71	83	3	n/a	n/a	n/a	n/a	164.456	BF04ANS.jpg
136.127	0.514	Blank	Blank	86.008	n/a	2	4	11	n/a	71	n/a	3	n/a	n/a	n/a	n/a	164.953	n/a
136.657	0.497	happy	Picture	85.494	n/a	2	4	12	n/a	72	112	3	n/a	n/a	n/a	n/a	165.484	AM14ANS.jpg
137.154	0.514	Blank	Blank	84.98	n/a	2	4	12	n/a	72	n/a	3	n/a	n/a	n/a	n/a	165.981	n/a
137.685	0.497	happy	Picture	84.466	n/a	2	4	13	n/a	73	102	3	n/a	n/a	n/a	n/a	166.512	BM03ANS.jpg
138.182	0.514	Blank	Blank	83.952	n/a	2	4	13	n/a	73	n/a	3	n/a	n/a	n/a	n/a	167.009	n/a
138.713	0.497	happy	Picture	83.438	n/a	2	4	14	n/a	74	95	3	n/a	n/a	n/a	n/a	167.539	AF25ANS.jpg
139.21	0.514	Blank	Blank	82.924	n/a	2	4	14	n/a	74	n/a	3	n/a	n/a	n/a	n/a	168.037	n/a
139.741	0.497	happy	Picture	82.41	n/a	2	4	15	n/a	75	113	3	n/a	n/a	n/a	n/a	168.567	AM21ANS.jpg
140.238	0.514	Blank	Blank	81.897	n/a	2	4	15	n/a	75	n/a	3	n/a	n/a	n/a	n/a	169.065	n/a
140.769	0.497	happy	Picture	81.383	n/a	2	4	16	n/a	76	88	3	n/a	n/a	n/a	n/a	169.595	AF14ANS.jpg
141.266	0.514	Blank	Blank	80.869	n/a	2	4	16	n/a	76	n/a	3	n/a	n/a	n/a	n/a	170.093	n/a
141.797	0.497	happy	Picture	80.355	n/a	2	4	17	n/a	77	93	3	n/a	n/a	n/a	n/a	170.623	BF22ANS.jpg
142.294	0.514	Blank	Blank	79.841	n/a	2	4	17	n/a	77	n/a	3	n/a	n/a	n/a	n/a	171.12	n/a
142.824	0.497	happy	Picture	79.327	n/a	2	4	18	n/a	78	86	3	n/a	n/a	n/a	n/a	171.651	AF09ANS.jpg
143.322	0.514	Blank	Blank	78.813	n/a	2	4	18	n/a	78	n/a	3	n/a	n/a	n/a	n/a	172.148	n/a
143.852	0.497	happy	Picture	78.299	n/a	2	4	19	n/a	79	92	3	n/a	n/a	n/a	n/a	172.679	AF21ANS.jpg
144.35	0.514	Blank	Blank	77.785	n/a	2	4	19	n/a	79	n/a	3	n/a	n/a	n/a	n/a	173.176	n/a
144.88	0.497	happy	Picture	77.271	n/a	2	4	20	n/a	80	84	3	n/a	n/a	n/a	n/a	173.707	AF05ANS.jpg
145.378	0.514	Blank	Blank	76.757	n/a	2	4	20	n/a	80	n/a	3	n/a	n/a	n/a	n/a	174.204	n/a
145.908	10.014	ITI	Fixation+	66.727	n/a	2	n/a	n/a	n/a	n/a	n/a	n/a	n/a	n/a	n/a	n/a	174.735	n/a
155.938	0.497	neutral	Picture	66.213	n/a	2	5	1	n/a	81	4	1	n/a	n/a	n/a	n/a	184.765	AF05NES.jpg
156.436	0.514	Blank	Blank	65.699	n/a	2	5	1	n/a	81	n/a	1	n/a	n/a	n/a	n/a	185.262	n/a
156.966	0.497	neutral	Picture	65.185	n/a	2	5	2	n/a	82	14	1	n/a	n/a	n/a	n/a	185.793	AF23NES.jpg
157.463	0.514	Blank	Blank	64.671	n/a	2	5	2	n/a	82	n/a	1	n/a	n/a	n/a	n/a	186.29	n/a
157.994	0.497	neutral	Picture	64.157	n/a	2	5	3	n/a	83	19	1	n/a	n/a	n/a	n/a	186.821	AF31NES.jpg
158.491	0.514	Blank	Blank	63.643	n/a	2	5	3	n/a	83	n/a	1	n/a	n/a	n/a	n/a	187.318	n/a
159.022	0.497	neutral	Picture	63.129	n/a	2	5	4	n/a	84	8	1	n/a	n/a	n/a	n/a	187.848	AF14NES.jpg
159.519	0.514	Blank	Blank	62.615	n/a	2	5	4	n/a	84	n/a	1	n/a	n/a	n/a	n/a	188.346	n/a
160.05	0.497	neutral	Picture	62.101	n/a	2	5	5	n/a	85	25	1	n/a	n/a	n/a	n/a	188.876	BM06NES.jpg
160.547	0.514	Blank	Blank	61.587	n/a	2	5	5	n/a	85	n/a	1	n/a	n/a	n/a	n/a	189.374	n/a
161.078	0.497	neutral	Picture	61.074	n/a	2	5	6	n/a	86	9	1	n/a	n/a	n/a	n/a	189.904	AF17NES.jpg
161.575	0.514	Blank	Blank	60.56	n/a	2	5	6	n/a	86	n/a	1	n/a	n/a	n/a	n/a	190.401	n/a
162.105	0.497	neutral	Picture	60.046	n/a	2	5	7	n/a	87	2	1	n/a	n/a	n/a	n/a	190.932	AF03NES.jpg
162.603	0.514	Blank	Blank	59.532	n/a	2	5	7	n/a	87	n/a	1	n/a	n/a	n/a	n/a	191.429	n/a
163.133	0.497	neutral	Picture	59.018	n/a	2	5	8	n/a	88	17	1	n/a	n/a	n/a	n/a	191.96	BF28NES.jpg
163.631	0.514	Blank	Blank	58.504	n/a	2	5	8	n/a	88	n/a	1	n/a	n/a	n/a	n/a	192.457	n/a
164.161	0.497	neutral	Picture	57.99	n/a	2	5	9	n/a	89	6	1	n/a	n/a	n/a	n/a	192.988	AF09NES.jpg
164.659	0.514	Blank	Blank	57.476	n/a	2	5	9	n/a	89	n/a	1	n/a	n/a	n/a	n/a	193.485	n/a
165.189	0.497	neutral	Picture	56.962	n/a	2	5	10	n/a	90	12	1	n/a	n/a	n/a	n/a	194.016	AF21NES.jpg
165.686	0.514	Blank	Blank	56.448	n/a	2	5	10	n/a	90	n/a	1	n/a	n/a	n/a	n/a	194.513	n/a
166.217	0.497	neutral	Picture	55.934	n/a	2	5	11	n/a	91	24	1	n/a	n/a	n/a	n/a	195.044	BM05NES.jpg
166.714	0.514	Blank	Blank	55.42	n/a	2	5	11	n/a	91	n/a	1	n/a	n/a	n/a	n/a	195.541	n/a
167.245	0.497	neutral	Picture	54.906	n/a	2	5	12	n/a	92	34	1	n/a	n/a	n/a	n/a	196.071	AM22NES.jpg
167.742	0.514	Blank	Blank	54.392	n/a	2	5	12	n/a	92	n/a	1	n/a	n/a	n/a	n/a	196.569	n/a
168.273	0.497	neutral	Picture	53.878	n/a	2	5	13	n/a	93	23	1	n/a	n/a	n/a	n/a	197.099	AM04NES.jpg
168.77	0.514	Blank	Blank	53.364	n/a	2	5	13	n/a	93	n/a	1	n/a	n/a	n/a	n/a	197.597	n/a
169.301	0.497	neutral	Picture	52.851	n/a	2	5	14	n/a	94	15	1	n/a	n/a	n/a	n/a	198.127	AF25NES.jpg
169.798	0.514	Blank	Blank	52.337	n/a	2	5	14	n/a	94	n/a	1	n/a	n/a	n/a	n/a	198.625	n/a
170.329	0.497	neutral	Picture	51.823	n/a	2	5	15	n/a	95	37	1	n/a	n/a	n/a	n/a	199.155	BM25NES.jpg
170.826	0.514	Blank	Blank	51.309	n/a	2	5	15	n/a	95	n/a	1	n/a	n/a	n/a	n/a	199.652	n/a
171.356	0.497	neutral	Picture	50.795	n/a	2	5	16	n/a	96	32	1	n/a	n/a	n/a	n/a	200.183	AM14NES.jpg
171.854	0.514	Blank	Blank	50.281	n/a	2	5	16	n/a	96	n/a	1	n/a	n/a	n/a	n/a	200.68	n/a
172.384	0.497	neutral	Picture	49.767	n/a	2	5	17	n/a	97	3	1	n/a	n/a	n/a	n/a	201.211	BF04NES.jpg
172.882	0.514	Blank	Blank	49.253	n/a	2	5	17	n/a	97	n/a	1	n/a	n/a	n/a	n/a	201.708	n/a
173.412	0.497	neutral	Picture	48.739	n/a	2	5	18	n/a	98	16	1	n/a	n/a	n/a	n/a	202.239	AF26NES.jpg
173.91	0.514	Blank	Blank	48.225	n/a	2	5	18	n/a	98	n/a	1	n/a	n/a	n/a	n/a	202.736	n/a
174.44	0.497	neutral	Picture	47.711	n/a	2	5	19	n/a	99	27	1	n/a	n/a	n/a	n/a	203.267	BM08NES.jpg
174.937	0.514	Blank	Blank	47.197	n/a	2	5	19	n/a	99	n/a	1	n/a	n/a	n/a	n/a	203.764	n/a
175.468	0.497	neutral	Picture	46.683	n/a	2	5	20	n/a	100	28	1	n/a	n/a	n/a	n/a	204.294	AM09NES.jpg
175.965	0.514	Blank	Blank	46.169	n/a	2	5	20	n/a	100	n/a	1	n/a	n/a	n/a	n/a	204.792	n/a
176.496	10.014	ITI	Fixation+	36.139	n/a	2	n/a	n/a	n/a	n/a	n/a	n/a	n/a	n/a	n/a	n/a	205.322	n/a
186.526	0.497	happy	Picture	35.625	n/a	2	6	1	n/a	101	81	3	n/a	n/a	n/a	n/a	215.352	AF01ANS.jpg
187.023	0.514	Blank	Blank	35.111	n/a	2	6	1	n/a	101	n/a	3	n/a	n/a	n/a	n/a	215.85	n/a
187.554	0.497	happy	Picture	34.597	n/a	2	6	2	n/a	102	120	3	n/a	n/a	n/a	n/a	216.38	AM35ANS.jpg
188.051	0.514	Blank	Blank	34.083	n/a	2	6	2	n/a	102	n/a	3	n/a	n/a	n/a	n/a	216.878	n/a
188.582	0.497	happy	Picture	33.57	n/a	2	6	3	n/a	103	114	3	n/a	n/a	n/a	n/a	217.408	AM22ANS.jpg
189.079	0.514	Blank	Blank	33.055	n/a	2	6	3	n/a	103	n/a	3	n/a	n/a	n/a	n/a	217.906	n/a
189.61	0.497	happy	Picture	32.542	n/a	2	6	4	n/a	104	109	3	n/a	n/a	n/a	n/a	218.436	AM10ANS.jpg
190.107	0.514	Blank	Blank	32.028	n/a	2	6	4	n/a	104	n/a	3	n/a	n/a	n/a	n/a	218.934	n/a
190.637	0.497	happy	Picture	31.514	n/a	2	6	5	n/a	105	96	3	n/a	n/a	n/a	n/a	219.464	AF26ANS.jpg
191.135	0.514	Blank	Blank	31.0	n/a	2	6	5	n/a	105	n/a	3	n/a	n/a	n/a	n/a	219.961	n/a
191.665	0.497	happy	Picture	30.486	n/a	2	6	6	n/a	106	82	3	n/a	n/a	n/a	n/a	220.492	AF03ANS.jpg
192.163	0.514	Blank	Blank	29.972	n/a	2	6	6	n/a	106	n/a	3	n/a	n/a	n/a	n/a	220.989	n/a
192.693	0.497	happy	Picture	29.458	n/a	2	6	7	n/a	107	97	3	n/a	n/a	n/a	n/a	221.52	BF28ANS.jpg
193.191	0.514	Blank	Blank	28.944	n/a	2	6	7	n/a	107	n/a	3	n/a	n/a	n/a	n/a	222.017	n/a
193.721	0.497	happy	Picture	28.43	n/a	2	6	8	n/a	108	115	3	n/a	n/a	n/a	n/a	222.548	AM23ANS.jpg
194.218	0.514	Blank	Blank	27.916	n/a	2	6	8	n/a	108	n/a	3	n/a	n/a	n/a	n/a	223.045	n/a
194.749	0.497	happy	Picture	27.402	n/a	2	6	9	n/a	109	91	3	n/a	n/a	n/a	n/a	223.576	AF20ANS.jpg
195.246	0.514	Blank	Blank	26.888	n/a	2	6	9	n/a	109	n/a	3	n/a	n/a	n/a	n/a	224.073	n/a
195.777	0.497	happy	Picture	26.374	n/a	2	6	10	n/a	110	87	3	n/a	n/a	n/a	n/a	224.603	BF11ANS.jpg
196.274	0.514	Blank	Blank	25.86	n/a	2	6	10	n/a	110	n/a	3	n/a	n/a	n/a	n/a	225.101	n/a
196.805	0.497	happy	Picture	25.346	n/a	2	6	11	n/a	111	85	3	n/a	n/a	n/a	n/a	225.631	BF07ANS.jpg
197.302	0.514	Blank	Blank	24.832	n/a	2	6	11	n/a	111	n/a	3	n/a	n/a	n/a	n/a	226.129	n/a
197.833	0.497	happy	Picture	24.319	n/a	2	6	12	n/a	112	110	3	n/a	n/a	n/a	n/a	226.659	AM11ANS.jpg
198.33	0.514	Blank	Blank	23.805	n/a	2	6	12	n/a	112	n/a	3	n/a	n/a	n/a	n/a	227.157	n/a
198.861	0.497	happy	Picture	23.291	n/a	2	6	13	n/a	113	111	3	n/a	n/a	n/a	n/a	227.687	BM12ANS.jpg
199.358	0.514	Blank	Blank	22.777	n/a	2	6	13	n/a	113	n/a	3	n/a	n/a	n/a	n/a	228.185	n/a
199.888	0.497	happy	Picture	22.263	n/a	2	6	14	n/a	114	103	3	n/a	n/a	n/a	n/a	228.715	AM04ANS.jpg
200.386	0.514	Blank	Blank	21.749	n/a	2	6	14	n/a	114	n/a	3	n/a	n/a	n/a	n/a	229.212	n/a
200.916	0.497	happy	Picture	21.235	n/a	2	6	15	n/a	115	101	3	n/a	n/a	n/a	n/a	229.743	AM01ANS.jpg
201.414	0.514	Blank	Blank	20.721	n/a	2	6	15	n/a	115	n/a	3	n/a	n/a	n/a	n/a	230.24	n/a
201.944	0.497	happy	Picture	20.207	n/a	2	6	16	n/a	116	104	3	n/a	n/a	n/a	n/a	230.771	BM05ANS.jpg
202.442	0.514	Blank	Blank	19.693	n/a	2	6	16	n/a	116	n/a	3	n/a	n/a	n/a	n/a	231.268	n/a
202.972	0.497	happy	Picture	19.179	n/a	2	6	17	n/a	117	107	3	n/a	n/a	n/a	n/a	231.799	BM08ANS.jpg
203.469	0.514	Blank	Blank	18.665	n/a	2	6	17	n/a	117	n/a	3	n/a	n/a	n/a	n/a	232.296	n/a
204.0	0.497	happy	Picture	18.151	n/a	2	6	18	n/a	118	98	3	n/a	n/a	n/a	n/a	232.827	BF29ANS.jpg
204.497	0.514	Blank	Blank	17.637	n/a	2	6	18	n/a	118	n/a	3	n/a	n/a	n/a	n/a	233.324	n/a
205.028	0.497	happy	Picture	17.123	n/a	2	6	19	n/a	119	99	3	n/a	n/a	n/a	n/a	233.854	AF31ANS.jpg
205.525	0.514	Blank	Blank	16.609	n/a	2	6	19	n/a	119	n/a	3	n/a	n/a	n/a	n/a	234.352	n/a
206.056	0.497	happy	Picture	16.096	n/a	2	6	20	n/a	120	108	3	n/a	n/a	n/a	n/a	234.882	AM09ANS.jpg
206.553	0.514	Blank	Blank	15.581	n/a	2	6	20	n/a	120	n/a	3	n/a	n/a	n/a	n/a	235.38	n/a
207.084	10.014	ITI	Fixation+	5.551	n/a	2	n/a	n/a	n/a	n/a	n/a	n/a	n/a	n/a	n/a	n/a	235.91	n/a
222.649	n/a	ConfirmRating	Rate	n/a	5.537	2	n/a	n/a	0	n/a	n/a	n/a	2	Happy	67	50	251.475	n/a
224.839	n/a	ConfirmRating	Rate	n/a	2.172	2	n/a	n/a	1	n/a	n/a	n/a	3	Happy	0	49	253.665	n/a
224.856	15.004	Rest	Picture	n/a	n/a	n/a	n/a	n/a	n/a	n/a	n/a	n/a	0	n/a	0	0	253.683	n/a
239.876	10.014	ITI	Fixation+	95.634	n/a	3	n/a	n/a	n/a	n/a	n/a	n/a	n/a	n/a	n/a	n/a	268.703	n/a
249.906	0.497	angry	Picture	95.121	n/a	3	7	1	n/a	1	46	2	n/a	n/a	n/a	n/a	278.733	AF09HAS.jpg
250.404	0.514	Blank	Blank	94.607	n/a	3	7	1	n/a	1	n/a	2	n/a	n/a	n/a	n/a	279.23	n/a
250.934	0.497	angry	Picture	94.093	n/a	3	7	2	n/a	2	69	2	n/a	n/a	n/a	n/a	279.761	AM10HAS.jpg
251.432	0.514	Blank	Blank	93.579	n/a	3	7	2	n/a	2	n/a	2	n/a	n/a	n/a	n/a	280.258	n/a
251.962	0.497	angry	Picture	93.065	n/a	3	7	3	n/a	3	71	2	n/a	n/a	n/a	n/a	280.789	BM12HAS.jpg
252.46	0.514	Blank	Blank	92.551	n/a	3	7	3	n/a	3	n/a	2	n/a	n/a	n/a	n/a	281.286	n/a
252.99	0.497	angry	Picture	92.037	n/a	3	7	4	n/a	4	51	2	n/a	n/a	n/a	n/a	281.817	AF20HAS.jpg
253.488	0.514	Blank	Blank	91.523	n/a	3	7	4	n/a	4	n/a	2	n/a	n/a	n/a	n/a	282.314	n/a
254.018	0.497	angry	Picture	91.009	n/a	3	7	5	n/a	5	67	2	n/a	n/a	n/a	n/a	282.845	BM08HAS.jpg
254.515	0.514	Blank	Blank	90.495	n/a	3	7	5	n/a	5	n/a	2	n/a	n/a	n/a	n/a	283.342	n/a
255.046	0.497	angry	Picture	89.981	n/a	3	7	6	n/a	6	60	2	n/a	n/a	n/a	n/a	283.873	AF32HAS.jpg
255.543	0.514	Blank	Blank	89.467	n/a	3	7	6	n/a	6	n/a	2	n/a	n/a	n/a	n/a	284.37	n/a
256.074	0.497	angry	Picture	88.953	n/a	3	7	7	n/a	7	42	2	n/a	n/a	n/a	n/a	284.9	AF03HAS.jpg
256.571	0.514	Blank	Blank	88.439	n/a	3	7	7	n/a	7	n/a	2	n/a	n/a	n/a	n/a	285.398	n/a
257.102	0.497	angry	Picture	87.925	n/a	3	7	8	n/a	8	55	2	n/a	n/a	n/a	n/a	285.928	AF25HAS.jpg
257.599	0.514	Blank	Blank	87.411	n/a	3	7	8	n/a	8	n/a	2	n/a	n/a	n/a	n/a	286.426	n/a
258.13	0.497	angry	Picture	86.897	n/a	3	7	9	n/a	9	72	2	n/a	n/a	n/a	n/a	286.956	AM14HAS.jpg
258.627	0.514	Blank	Blank	86.384	n/a	3	7	9	n/a	9	n/a	2	n/a	n/a	n/a	n/a	287.454	n/a
259.157	0.497	angry	Picture	85.87	n/a	3	7	10	n/a	10	63	2	n/a	n/a	n/a	n/a	287.984	AM04HAS.jpg
259.655	0.514	Blank	Blank	85.356	n/a	3	7	10	n/a	10	n/a	2	n/a	n/a	n/a	n/a	288.481	n/a
260.185	0.497	angry	Picture	84.842	n/a	3	7	11	n/a	11	58	2	n/a	n/a	n/a	n/a	289.012	BF29HAS.jpg
260.683	0.514	Blank	Blank	84.328	n/a	3	7	11	n/a	11	n/a	2	n/a	n/a	n/a	n/a	289.509	n/a
261.213	0.497	angry	Picture	83.814	n/a	3	7	12	n/a	12	48	2	n/a	n/a	n/a	n/a	290.04	AF14HAS.jpg
261.711	0.514	Blank	Blank	83.3	n/a	3	7	12	n/a	12	n/a	2	n/a	n/a	n/a	n/a	290.537	n/a
262.241	0.497	angry	Picture	82.786	n/a	3	7	13	n/a	13	66	2	n/a	n/a	n/a	n/a	291.068	BM07HAS.jpg
262.738	0.514	Blank	Blank	82.272	n/a	3	7	13	n/a	13	n/a	2	n/a	n/a	n/a	n/a	291.565	n/a
263.269	0.497	angry	Picture	81.758	n/a	3	7	14	n/a	14	70	2	n/a	n/a	n/a	n/a	292.096	BM11HAS.jpg
263.766	0.514	Blank	Blank	81.244	n/a	3	7	14	n/a	14	n/a	2	n/a	n/a	n/a	n/a	292.593	n/a
264.297	0.497	angry	Picture	80.73	n/a	3	7	15	n/a	15	43	2	n/a	n/a	n/a	n/a	293.123	BF04HAS.jpg
264.794	0.514	Blank	Blank	80.216	n/a	3	7	15	n/a	15	n/a	2	n/a	n/a	n/a	n/a	293.621	n/a
265.325	0.497	angry	Picture	79.702	n/a	3	7	16	n/a	16	49	2	n/a	n/a	n/a	n/a	294.151	AF17HAS.jpg
265.822	0.514	Blank	Blank	79.188	n/a	3	7	16	n/a	16	n/a	2	n/a	n/a	n/a	n/a	294.649	n/a
266.353	0.497	angry	Picture	78.674	n/a	3	7	17	n/a	17	75	2	n/a	n/a	n/a	n/a	295.179	AM23HAS.jpg
266.85	0.514	Blank	Blank	78.16	n/a	3	7	17	n/a	17	n/a	2	n/a	n/a	n/a	n/a	295.676	n/a
267.38	0.497	angry	Picture	77.647	n/a	3	7	18	n/a	18	80	2	n/a	n/a	n/a	n/a	296.207	BM35HAS.jpg
267.878	0.514	Blank	Blank	77.133	n/a	3	7	18	n/a	18	n/a	2	n/a	n/a	n/a	n/a	296.704	n/a
268.408	0.497	angry	Picture	76.619	n/a	3	7	19	n/a	19	76	2	n/a	n/a	n/a	n/a	297.235	BM24HAS.jpg
268.906	0.514	Blank	Blank	76.105	n/a	3	7	19	n/a	19	n/a	2	n/a	n/a	n/a	n/a	297.732	n/a
269.436	0.497	angry	Picture	75.591	n/a	3	7	20	n/a	20	74	2	n/a	n/a	n/a	n/a	298.263	AM22HAS.jpg
269.934	0.514	Blank	Blank	75.077	n/a	3	7	20	n/a	20	n/a	2	n/a	n/a	n/a	n/a	298.76	n/a
270.464	10.014	ITI	Fixation+	65.047	n/a	3	n/a	n/a	n/a	n/a	n/a	n/a	n/a	n/a	n/a	n/a	299.291	n/a
280.494	0.497	neutral	Picture	64.533	n/a	3	8	1	n/a	21	33	1	n/a	n/a	n/a	n/a	309.321	AM21NES.jpg
280.992	0.514	Blank	Blank	64.019	n/a	3	8	1	n/a	21	n/a	1	n/a	n/a	n/a	n/a	309.818	n/a
281.522	0.497	neutral	Picture	63.505	n/a	3	8	2	n/a	22	39	1	n/a	n/a	n/a	n/a	310.349	AM28NES.jpg
282.02	0.514	Blank	Blank	62.991	n/a	3	8	2	n/a	22	n/a	1	n/a	n/a	n/a	n/a	310.846	n/a
282.55	0.497	neutral	Picture	62.477	n/a	3	8	3	n/a	23	25	1	n/a	n/a	n/a	n/a	311.377	BM06NES.jpg
283.047	0.514	Blank	Blank	61.963	n/a	3	8	3	n/a	23	n/a	1	n/a	n/a	n/a	n/a	311.874	n/a
283.578	0.497	neutral	Picture	61.449	n/a	3	8	4	n/a	24	5	1	n/a	n/a	n/a	n/a	312.404	BF07NES.jpg
284.075	0.514	Blank	Blank	60.935	n/a	3	8	4	n/a	24	n/a	1	n/a	n/a	n/a	n/a	312.902	n/a
284.606	0.497	neutral	Picture	60.421	n/a	3	8	5	n/a	25	10	1	n/a	n/a	n/a	n/a	313.432	AF18NES.jpg
285.103	0.514	Blank	Blank	59.907	n/a	3	8	5	n/a	25	n/a	1	n/a	n/a	n/a	n/a	313.93	n/a
285.634	0.497	neutral	Picture	59.393	n/a	3	8	6	n/a	26	34	1	n/a	n/a	n/a	n/a	314.46	AM22NES.jpg
286.131	0.514	Blank	Blank	58.879	n/a	3	8	6	n/a	26	n/a	1	n/a	n/a	n/a	n/a	314.958	n/a
286.662	0.497	neutral	Picture	58.365	n/a	3	8	7	n/a	27	36	1	n/a	n/a	n/a	n/a	315.488	BM24NES.jpg
287.159	0.514	Blank	Blank	57.852	n/a	3	8	7	n/a	27	n/a	1	n/a	n/a	n/a	n/a	315.986	n/a
287.69	0.497	neutral	Picture	57.337	n/a	3	8	8	n/a	28	14	1	n/a	n/a	n/a	n/a	316.516	AF23NES.jpg
288.187	0.514	Blank	Blank	56.824	n/a	3	8	8	n/a	28	n/a	1	n/a	n/a	n/a	n/a	317.013	n/a
288.717	0.497	neutral	Picture	56.31	n/a	3	8	9	n/a	29	9	1	n/a	n/a	n/a	n/a	317.544	AF17NES.jpg
289.215	0.514	Blank	Blank	55.796	n/a	3	8	9	n/a	29	n/a	1	n/a	n/a	n/a	n/a	318.041	n/a
289.745	0.497	neutral	Picture	55.282	n/a	3	8	10	n/a	30	19	1	n/a	n/a	n/a	n/a	318.572	AF31NES.jpg
290.243	0.514	Blank	Blank	54.768	n/a	3	8	10	n/a	30	n/a	1	n/a	n/a	n/a	n/a	319.069	n/a
290.773	0.497	neutral	Picture	54.254	n/a	3	8	11	n/a	31	15	1	n/a	n/a	n/a	n/a	319.6	AF25NES.jpg
291.27	0.514	Blank	Blank	53.74	n/a	3	8	11	n/a	31	n/a	1	n/a	n/a	n/a	n/a	320.097	n/a
291.801	0.497	neutral	Picture	53.226	n/a	3	8	12	n/a	32	22	1	n/a	n/a	n/a	n/a	320.627	BM03NES.jpg
292.298	0.514	Blank	Blank	52.712	n/a	3	8	12	n/a	32	n/a	1	n/a	n/a	n/a	n/a	321.125	n/a
292.829	0.497	neutral	Picture	52.198	n/a	3	8	13	n/a	33	11	1	n/a	n/a	n/a	n/a	321.655	AF20NES.jpg
293.326	0.514	Blank	Blank	51.684	n/a	3	8	13	n/a	33	n/a	1	n/a	n/a	n/a	n/a	322.153	n/a
293.857	0.497	neutral	Picture	51.17	n/a	3	8	14	n/a	34	4	1	n/a	n/a	n/a	n/a	322.683	AF05NES.jpg
294.354	0.514	Blank	Blank	50.656	n/a	3	8	14	n/a	34	n/a	1	n/a	n/a	n/a	n/a	323.181	n/a
294.885	0.497	neutral	Picture	50.142	n/a	3	8	15	n/a	35	17	1	n/a	n/a	n/a	n/a	323.711	BF28NES.jpg
295.382	0.514	Blank	Blank	49.628	n/a	3	8	15	n/a	35	n/a	1	n/a	n/a	n/a	n/a	324.209	n/a
295.913	0.497	neutral	Picture	49.115	n/a	3	8	16	n/a	36	13	1	n/a	n/a	n/a	n/a	324.739	BF22NES.jpg
296.41	0.514	Blank	Blank	48.601	n/a	3	8	16	n/a	36	n/a	1	n/a	n/a	n/a	n/a	325.236	n/a
296.94	0.497	neutral	Picture	48.087	n/a	3	8	17	n/a	37	12	1	n/a	n/a	n/a	n/a	325.767	AF21NES.jpg
297.438	0.514	Blank	Blank	47.573	n/a	3	8	17	n/a	37	n/a	1	n/a	n/a	n/a	n/a	326.264	n/a
297.968	0.497	neutral	Picture	47.059	n/a	3	8	18	n/a	38	24	1	n/a	n/a	n/a	n/a	326.795	BM05NES.jpg
298.466	0.514	Blank	Blank	46.545	n/a	3	8	18	n/a	38	n/a	1	n/a	n/a	n/a	n/a	327.292	n/a
298.996	0.497	neutral	Picture	46.031	n/a	3	8	19	n/a	39	29	1	n/a	n/a	n/a	n/a	327.823	AM10NES.jpg
299.494	0.514	Blank	Blank	45.517	n/a	3	8	19	n/a	39	n/a	1	n/a	n/a	n/a	n/a	328.32	n/a
300.024	0.497	neutral	Picture	45.003	n/a	3	8	20	n/a	40	23	1	n/a	n/a	n/a	n/a	328.851	AM04NES.jpg
300.521	0.514	Blank	Blank	44.489	n/a	3	8	20	n/a	40	n/a	1	n/a	n/a	n/a	n/a	329.348	n/a
301.052	10.014	ITI	Fixation+	34.459	n/a	3	n/a	n/a	n/a	n/a	n/a	n/a	n/a	n/a	n/a	n/a	329.878	n/a
311.082	0.497	angry	Picture	33.945	n/a	3	9	1	n/a	41	62	2	n/a	n/a	n/a	n/a	339.909	BM03HAS.jpg
311.579	0.514	Blank	Blank	33.431	n/a	3	9	1	n/a	41	n/a	2	n/a	n/a	n/a	n/a	340.406	n/a
312.11	0.497	angry	Picture	32.917	n/a	3	9	2	n/a	42	52	2	n/a	n/a	n/a	n/a	340.937	AF21HAS.jpg
312.607	0.514	Blank	Blank	32.403	n/a	3	9	2	n/a	42	n/a	2	n/a	n/a	n/a	n/a	341.434	n/a
313.138	0.497	angry	Picture	31.889	n/a	3	9	3	n/a	43	44	2	n/a	n/a	n/a	n/a	341.964	AF05HAS.jpg
313.635	0.514	Blank	Blank	31.375	n/a	3	9	3	n/a	43	n/a	2	n/a	n/a	n/a	n/a	342.462	n/a
314.166	0.497	angry	Picture	30.861	n/a	3	9	4	n/a	44	53	2	n/a	n/a	n/a	n/a	342.992	BF22HAS.jpg
314.663	0.514	Blank	Blank	30.347	n/a	3	9	4	n/a	44	n/a	2	n/a	n/a	n/a	n/a	343.49	n/a
315.194	0.497	angry	Picture	29.833	n/a	3	9	5	n/a	45	54	2	n/a	n/a	n/a	n/a	344.02	AF23HAS.jpg
315.691	0.514	Blank	Blank	29.32	n/a	3	9	5	n/a	45	n/a	2	n/a	n/a	n/a	n/a	344.517	n/a
316.221	0.497	angry	Picture	28.806	n/a	3	9	6	n/a	46	68	2	n/a	n/a	n/a	n/a	345.048	AM09HAS.jpg
316.719	0.514	Blank	Blank	28.292	n/a	3	9	6	n/a	46	n/a	2	n/a	n/a	n/a	n/a	345.545	n/a
317.249	0.497	angry	Picture	27.778	n/a	3	9	7	n/a	47	64	2	n/a	n/a	n/a	n/a	346.076	BM05HAS.jpg
317.747	0.514	Blank	Blank	27.264	n/a	3	9	7	n/a	47	n/a	2	n/a	n/a	n/a	n/a	346.573	n/a
318.277	0.497	angry	Picture	26.75	n/a	3	9	8	n/a	48	59	2	n/a	n/a	n/a	n/a	347.104	AF31HAS.jpg
318.775	0.514	Blank	Blank	26.236	n/a	3	9	8	n/a	48	n/a	2	n/a	n/a	n/a	n/a	347.601	n/a
319.305	0.497	angry	Picture	25.722	n/a	3	9	9	n/a	49	41	2	n/a	n/a	n/a	n/a	348.132	AF01HAS.jpg
319.803	0.514	Blank	Blank	25.208	n/a	3	9	9	n/a	49	n/a	2	n/a	n/a	n/a	n/a	348.629	n/a
320.333	0.497	angry	Picture	24.694	n/a	3	9	10	n/a	50	73	2	n/a	n/a	n/a	n/a	349.159	AM21HAS.jpg
320.83	0.514	Blank	Blank	24.18	n/a	3	9	10	n/a	50	n/a	2	n/a	n/a	n/a	n/a	349.657	n/a
321.361	0.497	angry	Picture	23.666	n/a	3	9	11	n/a	51	65	2	n/a	n/a	n/a	n/a	350.187	BM06HAS.jpg
321.858	0.514	Blank	Blank	23.152	n/a	3	9	11	n/a	51	n/a	2	n/a	n/a	n/a	n/a	350.685	n/a
322.389	0.497	angry	Picture	22.638	n/a	3	9	12	n/a	52	56	2	n/a	n/a	n/a	n/a	351.215	AF26HAS.jpg
322.886	0.514	Blank	Blank	22.124	n/a	3	9	12	n/a	52	n/a	2	n/a	n/a	n/a	n/a	351.713	n/a
323.417	0.497	angry	Picture	21.61	n/a	3	9	13	n/a	53	45	2	n/a	n/a	n/a	n/a	352.243	BF07HAS.jpg
323.914	0.514	Blank	Blank	21.096	n/a	3	9	13	n/a	53	n/a	2	n/a	n/a	n/a	n/a	352.74	n/a
324.445	0.497	angry	Picture	20.583	n/a	3	9	14	n/a	54	78	2	n/a	n/a	n/a	n/a	353.271	BM26HAS.jpg
324.942	0.514	Blank	Blank	20.069	n/a	3	9	14	n/a	54	n/a	2	n/a	n/a	n/a	n/a	353.768	n/a
325.472	0.497	angry	Picture	19.555	n/a	3	9	15	n/a	55	50	2	n/a	n/a	n/a	n/a	354.299	AF18HAS.jpg
325.97	0.514	Blank	Blank	19.041	n/a	3	9	15	n/a	55	n/a	2	n/a	n/a	n/a	n/a	354.796	n/a
326.5	0.497	angry	Picture	18.527	n/a	3	9	16	n/a	56	47	2	n/a	n/a	n/a	n/a	355.327	BF11HAS.jpg
326.997	0.514	Blank	Blank	18.013	n/a	3	9	16	n/a	56	n/a	2	n/a	n/a	n/a	n/a	355.824	n/a
327.528	0.497	angry	Picture	17.499	n/a	3	9	17	n/a	57	77	2	n/a	n/a	n/a	n/a	356.355	BM25HAS.jpg
328.026	0.514	Blank	Blank	16.985	n/a	3	9	17	n/a	57	n/a	2	n/a	n/a	n/a	n/a	356.852	n/a
328.556	0.497	angry	Picture	16.471	n/a	3	9	18	n/a	58	57	2	n/a	n/a	n/a	n/a	357.383	BF28HAS.jpg
329.053	0.514	Blank	Blank	15.957	n/a	3	9	18	n/a	58	n/a	2	n/a	n/a	n/a	n/a	357.88	n/a
329.584	0.497	angry	Picture	15.443	n/a	3	9	19	n/a	59	61	2	n/a	n/a	n/a	n/a	358.411	AM01HAS.jpg
330.081	0.514	Blank	Blank	14.929	n/a	3	9	19	n/a	59	n/a	2	n/a	n/a	n/a	n/a	358.908	n/a
330.612	0.497	angry	Picture	14.415	n/a	3	9	20	n/a	60	79	2	n/a	n/a	n/a	n/a	359.438	BM28HAS.jpg
331.109	0.514	Blank	Blank	13.901	n/a	3	9	20	n/a	60	n/a	2	n/a	n/a	n/a	n/a	359.936	n/a
331.64	10.014	ITI	Fixation+	3.871	n/a	3	n/a	n/a	n/a	n/a	n/a	n/a	n/a	n/a	n/a	n/a	360.466	n/a
345.524	n/a	ConfirmRating	Rate	n/a	3.863	3	n/a	n/a	0	n/a	n/a	n/a	2	Angry	50	50	374.351	n/a
347.366	n/a	ConfirmRating	Rate	n/a	1.824	3	n/a	n/a	1	n/a	n/a	n/a	3	Angry	0	49	376.193	n/a
347.389	10.014	ITI	Fixation+	96.409	n/a	4	n/a	n/a	n/a	n/a	n/a	n/a	n/a	n/a	n/a	n/a	376.216	n/a
357.42	0.497	happy	Picture	95.895	n/a	4	10	1	n/a	61	119	3	n/a	n/a	n/a	n/a	386.246	BM28ANS.jpg
357.917	0.514	Blank	Blank	95.381	n/a	4	10	1	n/a	61	n/a	3	n/a	n/a	n/a	n/a	386.743	n/a
358.448	0.497	happy	Picture	94.868	n/a	4	10	2	n/a	62	100	3	n/a	n/a	n/a	n/a	387.274	AF32ANS.jpg
358.945	0.514	Blank	Blank	94.353	n/a	4	10	2	n/a	62	n/a	3	n/a	n/a	n/a	n/a	387.771	n/a
359.475	0.497	happy	Picture	93.84	n/a	4	10	3	n/a	63	118	3	n/a	n/a	n/a	n/a	388.302	BM26ANS.jpg
359.973	0.514	Blank	Blank	93.326	n/a	4	10	3	n/a	63	n/a	3	n/a	n/a	n/a	n/a	388.799	n/a
360.503	0.497	happy	Picture	92.812	n/a	4	10	4	n/a	64	89	3	n/a	n/a	n/a	n/a	389.33	AF17ANS.jpg
361.001	0.514	Blank	Blank	92.298	n/a	4	10	4	n/a	64	n/a	3	n/a	n/a	n/a	n/a	389.827	n/a
361.531	0.497	happy	Picture	91.784	n/a	4	10	5	n/a	65	116	3	n/a	n/a	n/a	n/a	390.358	BM24ANS.jpg
362.029	0.514	Blank	Blank	91.27	n/a	4	10	5	n/a	65	n/a	3	n/a	n/a	n/a	n/a	390.855	n/a
362.559	0.497	happy	Picture	90.756	n/a	4	10	6	n/a	66	105	3	n/a	n/a	n/a	n/a	391.386	BM06ANS.jpg
363.056	0.514	Blank	Blank	90.242	n/a	4	10	6	n/a	66	n/a	3	n/a	n/a	n/a	n/a	391.883	n/a
363.587	0.497	happy	Picture	89.728	n/a	4	10	7	n/a	67	106	3	n/a	n/a	n/a	n/a	392.413	AM07ANS.jpg
364.084	0.514	Blank	Blank	89.214	n/a	4	10	7	n/a	67	n/a	3	n/a	n/a	n/a	n/a	392.911	n/a
364.615	0.497	happy	Picture	88.7	n/a	4	10	8	n/a	68	94	3	n/a	n/a	n/a	n/a	393.441	AF23ANS.jpg
365.112	0.514	Blank	Blank	88.186	n/a	4	10	8	n/a	68	n/a	3	n/a	n/a	n/a	n/a	393.939	n/a
365.643	0.497	happy	Picture	87.672	n/a	4	10	9	n/a	69	117	3	n/a	n/a	n/a	n/a	394.469	BM25ANS.jpg
366.14	0.514	Blank	Blank	87.158	n/a	4	10	9	n/a	69	n/a	3	n/a	n/a	n/a	n/a	394.967	n/a
366.671	0.497	happy	Picture	86.644	n/a	4	10	10	n/a	70	90	3	n/a	n/a	n/a	n/a	395.497	AF18ANS.jpg
367.168	0.514	Blank	Blank	86.13	n/a	4	10	10	n/a	70	n/a	3	n/a	n/a	n/a	n/a	395.995	n/a
367.698	0.497	happy	Picture	85.616	n/a	4	10	11	n/a	71	83	3	n/a	n/a	n/a	n/a	396.525	BF04ANS.jpg
368.196	0.514	Blank	Blank	85.103	n/a	4	10	11	n/a	71	n/a	3	n/a	n/a	n/a	n/a	397.022	n/a
368.726	0.497	happy	Picture	84.589	n/a	4	10	12	n/a	72	112	3	n/a	n/a	n/a	n/a	397.553	AM14ANS.jpg
369.224	0.514	Blank	Blank	84.075	n/a	4	10	12	n/a	72	n/a	3	n/a	n/a	n/a	n/a	398.05	n/a
369.754	0.497	happy	Picture	83.561	n/a	4	10	13	n/a	73	102	3	n/a	n/a	n/a	n/a	398.581	BM03ANS.jpg
370.252	0.514	Blank	Blank	83.047	n/a	4	10	13	n/a	73	n/a	3	n/a	n/a	n/a	n/a	399.078	n/a
370.782	0.497	happy	Picture	82.533	n/a	4	10	14	n/a	74	95	3	n/a	n/a	n/a	n/a	399.609	AF25ANS.jpg
371.279	0.514	Blank	Blank	82.019	n/a	4	10	14	n/a	74	n/a	3	n/a	n/a	n/a	n/a	400.106	n/a
371.81	0.497	happy	Picture	81.505	n/a	4	10	15	n/a	75	113	3	n/a	n/a	n/a	n/a	400.637	AM21ANS.jpg
372.307	0.514	Blank	Blank	80.991	n/a	4	10	15	n/a	75	n/a	3	n/a	n/a	n/a	n/a	401.134	n/a
372.838	0.497	happy	Picture	80.477	n/a	4	10	16	n/a	76	88	3	n/a	n/a	n/a	n/a	401.664	AF14ANS.jpg
373.335	0.514	Blank	Blank	79.963	n/a	4	10	16	n/a	76	n/a	3	n/a	n/a	n/a	n/a	402.162	n/a
373.866	0.497	happy	Picture	79.449	n/a	4	10	17	n/a	77	93	3	n/a	n/a	n/a	n/a	402.692	BF22ANS.jpg
374.363	0.514	Blank	Blank	78.935	n/a	4	10	17	n/a	77	n/a	3	n/a	n/a	n/a	n/a	403.19	n/a
374.894	0.497	happy	Picture	78.421	n/a	4	10	18	n/a	78	86	3	n/a	n/a	n/a	n/a	403.72	AF09ANS.jpg
375.391	0.514	Blank	Blank	77.907	n/a	4	10	18	n/a	78	n/a	3	n/a	n/a	n/a	n/a	404.217	n/a
375.922	0.497	happy	Picture	77.393	n/a	4	10	19	n/a	79	92	3	n/a	n/a	n/a	n/a	404.748	AF21ANS.jpg
376.419	0.514	Blank	Blank	76.879	n/a	4	10	19	n/a	79	n/a	3	n/a	n/a	n/a	n/a	405.245	n/a
376.949	0.497	happy	Picture	76.366	n/a	4	10	20	n/a	80	84	3	n/a	n/a	n/a	n/a	405.776	AF05ANS.jpg
377.447	0.514	Blank	Blank	75.852	n/a	4	10	20	n/a	80	n/a	3	n/a	n/a	n/a	n/a	406.273	n/a
377.977	10.014	ITI	Fixation+	65.821	n/a	4	n/a	n/a	n/a	n/a	n/a	n/a	n/a	n/a	n/a	n/a	406.804	n/a
388.007	0.497	neutral	Picture	65.308	n/a	4	11	1	n/a	81	4	1	n/a	n/a	n/a	n/a	416.834	AF05NES.jpg
388.505	0.514	Blank	Blank	64.794	n/a	4	11	1	n/a	81	n/a	1	n/a	n/a	n/a	n/a	417.331	n/a
389.035	0.497	neutral	Picture	64.28	n/a	4	11	2	n/a	82	14	1	n/a	n/a	n/a	n/a	417.862	AF23NES.jpg
389.533	0.514	Blank	Blank	63.766	n/a	4	11	2	n/a	82	n/a	1	n/a	n/a	n/a	n/a	418.359	n/a
390.063	0.497	neutral	Picture	63.252	n/a	4	11	3	n/a	83	19	1	n/a	n/a	n/a	n/a	418.89	AF31NES.jpg
390.561	0.514	Blank	Blank	62.738	n/a	4	11	3	n/a	83	n/a	1	n/a	n/a	n/a	n/a	419.387	n/a
391.091	0.497	neutral	Picture	62.224	n/a	4	11	4	n/a	84	8	1	n/a	n/a	n/a	n/a	419.918	AF14NES.jpg
391.589	0.514	Blank	Blank	61.71	n/a	4	11	4	n/a	84	n/a	1	n/a	n/a	n/a	n/a	420.415	n/a
392.119	0.497	neutral	Picture	61.196	n/a	4	11	5	n/a	85	25	1	n/a	n/a	n/a	n/a	420.945	BM06NES.jpg
392.616	0.514	Blank	Blank	60.682	n/a	4	11	5	n/a	85	n/a	1	n/a	n/a	n/a	n/a	421.443	n/a
393.147	0.497	neutral	Picture	60.168	n/a	4	11	6	n/a	86	9	1	n/a	n/a	n/a	n/a	421.973	AF17NES.jpg
393.644	0.514	Blank	Blank	59.654	n/a	4	11	6	n/a	86	n/a	1	n/a	n/a	n/a	n/a	422.471	n/a
394.175	0.497	neutral	Picture	59.14	n/a	4	11	7	n/a	87	2	1	n/a	n/a	n/a	n/a	423.001	AF03NES.jpg
394.672	0.514	Blank	Blank	58.626	n/a	4	11	7	n/a	87	n/a	1	n/a	n/a	n/a	n/a	423.499	n/a
395.203	0.497	neutral	Picture	58.112	n/a	4	11	8	n/a	88	17	1	n/a	n/a	n/a	n/a	424.029	BF28NES.jpg
395.7	0.514	Blank	Blank	57.599	n/a	4	11	8	n/a	88	n/a	1	n/a	n/a	n/a	n/a	424.526	n/a
396.231	0.497	neutral	Picture	57.084	n/a	4	11	9	n/a	89	6	1	n/a	n/a	n/a	n/a	425.057	AF09NES.jpg
396.728	0.514	Blank	Blank	56.571	n/a	4	11	9	n/a	89	n/a	1	n/a	n/a	n/a	n/a	425.554	n/a
397.258	0.497	neutral	Picture	56.057	n/a	4	11	10	n/a	90	12	1	n/a	n/a	n/a	n/a	426.085	AF21NES.jpg
397.756	0.514	Blank	Blank	55.543	n/a	4	11	10	n/a	90	n/a	1	n/a	n/a	n/a	n/a	426.582	n/a
398.286	0.497	neutral	Picture	55.029	n/a	4	11	11	n/a	91	24	1	n/a	n/a	n/a	n/a	427.113	BM05NES.jpg
398.784	0.514	Blank	Blank	54.515	n/a	4	11	11	n/a	91	n/a	1	n/a	n/a	n/a	n/a	427.61	n/a
399.314	0.497	neutral	Picture	54.001	n/a	4	11	12	n/a	92	34	1	n/a	n/a	n/a	n/a	428.141	AM22NES.jpg
399.811	0.514	Blank	Blank	53.487	n/a	4	11	12	n/a	92	n/a	1	n/a	n/a	n/a	n/a	428.638	n/a
400.342	0.497	neutral	Picture	52.973	n/a	4	11	13	n/a	93	23	1	n/a	n/a	n/a	n/a	429.168	AM04NES.jpg
400.839	0.514	Blank	Blank	52.459	n/a	4	11	13	n/a	93	n/a	1	n/a	n/a	n/a	n/a	429.666	n/a
401.37	0.497	neutral	Picture	51.945	n/a	4	11	14	n/a	94	15	1	n/a	n/a	n/a	n/a	430.196	AF25NES.jpg
401.867	0.514	Blank	Blank	51.431	n/a	4	11	14	n/a	94	n/a	1	n/a	n/a	n/a	n/a	430.694	n/a
402.398	0.497	neutral	Picture	50.917	n/a	4	11	15	n/a	95	37	1	n/a	n/a	n/a	n/a	431.224	BM25NES.jpg
402.895	0.514	Blank	Blank	50.403	n/a	4	11	15	n/a	95	n/a	1	n/a	n/a	n/a	n/a	431.722	n/a
403.426	0.497	neutral	Picture	49.889	n/a	4	11	16	n/a	96	32	1	n/a	n/a	n/a	n/a	432.252	AM14NES.jpg
403.923	0.514	Blank	Blank	49.375	n/a	4	11	16	n/a	96	n/a	1	n/a	n/a	n/a	n/a	432.75	n/a
404.454	0.497	neutral	Picture	48.861	n/a	4	11	17	n/a	97	3	1	n/a	n/a	n/a	n/a	433.28	BF04NES.jpg
404.951	0.514	Blank	Blank	48.347	n/a	4	11	17	n/a	97	n/a	1	n/a	n/a	n/a	n/a	433.777	n/a
405.481	0.497	neutral	Picture	47.834	n/a	4	11	18	n/a	98	16	1	n/a	n/a	n/a	n/a	434.308	AF26NES.jpg
405.979	0.514	Blank	Blank	47.32	n/a	4	11	18	n/a	98	n/a	1	n/a	n/a	n/a	n/a	434.805	n/a
406.509	0.497	neutral	Picture	46.806	n/a	4	11	19	n/a	99	27	1	n/a	n/a	n/a	n/a	435.336	BM08NES.jpg
407.007	0.514	Blank	Blank	46.292	n/a	4	11	19	n/a	99	n/a	1	n/a	n/a	n/a	n/a	435.833	n/a
407.537	0.497	neutral	Picture	45.778	n/a	4	11	20	n/a	100	28	1	n/a	n/a	n/a	n/a	436.364	AM09NES.jpg
408.035	0.514	Blank	Blank	45.264	n/a	4	11	20	n/a	100	n/a	1	n/a	n/a	n/a	n/a	436.861	n/a
408.565	10.014	ITI	Fixation+	35.234	n/a	4	n/a	n/a	n/a	n/a	n/a	n/a	n/a	n/a	n/a	n/a	437.392	n/a
418.595	0.497	happy	Picture	34.72	n/a	4	12	1	n/a	101	81	3	n/a	n/a	n/a	n/a	447.422	AF01ANS.jpg
419.093	0.514	Blank	Blank	34.206	n/a	4	12	1	n/a	101	n/a	3	n/a	n/a	n/a	n/a	447.919	n/a
419.623	0.497	happy	Picture	33.692	n/a	4	12	2	n/a	102	120	3	n/a	n/a	n/a	n/a	448.45	AM35ANS.jpg
420.12	0.514	Blank	Blank	33.178	n/a	4	12	2	n/a	102	n/a	3	n/a	n/a	n/a	n/a	448.947	n/a
420.651	0.497	happy	Picture	32.664	n/a	4	12	3	n/a	103	114	3	n/a	n/a	n/a	n/a	449.478	AM22ANS.jpg
421.148	0.514	Blank	Blank	32.15	n/a	4	12	3	n/a	103	n/a	3	n/a	n/a	n/a	n/a	449.975	n/a
421.679	0.497	happy	Picture	31.636	n/a	4	12	4	n/a	104	109	3	n/a	n/a	n/a	n/a	450.505	AM10ANS.jpg
422.176	0.514	Blank	Blank	31.122	n/a	4	12	4	n/a	104	n/a	3	n/a	n/a	n/a	n/a	451.003	n/a
422.707	0.497	happy	Picture	30.608	n/a	4	12	5	n/a	105	96	3	n/a	n/a	n/a	n/a	451.533	AF26ANS.jpg
423.204	0.514	Blank	Blank	30.094	n/a	4	12	5	n/a	105	n/a	3	n/a	n/a	n/a	n/a	452.031	n/a
423.735	0.497	happy	Picture	29.58	n/a	4	12	6	n/a	106	82	3	n/a	n/a	n/a	n/a	452.561	AF03ANS.jpg
424.232	0.514	Blank	Blank	29.067	n/a	4	12	6	n/a	106	n/a	3	n/a	n/a	n/a	n/a	453.058	n/a
424.762	0.497	happy	Picture	28.552	n/a	4	12	7	n/a	107	97	3	n/a	n/a	n/a	n/a	453.589	BF28ANS.jpg
425.26	0.514	Blank	Blank	28.039	n/a	4	12	7	n/a	107	n/a	3	n/a	n/a	n/a	n/a	454.086	n/a
425.79	0.497	happy	Picture	27.525	n/a	4	12	8	n/a	108	115	3	n/a	n/a	n/a	n/a	454.617	AM23ANS.jpg
426.288	0.514	Blank	Blank	27.011	n/a	4	12	8	n/a	108	n/a	3	n/a	n/a	n/a	n/a	455.114	n/a
426.818	0.497	happy	Picture	26.497	n/a	4	12	9	n/a	109	91	3	n/a	n/a	n/a	n/a	455.645	AF20ANS.jpg
427.316	0.514	Blank	Blank	25.983	n/a	4	12	9	n/a	109	n/a	3	n/a	n/a	n/a	n/a	456.142	n/a
427.846	0.497	happy	Picture	25.469	n/a	4	12	10	n/a	110	87	3	n/a	n/a	n/a	n/a	456.673	BF11ANS.jpg
428.344	0.514	Blank	Blank	24.955	n/a	4	12	10	n/a	110	n/a	3	n/a	n/a	n/a	n/a	457.17	n/a
428.874	0.497	happy	Picture	24.441	n/a	4	12	11	n/a	111	85	3	n/a	n/a	n/a	n/a	457.701	BF07ANS.jpg
429.371	0.514	Blank	Blank	23.927	n/a	4	12	11	n/a	111	n/a	3	n/a	n/a	n/a	n/a	458.198	n/a
429.902	0.497	happy	Picture	23.413	n/a	4	12	12	n/a	112	110	3	n/a	n/a	n/a	n/a	458.728	AM11ANS.jpg
430.399	0.514	Blank	Blank	22.899	n/a	4	12	12	n/a	112	n/a	3	n/a	n/a	n/a	n/a	459.226	n/a
430.93	0.497	happy	Picture	22.385	n/a	4	12	13	n/a	113	111	3	n/a	n/a	n/a	n/a	459.756	BM12ANS.jpg
431.427	0.514	Blank	Blank	21.871	n/a	4	12	13	n/a	113	n/a	3	n/a	n/a	n/a	n/a	460.254	n/a
431.958	0.497	happy	Picture	21.357	n/a	4	12	14	n/a	114	103	3	n/a	n/a	n/a	n/a	460.784	AM04ANS.jpg
432.455	0.514	Blank	Blank	20.843	n/a	4	12	14	n/a	114	n/a	3	n/a	n/a	n/a	n/a	461.282	n/a
432.986	0.497	happy	Picture	20.329	n/a	4	12	15	n/a	115	101	3	n/a	n/a	n/a	n/a	461.812	AM01ANS.jpg
433.483	0.514	Blank	Blank	19.815	n/a	4	12	15	n/a	115	n/a	3	n/a	n/a	n/a	n/a	462.309	n/a
434.013	0.497	happy	Picture	19.302	n/a	4	12	16	n/a	116	104	3	n/a	n/a	n/a	n/a	462.84	BM05ANS.jpg
434.511	0.514	Blank	Blank	18.788	n/a	4	12	16	n/a	116	n/a	3	n/a	n/a	n/a	n/a	463.337	n/a
435.041	0.497	happy	Picture	18.274	n/a	4	12	17	n/a	117	107	3	n/a	n/a	n/a	n/a	463.868	BM08ANS.jpg
435.539	0.514	Blank	Blank	17.76	n/a	4	12	17	n/a	117	n/a	3	n/a	n/a	n/a	n/a	464.365	n/a
436.069	0.497	happy	Picture	17.246	n/a	4	12	18	n/a	118	98	3	n/a	n/a	n/a	n/a	464.896	BF29ANS.jpg
436.567	0.514	Blank	Blank	16.732	n/a	4	12	18	n/a	118	n/a	3	n/a	n/a	n/a	n/a	465.393	n/a
437.097	0.497	happy	Picture	16.218	n/a	4	12	19	n/a	119	99	3	n/a	n/a	n/a	n/a	465.924	AF31ANS.jpg
437.594	0.514	Blank	Blank	15.704	n/a	4	12	19	n/a	119	n/a	3	n/a	n/a	n/a	n/a	466.421	n/a
438.125	0.497	happy	Picture	15.19	n/a	4	12	20	n/a	120	108	3	n/a	n/a	n/a	n/a	466.952	AM09ANS.jpg
438.622	0.514	Blank	Blank	14.676	n/a	4	12	20	n/a	120	n/a	3	n/a	n/a	n/a	n/a	467.449	n/a
439.153	10.014	ITI	Fixation+	4.646	n/a	4	n/a	n/a	n/a	n/a	n/a	n/a	n/a	n/a	n/a	n/a	467.979	n/a
453.812	n/a	ConfirmRating	Rate	n/a	4.642	4	n/a	n/a	0	n/a	n/a	n/a	2	Happy	63	51	482.639	n/a
455.397	n/a	ConfirmRating	Rate	n/a	1.558	4	n/a	n/a	1	n/a	n/a	n/a	3	Happy	0	49	484.224	n/a
