onset	duration	trial_type	event_type	time_until_response	response_time	trial_number	block_num_within_trial	image_seq_num_within_block	question_seq_num_within_block	image_seq_num	picture_number	condition	question_type	block_type	rating	rating_computed	onset_uncorrected	KDEV_imagefile
0.007	10.014	ITI	Fixation+	100.8	n/a	1	n/a	n/a	n/a	n/a	n/a	n/a	n/a	n/a	n/a	n/a	29.322	n/a
10.037	0.497	angry	Picture	100.286	n/a	1	1	1	n/a	1	46	2	n/a	n/a	n/a	n/a	39.352	AF09HAS.jpg
10.534	0.514	Blank	Blank	99.772	n/a	1	1	1	n/a	1	n/a	2	n/a	n/a	n/a	n/a	39.85	n/a
11.065	0.497	angry	Picture	99.258	n/a	1	1	2	n/a	2	69	2	n/a	n/a	n/a	n/a	40.38	AM10HAS.jpg
11.562	0.514	Blank	Blank	98.745	n/a	1	1	2	n/a	2	n/a	2	n/a	n/a	n/a	n/a	40.878	n/a
12.093	0.497	angry	Picture	98.231	n/a	1	1	3	n/a	3	71	2	n/a	n/a	n/a	n/a	41.408	BM12HAS.jpg
12.59	0.514	Blank	Blank	97.717	n/a	1	1	3	n/a	3	n/a	2	n/a	n/a	n/a	n/a	41.906	n/a
13.121	0.497	angry	Picture	97.203	n/a	1	1	4	n/a	4	51	2	n/a	n/a	n/a	n/a	42.436	AF20HAS.jpg
13.618	0.514	Blank	Blank	96.689	n/a	1	1	4	n/a	4	n/a	2	n/a	n/a	n/a	n/a	42.934	n/a
14.148	0.497	angry	Picture	96.175	n/a	1	1	5	n/a	5	67	2	n/a	n/a	n/a	n/a	43.464	BM08HAS.jpg
14.646	0.514	Blank	Blank	95.661	n/a	1	1	5	n/a	5	n/a	2	n/a	n/a	n/a	n/a	43.961	n/a
15.176	0.497	angry	Picture	95.147	n/a	1	1	6	n/a	6	60	2	n/a	n/a	n/a	n/a	44.492	AF32HAS.jpg
15.674	0.514	Blank	Blank	94.633	n/a	1	1	6	n/a	6	n/a	2	n/a	n/a	n/a	n/a	44.989	n/a
16.201	0.501	angry	Picture	94.119	n/a	1	1	7	n/a	7	42	2	n/a	n/a	n/a	n/a	45.517	AF03HAS.jpg
16.702	0.514	Blank	Blank	93.605	n/a	1	1	7	n/a	7	n/a	2	n/a	n/a	n/a	n/a	46.017	n/a
17.232	0.497	angry	Picture	93.091	n/a	1	1	8	n/a	8	55	2	n/a	n/a	n/a	n/a	46.548	AF25HAS.jpg
17.73	0.514	Blank	Blank	92.577	n/a	1	1	8	n/a	8	n/a	2	n/a	n/a	n/a	n/a	47.045	n/a
18.26	0.497	angry	Picture	92.063	n/a	1	1	9	n/a	9	72	2	n/a	n/a	n/a	n/a	47.575	AM14HAS.jpg
18.757	0.514	Blank	Blank	91.549	n/a	1	1	9	n/a	9	n/a	2	n/a	n/a	n/a	n/a	48.073	n/a
19.288	0.497	angry	Picture	91.035	n/a	1	1	10	n/a	10	63	2	n/a	n/a	n/a	n/a	48.603	AM04HAS.jpg
19.785	0.514	Blank	Blank	90.522	n/a	1	1	10	n/a	10	n/a	2	n/a	n/a	n/a	n/a	49.101	n/a
20.316	0.497	angry	Picture	90.008	n/a	1	1	11	n/a	11	58	2	n/a	n/a	n/a	n/a	49.631	BF29HAS.jpg
20.813	0.514	Blank	Blank	89.494	n/a	1	1	11	n/a	11	n/a	2	n/a	n/a	n/a	n/a	50.129	n/a
21.344	0.497	angry	Picture	88.98	n/a	1	1	12	n/a	12	48	2	n/a	n/a	n/a	n/a	50.659	AF14HAS.jpg
21.841	0.514	Blank	Blank	88.466	n/a	1	1	12	n/a	12	n/a	2	n/a	n/a	n/a	n/a	51.157	n/a
22.371	0.497	angry	Picture	87.952	n/a	1	1	13	n/a	13	66	2	n/a	n/a	n/a	n/a	51.687	BM07HAS.jpg
22.869	0.514	Blank	Blank	87.438	n/a	1	1	13	n/a	13	n/a	2	n/a	n/a	n/a	n/a	52.184	n/a
23.399	0.497	angry	Picture	86.924	n/a	1	1	14	n/a	14	70	2	n/a	n/a	n/a	n/a	52.715	BM11HAS.jpg
23.897	0.514	Blank	Blank	86.41	n/a	1	1	14	n/a	14	n/a	2	n/a	n/a	n/a	n/a	53.212	n/a
24.427	0.497	angry	Picture	85.896	n/a	1	1	15	n/a	15	43	2	n/a	n/a	n/a	n/a	53.743	BF04HAS.jpg
24.925	0.514	Blank	Blank	85.382	n/a	1	1	15	n/a	15	n/a	2	n/a	n/a	n/a	n/a	54.24	n/a
25.455	0.497	angry	Picture	84.868	n/a	1	1	16	n/a	16	49	2	n/a	n/a	n/a	n/a	54.771	AF17HAS.jpg
25.953	0.514	Blank	Blank	84.354	n/a	1	1	16	n/a	16	n/a	2	n/a	n/a	n/a	n/a	55.268	n/a
26.483	0.497	angry	Picture	83.84	n/a	1	1	17	n/a	17	75	2	n/a	n/a	n/a	n/a	55.798	AM23HAS.jpg
26.98	0.514	Blank	Blank	83.326	n/a	1	1	17	n/a	17	n/a	2	n/a	n/a	n/a	n/a	56.296	n/a
27.511	0.497	angry	Picture	82.812	n/a	1	1	18	n/a	18	80	2	n/a	n/a	n/a	n/a	56.826	BM35HAS.jpg
28.008	0.514	Blank	Blank	82.299	n/a	1	1	18	n/a	18	n/a	2	n/a	n/a	n/a	n/a	57.324	n/a
28.539	0.497	angry	Picture	81.785	n/a	1	1	19	n/a	19	76	2	n/a	n/a	n/a	n/a	57.854	BM24HAS.jpg
29.036	0.514	Blank	Blank	81.271	n/a	1	1	19	n/a	19	n/a	2	n/a	n/a	n/a	n/a	58.352	n/a
29.567	0.497	angry	Picture	80.757	n/a	1	1	20	n/a	20	74	2	n/a	n/a	n/a	n/a	58.882	AM22HAS.jpg
30.064	0.514	Blank	Blank	80.243	n/a	1	1	20	n/a	20	n/a	2	n/a	n/a	n/a	n/a	59.38	n/a
30.595	10.014	ITI	Fixation+	70.213	n/a	1	n/a	n/a	n/a	n/a	n/a	n/a	n/a	n/a	n/a	n/a	59.91	n/a
40.625	0.497	neutral	Picture	69.699	n/a	1	2	1	n/a	21	33	1	n/a	n/a	n/a	n/a	69.94	AM21NES.jpg
41.122	0.514	Blank	Blank	69.185	n/a	1	2	1	n/a	21	n/a	1	n/a	n/a	n/a	n/a	70.438	n/a
41.653	0.497	neutral	Picture	68.671	n/a	1	2	2	n/a	22	39	1	n/a	n/a	n/a	n/a	70.968	AM28NES.jpg
42.15	0.514	Blank	Blank	68.157	n/a	1	2	2	n/a	22	n/a	1	n/a	n/a	n/a	n/a	71.465	n/a
42.68	0.497	neutral	Picture	67.643	n/a	1	2	3	n/a	23	25	1	n/a	n/a	n/a	n/a	71.996	BM06NES.jpg
43.178	0.514	Blank	Blank	67.129	n/a	1	2	3	n/a	23	n/a	1	n/a	n/a	n/a	n/a	72.493	n/a
43.708	0.497	neutral	Picture	66.615	n/a	1	2	4	n/a	24	5	1	n/a	n/a	n/a	n/a	73.024	BF07NES.jpg
44.206	0.514	Blank	Blank	66.101	n/a	1	2	4	n/a	24	n/a	1	n/a	n/a	n/a	n/a	73.521	n/a
44.736	0.497	neutral	Picture	65.587	n/a	1	2	5	n/a	25	10	1	n/a	n/a	n/a	n/a	74.052	AF18NES.jpg
45.234	0.514	Blank	Blank	65.073	n/a	1	2	5	n/a	25	n/a	1	n/a	n/a	n/a	n/a	74.549	n/a
45.764	0.497	neutral	Picture	64.559	n/a	1	2	6	n/a	26	34	1	n/a	n/a	n/a	n/a	75.08	AM22NES.jpg
46.261	0.514	Blank	Blank	64.045	n/a	1	2	6	n/a	26	n/a	1	n/a	n/a	n/a	n/a	75.577	n/a
46.792	0.497	neutral	Picture	63.531	n/a	1	2	7	n/a	27	36	1	n/a	n/a	n/a	n/a	76.107	BM24NES.jpg
47.289	0.514	Blank	Blank	63.018	n/a	1	2	7	n/a	27	n/a	1	n/a	n/a	n/a	n/a	76.605	n/a
47.82	0.497	neutral	Picture	62.504	n/a	1	2	8	n/a	28	14	1	n/a	n/a	n/a	n/a	77.135	AF23NES.jpg
48.317	0.514	Blank	Blank	61.99	n/a	1	2	8	n/a	28	n/a	1	n/a	n/a	n/a	n/a	77.633	n/a
48.848	0.497	neutral	Picture	61.476	n/a	1	2	9	n/a	29	9	1	n/a	n/a	n/a	n/a	78.163	AF17NES.jpg
49.345	0.514	Blank	Blank	60.962	n/a	1	2	9	n/a	29	n/a	1	n/a	n/a	n/a	n/a	78.661	n/a
49.876	0.497	neutral	Picture	60.448	n/a	1	2	10	n/a	30	19	1	n/a	n/a	n/a	n/a	79.191	AF31NES.jpg
50.373	0.514	Blank	Blank	59.934	n/a	1	2	10	n/a	30	n/a	1	n/a	n/a	n/a	n/a	79.688	n/a
50.903	0.497	neutral	Picture	59.42	n/a	1	2	11	n/a	31	15	1	n/a	n/a	n/a	n/a	80.219	AF25NES.jpg
51.401	0.514	Blank	Blank	58.906	n/a	1	2	11	n/a	31	n/a	1	n/a	n/a	n/a	n/a	80.716	n/a
51.931	0.497	neutral	Picture	58.392	n/a	1	2	12	n/a	32	22	1	n/a	n/a	n/a	n/a	81.247	BM03NES.jpg
52.429	0.514	Blank	Blank	57.878	n/a	1	2	12	n/a	32	n/a	1	n/a	n/a	n/a	n/a	81.744	n/a
52.959	0.497	neutral	Picture	57.364	n/a	1	2	13	n/a	33	11	1	n/a	n/a	n/a	n/a	82.275	AF20NES.jpg
53.457	0.514	Blank	Blank	56.85	n/a	1	2	13	n/a	33	n/a	1	n/a	n/a	n/a	n/a	82.772	n/a
53.987	0.497	neutral	Picture	56.336	n/a	1	2	14	n/a	34	4	1	n/a	n/a	n/a	n/a	83.303	AF05NES.jpg
54.484	0.514	Blank	Blank	55.822	n/a	1	2	14	n/a	34	n/a	1	n/a	n/a	n/a	n/a	83.8	n/a
55.015	0.497	neutral	Picture	55.308	n/a	1	2	15	n/a	35	17	1	n/a	n/a	n/a	n/a	84.331	BF28NES.jpg
55.512	0.514	Blank	Blank	54.794	n/a	1	2	15	n/a	35	n/a	1	n/a	n/a	n/a	n/a	84.828	n/a
56.043	0.497	neutral	Picture	54.281	n/a	1	2	16	n/a	36	13	1	n/a	n/a	n/a	n/a	85.358	BF22NES.jpg
56.54	0.514	Blank	Blank	53.767	n/a	1	2	16	n/a	36	n/a	1	n/a	n/a	n/a	n/a	85.856	n/a
57.071	0.497	neutral	Picture	53.253	n/a	1	2	17	n/a	37	12	1	n/a	n/a	n/a	n/a	86.386	AF21NES.jpg
57.568	0.514	Blank	Blank	52.739	n/a	1	2	17	n/a	37	n/a	1	n/a	n/a	n/a	n/a	86.884	n/a
58.099	0.497	neutral	Picture	52.225	n/a	1	2	18	n/a	38	24	1	n/a	n/a	n/a	n/a	87.414	BM05NES.jpg
58.596	0.514	Blank	Blank	51.711	n/a	1	2	18	n/a	38	n/a	1	n/a	n/a	n/a	n/a	87.912	n/a
59.126	0.497	neutral	Picture	51.197	n/a	1	2	19	n/a	39	29	1	n/a	n/a	n/a	n/a	88.442	AM10NES.jpg
59.624	0.514	Blank	Blank	50.683	n/a	1	2	19	n/a	39	n/a	1	n/a	n/a	n/a	n/a	88.939	n/a
60.154	0.497	neutral	Picture	50.169	n/a	1	2	20	n/a	40	23	1	n/a	n/a	n/a	n/a	89.47	AM04NES.jpg
60.652	0.514	Blank	Blank	49.655	n/a	1	2	20	n/a	40	n/a	1	n/a	n/a	n/a	n/a	89.967	n/a
61.182	10.014	ITI	Fixation+	39.625	n/a	1	n/a	n/a	n/a	n/a	n/a	n/a	n/a	n/a	n/a	n/a	90.498	n/a
71.212	0.497	angry	Picture	39.111	n/a	1	3	1	n/a	41	62	2	n/a	n/a	n/a	n/a	100.528	BM03HAS.jpg
71.71	0.514	Blank	Blank	38.597	n/a	1	3	1	n/a	41	n/a	2	n/a	n/a	n/a	n/a	101.025	n/a
72.24	0.497	angry	Picture	38.083	n/a	1	3	2	n/a	42	52	2	n/a	n/a	n/a	n/a	101.556	AF21HAS.jpg
72.738	0.514	Blank	Blank	37.569	n/a	1	3	2	n/a	42	n/a	2	n/a	n/a	n/a	n/a	102.053	n/a
73.268	0.497	angry	Picture	37.055	n/a	1	3	3	n/a	43	44	2	n/a	n/a	n/a	n/a	102.584	AF05HAS.jpg
73.766	0.514	Blank	Blank	36.541	n/a	1	3	3	n/a	43	n/a	2	n/a	n/a	n/a	n/a	103.081	n/a
74.296	0.497	angry	Picture	36.027	n/a	1	3	4	n/a	44	53	2	n/a	n/a	n/a	n/a	103.612	BF22HAS.jpg
74.793	0.514	Blank	Blank	35.513	n/a	1	3	4	n/a	44	n/a	2	n/a	n/a	n/a	n/a	104.109	n/a
75.324	0.497	angry	Picture	35.0	n/a	1	3	5	n/a	45	54	2	n/a	n/a	n/a	n/a	104.639	AF23HAS.jpg
75.821	0.514	Blank	Blank	34.486	n/a	1	3	5	n/a	45	n/a	2	n/a	n/a	n/a	n/a	105.137	n/a
76.352	0.497	angry	Picture	33.972	n/a	1	3	6	n/a	46	68	2	n/a	n/a	n/a	n/a	105.667	AM09HAS.jpg
76.849	0.514	Blank	Blank	33.458	n/a	1	3	6	n/a	46	n/a	2	n/a	n/a	n/a	n/a	106.165	n/a
77.38	0.497	angry	Picture	32.944	n/a	1	3	7	n/a	47	64	2	n/a	n/a	n/a	n/a	106.695	BM05HAS.jpg
77.877	0.514	Blank	Blank	32.43	n/a	1	3	7	n/a	47	n/a	2	n/a	n/a	n/a	n/a	107.192	n/a
78.407	0.497	angry	Picture	31.916	n/a	1	3	8	n/a	48	59	2	n/a	n/a	n/a	n/a	107.723	AF31HAS.jpg
78.905	0.514	Blank	Blank	31.402	n/a	1	3	8	n/a	48	n/a	2	n/a	n/a	n/a	n/a	108.22	n/a
79.435	0.497	angry	Picture	30.888	n/a	1	3	9	n/a	49	41	2	n/a	n/a	n/a	n/a	108.751	AF01HAS.jpg
79.933	0.514	Blank	Blank	30.374	n/a	1	3	9	n/a	49	n/a	2	n/a	n/a	n/a	n/a	109.248	n/a
80.463	0.497	angry	Picture	29.86	n/a	1	3	10	n/a	50	73	2	n/a	n/a	n/a	n/a	109.779	AM21HAS.jpg
80.961	0.514	Blank	Blank	29.346	n/a	1	3	10	n/a	50	n/a	2	n/a	n/a	n/a	n/a	110.276	n/a
81.491	0.497	angry	Picture	28.832	n/a	1	3	11	n/a	51	65	2	n/a	n/a	n/a	n/a	110.807	BM06HAS.jpg
81.989	0.514	Blank	Blank	28.318	n/a	1	3	11	n/a	51	n/a	2	n/a	n/a	n/a	n/a	111.304	n/a
82.519	0.497	angry	Picture	27.804	n/a	1	3	12	n/a	52	56	2	n/a	n/a	n/a	n/a	111.835	AF26HAS.jpg
83.016	0.514	Blank	Blank	27.29	n/a	1	3	12	n/a	52	n/a	2	n/a	n/a	n/a	n/a	112.332	n/a
83.547	0.497	angry	Picture	26.776	n/a	1	3	13	n/a	53	45	2	n/a	n/a	n/a	n/a	112.862	BF07HAS.jpg
84.044	0.514	Blank	Blank	26.262	n/a	1	3	13	n/a	53	n/a	2	n/a	n/a	n/a	n/a	113.36	n/a
84.575	0.497	angry	Picture	25.749	n/a	1	3	14	n/a	54	78	2	n/a	n/a	n/a	n/a	113.89	BM26HAS.jpg
85.072	0.514	Blank	Blank	25.235	n/a	1	3	14	n/a	54	n/a	2	n/a	n/a	n/a	n/a	114.388	n/a
85.603	0.497	angry	Picture	24.721	n/a	1	3	15	n/a	55	50	2	n/a	n/a	n/a	n/a	114.918	AF18HAS.jpg
86.1	0.514	Blank	Blank	24.207	n/a	1	3	15	n/a	55	n/a	2	n/a	n/a	n/a	n/a	115.415	n/a
86.63	0.497	angry	Picture	23.693	n/a	1	3	16	n/a	56	47	2	n/a	n/a	n/a	n/a	115.946	BF11HAS.jpg
87.128	0.514	Blank	Blank	23.179	n/a	1	3	16	n/a	56	n/a	2	n/a	n/a	n/a	n/a	116.443	n/a
87.658	0.497	angry	Picture	22.665	n/a	1	3	17	n/a	57	77	2	n/a	n/a	n/a	n/a	116.974	BM25HAS.jpg
88.156	0.514	Blank	Blank	22.151	n/a	1	3	17	n/a	57	n/a	2	n/a	n/a	n/a	n/a	117.471	n/a
88.686	0.497	angry	Picture	21.637	n/a	1	3	18	n/a	58	57	2	n/a	n/a	n/a	n/a	118.002	BF28HAS.jpg
89.184	0.514	Blank	Blank	21.123	n/a	1	3	18	n/a	58	n/a	2	n/a	n/a	n/a	n/a	118.499	n/a
89.714	0.497	angry	Picture	20.609	n/a	1	3	19	n/a	59	61	2	n/a	n/a	n/a	n/a	119.03	AM01HAS.jpg
90.212	0.514	Blank	Blank	20.095	n/a	1	3	19	n/a	59	n/a	2	n/a	n/a	n/a	n/a	119.527	n/a
90.742	0.497	angry	Picture	19.581	n/a	1	3	20	n/a	60	79	2	n/a	n/a	n/a	n/a	120.058	BM28HAS.jpg
91.239	0.514	Blank	Blank	19.067	n/a	1	3	20	n/a	60	n/a	2	n/a	n/a	n/a	n/a	120.555	n/a
91.77	10.014	ITI	Fixation+	9.037	n/a	1	n/a	n/a	n/a	n/a	n/a	n/a	n/a	n/a	n/a	n/a	121.085	n/a
110.821	n/a	ConfirmRating	Rate	n/a	9.036	1	n/a	n/a	0	n/a	n/a	n/a	2	Angry	26	49	140.136	n/a
118.181	n/a	ConfirmRating	Rate	n/a	7.344	1	n/a	n/a	1	n/a	n/a	n/a	3	Angry	0	44	147.496	n/a
118.213	10.014	ITI	Fixation+	99.212	n/a	2	n/a	n/a	n/a	n/a	n/a	n/a	n/a	n/a	n/a	n/a	147.529	n/a
128.243	0.497	happy	Picture	98.698	n/a	2	4	1	n/a	61	119	3	n/a	n/a	n/a	n/a	157.559	BM28ANS.jpg
128.74	0.514	Blank	Blank	98.184	n/a	2	4	1	n/a	61	n/a	3	n/a	n/a	n/a	n/a	158.056	n/a
129.271	0.497	happy	Picture	97.67	n/a	2	4	2	n/a	62	100	3	n/a	n/a	n/a	n/a	158.586	AF32ANS.jpg
129.768	0.514	Blank	Blank	97.156	n/a	2	4	2	n/a	62	n/a	3	n/a	n/a	n/a	n/a	159.084	n/a
130.299	0.497	happy	Picture	96.642	n/a	2	4	3	n/a	63	118	3	n/a	n/a	n/a	n/a	159.614	BM26ANS.jpg
130.796	0.514	Blank	Blank	96.129	n/a	2	4	3	n/a	63	n/a	3	n/a	n/a	n/a	n/a	160.112	n/a
131.327	0.497	happy	Picture	95.614	n/a	2	4	4	n/a	64	89	3	n/a	n/a	n/a	n/a	160.642	AF17ANS.jpg
131.824	0.514	Blank	Blank	95.101	n/a	2	4	4	n/a	64	n/a	3	n/a	n/a	n/a	n/a	161.14	n/a
132.355	0.497	happy	Picture	94.587	n/a	2	4	5	n/a	65	116	3	n/a	n/a	n/a	n/a	161.67	BM24ANS.jpg
132.852	0.514	Blank	Blank	94.073	n/a	2	4	5	n/a	65	n/a	3	n/a	n/a	n/a	n/a	162.167	n/a
133.382	0.497	happy	Picture	93.559	n/a	2	4	6	n/a	66	105	3	n/a	n/a	n/a	n/a	162.698	BM06ANS.jpg
133.88	0.514	Blank	Blank	93.045	n/a	2	4	6	n/a	66	n/a	3	n/a	n/a	n/a	n/a	163.195	n/a
134.41	0.497	happy	Picture	92.531	n/a	2	4	7	n/a	67	106	3	n/a	n/a	n/a	n/a	163.726	AM07ANS.jpg
134.908	0.514	Blank	Blank	92.017	n/a	2	4	7	n/a	67	n/a	3	n/a	n/a	n/a	n/a	164.223	n/a
135.438	0.497	happy	Picture	91.503	n/a	2	4	8	n/a	68	94	3	n/a	n/a	n/a	n/a	164.754	AF23ANS.jpg
135.936	0.514	Blank	Blank	90.989	n/a	2	4	8	n/a	68	n/a	3	n/a	n/a	n/a	n/a	165.251	n/a
136.466	0.497	happy	Picture	90.475	n/a	2	4	9	n/a	69	117	3	n/a	n/a	n/a	n/a	165.782	BM25ANS.jpg
136.964	0.514	Blank	Blank	89.961	n/a	2	4	9	n/a	69	n/a	3	n/a	n/a	n/a	n/a	166.279	n/a
137.494	0.497	happy	Picture	89.447	n/a	2	4	10	n/a	70	90	3	n/a	n/a	n/a	n/a	166.81	AF18ANS.jpg
137.991	0.514	Blank	Blank	88.933	n/a	2	4	10	n/a	70	n/a	3	n/a	n/a	n/a	n/a	167.307	n/a
138.522	0.497	happy	Picture	88.419	n/a	2	4	11	n/a	71	83	3	n/a	n/a	n/a	n/a	167.837	BF04ANS.jpg
139.019	0.514	Blank	Blank	87.905	n/a	2	4	11	n/a	71	n/a	3	n/a	n/a	n/a	n/a	168.335	n/a
139.55	0.497	happy	Picture	87.392	n/a	2	4	12	n/a	72	112	3	n/a	n/a	n/a	n/a	168.865	AM14ANS.jpg
140.047	0.514	Blank	Blank	86.878	n/a	2	4	12	n/a	72	n/a	3	n/a	n/a	n/a	n/a	169.363	n/a
140.578	0.497	happy	Picture	86.364	n/a	2	4	13	n/a	73	102	3	n/a	n/a	n/a	n/a	169.893	BM03ANS.jpg
141.075	0.514	Blank	Blank	85.85	n/a	2	4	13	n/a	73	n/a	3	n/a	n/a	n/a	n/a	170.391	n/a
141.606	0.497	happy	Picture	85.336	n/a	2	4	14	n/a	74	95	3	n/a	n/a	n/a	n/a	170.921	AF25ANS.jpg
142.103	0.514	Blank	Blank	84.822	n/a	2	4	14	n/a	74	n/a	3	n/a	n/a	n/a	n/a	171.418	n/a
142.633	0.497	happy	Picture	84.308	n/a	2	4	15	n/a	75	113	3	n/a	n/a	n/a	n/a	171.949	AM21ANS.jpg
143.131	0.514	Blank	Blank	83.794	n/a	2	4	15	n/a	75	n/a	3	n/a	n/a	n/a	n/a	172.446	n/a
143.661	0.497	happy	Picture	83.28	n/a	2	4	16	n/a	76	88	3	n/a	n/a	n/a	n/a	172.977	AF14ANS.jpg
144.159	0.514	Blank	Blank	82.766	n/a	2	4	16	n/a	76	n/a	3	n/a	n/a	n/a	n/a	173.474	n/a
144.689	0.497	happy	Picture	82.252	n/a	2	4	17	n/a	77	93	3	n/a	n/a	n/a	n/a	174.005	BF22ANS.jpg
145.187	0.514	Blank	Blank	81.738	n/a	2	4	17	n/a	77	n/a	3	n/a	n/a	n/a	n/a	174.502	n/a
145.717	0.497	happy	Picture	81.224	n/a	2	4	18	n/a	78	86	3	n/a	n/a	n/a	n/a	175.032	AF09ANS.jpg
146.214	0.514	Blank	Blank	80.71	n/a	2	4	18	n/a	78	n/a	3	n/a	n/a	n/a	n/a	175.53	n/a
146.745	0.497	happy	Picture	80.196	n/a	2	4	19	n/a	79	92	3	n/a	n/a	n/a	n/a	176.06	AF21ANS.jpg
147.242	0.514	Blank	Blank	79.682	n/a	2	4	19	n/a	79	n/a	3	n/a	n/a	n/a	n/a	176.558	n/a
147.773	0.497	happy	Picture	79.168	n/a	2	4	20	n/a	80	84	3	n/a	n/a	n/a	n/a	177.088	AF05ANS.jpg
148.27	0.514	Blank	Blank	78.654	n/a	2	4	20	n/a	80	n/a	3	n/a	n/a	n/a	n/a	177.586	n/a
148.801	10.014	ITI	Fixation+	68.624	n/a	2	n/a	n/a	n/a	n/a	n/a	n/a	n/a	n/a	n/a	n/a	178.116	n/a
158.831	0.497	neutral	Picture	68.111	n/a	2	5	1	n/a	81	4	1	n/a	n/a	n/a	n/a	188.146	AF05NES.jpg
159.328	0.514	Blank	Blank	67.596	n/a	2	5	1	n/a	81	n/a	1	n/a	n/a	n/a	n/a	188.644	n/a
159.859	0.497	neutral	Picture	67.083	n/a	2	5	2	n/a	82	14	1	n/a	n/a	n/a	n/a	189.174	AF23NES.jpg
160.356	0.514	Blank	Blank	66.569	n/a	2	5	2	n/a	82	n/a	1	n/a	n/a	n/a	n/a	189.672	n/a
160.887	0.497	neutral	Picture	66.055	n/a	2	5	3	n/a	83	19	1	n/a	n/a	n/a	n/a	190.202	AF31NES.jpg
161.384	0.514	Blank	Blank	65.541	n/a	2	5	3	n/a	83	n/a	1	n/a	n/a	n/a	n/a	190.699	n/a
161.914	0.497	neutral	Picture	65.027	n/a	2	5	4	n/a	84	8	1	n/a	n/a	n/a	n/a	191.23	AF14NES.jpg
162.412	0.514	Blank	Blank	64.513	n/a	2	5	4	n/a	84	n/a	1	n/a	n/a	n/a	n/a	191.727	n/a
162.942	0.497	neutral	Picture	63.999	n/a	2	5	5	n/a	85	25	1	n/a	n/a	n/a	n/a	192.258	BM06NES.jpg
163.44	0.514	Blank	Blank	63.485	n/a	2	5	5	n/a	85	n/a	1	n/a	n/a	n/a	n/a	192.755	n/a
163.97	0.497	neutral	Picture	62.971	n/a	2	5	6	n/a	86	9	1	n/a	n/a	n/a	n/a	193.286	AF17NES.jpg
164.467	0.514	Blank	Blank	62.457	n/a	2	5	6	n/a	86	n/a	1	n/a	n/a	n/a	n/a	193.783	n/a
164.998	0.497	neutral	Picture	61.943	n/a	2	5	7	n/a	87	2	1	n/a	n/a	n/a	n/a	194.314	AF03NES.jpg
165.495	0.514	Blank	Blank	61.429	n/a	2	5	7	n/a	87	n/a	1	n/a	n/a	n/a	n/a	194.811	n/a
166.026	0.497	neutral	Picture	60.915	n/a	2	5	8	n/a	88	17	1	n/a	n/a	n/a	n/a	195.341	BF28NES.jpg
166.523	0.514	Blank	Blank	60.401	n/a	2	5	8	n/a	88	n/a	1	n/a	n/a	n/a	n/a	195.839	n/a
167.054	0.497	neutral	Picture	59.887	n/a	2	5	9	n/a	89	6	1	n/a	n/a	n/a	n/a	196.369	AF09NES.jpg
167.551	0.514	Blank	Blank	59.374	n/a	2	5	9	n/a	89	n/a	1	n/a	n/a	n/a	n/a	196.867	n/a
168.082	0.497	neutral	Picture	58.86	n/a	2	5	10	n/a	90	12	1	n/a	n/a	n/a	n/a	197.397	AF21NES.jpg
168.579	0.514	Blank	Blank	58.346	n/a	2	5	10	n/a	90	n/a	1	n/a	n/a	n/a	n/a	197.894	n/a
169.11	0.497	neutral	Picture	57.832	n/a	2	5	11	n/a	91	24	1	n/a	n/a	n/a	n/a	198.425	BM05NES.jpg
169.607	0.514	Blank	Blank	57.318	n/a	2	5	11	n/a	91	n/a	1	n/a	n/a	n/a	n/a	198.922	n/a
170.137	0.497	neutral	Picture	56.804	n/a	2	5	12	n/a	92	34	1	n/a	n/a	n/a	n/a	199.453	AM22NES.jpg
170.635	0.514	Blank	Blank	56.29	n/a	2	5	12	n/a	92	n/a	1	n/a	n/a	n/a	n/a	199.95	n/a
171.165	0.497	neutral	Picture	55.776	n/a	2	5	13	n/a	93	23	1	n/a	n/a	n/a	n/a	200.481	AM04NES.jpg
171.663	0.514	Blank	Blank	55.262	n/a	2	5	13	n/a	93	n/a	1	n/a	n/a	n/a	n/a	200.978	n/a
172.193	0.497	neutral	Picture	54.748	n/a	2	5	14	n/a	94	15	1	n/a	n/a	n/a	n/a	201.509	AF25NES.jpg
172.69	0.514	Blank	Blank	54.234	n/a	2	5	14	n/a	94	n/a	1	n/a	n/a	n/a	n/a	202.006	n/a
173.221	0.497	neutral	Picture	53.72	n/a	2	5	15	n/a	95	37	1	n/a	n/a	n/a	n/a	202.537	BM25NES.jpg
173.718	0.514	Blank	Blank	53.206	n/a	2	5	15	n/a	95	n/a	1	n/a	n/a	n/a	n/a	203.034	n/a
174.249	0.497	neutral	Picture	52.692	n/a	2	5	16	n/a	96	32	1	n/a	n/a	n/a	n/a	203.564	AM14NES.jpg
174.746	0.514	Blank	Blank	52.178	n/a	2	5	16	n/a	96	n/a	1	n/a	n/a	n/a	n/a	204.062	n/a
175.277	0.497	neutral	Picture	51.664	n/a	2	5	17	n/a	97	3	1	n/a	n/a	n/a	n/a	204.592	BF04NES.jpg
175.774	0.514	Blank	Blank	51.15	n/a	2	5	17	n/a	97	n/a	1	n/a	n/a	n/a	n/a	205.09	n/a
176.305	0.497	neutral	Picture	50.636	n/a	2	5	18	n/a	98	16	1	n/a	n/a	n/a	n/a	205.62	AF26NES.jpg
176.802	0.514	Blank	Blank	50.123	n/a	2	5	18	n/a	98	n/a	1	n/a	n/a	n/a	n/a	206.118	n/a
177.333	0.497	neutral	Picture	49.609	n/a	2	5	19	n/a	99	27	1	n/a	n/a	n/a	n/a	206.648	BM08NES.jpg
177.83	0.514	Blank	Blank	49.095	n/a	2	5	19	n/a	99	n/a	1	n/a	n/a	n/a	n/a	207.145	n/a
178.361	0.497	neutral	Picture	48.581	n/a	2	5	20	n/a	100	28	1	n/a	n/a	n/a	n/a	207.676	AM09NES.jpg
178.858	0.514	Blank	Blank	48.067	n/a	2	5	20	n/a	100	n/a	1	n/a	n/a	n/a	n/a	208.173	n/a
179.388	10.014	ITI	Fixation+	38.037	n/a	2	n/a	n/a	n/a	n/a	n/a	n/a	n/a	n/a	n/a	n/a	208.704	n/a
189.418	0.497	happy	Picture	37.523	n/a	2	6	1	n/a	101	81	3	n/a	n/a	n/a	n/a	218.734	AF01ANS.jpg
189.916	0.514	Blank	Blank	37.009	n/a	2	6	1	n/a	101	n/a	3	n/a	n/a	n/a	n/a	219.231	n/a
190.446	0.497	happy	Picture	36.495	n/a	2	6	2	n/a	102	120	3	n/a	n/a	n/a	n/a	219.762	AM35ANS.jpg
190.944	0.514	Blank	Blank	35.981	n/a	2	6	2	n/a	102	n/a	3	n/a	n/a	n/a	n/a	220.259	n/a
191.474	0.497	happy	Picture	35.467	n/a	2	6	3	n/a	103	114	3	n/a	n/a	n/a	n/a	220.79	AM22ANS.jpg
191.972	0.514	Blank	Blank	34.953	n/a	2	6	3	n/a	103	n/a	3	n/a	n/a	n/a	n/a	221.287	n/a
192.502	0.497	happy	Picture	34.439	n/a	2	6	4	n/a	104	109	3	n/a	n/a	n/a	n/a	221.818	AM10ANS.jpg
192.999	0.514	Blank	Blank	33.925	n/a	2	6	4	n/a	104	n/a	3	n/a	n/a	n/a	n/a	222.315	n/a
193.53	0.497	happy	Picture	33.411	n/a	2	6	5	n/a	105	96	3	n/a	n/a	n/a	n/a	222.845	AF26ANS.jpg
194.027	0.514	Blank	Blank	32.897	n/a	2	6	5	n/a	105	n/a	3	n/a	n/a	n/a	n/a	223.343	n/a
194.558	0.497	happy	Picture	32.383	n/a	2	6	6	n/a	106	82	3	n/a	n/a	n/a	n/a	223.873	AF03ANS.jpg
195.055	0.514	Blank	Blank	31.869	n/a	2	6	6	n/a	106	n/a	3	n/a	n/a	n/a	n/a	224.371	n/a
195.586	0.497	happy	Picture	31.356	n/a	2	6	7	n/a	107	97	3	n/a	n/a	n/a	n/a	224.901	BF28ANS.jpg
196.083	0.514	Blank	Blank	30.842	n/a	2	6	7	n/a	107	n/a	3	n/a	n/a	n/a	n/a	225.399	n/a
196.614	0.497	happy	Picture	30.328	n/a	2	6	8	n/a	108	115	3	n/a	n/a	n/a	n/a	225.929	AM23ANS.jpg
197.111	0.514	Blank	Blank	29.814	n/a	2	6	8	n/a	108	n/a	3	n/a	n/a	n/a	n/a	226.427	n/a
197.642	0.497	happy	Picture	29.3	n/a	2	6	9	n/a	109	91	3	n/a	n/a	n/a	n/a	226.957	AF20ANS.jpg
198.139	0.514	Blank	Blank	28.786	n/a	2	6	9	n/a	109	n/a	3	n/a	n/a	n/a	n/a	227.454	n/a
198.669	0.497	happy	Picture	28.272	n/a	2	6	10	n/a	110	87	3	n/a	n/a	n/a	n/a	227.985	BF11ANS.jpg
199.167	0.514	Blank	Blank	27.758	n/a	2	6	10	n/a	110	n/a	3	n/a	n/a	n/a	n/a	228.482	n/a
199.697	0.497	happy	Picture	27.245	n/a	2	6	11	n/a	111	85	3	n/a	n/a	n/a	n/a	229.013	BF07ANS.jpg
200.194	0.515	Blank	Blank	26.73	n/a	2	6	11	n/a	111	n/a	3	n/a	n/a	n/a	n/a	229.509	n/a
200.725	0.497	happy	Picture	26.216	n/a	2	6	12	n/a	112	110	3	n/a	n/a	n/a	n/a	230.041	AM11ANS.jpg
201.223	0.514	Blank	Blank	25.702	n/a	2	6	12	n/a	112	n/a	3	n/a	n/a	n/a	n/a	230.538	n/a
201.753	0.497	happy	Picture	25.188	n/a	2	6	13	n/a	113	111	3	n/a	n/a	n/a	n/a	231.069	BM12ANS.jpg
202.25	0.514	Blank	Blank	24.674	n/a	2	6	13	n/a	113	n/a	3	n/a	n/a	n/a	n/a	231.566	n/a
202.781	0.497	happy	Picture	24.16	n/a	2	6	14	n/a	114	103	3	n/a	n/a	n/a	n/a	232.096	AM04ANS.jpg
203.278	0.514	Blank	Blank	23.646	n/a	2	6	14	n/a	114	n/a	3	n/a	n/a	n/a	n/a	232.594	n/a
203.809	0.497	happy	Picture	23.132	n/a	2	6	15	n/a	115	101	3	n/a	n/a	n/a	n/a	233.124	AM01ANS.jpg
204.306	0.514	Blank	Blank	22.618	n/a	2	6	15	n/a	115	n/a	3	n/a	n/a	n/a	n/a	233.622	n/a
204.837	0.497	happy	Picture	22.105	n/a	2	6	16	n/a	116	104	3	n/a	n/a	n/a	n/a	234.152	BM05ANS.jpg
205.334	0.514	Blank	Blank	21.591	n/a	2	6	16	n/a	116	n/a	3	n/a	n/a	n/a	n/a	234.649	n/a
205.865	0.497	happy	Picture	21.077	n/a	2	6	17	n/a	117	107	3	n/a	n/a	n/a	n/a	235.18	BM08ANS.jpg
206.362	0.514	Blank	Blank	20.563	n/a	2	6	17	n/a	117	n/a	3	n/a	n/a	n/a	n/a	235.677	n/a
206.892	0.497	happy	Picture	20.049	n/a	2	6	18	n/a	118	98	3	n/a	n/a	n/a	n/a	236.208	BF29ANS.jpg
207.39	0.514	Blank	Blank	19.535	n/a	2	6	18	n/a	118	n/a	3	n/a	n/a	n/a	n/a	236.705	n/a
207.92	0.497	happy	Picture	19.021	n/a	2	6	19	n/a	119	99	3	n/a	n/a	n/a	n/a	237.236	AF31ANS.jpg
208.418	0.514	Blank	Blank	18.507	n/a	2	6	19	n/a	119	n/a	3	n/a	n/a	n/a	n/a	237.733	n/a
208.948	0.497	happy	Picture	17.993	n/a	2	6	20	n/a	120	108	3	n/a	n/a	n/a	n/a	238.264	AM09ANS.jpg
209.445	0.514	Blank	Blank	17.479	n/a	2	6	20	n/a	120	n/a	3	n/a	n/a	n/a	n/a	238.761	n/a
209.976	10.014	ITI	Fixation+	7.449	n/a	2	n/a	n/a	n/a	n/a	n/a	n/a	n/a	n/a	n/a	n/a	239.292	n/a
227.439	n/a	ConfirmRating	Rate	n/a	7.444	2	n/a	n/a	0	n/a	n/a	n/a	2	Happy	81	53	256.754	n/a
233.452	n/a	ConfirmRating	Rate	n/a	5.985	2	n/a	n/a	1	n/a	n/a	n/a	3	Happy	0	43	262.767	n/a
233.468	15.004	Rest	Picture	n/a	n/a	n/a	n/a	n/a	n/a	n/a	n/a	n/a	0	n/a	0	0	262.784	n/a
248.488	10.014	ITI	Fixation+	98.038	n/a	3	n/a	n/a	n/a	n/a	n/a	n/a	n/a	n/a	n/a	n/a	277.804	n/a
258.518	0.497	angry	Picture	97.524	n/a	3	7	1	n/a	1	46	2	n/a	n/a	n/a	n/a	287.834	AF09HAS.jpg
259.016	0.514	Blank	Blank	97.011	n/a	3	7	1	n/a	1	n/a	2	n/a	n/a	n/a	n/a	288.331	n/a
259.546	0.497	angry	Picture	96.497	n/a	3	7	2	n/a	2	69	2	n/a	n/a	n/a	n/a	288.862	AM10HAS.jpg
260.044	0.514	Blank	Blank	95.983	n/a	3	7	2	n/a	2	n/a	2	n/a	n/a	n/a	n/a	289.359	n/a
260.574	0.497	angry	Picture	95.469	n/a	3	7	3	n/a	3	71	2	n/a	n/a	n/a	n/a	289.89	BM12HAS.jpg
261.072	0.514	Blank	Blank	94.955	n/a	3	7	3	n/a	3	n/a	2	n/a	n/a	n/a	n/a	290.387	n/a
261.602	0.497	angry	Picture	94.441	n/a	3	7	4	n/a	4	51	2	n/a	n/a	n/a	n/a	290.918	AF20HAS.jpg
262.099	0.514	Blank	Blank	93.927	n/a	3	7	4	n/a	4	n/a	2	n/a	n/a	n/a	n/a	291.415	n/a
262.63	0.497	angry	Picture	93.413	n/a	3	7	5	n/a	5	67	2	n/a	n/a	n/a	n/a	291.945	BM08HAS.jpg
263.127	0.514	Blank	Blank	92.899	n/a	3	7	5	n/a	5	n/a	2	n/a	n/a	n/a	n/a	292.443	n/a
263.658	0.497	angry	Picture	92.385	n/a	3	7	6	n/a	6	60	2	n/a	n/a	n/a	n/a	292.973	AF32HAS.jpg
264.155	0.514	Blank	Blank	91.871	n/a	3	7	6	n/a	6	n/a	2	n/a	n/a	n/a	n/a	293.471	n/a
264.686	0.497	angry	Picture	91.357	n/a	3	7	7	n/a	7	42	2	n/a	n/a	n/a	n/a	294.001	AF03HAS.jpg
265.183	0.514	Blank	Blank	90.843	n/a	3	7	7	n/a	7	n/a	2	n/a	n/a	n/a	n/a	294.499	n/a
265.714	0.497	angry	Picture	90.329	n/a	3	7	8	n/a	8	55	2	n/a	n/a	n/a	n/a	295.029	AF25HAS.jpg
266.211	0.514	Blank	Blank	89.815	n/a	3	7	8	n/a	8	n/a	2	n/a	n/a	n/a	n/a	295.526	n/a
266.742	0.497	angry	Picture	89.301	n/a	3	7	9	n/a	9	72	2	n/a	n/a	n/a	n/a	296.057	AM14HAS.jpg
267.239	0.514	Blank	Blank	88.787	n/a	3	7	9	n/a	9	n/a	2	n/a	n/a	n/a	n/a	296.554	n/a
267.769	0.497	angry	Picture	88.274	n/a	3	7	10	n/a	10	63	2	n/a	n/a	n/a	n/a	297.085	AM04HAS.jpg
268.267	0.514	Blank	Blank	87.76	n/a	3	7	10	n/a	10	n/a	2	n/a	n/a	n/a	n/a	297.582	n/a
268.797	0.497	angry	Picture	87.246	n/a	3	7	11	n/a	11	58	2	n/a	n/a	n/a	n/a	298.113	BF29HAS.jpg
269.295	0.514	Blank	Blank	86.732	n/a	3	7	11	n/a	11	n/a	2	n/a	n/a	n/a	n/a	298.61	n/a
269.825	0.497	angry	Picture	86.218	n/a	3	7	12	n/a	12	48	2	n/a	n/a	n/a	n/a	299.141	AF14HAS.jpg
270.322	0.514	Blank	Blank	85.704	n/a	3	7	12	n/a	12	n/a	2	n/a	n/a	n/a	n/a	299.638	n/a
270.853	0.497	angry	Picture	85.19	n/a	3	7	13	n/a	13	66	2	n/a	n/a	n/a	n/a	300.168	BM07HAS.jpg
271.35	0.514	Blank	Blank	84.676	n/a	3	7	13	n/a	13	n/a	2	n/a	n/a	n/a	n/a	300.666	n/a
271.881	0.497	angry	Picture	84.162	n/a	3	7	14	n/a	14	70	2	n/a	n/a	n/a	n/a	301.196	BM11HAS.jpg
272.378	0.514	Blank	Blank	83.648	n/a	3	7	14	n/a	14	n/a	2	n/a	n/a	n/a	n/a	301.694	n/a
272.909	0.497	angry	Picture	83.134	n/a	3	7	15	n/a	15	43	2	n/a	n/a	n/a	n/a	302.224	BF04HAS.jpg
273.406	0.514	Blank	Blank	82.62	n/a	3	7	15	n/a	15	n/a	2	n/a	n/a	n/a	n/a	302.722	n/a
273.937	0.497	angry	Picture	82.106	n/a	3	7	16	n/a	16	49	2	n/a	n/a	n/a	n/a	303.252	AF17HAS.jpg
274.434	0.514	Blank	Blank	81.592	n/a	3	7	16	n/a	16	n/a	2	n/a	n/a	n/a	n/a	303.75	n/a
274.964	0.497	angry	Picture	81.078	n/a	3	7	17	n/a	17	75	2	n/a	n/a	n/a	n/a	304.28	AM23HAS.jpg
275.462	0.514	Blank	Blank	80.565	n/a	3	7	17	n/a	17	n/a	2	n/a	n/a	n/a	n/a	304.777	n/a
275.992	0.497	angry	Picture	80.05	n/a	3	7	18	n/a	18	80	2	n/a	n/a	n/a	n/a	305.308	BM35HAS.jpg
276.49	0.514	Blank	Blank	79.537	n/a	3	7	18	n/a	18	n/a	2	n/a	n/a	n/a	n/a	305.805	n/a
277.02	0.497	angry	Picture	79.023	n/a	3	7	19	n/a	19	76	2	n/a	n/a	n/a	n/a	306.336	BM24HAS.jpg
277.518	0.514	Blank	Blank	78.509	n/a	3	7	19	n/a	19	n/a	2	n/a	n/a	n/a	n/a	306.833	n/a
278.048	0.497	angry	Picture	77.995	n/a	3	7	20	n/a	20	74	2	n/a	n/a	n/a	n/a	307.364	AM22HAS.jpg
278.546	0.514	Blank	Blank	77.481	n/a	3	7	20	n/a	20	n/a	2	n/a	n/a	n/a	n/a	307.861	n/a
279.076	10.014	ITI	Fixation+	67.451	n/a	3	n/a	n/a	n/a	n/a	n/a	n/a	n/a	n/a	n/a	n/a	308.392	n/a
289.106	0.497	neutral	Picture	66.937	n/a	3	8	1	n/a	21	33	1	n/a	n/a	n/a	n/a	318.422	AM21NES.jpg
289.603	0.514	Blank	Blank	66.423	n/a	3	8	1	n/a	21	n/a	1	n/a	n/a	n/a	n/a	318.919	n/a
290.134	0.497	neutral	Picture	65.909	n/a	3	8	2	n/a	22	39	1	n/a	n/a	n/a	n/a	319.45	AM28NES.jpg
290.631	0.514	Blank	Blank	65.395	n/a	3	8	2	n/a	22	n/a	1	n/a	n/a	n/a	n/a	319.947	n/a
291.162	0.497	neutral	Picture	64.881	n/a	3	8	3	n/a	23	25	1	n/a	n/a	n/a	n/a	320.477	BM06NES.jpg
291.659	0.514	Blank	Blank	64.367	n/a	3	8	3	n/a	23	n/a	1	n/a	n/a	n/a	n/a	320.975	n/a
292.19	0.497	neutral	Picture	63.853	n/a	3	8	4	n/a	24	5	1	n/a	n/a	n/a	n/a	321.505	BF07NES.jpg
292.687	0.514	Blank	Blank	63.339	n/a	3	8	4	n/a	24	n/a	1	n/a	n/a	n/a	n/a	322.003	n/a
293.218	0.497	neutral	Picture	62.825	n/a	3	8	5	n/a	25	10	1	n/a	n/a	n/a	n/a	322.533	AF18NES.jpg
293.715	0.514	Blank	Blank	62.311	n/a	3	8	5	n/a	25	n/a	1	n/a	n/a	n/a	n/a	323.031	n/a
294.245	0.497	neutral	Picture	61.797	n/a	3	8	6	n/a	26	34	1	n/a	n/a	n/a	n/a	323.561	AM22NES.jpg
294.743	0.514	Blank	Blank	61.284	n/a	3	8	6	n/a	26	n/a	1	n/a	n/a	n/a	n/a	324.058	n/a
295.273	0.497	neutral	Picture	60.769	n/a	3	8	7	n/a	27	36	1	n/a	n/a	n/a	n/a	324.589	BM24NES.jpg
295.771	0.514	Blank	Blank	60.256	n/a	3	8	7	n/a	27	n/a	1	n/a	n/a	n/a	n/a	325.086	n/a
296.301	0.497	neutral	Picture	59.742	n/a	3	8	8	n/a	28	14	1	n/a	n/a	n/a	n/a	325.617	AF23NES.jpg
296.799	0.514	Blank	Blank	59.228	n/a	3	8	8	n/a	28	n/a	1	n/a	n/a	n/a	n/a	326.114	n/a
297.329	0.497	neutral	Picture	58.714	n/a	3	8	9	n/a	29	9	1	n/a	n/a	n/a	n/a	326.645	AF17NES.jpg
297.827	0.514	Blank	Blank	58.2	n/a	3	8	9	n/a	29	n/a	1	n/a	n/a	n/a	n/a	327.142	n/a
298.357	0.497	neutral	Picture	57.686	n/a	3	8	10	n/a	30	19	1	n/a	n/a	n/a	n/a	327.673	AF31NES.jpg
298.854	0.514	Blank	Blank	57.172	n/a	3	8	10	n/a	30	n/a	1	n/a	n/a	n/a	n/a	328.17	n/a
299.385	0.497	neutral	Picture	56.658	n/a	3	8	11	n/a	31	15	1	n/a	n/a	n/a	n/a	328.7	AF25NES.jpg
299.882	0.514	Blank	Blank	56.144	n/a	3	8	11	n/a	31	n/a	1	n/a	n/a	n/a	n/a	329.198	n/a
300.413	0.497	neutral	Picture	55.63	n/a	3	8	12	n/a	32	22	1	n/a	n/a	n/a	n/a	329.728	BM03NES.jpg
300.91	0.514	Blank	Blank	55.116	n/a	3	8	12	n/a	32	n/a	1	n/a	n/a	n/a	n/a	330.226	n/a
301.441	0.497	neutral	Picture	54.602	n/a	3	8	13	n/a	33	11	1	n/a	n/a	n/a	n/a	330.756	AF20NES.jpg
301.938	0.514	Blank	Blank	54.088	n/a	3	8	13	n/a	33	n/a	1	n/a	n/a	n/a	n/a	331.254	n/a
302.469	0.497	neutral	Picture	53.574	n/a	3	8	14	n/a	34	4	1	n/a	n/a	n/a	n/a	331.784	AF05NES.jpg
302.966	0.514	Blank	Blank	53.06	n/a	3	8	14	n/a	34	n/a	1	n/a	n/a	n/a	n/a	332.281	n/a
303.496	0.497	neutral	Picture	52.546	n/a	3	8	15	n/a	35	17	1	n/a	n/a	n/a	n/a	332.812	BF28NES.jpg
303.994	0.514	Blank	Blank	52.033	n/a	3	8	15	n/a	35	n/a	1	n/a	n/a	n/a	n/a	333.309	n/a
304.524	0.497	neutral	Picture	51.519	n/a	3	8	16	n/a	36	13	1	n/a	n/a	n/a	n/a	333.84	BF22NES.jpg
305.022	0.514	Blank	Blank	51.005	n/a	3	8	16	n/a	36	n/a	1	n/a	n/a	n/a	n/a	334.337	n/a
305.552	0.497	neutral	Picture	50.491	n/a	3	8	17	n/a	37	12	1	n/a	n/a	n/a	n/a	334.868	AF21NES.jpg
306.05	0.514	Blank	Blank	49.977	n/a	3	8	17	n/a	37	n/a	1	n/a	n/a	n/a	n/a	335.365	n/a
306.58	0.497	neutral	Picture	49.463	n/a	3	8	18	n/a	38	24	1	n/a	n/a	n/a	n/a	335.896	BM05NES.jpg
307.077	0.514	Blank	Blank	48.949	n/a	3	8	18	n/a	38	n/a	1	n/a	n/a	n/a	n/a	336.393	n/a
307.608	0.497	neutral	Picture	48.435	n/a	3	8	19	n/a	39	29	1	n/a	n/a	n/a	n/a	336.923	AM10NES.jpg
308.105	0.514	Blank	Blank	47.921	n/a	3	8	19	n/a	39	n/a	1	n/a	n/a	n/a	n/a	337.421	n/a
308.636	0.497	neutral	Picture	47.407	n/a	3	8	20	n/a	40	23	1	n/a	n/a	n/a	n/a	337.951	AM04NES.jpg
309.133	0.514	Blank	Blank	46.893	n/a	3	8	20	n/a	40	n/a	1	n/a	n/a	n/a	n/a	338.449	n/a
309.664	10.014	ITI	Fixation+	36.863	n/a	3	n/a	n/a	n/a	n/a	n/a	n/a	n/a	n/a	n/a	n/a	338.979	n/a
319.694	0.495	angry	Picture	36.351	n/a	3	9	1	n/a	41	62	2	n/a	n/a	n/a	n/a	349.009	BM03HAS.jpg
320.189	0.516	Blank	Blank	35.835	n/a	3	9	1	n/a	41	n/a	2	n/a	n/a	n/a	n/a	349.504	n/a
320.722	0.497	angry	Picture	35.321	n/a	3	9	2	n/a	42	52	2	n/a	n/a	n/a	n/a	350.037	AF21HAS.jpg
321.219	0.514	Blank	Blank	34.807	n/a	3	9	2	n/a	42	n/a	2	n/a	n/a	n/a	n/a	350.535	n/a
321.75	0.497	angry	Picture	34.293	n/a	3	9	3	n/a	43	44	2	n/a	n/a	n/a	n/a	351.065	AF05HAS.jpg
322.247	0.514	Blank	Blank	33.779	n/a	3	9	3	n/a	43	n/a	2	n/a	n/a	n/a	n/a	351.563	n/a
322.778	0.497	angry	Picture	33.265	n/a	3	9	4	n/a	44	53	2	n/a	n/a	n/a	n/a	352.093	BF22HAS.jpg
323.275	0.514	Blank	Blank	32.751	n/a	3	9	4	n/a	44	n/a	2	n/a	n/a	n/a	n/a	352.59	n/a
323.805	0.497	angry	Picture	32.238	n/a	3	9	5	n/a	45	54	2	n/a	n/a	n/a	n/a	353.121	AF23HAS.jpg
324.303	0.514	Blank	Blank	31.724	n/a	3	9	5	n/a	45	n/a	2	n/a	n/a	n/a	n/a	353.618	n/a
324.833	0.497	angry	Picture	31.21	n/a	3	9	6	n/a	46	68	2	n/a	n/a	n/a	n/a	354.149	AM09HAS.jpg
325.331	0.514	Blank	Blank	30.696	n/a	3	9	6	n/a	46	n/a	2	n/a	n/a	n/a	n/a	354.646	n/a
325.861	0.497	angry	Picture	30.182	n/a	3	9	7	n/a	47	64	2	n/a	n/a	n/a	n/a	355.177	BM05HAS.jpg
326.358	0.514	Blank	Blank	29.668	n/a	3	9	7	n/a	47	n/a	2	n/a	n/a	n/a	n/a	355.674	n/a
326.889	0.497	angry	Picture	29.154	n/a	3	9	8	n/a	48	59	2	n/a	n/a	n/a	n/a	356.204	AF31HAS.jpg
327.386	0.514	Blank	Blank	28.64	n/a	3	9	8	n/a	48	n/a	2	n/a	n/a	n/a	n/a	356.702	n/a
327.917	0.497	angry	Picture	28.126	n/a	3	9	9	n/a	49	41	2	n/a	n/a	n/a	n/a	357.232	AF01HAS.jpg
328.414	0.514	Blank	Blank	27.612	n/a	3	9	9	n/a	49	n/a	2	n/a	n/a	n/a	n/a	357.73	n/a
328.945	0.497	angry	Picture	27.098	n/a	3	9	10	n/a	50	73	2	n/a	n/a	n/a	n/a	358.26	AM21HAS.jpg
329.442	0.514	Blank	Blank	26.584	n/a	3	9	10	n/a	50	n/a	2	n/a	n/a	n/a	n/a	358.758	n/a
329.973	0.497	angry	Picture	26.07	n/a	3	9	11	n/a	51	65	2	n/a	n/a	n/a	n/a	359.288	BM06HAS.jpg
330.47	0.514	Blank	Blank	25.556	n/a	3	9	11	n/a	51	n/a	2	n/a	n/a	n/a	n/a	359.786	n/a
331.0	0.497	angry	Picture	25.042	n/a	3	9	12	n/a	52	56	2	n/a	n/a	n/a	n/a	360.316	AF26HAS.jpg
331.498	0.514	Blank	Blank	24.529	n/a	3	9	12	n/a	52	n/a	2	n/a	n/a	n/a	n/a	360.813	n/a
332.028	0.497	angry	Picture	24.015	n/a	3	9	13	n/a	53	45	2	n/a	n/a	n/a	n/a	361.344	BF07HAS.jpg
332.526	0.514	Blank	Blank	23.501	n/a	3	9	13	n/a	53	n/a	2	n/a	n/a	n/a	n/a	361.841	n/a
333.056	0.497	angry	Picture	22.987	n/a	3	9	14	n/a	54	78	2	n/a	n/a	n/a	n/a	362.372	BM26HAS.jpg
333.554	0.514	Blank	Blank	22.473	n/a	3	9	14	n/a	54	n/a	2	n/a	n/a	n/a	n/a	362.869	n/a
334.084	0.497	angry	Picture	21.959	n/a	3	9	15	n/a	55	50	2	n/a	n/a	n/a	n/a	363.4	AF18HAS.jpg
334.582	0.514	Blank	Blank	21.445	n/a	3	9	15	n/a	55	n/a	2	n/a	n/a	n/a	n/a	363.897	n/a
335.112	0.497	angry	Picture	20.931	n/a	3	9	16	n/a	56	47	2	n/a	n/a	n/a	n/a	364.428	BF11HAS.jpg
335.609	0.514	Blank	Blank	20.417	n/a	3	9	16	n/a	56	n/a	2	n/a	n/a	n/a	n/a	364.925	n/a
336.14	0.497	angry	Picture	19.903	n/a	3	9	17	n/a	57	77	2	n/a	n/a	n/a	n/a	365.455	BM25HAS.jpg
336.637	0.514	Blank	Blank	19.389	n/a	3	9	17	n/a	57	n/a	2	n/a	n/a	n/a	n/a	365.953	n/a
337.168	0.497	angry	Picture	18.875	n/a	3	9	18	n/a	58	57	2	n/a	n/a	n/a	n/a	366.483	BF28HAS.jpg
337.665	0.514	Blank	Blank	18.361	n/a	3	9	18	n/a	58	n/a	2	n/a	n/a	n/a	n/a	366.981	n/a
338.196	0.497	angry	Picture	17.847	n/a	3	9	19	n/a	59	61	2	n/a	n/a	n/a	n/a	367.511	AM01HAS.jpg
338.693	0.514	Blank	Blank	17.333	n/a	3	9	19	n/a	59	n/a	2	n/a	n/a	n/a	n/a	368.009	n/a
339.224	0.497	angry	Picture	16.819	n/a	3	9	20	n/a	60	79	2	n/a	n/a	n/a	n/a	368.539	BM28HAS.jpg
339.721	0.514	Blank	Blank	16.305	n/a	3	9	20	n/a	60	n/a	2	n/a	n/a	n/a	n/a	369.036	n/a
340.251	10.014	ITI	Fixation+	6.275	n/a	3	n/a	n/a	n/a	n/a	n/a	n/a	n/a	n/a	n/a	n/a	369.567	n/a
356.54	n/a	ConfirmRating	Rate	n/a	6.266	3	n/a	n/a	0	n/a	n/a	n/a	2	Angry	50	50	385.856	n/a
360.946	n/a	ConfirmRating	Rate	n/a	4.393	3	n/a	n/a	1	n/a	n/a	n/a	3	Angry	0	46	390.262	n/a
360.975	10.014	ITI	Fixation+	103.425	n/a	4	n/a	n/a	n/a	n/a	n/a	n/a	n/a	n/a	n/a	n/a	390.29	n/a
371.005	0.497	happy	Picture	102.911	n/a	4	10	1	n/a	61	119	3	n/a	n/a	n/a	n/a	400.32	BM28ANS.jpg
371.502	0.514	Blank	Blank	102.397	n/a	4	10	1	n/a	61	n/a	3	n/a	n/a	n/a	n/a	400.818	n/a
372.033	0.497	happy	Picture	101.883	n/a	4	10	2	n/a	62	100	3	n/a	n/a	n/a	n/a	401.348	AF32ANS.jpg
372.53	0.514	Blank	Blank	101.369	n/a	4	10	2	n/a	62	n/a	3	n/a	n/a	n/a	n/a	401.846	n/a
373.061	0.497	happy	Picture	100.855	n/a	4	10	3	n/a	63	118	3	n/a	n/a	n/a	n/a	402.376	BM26ANS.jpg
373.558	0.514	Blank	Blank	100.341	n/a	4	10	3	n/a	63	n/a	3	n/a	n/a	n/a	n/a	402.873	n/a
374.089	0.497	happy	Picture	99.827	n/a	4	10	4	n/a	64	89	3	n/a	n/a	n/a	n/a	403.404	AF17ANS.jpg
374.586	0.514	Blank	Blank	99.313	n/a	4	10	4	n/a	64	n/a	3	n/a	n/a	n/a	n/a	403.901	n/a
375.116	0.497	happy	Picture	98.799	n/a	4	10	5	n/a	65	116	3	n/a	n/a	n/a	n/a	404.432	BM24ANS.jpg
375.614	0.514	Blank	Blank	98.285	n/a	4	10	5	n/a	65	n/a	3	n/a	n/a	n/a	n/a	404.929	n/a
376.144	0.497	happy	Picture	97.771	n/a	4	10	6	n/a	66	105	3	n/a	n/a	n/a	n/a	405.46	BM06ANS.jpg
376.642	0.514	Blank	Blank	97.257	n/a	4	10	6	n/a	66	n/a	3	n/a	n/a	n/a	n/a	405.957	n/a
377.172	0.497	happy	Picture	96.744	n/a	4	10	7	n/a	67	106	3	n/a	n/a	n/a	n/a	406.488	AM07ANS.jpg
377.67	0.514	Blank	Blank	96.23	n/a	4	10	7	n/a	67	n/a	3	n/a	n/a	n/a	n/a	406.985	n/a
378.2	0.497	happy	Picture	95.716	n/a	4	10	8	n/a	68	94	3	n/a	n/a	n/a	n/a	407.515	AF23ANS.jpg
378.697	0.514	Blank	Blank	95.202	n/a	4	10	8	n/a	68	n/a	3	n/a	n/a	n/a	n/a	408.013	n/a
379.228	0.497	happy	Picture	94.688	n/a	4	10	9	n/a	69	117	3	n/a	n/a	n/a	n/a	408.543	BM25ANS.jpg
379.725	0.514	Blank	Blank	94.174	n/a	4	10	9	n/a	69	n/a	3	n/a	n/a	n/a	n/a	409.041	n/a
380.256	0.497	happy	Picture	93.66	n/a	4	10	10	n/a	70	90	3	n/a	n/a	n/a	n/a	409.571	AF18ANS.jpg
380.753	0.514	Blank	Blank	93.146	n/a	4	10	10	n/a	70	n/a	3	n/a	n/a	n/a	n/a	410.069	n/a
381.284	0.497	happy	Picture	92.632	n/a	4	10	11	n/a	71	83	3	n/a	n/a	n/a	n/a	410.599	BF04ANS.jpg
381.781	0.514	Blank	Blank	92.118	n/a	4	10	11	n/a	71	n/a	3	n/a	n/a	n/a	n/a	411.096	n/a
382.312	0.497	happy	Picture	91.604	n/a	4	10	12	n/a	72	112	3	n/a	n/a	n/a	n/a	411.627	AM14ANS.jpg
382.809	0.514	Blank	Blank	91.09	n/a	4	10	12	n/a	72	n/a	3	n/a	n/a	n/a	n/a	412.124	n/a
383.339	0.497	happy	Picture	90.576	n/a	4	10	13	n/a	73	102	3	n/a	n/a	n/a	n/a	412.655	BM03ANS.jpg
383.837	0.514	Blank	Blank	90.062	n/a	4	10	13	n/a	73	n/a	3	n/a	n/a	n/a	n/a	413.152	n/a
384.367	0.497	happy	Picture	89.548	n/a	4	10	14	n/a	74	95	3	n/a	n/a	n/a	n/a	413.683	AF25ANS.jpg
384.865	0.514	Blank	Blank	89.034	n/a	4	10	14	n/a	74	n/a	3	n/a	n/a	n/a	n/a	414.18	n/a
385.395	0.497	happy	Picture	88.52	n/a	4	10	15	n/a	75	113	3	n/a	n/a	n/a	n/a	414.711	AM21ANS.jpg
385.893	0.514	Blank	Blank	88.007	n/a	4	10	15	n/a	75	n/a	3	n/a	n/a	n/a	n/a	415.208	n/a
386.423	0.497	happy	Picture	87.493	n/a	4	10	16	n/a	76	88	3	n/a	n/a	n/a	n/a	415.739	AF14ANS.jpg
386.92	0.514	Blank	Blank	86.979	n/a	4	10	16	n/a	76	n/a	3	n/a	n/a	n/a	n/a	416.236	n/a
387.451	0.497	happy	Picture	86.465	n/a	4	10	17	n/a	77	93	3	n/a	n/a	n/a	n/a	416.767	BF22ANS.jpg
387.948	0.514	Blank	Blank	85.951	n/a	4	10	17	n/a	77	n/a	3	n/a	n/a	n/a	n/a	417.264	n/a
388.479	0.497	happy	Picture	85.437	n/a	4	10	18	n/a	78	86	3	n/a	n/a	n/a	n/a	417.794	AF09ANS.jpg
388.976	0.514	Blank	Blank	84.923	n/a	4	10	18	n/a	78	n/a	3	n/a	n/a	n/a	n/a	418.292	n/a
389.507	0.497	happy	Picture	84.409	n/a	4	10	19	n/a	79	92	3	n/a	n/a	n/a	n/a	418.822	AF21ANS.jpg
390.004	0.514	Blank	Blank	83.895	n/a	4	10	19	n/a	79	n/a	3	n/a	n/a	n/a	n/a	419.32	n/a
390.535	0.497	happy	Picture	83.381	n/a	4	10	20	n/a	80	84	3	n/a	n/a	n/a	n/a	419.85	AF05ANS.jpg
391.032	0.514	Blank	Blank	82.867	n/a	4	10	20	n/a	80	n/a	3	n/a	n/a	n/a	n/a	420.348	n/a
391.563	10.014	ITI	Fixation+	72.837	n/a	4	n/a	n/a	n/a	n/a	n/a	n/a	n/a	n/a	n/a	n/a	420.878	n/a
401.593	0.497	neutral	Picture	72.323	n/a	4	11	1	n/a	81	4	1	n/a	n/a	n/a	n/a	430.908	AF05NES.jpg
402.09	0.514	Blank	Blank	71.809	n/a	4	11	1	n/a	81	n/a	1	n/a	n/a	n/a	n/a	431.405	n/a
402.62	0.497	neutral	Picture	71.295	n/a	4	11	2	n/a	82	14	1	n/a	n/a	n/a	n/a	431.936	AF23NES.jpg
403.118	0.514	Blank	Blank	70.781	n/a	4	11	2	n/a	82	n/a	1	n/a	n/a	n/a	n/a	432.433	n/a
403.648	0.497	neutral	Picture	70.267	n/a	4	11	3	n/a	83	19	1	n/a	n/a	n/a	n/a	432.964	AF31NES.jpg
404.146	0.514	Blank	Blank	69.753	n/a	4	11	3	n/a	83	n/a	1	n/a	n/a	n/a	n/a	433.461	n/a
404.676	0.497	neutral	Picture	69.239	n/a	4	11	4	n/a	84	8	1	n/a	n/a	n/a	n/a	433.992	AF14NES.jpg
405.174	0.514	Blank	Blank	68.726	n/a	4	11	4	n/a	84	n/a	1	n/a	n/a	n/a	n/a	434.489	n/a
405.704	0.497	neutral	Picture	68.212	n/a	4	11	5	n/a	85	25	1	n/a	n/a	n/a	n/a	435.02	BM06NES.jpg
406.202	0.514	Blank	Blank	67.698	n/a	4	11	5	n/a	85	n/a	1	n/a	n/a	n/a	n/a	435.517	n/a
406.732	0.497	neutral	Picture	67.184	n/a	4	11	6	n/a	86	9	1	n/a	n/a	n/a	n/a	436.048	AF17NES.jpg
407.229	0.514	Blank	Blank	66.67	n/a	4	11	6	n/a	86	n/a	1	n/a	n/a	n/a	n/a	436.545	n/a
407.76	0.497	neutral	Picture	66.156	n/a	4	11	7	n/a	87	2	1	n/a	n/a	n/a	n/a	437.075	AF03NES.jpg
408.257	0.514	Blank	Blank	65.642	n/a	4	11	7	n/a	87	n/a	1	n/a	n/a	n/a	n/a	437.573	n/a
408.788	0.497	neutral	Picture	65.128	n/a	4	11	8	n/a	88	17	1	n/a	n/a	n/a	n/a	438.103	BF28NES.jpg
409.285	0.514	Blank	Blank	64.614	n/a	4	11	8	n/a	88	n/a	1	n/a	n/a	n/a	n/a	438.601	n/a
409.816	0.497	neutral	Picture	64.1	n/a	4	11	9	n/a	89	6	1	n/a	n/a	n/a	n/a	439.131	AF09NES.jpg
410.313	0.514	Blank	Blank	63.586	n/a	4	11	9	n/a	89	n/a	1	n/a	n/a	n/a	n/a	439.628	n/a
410.844	0.497	neutral	Picture	63.072	n/a	4	11	10	n/a	90	12	1	n/a	n/a	n/a	n/a	440.159	AF21NES.jpg
411.341	0.514	Blank	Blank	62.558	n/a	4	11	10	n/a	90	n/a	1	n/a	n/a	n/a	n/a	440.656	n/a
411.871	0.497	neutral	Picture	62.044	n/a	4	11	11	n/a	91	24	1	n/a	n/a	n/a	n/a	441.187	BM05NES.jpg
412.369	0.514	Blank	Blank	61.53	n/a	4	11	11	n/a	91	n/a	1	n/a	n/a	n/a	n/a	441.684	n/a
412.899	0.497	neutral	Picture	61.016	n/a	4	11	12	n/a	92	34	1	n/a	n/a	n/a	n/a	442.215	AM22NES.jpg
413.397	0.514	Blank	Blank	60.502	n/a	4	11	12	n/a	92	n/a	1	n/a	n/a	n/a	n/a	442.712	n/a
413.927	0.497	neutral	Picture	59.989	n/a	4	11	13	n/a	93	23	1	n/a	n/a	n/a	n/a	443.243	AM04NES.jpg
414.425	0.514	Blank	Blank	59.475	n/a	4	11	13	n/a	93	n/a	1	n/a	n/a	n/a	n/a	443.74	n/a
414.955	0.497	neutral	Picture	58.961	n/a	4	11	14	n/a	94	15	1	n/a	n/a	n/a	n/a	444.271	AF25NES.jpg
415.452	0.514	Blank	Blank	58.447	n/a	4	11	14	n/a	94	n/a	1	n/a	n/a	n/a	n/a	444.768	n/a
415.983	0.497	neutral	Picture	57.933	n/a	4	11	15	n/a	95	37	1	n/a	n/a	n/a	n/a	445.298	BM25NES.jpg
416.48	0.514	Blank	Blank	57.419	n/a	4	11	15	n/a	95	n/a	1	n/a	n/a	n/a	n/a	445.796	n/a
417.011	0.497	neutral	Picture	56.905	n/a	4	11	16	n/a	96	32	1	n/a	n/a	n/a	n/a	446.326	AM14NES.jpg
417.508	0.514	Blank	Blank	56.391	n/a	4	11	16	n/a	96	n/a	1	n/a	n/a	n/a	n/a	446.824	n/a
418.039	0.497	neutral	Picture	55.877	n/a	4	11	17	n/a	97	3	1	n/a	n/a	n/a	n/a	447.354	BF04NES.jpg
418.536	0.514	Blank	Blank	55.363	n/a	4	11	17	n/a	97	n/a	1	n/a	n/a	n/a	n/a	447.851	n/a
419.067	0.497	neutral	Picture	54.849	n/a	4	11	18	n/a	98	16	1	n/a	n/a	n/a	n/a	448.382	AF26NES.jpg
419.564	0.514	Blank	Blank	54.335	n/a	4	11	18	n/a	98	n/a	1	n/a	n/a	n/a	n/a	448.879	n/a
420.094	0.497	neutral	Picture	53.821	n/a	4	11	19	n/a	99	27	1	n/a	n/a	n/a	n/a	449.41	BM08NES.jpg
420.592	0.514	Blank	Blank	53.307	n/a	4	11	19	n/a	99	n/a	1	n/a	n/a	n/a	n/a	449.907	n/a
421.122	0.497	neutral	Picture	52.793	n/a	4	11	20	n/a	100	28	1	n/a	n/a	n/a	n/a	450.438	AM09NES.jpg
421.62	0.514	Blank	Blank	52.279	n/a	4	11	20	n/a	100	n/a	1	n/a	n/a	n/a	n/a	450.935	n/a
422.15	10.014	ITI	Fixation+	42.249	n/a	4	n/a	n/a	n/a	n/a	n/a	n/a	n/a	n/a	n/a	n/a	451.466	n/a
432.18	0.497	happy	Picture	41.736	n/a	4	12	1	n/a	101	81	3	n/a	n/a	n/a	n/a	461.496	AF01ANS.jpg
432.678	0.514	Blank	Blank	41.221	n/a	4	12	1	n/a	101	n/a	3	n/a	n/a	n/a	n/a	461.993	n/a
433.208	0.497	happy	Picture	40.708	n/a	4	12	2	n/a	102	120	3	n/a	n/a	n/a	n/a	462.524	AM35ANS.jpg
433.706	0.514	Blank	Blank	40.194	n/a	4	12	2	n/a	102	n/a	3	n/a	n/a	n/a	n/a	463.021	n/a
434.236	0.497	happy	Picture	39.68	n/a	4	12	3	n/a	103	114	3	n/a	n/a	n/a	n/a	463.551	AM22ANS.jpg
434.733	0.514	Blank	Blank	39.166	n/a	4	12	3	n/a	103	n/a	3	n/a	n/a	n/a	n/a	464.049	n/a
435.264	0.497	happy	Picture	38.652	n/a	4	12	4	n/a	104	109	3	n/a	n/a	n/a	n/a	464.579	AM10ANS.jpg
435.761	0.514	Blank	Blank	38.138	n/a	4	12	4	n/a	104	n/a	3	n/a	n/a	n/a	n/a	465.077	n/a
436.292	0.497	happy	Picture	37.624	n/a	4	12	5	n/a	105	96	3	n/a	n/a	n/a	n/a	465.607	AF26ANS.jpg
436.789	0.514	Blank	Blank	37.11	n/a	4	12	5	n/a	105	n/a	3	n/a	n/a	n/a	n/a	466.105	n/a
437.32	0.497	happy	Picture	36.596	n/a	4	12	6	n/a	106	82	3	n/a	n/a	n/a	n/a	466.635	AF03ANS.jpg
437.817	0.514	Blank	Blank	36.082	n/a	4	12	6	n/a	106	n/a	3	n/a	n/a	n/a	n/a	467.132	n/a
438.348	0.497	happy	Picture	35.568	n/a	4	12	7	n/a	107	97	3	n/a	n/a	n/a	n/a	467.663	BF28ANS.jpg
438.845	0.514	Blank	Blank	35.054	n/a	4	12	7	n/a	107	n/a	3	n/a	n/a	n/a	n/a	468.16	n/a
439.375	0.497	happy	Picture	34.54	n/a	4	12	8	n/a	108	115	3	n/a	n/a	n/a	n/a	468.691	AM23ANS.jpg
439.873	0.514	Blank	Blank	34.026	n/a	4	12	8	n/a	108	n/a	3	n/a	n/a	n/a	n/a	469.188	n/a
440.403	0.497	happy	Picture	33.512	n/a	4	12	9	n/a	109	91	3	n/a	n/a	n/a	n/a	469.719	AF20ANS.jpg
440.901	0.514	Blank	Blank	32.998	n/a	4	12	9	n/a	109	n/a	3	n/a	n/a	n/a	n/a	470.216	n/a
441.431	0.497	happy	Picture	32.485	n/a	4	12	10	n/a	110	87	3	n/a	n/a	n/a	n/a	470.747	BF11ANS.jpg
441.929	0.514	Blank	Blank	31.971	n/a	4	12	10	n/a	110	n/a	3	n/a	n/a	n/a	n/a	471.244	n/a
442.459	0.497	happy	Picture	31.457	n/a	4	12	11	n/a	111	85	3	n/a	n/a	n/a	n/a	471.775	BF07ANS.jpg
442.956	0.514	Blank	Blank	30.943	n/a	4	12	11	n/a	111	n/a	3	n/a	n/a	n/a	n/a	472.272	n/a
443.487	0.497	happy	Picture	30.429	n/a	4	12	12	n/a	112	110	3	n/a	n/a	n/a	n/a	472.802	AM11ANS.jpg
443.984	0.514	Blank	Blank	29.915	n/a	4	12	12	n/a	112	n/a	3	n/a	n/a	n/a	n/a	473.3	n/a
444.515	0.497	happy	Picture	29.401	n/a	4	12	13	n/a	113	111	3	n/a	n/a	n/a	n/a	473.83	BM12ANS.jpg
445.012	0.514	Blank	Blank	28.887	n/a	4	12	13	n/a	113	n/a	3	n/a	n/a	n/a	n/a	474.328	n/a
445.543	0.497	happy	Picture	28.373	n/a	4	12	14	n/a	114	103	3	n/a	n/a	n/a	n/a	474.858	AM04ANS.jpg
446.04	0.514	Blank	Blank	27.859	n/a	4	12	14	n/a	114	n/a	3	n/a	n/a	n/a	n/a	475.356	n/a
446.571	0.497	happy	Picture	27.345	n/a	4	12	15	n/a	115	101	3	n/a	n/a	n/a	n/a	475.886	AM01ANS.jpg
447.068	0.514	Blank	Blank	26.831	n/a	4	12	15	n/a	115	n/a	3	n/a	n/a	n/a	n/a	476.383	n/a
447.599	0.497	happy	Picture	26.317	n/a	4	12	16	n/a	116	104	3	n/a	n/a	n/a	n/a	476.914	BM05ANS.jpg
448.096	0.514	Blank	Blank	25.803	n/a	4	12	16	n/a	116	n/a	3	n/a	n/a	n/a	n/a	477.411	n/a
448.626	0.497	happy	Picture	25.289	n/a	4	12	17	n/a	117	107	3	n/a	n/a	n/a	n/a	477.942	BM08ANS.jpg
449.124	0.514	Blank	Blank	24.775	n/a	4	12	17	n/a	117	n/a	3	n/a	n/a	n/a	n/a	478.439	n/a
449.654	0.497	happy	Picture	24.261	n/a	4	12	18	n/a	118	98	3	n/a	n/a	n/a	n/a	478.97	BF29ANS.jpg
450.152	0.514	Blank	Blank	23.748	n/a	4	12	18	n/a	118	n/a	3	n/a	n/a	n/a	n/a	479.467	n/a
450.682	0.497	happy	Picture	23.234	n/a	4	12	19	n/a	119	99	3	n/a	n/a	n/a	n/a	479.998	AF31ANS.jpg
451.18	0.514	Blank	Blank	22.72	n/a	4	12	19	n/a	119	n/a	3	n/a	n/a	n/a	n/a	480.495	n/a
451.71	0.497	happy	Picture	22.206	n/a	4	12	20	n/a	120	108	3	n/a	n/a	n/a	n/a	481.026	AM09ANS.jpg
452.207	0.514	Blank	Blank	21.692	n/a	4	12	20	n/a	120	n/a	3	n/a	n/a	n/a	n/a	481.523	n/a
452.738	10.014	ITI	Fixation+	11.662	n/a	4	n/a	n/a	n/a	n/a	n/a	n/a	n/a	n/a	n/a	n/a	482.053	n/a
474.413	n/a	ConfirmRating	Rate	n/a	11.655	4	n/a	n/a	0	n/a	n/a	n/a	2	Happy	82	54	503.729	n/a
479.734	n/a	ConfirmRating	Rate	n/a	5.306	4	n/a	n/a	1	n/a	n/a	n/a	3	Happy	2	48	509.05	n/a
