onset	duration	trial_type	event_type	time_until_response	response_time	trial_number	block_num_within_trial	image_seq_num_within_block	question_seq_num_within_block	image_seq_num	picture_number	condition	question_type	block_type	rating	rating_computed	onset_uncorrected	KDEV_imagefile
0.008	10.014	ITI	Fixation+	98.54	n/a	1	n/a	n/a	n/a	n/a	n/a	n/a	n/a	n/a	n/a	n/a	32.506	n/a
10.039	0.497	happy	Picture	98.026	n/a	1	1	1	n/a	1	108	3	n/a	n/a	n/a	n/a	42.536	AM09ANS.jpg
10.536	0.514	Blank	Blank	97.512	n/a	1	1	1	n/a	1	n/a	3	n/a	n/a	n/a	n/a	43.033	n/a
11.066	0.497	happy	Picture	96.998	n/a	1	1	2	n/a	2	99	3	n/a	n/a	n/a	n/a	43.564	AF31ANS.jpg
11.564	0.514	Blank	Blank	96.484	n/a	1	1	2	n/a	2	n/a	3	n/a	n/a	n/a	n/a	44.061	n/a
12.094	0.497	happy	Picture	95.97	n/a	1	1	3	n/a	3	98	3	n/a	n/a	n/a	n/a	44.592	BF29ANS.jpg
12.592	0.514	Blank	Blank	95.457	n/a	1	1	3	n/a	3	n/a	3	n/a	n/a	n/a	n/a	45.089	n/a
13.122	0.497	happy	Picture	94.943	n/a	1	1	4	n/a	4	107	3	n/a	n/a	n/a	n/a	45.62	BM08ANS.jpg
13.62	0.514	Blank	Blank	94.429	n/a	1	1	4	n/a	4	n/a	3	n/a	n/a	n/a	n/a	46.117	n/a
14.15	0.497	happy	Picture	93.915	n/a	1	1	5	n/a	5	104	3	n/a	n/a	n/a	n/a	46.648	BM05ANS.jpg
14.648	0.514	Blank	Blank	93.401	n/a	1	1	5	n/a	5	n/a	3	n/a	n/a	n/a	n/a	47.145	n/a
15.178	0.497	happy	Picture	92.887	n/a	1	1	6	n/a	6	101	3	n/a	n/a	n/a	n/a	47.675	AM01ANS.jpg
15.675	0.514	Blank	Blank	92.373	n/a	1	1	6	n/a	6	n/a	3	n/a	n/a	n/a	n/a	48.173	n/a
16.206	0.497	happy	Picture	91.859	n/a	1	1	7	n/a	7	103	3	n/a	n/a	n/a	n/a	48.703	AM04ANS.jpg
16.703	0.514	Blank	Blank	91.345	n/a	1	1	7	n/a	7	n/a	3	n/a	n/a	n/a	n/a	49.201	n/a
17.234	0.497	happy	Picture	90.831	n/a	1	1	8	n/a	8	111	3	n/a	n/a	n/a	n/a	49.731	BM12ANS.jpg
17.731	0.514	Blank	Blank	90.317	n/a	1	1	8	n/a	8	n/a	3	n/a	n/a	n/a	n/a	50.229	n/a
18.262	0.497	happy	Picture	89.803	n/a	1	1	9	n/a	9	110	3	n/a	n/a	n/a	n/a	50.759	AM11ANS.jpg
18.759	0.514	Blank	Blank	89.289	n/a	1	1	9	n/a	9	n/a	3	n/a	n/a	n/a	n/a	51.257	n/a
19.29	0.497	happy	Picture	88.775	n/a	1	1	10	n/a	10	85	3	n/a	n/a	n/a	n/a	51.787	BF07ANS.jpg
19.787	0.514	Blank	Blank	88.261	n/a	1	1	10	n/a	10	n/a	3	n/a	n/a	n/a	n/a	52.284	n/a
20.318	0.497	happy	Picture	87.747	n/a	1	1	11	n/a	11	87	3	n/a	n/a	n/a	n/a	52.815	BF11ANS.jpg
20.815	0.514	Blank	Blank	87.233	n/a	1	1	11	n/a	11	n/a	3	n/a	n/a	n/a	n/a	53.312	n/a
21.345	0.497	happy	Picture	86.719	n/a	1	1	12	n/a	12	91	3	n/a	n/a	n/a	n/a	53.843	AF20ANS.jpg
21.843	0.514	Blank	Blank	86.205	n/a	1	1	12	n/a	12	n/a	3	n/a	n/a	n/a	n/a	54.34	n/a
22.373	0.497	happy	Picture	85.692	n/a	1	1	13	n/a	13	115	3	n/a	n/a	n/a	n/a	54.871	AM23ANS.jpg
22.871	0.514	Blank	Blank	85.178	n/a	1	1	13	n/a	13	n/a	3	n/a	n/a	n/a	n/a	55.368	n/a
23.401	0.497	happy	Picture	84.664	n/a	1	1	14	n/a	14	97	3	n/a	n/a	n/a	n/a	55.899	BF28ANS.jpg
23.899	0.514	Blank	Blank	84.15	n/a	1	1	14	n/a	14	n/a	3	n/a	n/a	n/a	n/a	56.396	n/a
24.429	0.497	happy	Picture	83.636	n/a	1	1	15	n/a	15	82	3	n/a	n/a	n/a	n/a	56.926	AF03ANS.jpg
24.927	0.514	Blank	Blank	83.122	n/a	1	1	15	n/a	15	n/a	3	n/a	n/a	n/a	n/a	57.424	n/a
25.457	0.497	happy	Picture	82.608	n/a	1	1	16	n/a	16	96	3	n/a	n/a	n/a	n/a	57.954	AF26ANS.jpg
25.954	0.514	Blank	Blank	82.094	n/a	1	1	16	n/a	16	n/a	3	n/a	n/a	n/a	n/a	58.452	n/a
26.485	0.497	happy	Picture	81.58	n/a	1	1	17	n/a	17	109	3	n/a	n/a	n/a	n/a	58.982	AM10ANS.jpg
26.982	0.514	Blank	Blank	81.066	n/a	1	1	17	n/a	17	n/a	3	n/a	n/a	n/a	n/a	59.48	n/a
27.513	0.497	happy	Picture	80.552	n/a	1	1	18	n/a	18	114	3	n/a	n/a	n/a	n/a	60.01	AM22ANS.jpg
28.01	0.514	Blank	Blank	80.038	n/a	1	1	18	n/a	18	n/a	3	n/a	n/a	n/a	n/a	60.508	n/a
28.541	0.497	happy	Picture	79.524	n/a	1	1	19	n/a	19	120	3	n/a	n/a	n/a	n/a	61.038	AM35ANS.jpg
29.038	0.514	Blank	Blank	79.01	n/a	1	1	19	n/a	19	n/a	3	n/a	n/a	n/a	n/a	61.535	n/a
29.569	0.497	happy	Picture	78.496	n/a	1	1	20	n/a	20	81	3	n/a	n/a	n/a	n/a	62.066	AF01ANS.jpg
30.066	0.514	Blank	Blank	77.982	n/a	1	1	20	n/a	20	n/a	3	n/a	n/a	n/a	n/a	62.563	n/a
30.596	10.014	ITI	Fixation+	67.952	n/a	1	n/a	n/a	n/a	n/a	n/a	n/a	n/a	n/a	n/a	n/a	63.094	n/a
40.627	0.497	neutral	Picture	67.438	n/a	1	2	1	n/a	21	28	1	n/a	n/a	n/a	n/a	73.124	AM09NES.jpg
41.124	0.514	Blank	Blank	66.924	n/a	1	2	1	n/a	21	n/a	1	n/a	n/a	n/a	n/a	73.621	n/a
41.655	0.497	neutral	Picture	66.41	n/a	1	2	2	n/a	22	27	1	n/a	n/a	n/a	n/a	74.152	BM08NES.jpg
42.152	0.514	Blank	Blank	65.896	n/a	1	2	2	n/a	22	n/a	1	n/a	n/a	n/a	n/a	74.649	n/a
42.682	0.497	neutral	Picture	65.382	n/a	1	2	3	n/a	23	16	1	n/a	n/a	n/a	n/a	75.18	AF26NES.jpg
43.18	0.514	Blank	Blank	64.868	n/a	1	2	3	n/a	23	n/a	1	n/a	n/a	n/a	n/a	75.677	n/a
43.71	0.497	neutral	Picture	64.355	n/a	1	2	4	n/a	24	3	1	n/a	n/a	n/a	n/a	76.208	BF04NES.jpg
44.208	0.514	Blank	Blank	63.841	n/a	1	2	4	n/a	24	n/a	1	n/a	n/a	n/a	n/a	76.705	n/a
44.738	0.497	neutral	Picture	63.327	n/a	1	2	5	n/a	25	32	1	n/a	n/a	n/a	n/a	77.236	AM14NES.jpg
45.236	0.514	Blank	Blank	62.813	n/a	1	2	5	n/a	25	n/a	1	n/a	n/a	n/a	n/a	77.733	n/a
45.766	0.497	neutral	Picture	62.299	n/a	1	2	6	n/a	26	37	1	n/a	n/a	n/a	n/a	78.263	BM25NES.jpg
46.264	0.514	Blank	Blank	61.785	n/a	1	2	6	n/a	26	n/a	1	n/a	n/a	n/a	n/a	78.761	n/a
46.794	0.497	neutral	Picture	61.271	n/a	1	2	7	n/a	27	15	1	n/a	n/a	n/a	n/a	79.291	AF25NES.jpg
47.291	0.514	Blank	Blank	60.757	n/a	1	2	7	n/a	27	n/a	1	n/a	n/a	n/a	n/a	79.789	n/a
47.822	0.497	neutral	Picture	60.243	n/a	1	2	8	n/a	28	23	1	n/a	n/a	n/a	n/a	80.319	AM04NES.jpg
48.319	0.514	Blank	Blank	59.729	n/a	1	2	8	n/a	28	n/a	1	n/a	n/a	n/a	n/a	80.817	n/a
48.85	0.497	neutral	Picture	59.215	n/a	1	2	9	n/a	29	34	1	n/a	n/a	n/a	n/a	81.347	AM22NES.jpg
49.347	0.514	Blank	Blank	58.701	n/a	1	2	9	n/a	29	n/a	1	n/a	n/a	n/a	n/a	81.845	n/a
49.878	0.497	neutral	Picture	58.187	n/a	1	2	10	n/a	30	24	1	n/a	n/a	n/a	n/a	82.375	BM05NES.jpg
50.375	0.514	Blank	Blank	57.673	n/a	1	2	10	n/a	30	n/a	1	n/a	n/a	n/a	n/a	82.872	n/a
50.906	0.497	neutral	Picture	57.159	n/a	1	2	11	n/a	31	12	1	n/a	n/a	n/a	n/a	83.403	AF21NES.jpg
51.403	0.514	Blank	Blank	56.645	n/a	1	2	11	n/a	31	n/a	1	n/a	n/a	n/a	n/a	83.9	n/a
51.933	0.497	neutral	Picture	56.131	n/a	1	2	12	n/a	32	6	1	n/a	n/a	n/a	n/a	84.431	AF09NES.jpg
52.431	0.514	Blank	Blank	55.617	n/a	1	2	12	n/a	32	n/a	1	n/a	n/a	n/a	n/a	84.928	n/a
52.961	0.497	neutral	Picture	55.104	n/a	1	2	13	n/a	33	17	1	n/a	n/a	n/a	n/a	85.459	BF28NES.jpg
53.459	0.514	Blank	Blank	54.59	n/a	1	2	13	n/a	33	n/a	1	n/a	n/a	n/a	n/a	85.956	n/a
53.989	0.497	neutral	Picture	54.076	n/a	1	2	14	n/a	34	2	1	n/a	n/a	n/a	n/a	86.487	AF03NES.jpg
54.487	0.514	Blank	Blank	53.562	n/a	1	2	14	n/a	34	n/a	1	n/a	n/a	n/a	n/a	86.984	n/a
55.017	0.497	neutral	Picture	53.048	n/a	1	2	15	n/a	35	9	1	n/a	n/a	n/a	n/a	87.514	AF17NES.jpg
55.514	0.514	Blank	Blank	52.534	n/a	1	2	15	n/a	35	n/a	1	n/a	n/a	n/a	n/a	88.012	n/a
56.045	0.497	neutral	Picture	52.02	n/a	1	2	16	n/a	36	25	1	n/a	n/a	n/a	n/a	88.542	BM06NES.jpg
56.542	0.514	Blank	Blank	51.506	n/a	1	2	16	n/a	36	n/a	1	n/a	n/a	n/a	n/a	89.04	n/a
57.073	0.497	neutral	Picture	50.992	n/a	1	2	17	n/a	37	8	1	n/a	n/a	n/a	n/a	89.57	AF14NES.jpg
57.57	0.514	Blank	Blank	50.478	n/a	1	2	17	n/a	37	n/a	1	n/a	n/a	n/a	n/a	90.068	n/a
58.101	0.497	neutral	Picture	49.964	n/a	1	2	18	n/a	38	19	1	n/a	n/a	n/a	n/a	90.598	AF31NES.jpg
58.598	0.514	Blank	Blank	49.45	n/a	1	2	18	n/a	38	n/a	1	n/a	n/a	n/a	n/a	91.096	n/a
59.129	0.497	neutral	Picture	48.936	n/a	1	2	19	n/a	39	14	1	n/a	n/a	n/a	n/a	91.626	AF23NES.jpg
59.626	0.514	Blank	Blank	48.422	n/a	1	2	19	n/a	39	n/a	1	n/a	n/a	n/a	n/a	92.124	n/a
60.157	0.497	neutral	Picture	47.908	n/a	1	2	20	n/a	40	4	1	n/a	n/a	n/a	n/a	92.654	AF05NES.jpg
60.654	0.514	Blank	Blank	47.394	n/a	1	2	20	n/a	40	n/a	1	n/a	n/a	n/a	n/a	93.151	n/a
61.184	10.014	ITI	Fixation+	37.364	n/a	1	n/a	n/a	n/a	n/a	n/a	n/a	n/a	n/a	n/a	n/a	93.682	n/a
71.215	0.497	happy	Picture	36.85	n/a	1	3	1	n/a	41	84	3	n/a	n/a	n/a	n/a	103.712	AF05ANS.jpg
71.712	0.514	Blank	Blank	36.336	n/a	1	3	1	n/a	41	n/a	3	n/a	n/a	n/a	n/a	104.21	n/a
72.243	0.497	happy	Picture	35.822	n/a	1	3	2	n/a	42	92	3	n/a	n/a	n/a	n/a	104.74	AF21ANS.jpg
72.74	0.514	Blank	Blank	35.308	n/a	1	3	2	n/a	42	n/a	3	n/a	n/a	n/a	n/a	105.237	n/a
73.27	0.497	happy	Picture	34.794	n/a	1	3	3	n/a	43	86	3	n/a	n/a	n/a	n/a	105.768	AF09ANS.jpg
73.768	0.514	Blank	Blank	34.281	n/a	1	3	3	n/a	43	n/a	3	n/a	n/a	n/a	n/a	106.265	n/a
74.298	0.497	happy	Picture	33.767	n/a	1	3	4	n/a	44	93	3	n/a	n/a	n/a	n/a	106.796	BF22ANS.jpg
74.796	0.514	Blank	Blank	33.253	n/a	1	3	4	n/a	44	n/a	3	n/a	n/a	n/a	n/a	107.293	n/a
75.326	0.497	happy	Picture	32.739	n/a	1	3	5	n/a	45	88	3	n/a	n/a	n/a	n/a	107.824	AF14ANS.jpg
75.824	0.514	Blank	Blank	32.225	n/a	1	3	5	n/a	45	n/a	3	n/a	n/a	n/a	n/a	108.321	n/a
76.354	0.497	happy	Picture	31.711	n/a	1	3	6	n/a	46	113	3	n/a	n/a	n/a	n/a	108.852	AM21ANS.jpg
76.852	0.514	Blank	Blank	31.197	n/a	1	3	6	n/a	46	n/a	3	n/a	n/a	n/a	n/a	109.349	n/a
77.382	0.497	happy	Picture	30.683	n/a	1	3	7	n/a	47	95	3	n/a	n/a	n/a	n/a	109.879	AF25ANS.jpg
77.879	0.514	Blank	Blank	30.169	n/a	1	3	7	n/a	47	n/a	3	n/a	n/a	n/a	n/a	110.377	n/a
78.41	0.497	happy	Picture	29.655	n/a	1	3	8	n/a	48	102	3	n/a	n/a	n/a	n/a	110.907	BM03ANS.jpg
78.907	0.514	Blank	Blank	29.141	n/a	1	3	8	n/a	48	n/a	3	n/a	n/a	n/a	n/a	111.405	n/a
79.438	0.497	happy	Picture	28.627	n/a	1	3	9	n/a	49	112	3	n/a	n/a	n/a	n/a	111.935	AM14ANS.jpg
79.935	0.514	Blank	Blank	28.113	n/a	1	3	9	n/a	49	n/a	3	n/a	n/a	n/a	n/a	112.433	n/a
80.466	0.497	happy	Picture	27.599	n/a	1	3	10	n/a	50	83	3	n/a	n/a	n/a	n/a	112.963	BF04ANS.jpg
80.963	0.514	Blank	Blank	27.085	n/a	1	3	10	n/a	50	n/a	3	n/a	n/a	n/a	n/a	113.46	n/a
81.494	0.497	happy	Picture	26.571	n/a	1	3	11	n/a	51	90	3	n/a	n/a	n/a	n/a	113.991	AF18ANS.jpg
81.991	0.514	Blank	Blank	26.057	n/a	1	3	11	n/a	51	n/a	3	n/a	n/a	n/a	n/a	114.488	n/a
82.522	0.497	happy	Picture	25.543	n/a	1	3	12	n/a	52	117	3	n/a	n/a	n/a	n/a	115.019	BM25ANS.jpg
83.019	0.514	Blank	Blank	25.029	n/a	1	3	12	n/a	52	n/a	3	n/a	n/a	n/a	n/a	115.516	n/a
83.549	0.497	happy	Picture	24.516	n/a	1	3	13	n/a	53	94	3	n/a	n/a	n/a	n/a	116.047	AF23ANS.jpg
84.047	0.514	Blank	Blank	24.002	n/a	1	3	13	n/a	53	n/a	3	n/a	n/a	n/a	n/a	116.544	n/a
84.577	0.497	happy	Picture	23.488	n/a	1	3	14	n/a	54	106	3	n/a	n/a	n/a	n/a	117.075	AM07ANS.jpg
85.075	0.514	Blank	Blank	22.974	n/a	1	3	14	n/a	54	n/a	3	n/a	n/a	n/a	n/a	117.572	n/a
85.605	0.497	happy	Picture	22.46	n/a	1	3	15	n/a	55	105	3	n/a	n/a	n/a	n/a	118.103	BM06ANS.jpg
86.103	0.514	Blank	Blank	21.946	n/a	1	3	15	n/a	55	n/a	3	n/a	n/a	n/a	n/a	118.6	n/a
86.633	0.497	happy	Picture	21.432	n/a	1	3	16	n/a	56	116	3	n/a	n/a	n/a	n/a	119.13	BM24ANS.jpg
87.13	0.514	Blank	Blank	20.918	n/a	1	3	16	n/a	56	n/a	3	n/a	n/a	n/a	n/a	119.628	n/a
87.661	0.497	happy	Picture	20.404	n/a	1	3	17	n/a	57	89	3	n/a	n/a	n/a	n/a	120.158	AF17ANS.jpg
88.158	0.514	Blank	Blank	19.89	n/a	1	3	17	n/a	57	n/a	3	n/a	n/a	n/a	n/a	120.656	n/a
88.689	0.497	happy	Picture	19.376	n/a	1	3	18	n/a	58	118	3	n/a	n/a	n/a	n/a	121.186	BM26ANS.jpg
89.186	0.514	Blank	Blank	18.862	n/a	1	3	18	n/a	58	n/a	3	n/a	n/a	n/a	n/a	121.684	n/a
89.717	0.497	happy	Picture	18.348	n/a	1	3	19	n/a	59	100	3	n/a	n/a	n/a	n/a	122.214	AF32ANS.jpg
90.214	0.514	Blank	Blank	17.834	n/a	1	3	19	n/a	59	n/a	3	n/a	n/a	n/a	n/a	122.712	n/a
90.745	0.497	happy	Picture	17.32	n/a	1	3	20	n/a	60	119	3	n/a	n/a	n/a	n/a	123.242	BM28ANS.jpg
91.242	0.514	Blank	Blank	16.806	n/a	1	3	20	n/a	60	n/a	3	n/a	n/a	n/a	n/a	123.739	n/a
91.773	10.014	ITI	Fixation+	6.776	n/a	1	n/a	n/a	n/a	n/a	n/a	n/a	n/a	n/a	n/a	n/a	124.27	n/a
108.562	n/a	ConfirmRating	Rate	n/a	6.748	1	n/a	n/a	0	n/a	n/a	n/a	2	Happy	68	50	141.06	n/a
111.117	n/a	ConfirmRating	Rate	n/a	2.537	1	n/a	n/a	1	n/a	n/a	n/a	3	Happy	0	49	143.615	n/a
111.137	10.014	ITI	Fixation+	96.303	n/a	2	n/a	n/a	n/a	n/a	n/a	n/a	n/a	n/a	n/a	n/a	143.634	n/a
121.167	0.497	angry	Picture	95.789	n/a	2	4	1	n/a	61	79	2	n/a	n/a	n/a	n/a	153.664	BM28HAS.jpg
121.664	0.514	Blank	Blank	95.275	n/a	2	4	1	n/a	61	n/a	2	n/a	n/a	n/a	n/a	154.162	n/a
122.195	0.497	angry	Picture	94.761	n/a	2	4	2	n/a	62	61	2	n/a	n/a	n/a	n/a	154.692	AM01HAS.jpg
122.692	0.514	Blank	Blank	94.247	n/a	2	4	2	n/a	62	n/a	2	n/a	n/a	n/a	n/a	155.19	n/a
123.223	0.497	angry	Picture	93.733	n/a	2	4	3	n/a	63	57	2	n/a	n/a	n/a	n/a	155.72	BF28HAS.jpg
123.72	0.514	Blank	Blank	93.219	n/a	2	4	3	n/a	63	n/a	2	n/a	n/a	n/a	n/a	156.217	n/a
124.25	0.497	angry	Picture	92.705	n/a	2	4	4	n/a	64	77	2	n/a	n/a	n/a	n/a	156.748	BM25HAS.jpg
124.748	0.514	Blank	Blank	92.191	n/a	2	4	4	n/a	64	n/a	2	n/a	n/a	n/a	n/a	157.245	n/a
125.278	0.497	angry	Picture	91.677	n/a	2	4	5	n/a	65	47	2	n/a	n/a	n/a	n/a	157.776	BF11HAS.jpg
125.776	0.514	Blank	Blank	91.163	n/a	2	4	5	n/a	65	n/a	2	n/a	n/a	n/a	n/a	158.273	n/a
126.306	0.497	angry	Picture	90.65	n/a	2	4	6	n/a	66	50	2	n/a	n/a	n/a	n/a	158.804	AF18HAS.jpg
126.804	0.514	Blank	Blank	90.136	n/a	2	4	6	n/a	66	n/a	2	n/a	n/a	n/a	n/a	159.301	n/a
127.334	0.497	angry	Picture	89.622	n/a	2	4	7	n/a	67	78	2	n/a	n/a	n/a	n/a	159.832	BM26HAS.jpg
127.832	0.514	Blank	Blank	89.108	n/a	2	4	7	n/a	67	n/a	2	n/a	n/a	n/a	n/a	160.329	n/a
128.362	0.497	angry	Picture	88.594	n/a	2	4	8	n/a	68	45	2	n/a	n/a	n/a	n/a	160.859	BF07HAS.jpg
128.859	0.514	Blank	Blank	88.08	n/a	2	4	8	n/a	68	n/a	2	n/a	n/a	n/a	n/a	161.357	n/a
129.39	0.497	angry	Picture	87.566	n/a	2	4	9	n/a	69	56	2	n/a	n/a	n/a	n/a	161.887	AF26HAS.jpg
129.887	0.514	Blank	Blank	87.052	n/a	2	4	9	n/a	69	n/a	2	n/a	n/a	n/a	n/a	162.385	n/a
130.418	0.497	angry	Picture	86.538	n/a	2	4	10	n/a	70	65	2	n/a	n/a	n/a	n/a	162.915	BM06HAS.jpg
130.915	0.514	Blank	Blank	86.024	n/a	2	4	10	n/a	70	n/a	2	n/a	n/a	n/a	n/a	163.413	n/a
131.446	0.497	angry	Picture	85.51	n/a	2	4	11	n/a	71	73	2	n/a	n/a	n/a	n/a	163.943	AM21HAS.jpg
131.943	0.514	Blank	Blank	84.996	n/a	2	4	11	n/a	71	n/a	2	n/a	n/a	n/a	n/a	164.44	n/a
132.474	0.497	angry	Picture	84.482	n/a	2	4	12	n/a	72	41	2	n/a	n/a	n/a	n/a	164.971	AF01HAS.jpg
132.971	0.514	Blank	Blank	83.968	n/a	2	4	12	n/a	72	n/a	2	n/a	n/a	n/a	n/a	165.468	n/a
133.501	0.497	angry	Picture	83.454	n/a	2	4	13	n/a	73	59	2	n/a	n/a	n/a	n/a	165.999	AF31HAS.jpg
133.999	0.514	Blank	Blank	82.94	n/a	2	4	13	n/a	73	n/a	2	n/a	n/a	n/a	n/a	166.496	n/a
134.529	0.497	angry	Picture	82.426	n/a	2	4	14	n/a	74	64	2	n/a	n/a	n/a	n/a	167.027	BM05HAS.jpg
135.027	0.514	Blank	Blank	81.912	n/a	2	4	14	n/a	74	n/a	2	n/a	n/a	n/a	n/a	167.524	n/a
135.557	0.497	angry	Picture	81.399	n/a	2	4	15	n/a	75	68	2	n/a	n/a	n/a	n/a	168.055	AM09HAS.jpg
136.055	0.514	Blank	Blank	80.885	n/a	2	4	15	n/a	75	n/a	2	n/a	n/a	n/a	n/a	168.552	n/a
136.585	0.497	angry	Picture	80.371	n/a	2	4	16	n/a	76	54	2	n/a	n/a	n/a	n/a	169.083	AF23HAS.jpg
137.083	0.514	Blank	Blank	79.857	n/a	2	4	16	n/a	76	n/a	2	n/a	n/a	n/a	n/a	169.58	n/a
137.613	0.497	angry	Picture	79.343	n/a	2	4	17	n/a	77	53	2	n/a	n/a	n/a	n/a	170.111	BF22HAS.jpg
138.11	0.514	Blank	Blank	78.829	n/a	2	4	17	n/a	77	n/a	2	n/a	n/a	n/a	n/a	170.608	n/a
138.641	0.497	angry	Picture	78.315	n/a	2	4	18	n/a	78	44	2	n/a	n/a	n/a	n/a	171.138	AF05HAS.jpg
139.138	0.514	Blank	Blank	77.801	n/a	2	4	18	n/a	78	n/a	2	n/a	n/a	n/a	n/a	171.636	n/a
139.669	0.497	angry	Picture	77.287	n/a	2	4	19	n/a	79	52	2	n/a	n/a	n/a	n/a	172.166	AF21HAS.jpg
140.166	0.514	Blank	Blank	76.773	n/a	2	4	19	n/a	79	n/a	2	n/a	n/a	n/a	n/a	172.664	n/a
140.697	0.497	angry	Picture	76.259	n/a	2	4	20	n/a	80	62	2	n/a	n/a	n/a	n/a	173.194	BM03HAS.jpg
141.194	0.514	Blank	Blank	75.745	n/a	2	4	20	n/a	80	n/a	2	n/a	n/a	n/a	n/a	173.691	n/a
141.725	10.014	ITI	Fixation+	65.715	n/a	2	n/a	n/a	n/a	n/a	n/a	n/a	n/a	n/a	n/a	n/a	174.222	n/a
151.755	0.497	neutral	Picture	65.201	n/a	2	5	1	n/a	81	23	1	n/a	n/a	n/a	n/a	184.252	AM04NES.jpg
152.252	0.514	Blank	Blank	64.687	n/a	2	5	1	n/a	81	n/a	1	n/a	n/a	n/a	n/a	184.75	n/a
152.783	0.497	neutral	Picture	64.173	n/a	2	5	2	n/a	82	29	1	n/a	n/a	n/a	n/a	185.28	AM10NES.jpg
153.28	0.514	Blank	Blank	63.659	n/a	2	5	2	n/a	82	n/a	1	n/a	n/a	n/a	n/a	185.778	n/a
153.811	0.497	neutral	Picture	63.145	n/a	2	5	3	n/a	83	24	1	n/a	n/a	n/a	n/a	186.308	BM05NES.jpg
154.308	0.514	Blank	Blank	62.631	n/a	2	5	3	n/a	83	n/a	1	n/a	n/a	n/a	n/a	186.805	n/a
154.839	0.497	neutral	Picture	62.117	n/a	2	5	4	n/a	84	12	1	n/a	n/a	n/a	n/a	187.336	AF21NES.jpg
155.336	0.514	Blank	Blank	61.603	n/a	2	5	4	n/a	84	n/a	1	n/a	n/a	n/a	n/a	187.833	n/a
155.866	0.497	neutral	Picture	61.089	n/a	2	5	5	n/a	85	13	1	n/a	n/a	n/a	n/a	188.364	BF22NES.jpg
156.364	0.514	Blank	Blank	60.575	n/a	2	5	5	n/a	85	n/a	1	n/a	n/a	n/a	n/a	188.861	n/a
156.894	0.497	neutral	Picture	60.061	n/a	2	5	6	n/a	86	17	1	n/a	n/a	n/a	n/a	189.392	BF28NES.jpg
157.392	0.514	Blank	Blank	59.547	n/a	2	5	6	n/a	86	n/a	1	n/a	n/a	n/a	n/a	189.889	n/a
157.922	0.497	neutral	Picture	59.034	n/a	2	5	7	n/a	87	4	1	n/a	n/a	n/a	n/a	190.42	AF05NES.jpg
158.42	0.514	Blank	Blank	58.52	n/a	2	5	7	n/a	87	n/a	1	n/a	n/a	n/a	n/a	190.917	n/a
158.95	0.497	neutral	Picture	58.006	n/a	2	5	8	n/a	88	11	1	n/a	n/a	n/a	n/a	191.447	AF20NES.jpg
159.447	0.514	Blank	Blank	57.492	n/a	2	5	8	n/a	88	n/a	1	n/a	n/a	n/a	n/a	191.945	n/a
159.978	0.497	neutral	Picture	56.978	n/a	2	5	9	n/a	89	22	1	n/a	n/a	n/a	n/a	192.475	BM03NES.jpg
160.475	0.514	Blank	Blank	56.464	n/a	2	5	9	n/a	89	n/a	1	n/a	n/a	n/a	n/a	192.973	n/a
161.006	0.497	neutral	Picture	55.95	n/a	2	5	10	n/a	90	15	1	n/a	n/a	n/a	n/a	193.503	AF25NES.jpg
161.503	0.514	Blank	Blank	55.436	n/a	2	5	10	n/a	90	n/a	1	n/a	n/a	n/a	n/a	194.001	n/a
162.034	0.497	neutral	Picture	54.922	n/a	2	5	11	n/a	91	19	1	n/a	n/a	n/a	n/a	194.531	AF31NES.jpg
162.531	0.514	Blank	Blank	54.408	n/a	2	5	11	n/a	91	n/a	1	n/a	n/a	n/a	n/a	195.029	n/a
163.062	0.497	neutral	Picture	53.894	n/a	2	5	12	n/a	92	9	1	n/a	n/a	n/a	n/a	195.559	AF17NES.jpg
163.559	0.514	Blank	Blank	53.38	n/a	2	5	12	n/a	92	n/a	1	n/a	n/a	n/a	n/a	196.056	n/a
164.09	0.497	neutral	Picture	52.866	n/a	2	5	13	n/a	93	14	1	n/a	n/a	n/a	n/a	196.587	AF23NES.jpg
164.587	0.514	Blank	Blank	52.352	n/a	2	5	13	n/a	93	n/a	1	n/a	n/a	n/a	n/a	197.084	n/a
165.117	0.497	neutral	Picture	51.838	n/a	2	5	14	n/a	94	36	1	n/a	n/a	n/a	n/a	197.615	BM24NES.jpg
165.615	0.514	Blank	Blank	51.324	n/a	2	5	14	n/a	94	n/a	1	n/a	n/a	n/a	n/a	198.112	n/a
166.145	0.497	neutral	Picture	50.81	n/a	2	5	15	n/a	95	34	1	n/a	n/a	n/a	n/a	198.643	AM22NES.jpg
166.643	0.514	Blank	Blank	50.297	n/a	2	5	15	n/a	95	n/a	1	n/a	n/a	n/a	n/a	199.14	n/a
167.173	0.497	neutral	Picture	49.782	n/a	2	5	16	n/a	96	10	1	n/a	n/a	n/a	n/a	199.671	AF18NES.jpg
167.671	0.514	Blank	Blank	49.269	n/a	2	5	16	n/a	96	n/a	1	n/a	n/a	n/a	n/a	200.168	n/a
168.201	0.497	neutral	Picture	48.755	n/a	2	5	17	n/a	97	5	1	n/a	n/a	n/a	n/a	200.698	BF07NES.jpg
168.698	0.514	Blank	Blank	48.241	n/a	2	5	17	n/a	97	n/a	1	n/a	n/a	n/a	n/a	201.196	n/a
169.229	0.497	neutral	Picture	47.727	n/a	2	5	18	n/a	98	25	1	n/a	n/a	n/a	n/a	201.726	BM06NES.jpg
169.726	0.514	Blank	Blank	47.213	n/a	2	5	18	n/a	98	n/a	1	n/a	n/a	n/a	n/a	202.224	n/a
170.257	0.497	neutral	Picture	46.699	n/a	2	5	19	n/a	99	39	1	n/a	n/a	n/a	n/a	202.754	AM28NES.jpg
170.754	0.514	Blank	Blank	46.185	n/a	2	5	19	n/a	99	n/a	1	n/a	n/a	n/a	n/a	203.252	n/a
171.285	0.497	neutral	Picture	45.671	n/a	2	5	20	n/a	100	33	1	n/a	n/a	n/a	n/a	203.782	AM21NES.jpg
171.782	0.514	Blank	Blank	45.157	n/a	2	5	20	n/a	100	n/a	1	n/a	n/a	n/a	n/a	204.28	n/a
172.313	10.014	ITI	Fixation+	35.127	n/a	2	n/a	n/a	n/a	n/a	n/a	n/a	n/a	n/a	n/a	n/a	204.81	n/a
182.343	0.497	angry	Picture	34.613	n/a	2	6	1	n/a	101	74	2	n/a	n/a	n/a	n/a	214.84	AM22HAS.jpg
182.84	0.514	Blank	Blank	34.099	n/a	2	6	1	n/a	101	n/a	2	n/a	n/a	n/a	n/a	215.338	n/a
183.371	0.497	angry	Picture	33.585	n/a	2	6	2	n/a	102	76	2	n/a	n/a	n/a	n/a	215.868	BM24HAS.jpg
183.868	0.514	Blank	Blank	33.071	n/a	2	6	2	n/a	102	n/a	2	n/a	n/a	n/a	n/a	216.365	n/a
184.399	0.497	angry	Picture	32.557	n/a	2	6	3	n/a	103	80	2	n/a	n/a	n/a	n/a	216.896	BM35HAS.jpg
184.896	0.514	Blank	Blank	32.043	n/a	2	6	3	n/a	103	n/a	2	n/a	n/a	n/a	n/a	217.393	n/a
185.427	0.497	angry	Picture	31.529	n/a	2	6	4	n/a	104	75	2	n/a	n/a	n/a	n/a	217.924	AM23HAS.jpg
185.924	0.514	Blank	Blank	31.015	n/a	2	6	4	n/a	104	n/a	2	n/a	n/a	n/a	n/a	218.421	n/a
186.454	0.497	angry	Picture	30.501	n/a	2	6	5	n/a	105	49	2	n/a	n/a	n/a	n/a	218.952	AF17HAS.jpg
186.952	0.514	Blank	Blank	29.987	n/a	2	6	5	n/a	105	n/a	2	n/a	n/a	n/a	n/a	219.449	n/a
187.482	0.497	angry	Picture	29.473	n/a	2	6	6	n/a	106	43	2	n/a	n/a	n/a	n/a	219.98	BF04HAS.jpg
187.98	0.514	Blank	Blank	28.959	n/a	2	6	6	n/a	106	n/a	2	n/a	n/a	n/a	n/a	220.477	n/a
188.51	0.497	angry	Picture	28.446	n/a	2	6	7	n/a	107	70	2	n/a	n/a	n/a	n/a	221.008	BM11HAS.jpg
189.008	0.514	Blank	Blank	27.932	n/a	2	6	7	n/a	107	n/a	2	n/a	n/a	n/a	n/a	221.505	n/a
189.538	0.497	angry	Picture	27.418	n/a	2	6	8	n/a	108	66	2	n/a	n/a	n/a	n/a	222.036	BM07HAS.jpg
190.036	0.514	Blank	Blank	26.904	n/a	2	6	8	n/a	108	n/a	2	n/a	n/a	n/a	n/a	222.533	n/a
190.566	0.497	angry	Picture	26.39	n/a	2	6	9	n/a	109	48	2	n/a	n/a	n/a	n/a	223.063	AF14HAS.jpg
191.063	0.514	Blank	Blank	25.876	n/a	2	6	9	n/a	109	n/a	2	n/a	n/a	n/a	n/a	223.561	n/a
191.594	0.497	angry	Picture	25.362	n/a	2	6	10	n/a	110	58	2	n/a	n/a	n/a	n/a	224.091	BF29HAS.jpg
192.091	0.514	Blank	Blank	24.848	n/a	2	6	10	n/a	110	n/a	2	n/a	n/a	n/a	n/a	224.589	n/a
192.622	0.497	angry	Picture	24.334	n/a	2	6	11	n/a	111	63	2	n/a	n/a	n/a	n/a	225.119	AM04HAS.jpg
193.119	0.514	Blank	Blank	23.82	n/a	2	6	11	n/a	111	n/a	2	n/a	n/a	n/a	n/a	225.617	n/a
193.65	0.497	angry	Picture	23.306	n/a	2	6	12	n/a	112	72	2	n/a	n/a	n/a	n/a	226.147	AM14HAS.jpg
194.147	0.514	Blank	Blank	22.792	n/a	2	6	12	n/a	112	n/a	2	n/a	n/a	n/a	n/a	226.644	n/a
194.678	0.497	angry	Picture	22.278	n/a	2	6	13	n/a	113	55	2	n/a	n/a	n/a	n/a	227.175	AF25HAS.jpg
195.175	0.514	Blank	Blank	21.764	n/a	2	6	13	n/a	113	n/a	2	n/a	n/a	n/a	n/a	227.672	n/a
195.705	0.497	angry	Picture	21.25	n/a	2	6	14	n/a	114	42	2	n/a	n/a	n/a	n/a	228.203	AF03HAS.jpg
196.203	0.514	Blank	Blank	20.736	n/a	2	6	14	n/a	114	n/a	2	n/a	n/a	n/a	n/a	228.7	n/a
196.733	0.497	angry	Picture	20.222	n/a	2	6	15	n/a	115	60	2	n/a	n/a	n/a	n/a	229.231	AF32HAS.jpg
197.231	0.514	Blank	Blank	19.708	n/a	2	6	15	n/a	115	n/a	2	n/a	n/a	n/a	n/a	229.728	n/a
197.761	0.497	angry	Picture	19.195	n/a	2	6	16	n/a	116	67	2	n/a	n/a	n/a	n/a	230.259	BM08HAS.jpg
198.259	0.514	Blank	Blank	18.681	n/a	2	6	16	n/a	116	n/a	2	n/a	n/a	n/a	n/a	230.756	n/a
198.789	0.497	angry	Picture	18.167	n/a	2	6	17	n/a	117	51	2	n/a	n/a	n/a	n/a	231.286	AF20HAS.jpg
199.286	0.514	Blank	Blank	17.653	n/a	2	6	17	n/a	117	n/a	2	n/a	n/a	n/a	n/a	231.784	n/a
199.817	0.497	angry	Picture	17.139	n/a	2	6	18	n/a	118	71	2	n/a	n/a	n/a	n/a	232.314	BM12HAS.jpg
200.314	0.514	Blank	Blank	16.625	n/a	2	6	18	n/a	118	n/a	2	n/a	n/a	n/a	n/a	232.812	n/a
200.845	0.497	angry	Picture	16.111	n/a	2	6	19	n/a	119	69	2	n/a	n/a	n/a	n/a	233.342	AM10HAS.jpg
201.342	0.514	Blank	Blank	15.597	n/a	2	6	19	n/a	119	n/a	2	n/a	n/a	n/a	n/a	233.84	n/a
201.873	0.497	angry	Picture	15.083	n/a	2	6	20	n/a	120	46	2	n/a	n/a	n/a	n/a	234.37	AF09HAS.jpg
202.37	0.514	Blank	Blank	14.569	n/a	2	6	20	n/a	120	n/a	2	n/a	n/a	n/a	n/a	234.868	n/a
202.901	10.014	ITI	Fixation+	4.539	n/a	2	n/a	n/a	n/a	n/a	n/a	n/a	n/a	n/a	n/a	n/a	235.398	n/a
217.453	n/a	ConfirmRating	Rate	n/a	4.526	2	n/a	n/a	0	n/a	n/a	n/a	2	Angry	50	50	249.951	n/a
219.49	n/a	ConfirmRating	Rate	n/a	2.023	2	n/a	n/a	1	n/a	n/a	n/a	3	Angry	0	49	251.988	n/a
219.513	15.004	Rest	Picture	n/a	n/a	n/a	n/a	n/a	n/a	n/a	n/a	n/a	0	n/a	0	0	252.01	n/a
234.533	10.014	ITI	Fixation+	95.659	n/a	3	n/a	n/a	n/a	n/a	n/a	n/a	n/a	n/a	n/a	n/a	267.031	n/a
244.563	0.497	happy	Picture	95.145	n/a	3	7	1	n/a	1	108	3	n/a	n/a	n/a	n/a	277.061	AM09ANS.jpg
245.061	0.514	Blank	Blank	94.631	n/a	3	7	1	n/a	1	n/a	3	n/a	n/a	n/a	n/a	277.558	n/a
245.591	0.497	happy	Picture	94.117	n/a	3	7	2	n/a	2	99	3	n/a	n/a	n/a	n/a	278.089	AF31ANS.jpg
246.089	0.514	Blank	Blank	93.603	n/a	3	7	2	n/a	2	n/a	3	n/a	n/a	n/a	n/a	278.586	n/a
246.619	0.497	happy	Picture	93.089	n/a	3	7	3	n/a	3	98	3	n/a	n/a	n/a	n/a	279.116	BF29ANS.jpg
247.117	0.514	Blank	Blank	92.575	n/a	3	7	3	n/a	3	n/a	3	n/a	n/a	n/a	n/a	279.614	n/a
247.647	0.497	happy	Picture	92.061	n/a	3	7	4	n/a	4	107	3	n/a	n/a	n/a	n/a	280.144	BM08ANS.jpg
248.144	0.514	Blank	Blank	91.547	n/a	3	7	4	n/a	4	n/a	3	n/a	n/a	n/a	n/a	280.642	n/a
248.675	0.497	happy	Picture	91.033	n/a	3	7	5	n/a	5	104	3	n/a	n/a	n/a	n/a	281.172	BM05ANS.jpg
249.172	0.514	Blank	Blank	90.52	n/a	3	7	5	n/a	5	n/a	3	n/a	n/a	n/a	n/a	281.67	n/a
249.703	0.497	happy	Picture	90.006	n/a	3	7	6	n/a	6	101	3	n/a	n/a	n/a	n/a	282.2	AM01ANS.jpg
250.2	0.514	Blank	Blank	89.492	n/a	3	7	6	n/a	6	n/a	3	n/a	n/a	n/a	n/a	282.698	n/a
250.731	0.497	happy	Picture	88.978	n/a	3	7	7	n/a	7	103	3	n/a	n/a	n/a	n/a	283.228	AM04ANS.jpg
251.228	0.514	Blank	Blank	88.464	n/a	3	7	7	n/a	7	n/a	3	n/a	n/a	n/a	n/a	283.726	n/a
251.759	0.497	happy	Picture	87.95	n/a	3	7	8	n/a	8	111	3	n/a	n/a	n/a	n/a	284.256	BM12ANS.jpg
252.256	0.514	Blank	Blank	87.436	n/a	3	7	8	n/a	8	n/a	3	n/a	n/a	n/a	n/a	284.753	n/a
252.787	0.497	happy	Picture	86.922	n/a	3	7	9	n/a	9	110	3	n/a	n/a	n/a	n/a	285.284	AM11ANS.jpg
253.284	0.514	Blank	Blank	86.408	n/a	3	7	9	n/a	9	n/a	3	n/a	n/a	n/a	n/a	285.781	n/a
253.814	0.497	happy	Picture	85.894	n/a	3	7	10	n/a	10	85	3	n/a	n/a	n/a	n/a	286.312	BF07ANS.jpg
254.312	0.514	Blank	Blank	85.38	n/a	3	7	10	n/a	10	n/a	3	n/a	n/a	n/a	n/a	286.809	n/a
254.842	0.497	happy	Picture	84.866	n/a	3	7	11	n/a	11	87	3	n/a	n/a	n/a	n/a	287.34	BF11ANS.jpg
255.34	0.514	Blank	Blank	84.352	n/a	3	7	11	n/a	11	n/a	3	n/a	n/a	n/a	n/a	287.837	n/a
255.87	0.497	happy	Picture	83.838	n/a	3	7	12	n/a	12	91	3	n/a	n/a	n/a	n/a	288.368	AF20ANS.jpg
256.367	0.514	Blank	Blank	83.324	n/a	3	7	12	n/a	12	n/a	3	n/a	n/a	n/a	n/a	288.865	n/a
256.898	0.497	happy	Picture	82.81	n/a	3	7	13	n/a	13	115	3	n/a	n/a	n/a	n/a	289.395	AM23ANS.jpg
257.395	0.514	Blank	Blank	82.296	n/a	3	7	13	n/a	13	n/a	3	n/a	n/a	n/a	n/a	289.893	n/a
257.926	0.497	happy	Picture	81.782	n/a	3	7	14	n/a	14	97	3	n/a	n/a	n/a	n/a	290.423	BF28ANS.jpg
258.423	0.514	Blank	Blank	81.269	n/a	3	7	14	n/a	14	n/a	3	n/a	n/a	n/a	n/a	290.921	n/a
258.954	0.497	happy	Picture	80.755	n/a	3	7	15	n/a	15	82	3	n/a	n/a	n/a	n/a	291.451	AF03ANS.jpg
259.451	0.514	Blank	Blank	80.241	n/a	3	7	15	n/a	15	n/a	3	n/a	n/a	n/a	n/a	291.949	n/a
259.982	0.497	happy	Picture	79.727	n/a	3	7	16	n/a	16	96	3	n/a	n/a	n/a	n/a	292.479	AF26ANS.jpg
260.479	0.514	Blank	Blank	79.213	n/a	3	7	16	n/a	16	n/a	3	n/a	n/a	n/a	n/a	292.976	n/a
261.01	0.497	happy	Picture	78.699	n/a	3	7	17	n/a	17	109	3	n/a	n/a	n/a	n/a	293.507	AM10ANS.jpg
261.507	0.514	Blank	Blank	78.185	n/a	3	7	17	n/a	17	n/a	3	n/a	n/a	n/a	n/a	294.004	n/a
262.038	0.497	happy	Picture	77.671	n/a	3	7	18	n/a	18	114	3	n/a	n/a	n/a	n/a	294.535	AM22ANS.jpg
262.535	0.514	Blank	Blank	77.157	n/a	3	7	18	n/a	18	n/a	3	n/a	n/a	n/a	n/a	295.032	n/a
263.065	0.497	happy	Picture	76.643	n/a	3	7	19	n/a	19	120	3	n/a	n/a	n/a	n/a	295.563	AM35ANS.jpg
263.563	0.514	Blank	Blank	76.129	n/a	3	7	19	n/a	19	n/a	3	n/a	n/a	n/a	n/a	296.06	n/a
264.093	0.497	happy	Picture	75.615	n/a	3	7	20	n/a	20	81	3	n/a	n/a	n/a	n/a	296.591	AF01ANS.jpg
264.591	0.514	Blank	Blank	75.101	n/a	3	7	20	n/a	20	n/a	3	n/a	n/a	n/a	n/a	297.088	n/a
265.121	10.014	ITI	Fixation+	65.071	n/a	3	n/a	n/a	n/a	n/a	n/a	n/a	n/a	n/a	n/a	n/a	297.619	n/a
275.151	0.497	neutral	Picture	64.557	n/a	3	8	1	n/a	21	28	1	n/a	n/a	n/a	n/a	307.649	AM09NES.jpg
275.649	0.514	Blank	Blank	64.043	n/a	3	8	1	n/a	21	n/a	1	n/a	n/a	n/a	n/a	308.146	n/a
276.179	0.497	neutral	Picture	63.529	n/a	3	8	2	n/a	22	27	1	n/a	n/a	n/a	n/a	308.677	BM08NES.jpg
276.677	0.514	Blank	Blank	63.015	n/a	3	8	2	n/a	22	n/a	1	n/a	n/a	n/a	n/a	309.174	n/a
277.207	0.497	neutral	Picture	62.501	n/a	3	8	3	n/a	23	16	1	n/a	n/a	n/a	n/a	309.705	AF26NES.jpg
277.705	0.514	Blank	Blank	61.987	n/a	3	8	3	n/a	23	n/a	1	n/a	n/a	n/a	n/a	310.202	n/a
278.235	0.497	neutral	Picture	61.473	n/a	3	8	4	n/a	24	3	1	n/a	n/a	n/a	n/a	310.733	BF04NES.jpg
278.732	0.514	Blank	Blank	60.959	n/a	3	8	4	n/a	24	n/a	1	n/a	n/a	n/a	n/a	311.23	n/a
279.263	0.497	neutral	Picture	60.445	n/a	3	8	5	n/a	25	32	1	n/a	n/a	n/a	n/a	311.76	AM14NES.jpg
279.76	0.514	Blank	Blank	59.931	n/a	3	8	5	n/a	25	n/a	1	n/a	n/a	n/a	n/a	312.258	n/a
280.291	0.497	neutral	Picture	59.418	n/a	3	8	6	n/a	26	37	1	n/a	n/a	n/a	n/a	312.788	BM25NES.jpg
280.788	0.514	Blank	Blank	58.904	n/a	3	8	6	n/a	26	n/a	1	n/a	n/a	n/a	n/a	313.286	n/a
281.319	0.497	neutral	Picture	58.39	n/a	3	8	7	n/a	27	15	1	n/a	n/a	n/a	n/a	313.816	AF25NES.jpg
281.816	0.514	Blank	Blank	57.876	n/a	3	8	7	n/a	27	n/a	1	n/a	n/a	n/a	n/a	314.313	n/a
282.347	0.497	neutral	Picture	57.362	n/a	3	8	8	n/a	28	23	1	n/a	n/a	n/a	n/a	314.844	AM04NES.jpg
282.844	0.514	Blank	Blank	56.848	n/a	3	8	8	n/a	28	n/a	1	n/a	n/a	n/a	n/a	315.341	n/a
283.375	0.497	neutral	Picture	56.334	n/a	3	8	9	n/a	29	34	1	n/a	n/a	n/a	n/a	315.872	AM22NES.jpg
283.872	0.514	Blank	Blank	55.82	n/a	3	8	9	n/a	29	n/a	1	n/a	n/a	n/a	n/a	316.369	n/a
284.402	0.497	neutral	Picture	55.306	n/a	3	8	10	n/a	30	24	1	n/a	n/a	n/a	n/a	316.9	BM05NES.jpg
284.9	0.514	Blank	Blank	54.792	n/a	3	8	10	n/a	30	n/a	1	n/a	n/a	n/a	n/a	317.397	n/a
285.43	0.497	neutral	Picture	54.278	n/a	3	8	11	n/a	31	12	1	n/a	n/a	n/a	n/a	317.928	AF21NES.jpg
285.928	0.514	Blank	Blank	53.764	n/a	3	8	11	n/a	31	n/a	1	n/a	n/a	n/a	n/a	318.425	n/a
286.458	0.497	neutral	Picture	53.25	n/a	3	8	12	n/a	32	6	1	n/a	n/a	n/a	n/a	318.956	AF09NES.jpg
286.956	0.514	Blank	Blank	52.736	n/a	3	8	12	n/a	32	n/a	1	n/a	n/a	n/a	n/a	319.453	n/a
287.486	0.497	neutral	Picture	52.222	n/a	3	8	13	n/a	33	17	1	n/a	n/a	n/a	n/a	319.983	BF28NES.jpg
287.983	0.514	Blank	Blank	51.708	n/a	3	8	13	n/a	33	n/a	1	n/a	n/a	n/a	n/a	320.481	n/a
288.514	0.497	neutral	Picture	51.194	n/a	3	8	14	n/a	34	2	1	n/a	n/a	n/a	n/a	321.011	AF03NES.jpg
289.011	0.514	Blank	Blank	50.68	n/a	3	8	14	n/a	34	n/a	1	n/a	n/a	n/a	n/a	321.509	n/a
289.542	0.497	neutral	Picture	50.167	n/a	3	8	15	n/a	35	9	1	n/a	n/a	n/a	n/a	322.039	AF17NES.jpg
290.039	0.514	Blank	Blank	49.653	n/a	3	8	15	n/a	35	n/a	1	n/a	n/a	n/a	n/a	322.537	n/a
290.57	0.497	neutral	Picture	49.139	n/a	3	8	16	n/a	36	25	1	n/a	n/a	n/a	n/a	323.067	BM06NES.jpg
291.067	0.514	Blank	Blank	48.625	n/a	3	8	16	n/a	36	n/a	1	n/a	n/a	n/a	n/a	323.565	n/a
291.598	0.497	neutral	Picture	48.111	n/a	3	8	17	n/a	37	8	1	n/a	n/a	n/a	n/a	324.095	AF14NES.jpg
292.095	0.514	Blank	Blank	47.597	n/a	3	8	17	n/a	37	n/a	1	n/a	n/a	n/a	n/a	324.592	n/a
292.625	0.497	neutral	Picture	47.083	n/a	3	8	18	n/a	38	19	1	n/a	n/a	n/a	n/a	325.123	AF31NES.jpg
293.123	0.514	Blank	Blank	46.569	n/a	3	8	18	n/a	38	n/a	1	n/a	n/a	n/a	n/a	325.62	n/a
293.653	0.497	neutral	Picture	46.055	n/a	3	8	19	n/a	39	14	1	n/a	n/a	n/a	n/a	326.151	AF23NES.jpg
294.151	0.514	Blank	Blank	45.541	n/a	3	8	19	n/a	39	n/a	1	n/a	n/a	n/a	n/a	326.648	n/a
294.681	0.497	neutral	Picture	45.027	n/a	3	8	20	n/a	40	4	1	n/a	n/a	n/a	n/a	327.179	AF05NES.jpg
295.179	0.514	Blank	Blank	44.513	n/a	3	8	20	n/a	40	n/a	1	n/a	n/a	n/a	n/a	327.676	n/a
295.709	10.014	ITI	Fixation+	34.483	n/a	3	n/a	n/a	n/a	n/a	n/a	n/a	n/a	n/a	n/a	n/a	328.207	n/a
305.739	0.497	happy	Picture	33.969	n/a	3	9	1	n/a	41	84	3	n/a	n/a	n/a	n/a	338.237	AF05ANS.jpg
306.237	0.514	Blank	Blank	33.455	n/a	3	9	1	n/a	41	n/a	3	n/a	n/a	n/a	n/a	338.734	n/a
306.767	0.497	happy	Picture	32.941	n/a	3	9	2	n/a	42	92	3	n/a	n/a	n/a	n/a	339.265	AF21ANS.jpg
307.265	0.514	Blank	Blank	32.427	n/a	3	9	2	n/a	42	n/a	3	n/a	n/a	n/a	n/a	339.762	n/a
307.795	0.497	happy	Picture	31.913	n/a	3	9	3	n/a	43	86	3	n/a	n/a	n/a	n/a	340.293	AF09ANS.jpg
308.293	0.514	Blank	Blank	31.399	n/a	3	9	3	n/a	43	n/a	3	n/a	n/a	n/a	n/a	340.79	n/a
308.823	0.497	happy	Picture	30.885	n/a	3	9	4	n/a	44	93	3	n/a	n/a	n/a	n/a	341.32	BF22ANS.jpg
309.32	0.514	Blank	Blank	30.371	n/a	3	9	4	n/a	44	n/a	3	n/a	n/a	n/a	n/a	341.818	n/a
309.851	0.497	happy	Picture	29.857	n/a	3	9	5	n/a	45	88	3	n/a	n/a	n/a	n/a	342.348	AF14ANS.jpg
310.348	0.514	Blank	Blank	29.343	n/a	3	9	5	n/a	45	n/a	3	n/a	n/a	n/a	n/a	342.846	n/a
310.879	0.497	happy	Picture	28.83	n/a	3	9	6	n/a	46	113	3	n/a	n/a	n/a	n/a	343.376	AM21ANS.jpg
311.376	0.514	Blank	Blank	28.316	n/a	3	9	6	n/a	46	n/a	3	n/a	n/a	n/a	n/a	343.874	n/a
311.907	0.497	happy	Picture	27.802	n/a	3	9	7	n/a	47	95	3	n/a	n/a	n/a	n/a	344.404	AF25ANS.jpg
312.404	0.514	Blank	Blank	27.288	n/a	3	9	7	n/a	47	n/a	3	n/a	n/a	n/a	n/a	344.901	n/a
312.935	0.497	happy	Picture	26.774	n/a	3	9	8	n/a	48	102	3	n/a	n/a	n/a	n/a	345.432	BM03ANS.jpg
313.432	0.514	Blank	Blank	26.26	n/a	3	9	8	n/a	48	n/a	3	n/a	n/a	n/a	n/a	345.929	n/a
313.962	0.497	happy	Picture	25.746	n/a	3	9	9	n/a	49	112	3	n/a	n/a	n/a	n/a	346.46	AM14ANS.jpg
314.46	0.514	Blank	Blank	25.232	n/a	3	9	9	n/a	49	n/a	3	n/a	n/a	n/a	n/a	346.957	n/a
314.99	0.497	happy	Picture	24.718	n/a	3	9	10	n/a	50	83	3	n/a	n/a	n/a	n/a	347.488	BF04ANS.jpg
315.488	0.514	Blank	Blank	24.204	n/a	3	9	10	n/a	50	n/a	3	n/a	n/a	n/a	n/a	347.985	n/a
316.018	0.497	happy	Picture	23.69	n/a	3	9	11	n/a	51	90	3	n/a	n/a	n/a	n/a	348.516	AF18ANS.jpg
316.516	0.514	Blank	Blank	23.176	n/a	3	9	11	n/a	51	n/a	3	n/a	n/a	n/a	n/a	349.013	n/a
317.046	0.497	happy	Picture	22.662	n/a	3	9	12	n/a	52	117	3	n/a	n/a	n/a	n/a	349.544	BM25ANS.jpg
317.544	0.514	Blank	Blank	22.148	n/a	3	9	12	n/a	52	n/a	3	n/a	n/a	n/a	n/a	350.041	n/a
318.074	0.497	happy	Picture	21.634	n/a	3	9	13	n/a	53	94	3	n/a	n/a	n/a	n/a	350.572	AF23ANS.jpg
318.571	0.514	Blank	Blank	21.12	n/a	3	9	13	n/a	53	n/a	3	n/a	n/a	n/a	n/a	351.069	n/a
319.102	0.497	happy	Picture	20.606	n/a	3	9	14	n/a	54	106	3	n/a	n/a	n/a	n/a	351.599	AM07ANS.jpg
319.599	0.514	Blank	Blank	20.092	n/a	3	9	14	n/a	54	n/a	3	n/a	n/a	n/a	n/a	352.097	n/a
320.13	0.497	happy	Picture	19.579	n/a	3	9	15	n/a	55	105	3	n/a	n/a	n/a	n/a	352.627	BM06ANS.jpg
320.627	0.514	Blank	Blank	19.065	n/a	3	9	15	n/a	55	n/a	3	n/a	n/a	n/a	n/a	353.125	n/a
321.158	0.497	happy	Picture	18.551	n/a	3	9	16	n/a	56	116	3	n/a	n/a	n/a	n/a	353.655	BM24ANS.jpg
321.655	0.514	Blank	Blank	18.037	n/a	3	9	16	n/a	56	n/a	3	n/a	n/a	n/a	n/a	354.152	n/a
322.186	0.497	happy	Picture	17.523	n/a	3	9	17	n/a	57	89	3	n/a	n/a	n/a	n/a	354.683	AF17ANS.jpg
322.683	0.514	Blank	Blank	17.009	n/a	3	9	17	n/a	57	n/a	3	n/a	n/a	n/a	n/a	355.18	n/a
323.213	0.497	happy	Picture	16.495	n/a	3	9	18	n/a	58	118	3	n/a	n/a	n/a	n/a	355.711	BM26ANS.jpg
323.711	0.514	Blank	Blank	15.981	n/a	3	9	18	n/a	58	n/a	3	n/a	n/a	n/a	n/a	356.208	n/a
324.241	0.497	happy	Picture	15.467	n/a	3	9	19	n/a	59	100	3	n/a	n/a	n/a	n/a	356.739	AF32ANS.jpg
324.739	0.514	Blank	Blank	14.953	n/a	3	9	19	n/a	59	n/a	3	n/a	n/a	n/a	n/a	357.236	n/a
325.269	0.497	happy	Picture	14.439	n/a	3	9	20	n/a	60	119	3	n/a	n/a	n/a	n/a	357.767	BM28ANS.jpg
325.767	0.514	Blank	Blank	13.925	n/a	3	9	20	n/a	60	n/a	3	n/a	n/a	n/a	n/a	358.264	n/a
326.297	10.014	ITI	Fixation+	3.895	n/a	3	n/a	n/a	n/a	n/a	n/a	n/a	n/a	n/a	n/a	n/a	358.795	n/a
340.206	n/a	ConfirmRating	Rate	n/a	3.88	3	n/a	n/a	0	n/a	n/a	n/a	2	Happy	66	51	372.703	n/a
343.786	n/a	ConfirmRating	Rate	n/a	3.565	3	n/a	n/a	1	n/a	n/a	n/a	3	Happy	0	49	376.283	n/a
343.804	10.014	ITI	Fixation+	94.827	n/a	4	n/a	n/a	n/a	n/a	n/a	n/a	n/a	n/a	n/a	n/a	376.302	n/a
353.835	0.497	angry	Picture	94.313	n/a	4	10	1	n/a	61	79	2	n/a	n/a	n/a	n/a	386.332	BM28HAS.jpg
354.332	0.514	Blank	Blank	93.799	n/a	4	10	1	n/a	61	n/a	2	n/a	n/a	n/a	n/a	386.829	n/a
354.863	0.497	angry	Picture	93.285	n/a	4	10	2	n/a	62	61	2	n/a	n/a	n/a	n/a	387.36	AM01HAS.jpg
355.36	0.514	Blank	Blank	92.771	n/a	4	10	2	n/a	62	n/a	2	n/a	n/a	n/a	n/a	387.857	n/a
355.89	0.497	angry	Picture	92.257	n/a	4	10	3	n/a	63	57	2	n/a	n/a	n/a	n/a	388.388	BF28HAS.jpg
356.388	0.514	Blank	Blank	91.743	n/a	4	10	3	n/a	63	n/a	2	n/a	n/a	n/a	n/a	388.885	n/a
356.918	0.497	angry	Picture	91.229	n/a	4	10	4	n/a	64	77	2	n/a	n/a	n/a	n/a	389.416	BM25HAS.jpg
357.416	0.514	Blank	Blank	90.715	n/a	4	10	4	n/a	64	n/a	2	n/a	n/a	n/a	n/a	389.913	n/a
357.946	0.497	angry	Picture	90.201	n/a	4	10	5	n/a	65	47	2	n/a	n/a	n/a	n/a	390.444	BF11HAS.jpg
358.444	0.514	Blank	Blank	89.687	n/a	4	10	5	n/a	65	n/a	2	n/a	n/a	n/a	n/a	390.941	n/a
358.974	0.497	angry	Picture	89.173	n/a	4	10	6	n/a	66	50	2	n/a	n/a	n/a	n/a	391.472	AF18HAS.jpg
359.471	0.514	Blank	Blank	88.659	n/a	4	10	6	n/a	66	n/a	2	n/a	n/a	n/a	n/a	391.969	n/a
360.002	0.497	angry	Picture	88.145	n/a	4	10	7	n/a	67	78	2	n/a	n/a	n/a	n/a	392.499	BM26HAS.jpg
360.499	0.514	Blank	Blank	87.631	n/a	4	10	7	n/a	67	n/a	2	n/a	n/a	n/a	n/a	392.997	n/a
361.03	0.497	angry	Picture	87.117	n/a	4	10	8	n/a	68	45	2	n/a	n/a	n/a	n/a	393.527	BF07HAS.jpg
361.527	0.514	Blank	Blank	86.604	n/a	4	10	8	n/a	68	n/a	2	n/a	n/a	n/a	n/a	394.025	n/a
362.058	0.497	angry	Picture	86.089	n/a	4	10	9	n/a	69	56	2	n/a	n/a	n/a	n/a	394.555	AF26HAS.jpg
362.555	0.514	Blank	Blank	85.576	n/a	4	10	9	n/a	69	n/a	2	n/a	n/a	n/a	n/a	395.053	n/a
363.086	0.497	angry	Picture	85.062	n/a	4	10	10	n/a	70	65	2	n/a	n/a	n/a	n/a	395.583	BM06HAS.jpg
363.583	0.514	Blank	Blank	84.548	n/a	4	10	10	n/a	70	n/a	2	n/a	n/a	n/a	n/a	396.08	n/a
364.114	0.497	angry	Picture	84.034	n/a	4	10	11	n/a	71	73	2	n/a	n/a	n/a	n/a	396.611	AM21HAS.jpg
364.611	0.514	Blank	Blank	83.52	n/a	4	10	11	n/a	71	n/a	2	n/a	n/a	n/a	n/a	397.108	n/a
365.141	0.497	angry	Picture	83.006	n/a	4	10	12	n/a	72	41	2	n/a	n/a	n/a	n/a	397.639	AF01HAS.jpg
365.639	0.514	Blank	Blank	82.492	n/a	4	10	12	n/a	72	n/a	2	n/a	n/a	n/a	n/a	398.136	n/a
366.169	0.497	angry	Picture	81.978	n/a	4	10	13	n/a	73	59	2	n/a	n/a	n/a	n/a	398.667	AF31HAS.jpg
366.667	0.514	Blank	Blank	81.464	n/a	4	10	13	n/a	73	n/a	2	n/a	n/a	n/a	n/a	399.164	n/a
367.197	0.497	angry	Picture	80.95	n/a	4	10	14	n/a	74	64	2	n/a	n/a	n/a	n/a	399.695	BM05HAS.jpg
367.695	0.514	Blank	Blank	80.436	n/a	4	10	14	n/a	74	n/a	2	n/a	n/a	n/a	n/a	400.192	n/a
368.225	0.497	angry	Picture	79.922	n/a	4	10	15	n/a	75	68	2	n/a	n/a	n/a	n/a	400.723	AM09HAS.jpg
368.722	0.514	Blank	Blank	79.408	n/a	4	10	15	n/a	75	n/a	2	n/a	n/a	n/a	n/a	401.22	n/a
369.253	0.497	angry	Picture	78.894	n/a	4	10	16	n/a	76	54	2	n/a	n/a	n/a	n/a	401.75	AF23HAS.jpg
369.75	0.514	Blank	Blank	78.38	n/a	4	10	16	n/a	76	n/a	2	n/a	n/a	n/a	n/a	402.248	n/a
370.281	0.497	angry	Picture	77.866	n/a	4	10	17	n/a	77	53	2	n/a	n/a	n/a	n/a	402.778	BF22HAS.jpg
370.778	0.514	Blank	Blank	77.352	n/a	4	10	17	n/a	77	n/a	2	n/a	n/a	n/a	n/a	403.276	n/a
371.309	0.497	angry	Picture	76.839	n/a	4	10	18	n/a	78	44	2	n/a	n/a	n/a	n/a	403.806	AF05HAS.jpg
371.806	0.514	Blank	Blank	76.325	n/a	4	10	18	n/a	78	n/a	2	n/a	n/a	n/a	n/a	404.304	n/a
372.337	0.497	angry	Picture	75.811	n/a	4	10	19	n/a	79	52	2	n/a	n/a	n/a	n/a	404.834	AF21HAS.jpg
372.834	0.514	Blank	Blank	75.297	n/a	4	10	19	n/a	79	n/a	2	n/a	n/a	n/a	n/a	405.332	n/a
373.365	0.497	angry	Picture	74.783	n/a	4	10	20	n/a	80	62	2	n/a	n/a	n/a	n/a	405.862	BM03HAS.jpg
373.862	0.514	Blank	Blank	74.269	n/a	4	10	20	n/a	80	n/a	2	n/a	n/a	n/a	n/a	406.359	n/a
374.393	10.014	ITI	Fixation+	64.239	n/a	4	n/a	n/a	n/a	n/a	n/a	n/a	n/a	n/a	n/a	n/a	406.89	n/a
384.423	0.497	neutral	Picture	63.725	n/a	4	11	1	n/a	81	23	1	n/a	n/a	n/a	n/a	416.92	AM04NES.jpg
384.92	0.514	Blank	Blank	63.211	n/a	4	11	1	n/a	81	n/a	1	n/a	n/a	n/a	n/a	417.418	n/a
385.451	0.497	neutral	Picture	62.697	n/a	4	11	2	n/a	82	29	1	n/a	n/a	n/a	n/a	417.948	AM10NES.jpg
385.948	0.514	Blank	Blank	62.183	n/a	4	11	2	n/a	82	n/a	1	n/a	n/a	n/a	n/a	418.445	n/a
386.479	0.497	neutral	Picture	61.669	n/a	4	11	3	n/a	83	24	1	n/a	n/a	n/a	n/a	418.976	BM05NES.jpg
386.976	0.514	Blank	Blank	61.155	n/a	4	11	3	n/a	83	n/a	1	n/a	n/a	n/a	n/a	419.473	n/a
387.506	0.497	neutral	Picture	60.641	n/a	4	11	4	n/a	84	12	1	n/a	n/a	n/a	n/a	420.004	AF21NES.jpg
388.004	0.514	Blank	Blank	60.127	n/a	4	11	4	n/a	84	n/a	1	n/a	n/a	n/a	n/a	420.501	n/a
388.534	0.497	neutral	Picture	59.613	n/a	4	11	5	n/a	85	13	1	n/a	n/a	n/a	n/a	421.032	BF22NES.jpg
389.032	0.514	Blank	Blank	59.099	n/a	4	11	5	n/a	85	n/a	1	n/a	n/a	n/a	n/a	421.529	n/a
389.562	0.497	neutral	Picture	58.585	n/a	4	11	6	n/a	86	17	1	n/a	n/a	n/a	n/a	422.06	BF28NES.jpg
390.059	0.514	Blank	Blank	58.071	n/a	4	11	6	n/a	86	n/a	1	n/a	n/a	n/a	n/a	422.557	n/a
390.59	0.497	neutral	Picture	57.557	n/a	4	11	7	n/a	87	4	1	n/a	n/a	n/a	n/a	423.087	AF05NES.jpg
391.087	0.514	Blank	Blank	57.043	n/a	4	11	7	n/a	87	n/a	1	n/a	n/a	n/a	n/a	423.585	n/a
391.618	0.497	neutral	Picture	56.529	n/a	4	11	8	n/a	88	11	1	n/a	n/a	n/a	n/a	424.115	AF20NES.jpg
392.115	0.514	Blank	Blank	56.015	n/a	4	11	8	n/a	88	n/a	1	n/a	n/a	n/a	n/a	424.613	n/a
392.646	0.497	neutral	Picture	55.502	n/a	4	11	9	n/a	89	22	1	n/a	n/a	n/a	n/a	425.143	BM03NES.jpg
393.143	0.514	Blank	Blank	54.988	n/a	4	11	9	n/a	89	n/a	1	n/a	n/a	n/a	n/a	425.641	n/a
393.674	0.497	neutral	Picture	54.474	n/a	4	11	10	n/a	90	15	1	n/a	n/a	n/a	n/a	426.171	AF25NES.jpg
394.171	0.514	Blank	Blank	53.96	n/a	4	11	10	n/a	90	n/a	1	n/a	n/a	n/a	n/a	426.668	n/a
394.702	0.497	neutral	Picture	53.446	n/a	4	11	11	n/a	91	19	1	n/a	n/a	n/a	n/a	427.199	AF31NES.jpg
395.199	0.514	Blank	Blank	52.932	n/a	4	11	11	n/a	91	n/a	1	n/a	n/a	n/a	n/a	427.696	n/a
395.73	0.497	neutral	Picture	52.418	n/a	4	11	12	n/a	92	9	1	n/a	n/a	n/a	n/a	428.227	AF17NES.jpg
396.227	0.514	Blank	Blank	51.904	n/a	4	11	12	n/a	92	n/a	1	n/a	n/a	n/a	n/a	428.724	n/a
396.757	0.497	neutral	Picture	51.39	n/a	4	11	13	n/a	93	14	1	n/a	n/a	n/a	n/a	429.255	AF23NES.jpg
397.255	0.514	Blank	Blank	50.876	n/a	4	11	13	n/a	93	n/a	1	n/a	n/a	n/a	n/a	429.752	n/a
397.785	0.497	neutral	Picture	50.362	n/a	4	11	14	n/a	94	36	1	n/a	n/a	n/a	n/a	430.283	BM24NES.jpg
398.283	0.514	Blank	Blank	49.848	n/a	4	11	14	n/a	94	n/a	1	n/a	n/a	n/a	n/a	430.78	n/a
398.813	0.497	neutral	Picture	49.334	n/a	4	11	15	n/a	95	34	1	n/a	n/a	n/a	n/a	431.311	AM22NES.jpg
399.311	0.514	Blank	Blank	48.82	n/a	4	11	15	n/a	95	n/a	1	n/a	n/a	n/a	n/a	431.808	n/a
399.841	0.497	neutral	Picture	48.306	n/a	4	11	16	n/a	96	10	1	n/a	n/a	n/a	n/a	432.339	AF18NES.jpg
400.338	0.514	Blank	Blank	47.792	n/a	4	11	16	n/a	96	n/a	1	n/a	n/a	n/a	n/a	432.836	n/a
400.869	0.497	neutral	Picture	47.278	n/a	4	11	17	n/a	97	5	1	n/a	n/a	n/a	n/a	433.366	BF07NES.jpg
401.366	0.514	Blank	Blank	46.764	n/a	4	11	17	n/a	97	n/a	1	n/a	n/a	n/a	n/a	433.864	n/a
401.897	0.497	neutral	Picture	46.251	n/a	4	11	18	n/a	98	25	1	n/a	n/a	n/a	n/a	434.394	BM06NES.jpg
402.394	0.514	Blank	Blank	45.737	n/a	4	11	18	n/a	98	n/a	1	n/a	n/a	n/a	n/a	434.892	n/a
402.925	0.497	neutral	Picture	45.223	n/a	4	11	19	n/a	99	39	1	n/a	n/a	n/a	n/a	435.422	AM28NES.jpg
403.422	0.514	Blank	Blank	44.709	n/a	4	11	19	n/a	99	n/a	1	n/a	n/a	n/a	n/a	435.92	n/a
403.953	0.497	neutral	Picture	44.195	n/a	4	11	20	n/a	100	33	1	n/a	n/a	n/a	n/a	436.45	AM21NES.jpg
404.45	0.514	Blank	Blank	43.681	n/a	4	11	20	n/a	100	n/a	1	n/a	n/a	n/a	n/a	436.947	n/a
404.981	10.014	ITI	Fixation+	33.651	n/a	4	n/a	n/a	n/a	n/a	n/a	n/a	n/a	n/a	n/a	n/a	437.478	n/a
415.011	0.497	angry	Picture	33.137	n/a	4	12	1	n/a	101	74	2	n/a	n/a	n/a	n/a	447.508	AM22HAS.jpg
415.508	0.514	Blank	Blank	32.623	n/a	4	12	1	n/a	101	n/a	2	n/a	n/a	n/a	n/a	448.005	n/a
416.039	0.497	angry	Picture	32.109	n/a	4	12	2	n/a	102	76	2	n/a	n/a	n/a	n/a	448.536	BM24HAS.jpg
416.536	0.514	Blank	Blank	31.595	n/a	4	12	2	n/a	102	n/a	2	n/a	n/a	n/a	n/a	449.033	n/a
417.067	0.497	angry	Picture	31.081	n/a	4	12	3	n/a	103	80	2	n/a	n/a	n/a	n/a	449.564	BM35HAS.jpg
417.564	0.514	Blank	Blank	30.567	n/a	4	12	3	n/a	103	n/a	2	n/a	n/a	n/a	n/a	450.061	n/a
418.094	0.497	angry	Picture	30.053	n/a	4	12	4	n/a	104	75	2	n/a	n/a	n/a	n/a	450.592	AM23HAS.jpg
418.592	0.514	Blank	Blank	29.539	n/a	4	12	4	n/a	104	n/a	2	n/a	n/a	n/a	n/a	451.089	n/a
419.122	0.497	angry	Picture	29.025	n/a	4	12	5	n/a	105	49	2	n/a	n/a	n/a	n/a	451.62	AF17HAS.jpg
419.62	0.514	Blank	Blank	28.511	n/a	4	12	5	n/a	105	n/a	2	n/a	n/a	n/a	n/a	452.117	n/a
420.15	0.497	angry	Picture	27.997	n/a	4	12	6	n/a	106	43	2	n/a	n/a	n/a	n/a	452.648	BF04HAS.jpg
420.648	0.514	Blank	Blank	27.483	n/a	4	12	6	n/a	106	n/a	2	n/a	n/a	n/a	n/a	453.145	n/a
421.178	0.497	angry	Picture	26.969	n/a	4	12	7	n/a	107	70	2	n/a	n/a	n/a	n/a	453.675	BM11HAS.jpg
421.675	0.514	Blank	Blank	26.455	n/a	4	12	7	n/a	107	n/a	2	n/a	n/a	n/a	n/a	454.173	n/a
422.206	0.497	angry	Picture	25.941	n/a	4	12	8	n/a	108	66	2	n/a	n/a	n/a	n/a	454.703	BM07HAS.jpg
422.703	0.514	Blank	Blank	25.427	n/a	4	12	8	n/a	108	n/a	2	n/a	n/a	n/a	n/a	455.201	n/a
423.234	0.497	angry	Picture	24.914	n/a	4	12	9	n/a	109	48	2	n/a	n/a	n/a	n/a	455.731	AF14HAS.jpg
423.731	0.514	Blank	Blank	24.4	n/a	4	12	9	n/a	109	n/a	2	n/a	n/a	n/a	n/a	456.229	n/a
424.262	0.497	angry	Picture	23.886	n/a	4	12	10	n/a	110	58	2	n/a	n/a	n/a	n/a	456.759	BF29HAS.jpg
424.759	0.514	Blank	Blank	23.372	n/a	4	12	10	n/a	110	n/a	2	n/a	n/a	n/a	n/a	457.257	n/a
425.29	0.497	angry	Picture	22.858	n/a	4	12	11	n/a	111	63	2	n/a	n/a	n/a	n/a	457.787	AM04HAS.jpg
425.787	0.514	Blank	Blank	22.344	n/a	4	12	11	n/a	111	n/a	2	n/a	n/a	n/a	n/a	458.284	n/a
426.317	0.497	angry	Picture	21.83	n/a	4	12	12	n/a	112	72	2	n/a	n/a	n/a	n/a	458.815	AM14HAS.jpg
426.815	0.514	Blank	Blank	21.316	n/a	4	12	12	n/a	112	n/a	2	n/a	n/a	n/a	n/a	459.312	n/a
427.345	0.497	angry	Picture	20.802	n/a	4	12	13	n/a	113	55	2	n/a	n/a	n/a	n/a	459.843	AF25HAS.jpg
427.843	0.514	Blank	Blank	20.288	n/a	4	12	13	n/a	113	n/a	2	n/a	n/a	n/a	n/a	460.34	n/a
428.373	0.497	angry	Picture	19.774	n/a	4	12	14	n/a	114	42	2	n/a	n/a	n/a	n/a	460.871	AF03HAS.jpg
428.871	0.514	Blank	Blank	19.26	n/a	4	12	14	n/a	114	n/a	2	n/a	n/a	n/a	n/a	461.368	n/a
429.401	0.497	angry	Picture	18.746	n/a	4	12	15	n/a	115	60	2	n/a	n/a	n/a	n/a	461.899	AF32HAS.jpg
429.899	0.514	Blank	Blank	18.232	n/a	4	12	15	n/a	115	n/a	2	n/a	n/a	n/a	n/a	462.396	n/a
430.429	0.497	angry	Picture	17.718	n/a	4	12	16	n/a	116	67	2	n/a	n/a	n/a	n/a	462.926	BM08HAS.jpg
430.927	0.514	Blank	Blank	17.204	n/a	4	12	16	n/a	116	n/a	2	n/a	n/a	n/a	n/a	463.424	n/a
431.457	0.497	angry	Picture	16.69	n/a	4	12	17	n/a	117	51	2	n/a	n/a	n/a	n/a	463.954	AF20HAS.jpg
431.954	0.514	Blank	Blank	16.176	n/a	4	12	17	n/a	117	n/a	2	n/a	n/a	n/a	n/a	464.452	n/a
432.485	0.497	angry	Picture	15.663	n/a	4	12	18	n/a	118	71	2	n/a	n/a	n/a	n/a	464.982	BM12HAS.jpg
432.982	0.514	Blank	Blank	15.149	n/a	4	12	18	n/a	118	n/a	2	n/a	n/a	n/a	n/a	465.48	n/a
433.513	0.497	angry	Picture	14.635	n/a	4	12	19	n/a	119	69	2	n/a	n/a	n/a	n/a	466.01	AM10HAS.jpg
434.01	0.514	Blank	Blank	14.121	n/a	4	12	19	n/a	119	n/a	2	n/a	n/a	n/a	n/a	466.507	n/a
434.541	0.497	angry	Picture	13.607	n/a	4	12	20	n/a	120	46	2	n/a	n/a	n/a	n/a	467.038	AF09HAS.jpg
435.038	0.514	Blank	Blank	13.093	n/a	4	12	20	n/a	120	n/a	2	n/a	n/a	n/a	n/a	467.535	n/a
435.568	10.014	ITI	Fixation+	3.063	n/a	4	n/a	n/a	n/a	n/a	n/a	n/a	n/a	n/a	n/a	n/a	468.066	n/a
448.645	n/a	ConfirmRating	Rate	n/a	3.05	4	n/a	n/a	0	n/a	n/a	n/a	2	Angry	50	50	481.142	n/a
454.873	n/a	ConfirmRating	Rate	n/a	6.217	4	n/a	n/a	1	n/a	n/a	n/a	3	Angry	0	49	487.37	n/a
