onset	duration	trial_type	event_type	time_until_response	response_time	trial_number	block_num_within_trial	image_seq_num_within_block	question_seq_num_within_block	image_seq_num	picture_number	condition	question_type	block_type	rating	rating_computed	onset_uncorrected	KDEV_imagefile
0.016	10.014	ITI	Fixation+	96.18	n/a	1	n/a	n/a	n/a	n/a	n/a	n/a	n/a	n/a	n/a	n/a	33.285	n/a
10.046	0.497	angry	Picture	95.666	n/a	1	1	1	n/a	1	46	2	n/a	n/a	n/a	n/a	43.315	AF09HAS.jpg
10.543	0.514	Blank	Blank	95.152	n/a	1	1	1	n/a	1	n/a	2	n/a	n/a	n/a	n/a	43.812	n/a
11.074	0.497	angry	Picture	94.638	n/a	1	1	2	n/a	2	69	2	n/a	n/a	n/a	n/a	44.343	AM10HAS.jpg
11.571	0.514	Blank	Blank	94.124	n/a	1	1	2	n/a	2	n/a	2	n/a	n/a	n/a	n/a	44.84	n/a
12.102	0.497	angry	Picture	93.61	n/a	1	1	3	n/a	3	71	2	n/a	n/a	n/a	n/a	45.371	BM12HAS.jpg
12.599	0.514	Blank	Blank	93.096	n/a	1	1	3	n/a	3	n/a	2	n/a	n/a	n/a	n/a	45.868	n/a
13.13	0.497	angry	Picture	92.582	n/a	1	1	4	n/a	4	51	2	n/a	n/a	n/a	n/a	46.399	AF20HAS.jpg
13.627	0.514	Blank	Blank	92.068	n/a	1	1	4	n/a	4	n/a	2	n/a	n/a	n/a	n/a	46.896	n/a
14.157	0.497	angry	Picture	91.554	n/a	1	1	5	n/a	5	67	2	n/a	n/a	n/a	n/a	47.426	BM08HAS.jpg
14.655	0.514	Blank	Blank	91.04	n/a	1	1	5	n/a	5	n/a	2	n/a	n/a	n/a	n/a	47.924	n/a
15.185	0.497	angry	Picture	90.526	n/a	1	1	6	n/a	6	60	2	n/a	n/a	n/a	n/a	48.454	AF32HAS.jpg
15.683	0.514	Blank	Blank	90.012	n/a	1	1	6	n/a	6	n/a	2	n/a	n/a	n/a	n/a	48.952	n/a
16.213	0.497	angry	Picture	89.498	n/a	1	1	7	n/a	7	42	2	n/a	n/a	n/a	n/a	49.482	AF03HAS.jpg
16.711	0.514	Blank	Blank	88.985	n/a	1	1	7	n/a	7	n/a	2	n/a	n/a	n/a	n/a	49.98	n/a
17.241	0.497	angry	Picture	88.471	n/a	1	1	8	n/a	8	55	2	n/a	n/a	n/a	n/a	50.51	AF25HAS.jpg
17.738	0.514	Blank	Blank	87.957	n/a	1	1	8	n/a	8	n/a	2	n/a	n/a	n/a	n/a	51.007	n/a
18.269	0.497	angry	Picture	87.443	n/a	1	1	9	n/a	9	72	2	n/a	n/a	n/a	n/a	51.538	AM14HAS.jpg
18.766	0.514	Blank	Blank	86.929	n/a	1	1	9	n/a	9	n/a	2	n/a	n/a	n/a	n/a	52.035	n/a
19.297	0.497	angry	Picture	86.415	n/a	1	1	10	n/a	10	63	2	n/a	n/a	n/a	n/a	52.566	AM04HAS.jpg
19.794	0.514	Blank	Blank	85.901	n/a	1	1	10	n/a	10	n/a	2	n/a	n/a	n/a	n/a	53.063	n/a
20.325	0.497	angry	Picture	85.387	n/a	1	1	11	n/a	11	58	2	n/a	n/a	n/a	n/a	53.594	BF29HAS.jpg
20.822	0.514	Blank	Blank	84.873	n/a	1	1	11	n/a	11	n/a	2	n/a	n/a	n/a	n/a	54.091	n/a
21.353	0.497	angry	Picture	84.359	n/a	1	1	12	n/a	12	48	2	n/a	n/a	n/a	n/a	54.622	AF14HAS.jpg
21.85	0.514	Blank	Blank	83.845	n/a	1	1	12	n/a	12	n/a	2	n/a	n/a	n/a	n/a	55.119	n/a
22.381	0.497	angry	Picture	83.331	n/a	1	1	13	n/a	13	66	2	n/a	n/a	n/a	n/a	55.65	BM07HAS.jpg
22.878	0.514	Blank	Blank	82.817	n/a	1	1	13	n/a	13	n/a	2	n/a	n/a	n/a	n/a	56.147	n/a
23.408	0.497	angry	Picture	82.303	n/a	1	1	14	n/a	14	70	2	n/a	n/a	n/a	n/a	56.677	BM11HAS.jpg
23.906	0.514	Blank	Blank	81.789	n/a	1	1	14	n/a	14	n/a	2	n/a	n/a	n/a	n/a	57.175	n/a
24.436	0.497	angry	Picture	81.275	n/a	1	1	15	n/a	15	43	2	n/a	n/a	n/a	n/a	57.705	BF04HAS.jpg
24.934	0.514	Blank	Blank	80.761	n/a	1	1	15	n/a	15	n/a	2	n/a	n/a	n/a	n/a	58.203	n/a
25.464	0.497	angry	Picture	80.248	n/a	1	1	16	n/a	16	49	2	n/a	n/a	n/a	n/a	58.733	AF17HAS.jpg
25.962	0.514	Blank	Blank	79.734	n/a	1	1	16	n/a	16	n/a	2	n/a	n/a	n/a	n/a	59.23	n/a
26.492	0.497	angry	Picture	79.22	n/a	1	1	17	n/a	17	75	2	n/a	n/a	n/a	n/a	59.761	AM23HAS.jpg
26.989	0.514	Blank	Blank	78.706	n/a	1	1	17	n/a	17	n/a	2	n/a	n/a	n/a	n/a	60.258	n/a
27.52	0.497	angry	Picture	78.192	n/a	1	1	18	n/a	18	80	2	n/a	n/a	n/a	n/a	60.789	BM35HAS.jpg
28.017	0.514	Blank	Blank	77.678	n/a	1	1	18	n/a	18	n/a	2	n/a	n/a	n/a	n/a	61.286	n/a
28.548	0.497	angry	Picture	77.164	n/a	1	1	19	n/a	19	76	2	n/a	n/a	n/a	n/a	61.817	BM24HAS.jpg
29.045	0.514	Blank	Blank	76.65	n/a	1	1	19	n/a	19	n/a	2	n/a	n/a	n/a	n/a	62.314	n/a
29.576	0.497	angry	Picture	76.136	n/a	1	1	20	n/a	20	74	2	n/a	n/a	n/a	n/a	62.845	AM22HAS.jpg
30.073	0.514	Blank	Blank	75.622	n/a	1	1	20	n/a	20	n/a	2	n/a	n/a	n/a	n/a	63.342	n/a
30.604	10.014	ITI	Fixation+	65.592	n/a	1	n/a	n/a	n/a	n/a	n/a	n/a	n/a	n/a	n/a	n/a	63.873	n/a
40.634	0.497	neutral	Picture	65.078	n/a	1	2	1	n/a	21	33	1	n/a	n/a	n/a	n/a	73.903	AM21NES.jpg
41.131	0.514	Blank	Blank	64.564	n/a	1	2	1	n/a	21	n/a	1	n/a	n/a	n/a	n/a	74.4	n/a
41.662	0.497	neutral	Picture	64.05	n/a	1	2	2	n/a	22	39	1	n/a	n/a	n/a	n/a	74.931	AM28NES.jpg
42.159	0.514	Blank	Blank	63.536	n/a	1	2	2	n/a	22	n/a	1	n/a	n/a	n/a	n/a	75.428	n/a
42.689	0.497	neutral	Picture	63.022	n/a	1	2	3	n/a	23	25	1	n/a	n/a	n/a	n/a	75.958	BM06NES.jpg
43.187	0.514	Blank	Blank	62.508	n/a	1	2	3	n/a	23	n/a	1	n/a	n/a	n/a	n/a	76.456	n/a
43.717	0.497	neutral	Picture	61.994	n/a	1	2	4	n/a	24	5	1	n/a	n/a	n/a	n/a	76.986	BF07NES.jpg
44.215	0.514	Blank	Blank	61.48	n/a	1	2	4	n/a	24	n/a	1	n/a	n/a	n/a	n/a	77.484	n/a
44.745	0.497	neutral	Picture	60.966	n/a	1	2	5	n/a	25	10	1	n/a	n/a	n/a	n/a	78.014	AF18NES.jpg
45.243	0.514	Blank	Blank	60.453	n/a	1	2	5	n/a	25	n/a	1	n/a	n/a	n/a	n/a	78.512	n/a
45.773	0.497	neutral	Picture	59.939	n/a	1	2	6	n/a	26	34	1	n/a	n/a	n/a	n/a	79.042	AM22NES.jpg
46.271	0.514	Blank	Blank	59.425	n/a	1	2	6	n/a	26	n/a	1	n/a	n/a	n/a	n/a	79.54	n/a
46.801	0.497	neutral	Picture	58.911	n/a	1	2	7	n/a	27	36	1	n/a	n/a	n/a	n/a	80.07	BM24NES.jpg
47.298	0.514	Blank	Blank	58.397	n/a	1	2	7	n/a	27	n/a	1	n/a	n/a	n/a	n/a	80.567	n/a
47.829	0.497	neutral	Picture	57.883	n/a	1	2	8	n/a	28	14	1	n/a	n/a	n/a	n/a	81.098	AF23NES.jpg
48.326	0.514	Blank	Blank	57.369	n/a	1	2	8	n/a	28	n/a	1	n/a	n/a	n/a	n/a	81.595	n/a
48.857	0.497	neutral	Picture	56.855	n/a	1	2	9	n/a	29	9	1	n/a	n/a	n/a	n/a	82.126	AF17NES.jpg
49.354	0.514	Blank	Blank	56.341	n/a	1	2	9	n/a	29	n/a	1	n/a	n/a	n/a	n/a	82.623	n/a
49.885	0.497	neutral	Picture	55.827	n/a	1	2	10	n/a	30	19	1	n/a	n/a	n/a	n/a	83.154	AF31NES.jpg
50.382	0.514	Blank	Blank	55.313	n/a	1	2	10	n/a	30	n/a	1	n/a	n/a	n/a	n/a	83.651	n/a
50.913	0.497	neutral	Picture	54.799	n/a	1	2	11	n/a	31	15	1	n/a	n/a	n/a	n/a	84.181	AF25NES.jpg
51.41	0.514	Blank	Blank	54.285	n/a	1	2	11	n/a	31	n/a	1	n/a	n/a	n/a	n/a	84.679	n/a
51.941	0.497	neutral	Picture	53.771	n/a	1	2	12	n/a	32	22	1	n/a	n/a	n/a	n/a	85.209	BM03NES.jpg
52.438	0.514	Blank	Blank	53.257	n/a	1	2	12	n/a	32	n/a	1	n/a	n/a	n/a	n/a	85.707	n/a
52.968	0.497	neutral	Picture	52.743	n/a	1	2	13	n/a	33	11	1	n/a	n/a	n/a	n/a	86.237	AF20NES.jpg
53.466	0.514	Blank	Blank	52.229	n/a	1	2	13	n/a	33	n/a	1	n/a	n/a	n/a	n/a	86.735	n/a
53.996	0.497	neutral	Picture	51.716	n/a	1	2	14	n/a	34	4	1	n/a	n/a	n/a	n/a	87.265	AF05NES.jpg
54.494	0.514	Blank	Blank	51.202	n/a	1	2	14	n/a	34	n/a	1	n/a	n/a	n/a	n/a	87.763	n/a
55.024	0.497	neutral	Picture	50.688	n/a	1	2	15	n/a	35	17	1	n/a	n/a	n/a	n/a	88.293	BF28NES.jpg
55.522	0.514	Blank	Blank	50.174	n/a	1	2	15	n/a	35	n/a	1	n/a	n/a	n/a	n/a	88.79	n/a
56.052	0.497	neutral	Picture	49.66	n/a	1	2	16	n/a	36	13	1	n/a	n/a	n/a	n/a	89.321	BF22NES.jpg
56.549	0.514	Blank	Blank	49.146	n/a	1	2	16	n/a	36	n/a	1	n/a	n/a	n/a	n/a	89.818	n/a
57.08	0.497	neutral	Picture	48.632	n/a	1	2	17	n/a	37	12	1	n/a	n/a	n/a	n/a	90.349	AF21NES.jpg
57.577	0.514	Blank	Blank	48.118	n/a	1	2	17	n/a	37	n/a	1	n/a	n/a	n/a	n/a	90.846	n/a
58.108	0.497	neutral	Picture	47.604	n/a	1	2	18	n/a	38	24	1	n/a	n/a	n/a	n/a	91.377	BM05NES.jpg
58.605	0.514	Blank	Blank	47.09	n/a	1	2	18	n/a	38	n/a	1	n/a	n/a	n/a	n/a	91.874	n/a
59.136	0.497	neutral	Picture	46.576	n/a	1	2	19	n/a	39	29	1	n/a	n/a	n/a	n/a	92.405	AM10NES.jpg
59.633	0.514	Blank	Blank	46.062	n/a	1	2	19	n/a	39	n/a	1	n/a	n/a	n/a	n/a	92.902	n/a
60.163	0.497	neutral	Picture	45.548	n/a	1	2	20	n/a	40	23	1	n/a	n/a	n/a	n/a	93.432	AM04NES.jpg
60.661	0.514	Blank	Blank	45.034	n/a	1	2	20	n/a	40	n/a	1	n/a	n/a	n/a	n/a	93.93	n/a
61.191	10.014	ITI	Fixation+	35.004	n/a	1	n/a	n/a	n/a	n/a	n/a	n/a	n/a	n/a	n/a	n/a	94.46	n/a
71.222	0.497	angry	Picture	34.49	n/a	1	3	1	n/a	41	62	2	n/a	n/a	n/a	n/a	104.49	BM03HAS.jpg
71.719	0.514	Blank	Blank	33.976	n/a	1	3	1	n/a	41	n/a	2	n/a	n/a	n/a	n/a	104.988	n/a
72.249	0.497	angry	Picture	33.462	n/a	1	3	2	n/a	42	52	2	n/a	n/a	n/a	n/a	105.518	AF21HAS.jpg
72.747	0.514	Blank	Blank	32.948	n/a	1	3	2	n/a	42	n/a	2	n/a	n/a	n/a	n/a	106.016	n/a
73.277	0.497	angry	Picture	32.434	n/a	1	3	3	n/a	43	44	2	n/a	n/a	n/a	n/a	106.546	AF05HAS.jpg
73.775	0.514	Blank	Blank	31.921	n/a	1	3	3	n/a	43	n/a	2	n/a	n/a	n/a	n/a	107.044	n/a
74.305	0.497	angry	Picture	31.407	n/a	1	3	4	n/a	44	53	2	n/a	n/a	n/a	n/a	107.574	BF22HAS.jpg
74.803	0.514	Blank	Blank	30.893	n/a	1	3	4	n/a	44	n/a	2	n/a	n/a	n/a	n/a	108.072	n/a
75.333	0.497	angry	Picture	30.379	n/a	1	3	5	n/a	45	54	2	n/a	n/a	n/a	n/a	108.602	AF23HAS.jpg
75.831	0.514	Blank	Blank	29.865	n/a	1	3	5	n/a	45	n/a	2	n/a	n/a	n/a	n/a	109.099	n/a
76.361	0.497	angry	Picture	29.351	n/a	1	3	6	n/a	46	68	2	n/a	n/a	n/a	n/a	109.63	AM09HAS.jpg
76.858	0.514	Blank	Blank	28.837	n/a	1	3	6	n/a	46	n/a	2	n/a	n/a	n/a	n/a	110.127	n/a
77.389	0.497	angry	Picture	28.323	n/a	1	3	7	n/a	47	64	2	n/a	n/a	n/a	n/a	110.658	BM05HAS.jpg
77.886	0.514	Blank	Blank	27.809	n/a	1	3	7	n/a	47	n/a	2	n/a	n/a	n/a	n/a	111.155	n/a
78.417	0.497	angry	Picture	27.295	n/a	1	3	8	n/a	48	59	2	n/a	n/a	n/a	n/a	111.686	AF31HAS.jpg
78.914	0.514	Blank	Blank	26.781	n/a	1	3	8	n/a	48	n/a	2	n/a	n/a	n/a	n/a	112.183	n/a
79.445	0.497	angry	Picture	26.267	n/a	1	3	9	n/a	49	41	2	n/a	n/a	n/a	n/a	112.713	AF01HAS.jpg
79.942	0.514	Blank	Blank	25.753	n/a	1	3	9	n/a	49	n/a	2	n/a	n/a	n/a	n/a	113.211	n/a
80.472	0.497	angry	Picture	25.239	n/a	1	3	10	n/a	50	73	2	n/a	n/a	n/a	n/a	113.741	AM21HAS.jpg
80.97	0.514	Blank	Blank	24.725	n/a	1	3	10	n/a	50	n/a	2	n/a	n/a	n/a	n/a	114.239	n/a
81.5	0.497	angry	Picture	24.211	n/a	1	3	11	n/a	51	65	2	n/a	n/a	n/a	n/a	114.769	BM06HAS.jpg
81.998	0.514	Blank	Blank	23.697	n/a	1	3	11	n/a	51	n/a	2	n/a	n/a	n/a	n/a	115.267	n/a
82.528	0.497	angry	Picture	23.184	n/a	1	3	12	n/a	52	56	2	n/a	n/a	n/a	n/a	115.797	AF26HAS.jpg
83.026	0.514	Blank	Blank	22.67	n/a	1	3	12	n/a	52	n/a	2	n/a	n/a	n/a	n/a	116.294	n/a
83.556	0.497	angry	Picture	22.156	n/a	1	3	13	n/a	53	45	2	n/a	n/a	n/a	n/a	116.825	BF07HAS.jpg
84.053	0.514	Blank	Blank	21.642	n/a	1	3	13	n/a	53	n/a	2	n/a	n/a	n/a	n/a	117.322	n/a
84.584	0.497	angry	Picture	21.128	n/a	1	3	14	n/a	54	78	2	n/a	n/a	n/a	n/a	117.853	BM26HAS.jpg
85.081	0.514	Blank	Blank	20.614	n/a	1	3	14	n/a	54	n/a	2	n/a	n/a	n/a	n/a	118.35	n/a
85.612	0.497	angry	Picture	20.1	n/a	1	3	15	n/a	55	50	2	n/a	n/a	n/a	n/a	118.881	AF18HAS.jpg
86.109	0.514	Blank	Blank	19.586	n/a	1	3	15	n/a	55	n/a	2	n/a	n/a	n/a	n/a	119.378	n/a
86.64	0.497	angry	Picture	19.072	n/a	1	3	16	n/a	56	47	2	n/a	n/a	n/a	n/a	119.909	BF11HAS.jpg
87.137	0.514	Blank	Blank	18.558	n/a	1	3	16	n/a	56	n/a	2	n/a	n/a	n/a	n/a	120.406	n/a
87.668	0.497	angry	Picture	18.044	n/a	1	3	17	n/a	57	77	2	n/a	n/a	n/a	n/a	120.937	BM25HAS.jpg
88.165	0.514	Blank	Blank	17.53	n/a	1	3	17	n/a	57	n/a	2	n/a	n/a	n/a	n/a	121.434	n/a
88.696	0.497	angry	Picture	17.016	n/a	1	3	18	n/a	58	57	2	n/a	n/a	n/a	n/a	121.965	BF28HAS.jpg
89.193	0.514	Blank	Blank	16.502	n/a	1	3	18	n/a	58	n/a	2	n/a	n/a	n/a	n/a	122.462	n/a
89.723	0.497	angry	Picture	15.988	n/a	1	3	19	n/a	59	61	2	n/a	n/a	n/a	n/a	122.992	AM01HAS.jpg
90.221	0.514	Blank	Blank	15.474	n/a	1	3	19	n/a	59	n/a	2	n/a	n/a	n/a	n/a	123.49	n/a
90.751	0.497	angry	Picture	14.96	n/a	1	3	20	n/a	60	79	2	n/a	n/a	n/a	n/a	124.02	BM28HAS.jpg
91.249	0.514	Blank	Blank	14.447	n/a	1	3	20	n/a	60	n/a	2	n/a	n/a	n/a	n/a	124.518	n/a
91.779	10.014	ITI	Fixation+	4.416	n/a	1	n/a	n/a	n/a	n/a	n/a	n/a	n/a	n/a	n/a	n/a	125.048	n/a
106.209	n/a	ConfirmRating	Rate	n/a	4.394	1	n/a	n/a	0	n/a	n/a	n/a	2	Angry	50	50	139.478	n/a
108.831	n/a	ConfirmRating	Rate	n/a	2.603	1	n/a	n/a	1	n/a	n/a	n/a	3	Angry	50	50	142.1	n/a
108.855	10.014	ITI	Fixation+	96.54	n/a	2	n/a	n/a	n/a	n/a	n/a	n/a	n/a	n/a	n/a	n/a	142.124	n/a
118.885	0.497	happy	Picture	96.026	n/a	2	4	1	n/a	61	119	3	n/a	n/a	n/a	n/a	152.154	BM28ANS.jpg
119.383	0.514	Blank	Blank	95.512	n/a	2	4	1	n/a	61	n/a	3	n/a	n/a	n/a	n/a	152.652	n/a
119.913	0.497	happy	Picture	94.998	n/a	2	4	2	n/a	62	100	3	n/a	n/a	n/a	n/a	153.182	AF32ANS.jpg
120.411	0.514	Blank	Blank	94.484	n/a	2	4	2	n/a	62	n/a	3	n/a	n/a	n/a	n/a	153.68	n/a
120.941	0.497	happy	Picture	93.97	n/a	2	4	3	n/a	63	118	3	n/a	n/a	n/a	n/a	154.21	BM26ANS.jpg
121.439	0.514	Blank	Blank	93.457	n/a	2	4	3	n/a	63	n/a	3	n/a	n/a	n/a	n/a	154.708	n/a
121.969	0.497	happy	Picture	92.943	n/a	2	4	4	n/a	64	89	3	n/a	n/a	n/a	n/a	155.238	AF17ANS.jpg
122.466	0.514	Blank	Blank	92.429	n/a	2	4	4	n/a	64	n/a	3	n/a	n/a	n/a	n/a	155.735	n/a
122.997	0.497	happy	Picture	91.915	n/a	2	4	5	n/a	65	116	3	n/a	n/a	n/a	n/a	156.266	BM24ANS.jpg
123.494	0.514	Blank	Blank	91.401	n/a	2	4	5	n/a	65	n/a	3	n/a	n/a	n/a	n/a	156.763	n/a
124.025	0.497	happy	Picture	90.887	n/a	2	4	6	n/a	66	105	3	n/a	n/a	n/a	n/a	157.294	BM06ANS.jpg
124.522	0.514	Blank	Blank	90.373	n/a	2	4	6	n/a	66	n/a	3	n/a	n/a	n/a	n/a	157.791	n/a
125.053	0.497	happy	Picture	89.859	n/a	2	4	7	n/a	67	106	3	n/a	n/a	n/a	n/a	158.322	AM07ANS.jpg
125.55	0.514	Blank	Blank	89.345	n/a	2	4	7	n/a	67	n/a	3	n/a	n/a	n/a	n/a	158.819	n/a
126.081	0.497	happy	Picture	88.831	n/a	2	4	8	n/a	68	94	3	n/a	n/a	n/a	n/a	159.35	AF23ANS.jpg
126.578	0.514	Blank	Blank	88.317	n/a	2	4	8	n/a	68	n/a	3	n/a	n/a	n/a	n/a	159.847	n/a
127.108	0.497	happy	Picture	87.803	n/a	2	4	9	n/a	69	117	3	n/a	n/a	n/a	n/a	160.377	BM25ANS.jpg
127.606	0.514	Blank	Blank	87.289	n/a	2	4	9	n/a	69	n/a	3	n/a	n/a	n/a	n/a	160.875	n/a
128.136	0.497	happy	Picture	86.775	n/a	2	4	10	n/a	70	90	3	n/a	n/a	n/a	n/a	161.405	AF18ANS.jpg
128.634	0.514	Blank	Blank	86.261	n/a	2	4	10	n/a	70	n/a	3	n/a	n/a	n/a	n/a	161.903	n/a
129.164	0.497	happy	Picture	85.748	n/a	2	4	11	n/a	71	83	3	n/a	n/a	n/a	n/a	162.433	BF04ANS.jpg
129.662	0.514	Blank	Blank	85.233	n/a	2	4	11	n/a	71	n/a	3	n/a	n/a	n/a	n/a	162.93	n/a
130.192	0.497	happy	Picture	84.72	n/a	2	4	12	n/a	72	112	3	n/a	n/a	n/a	n/a	163.461	AM14ANS.jpg
130.69	0.514	Blank	Blank	84.206	n/a	2	4	12	n/a	72	n/a	3	n/a	n/a	n/a	n/a	163.958	n/a
131.22	0.497	happy	Picture	83.692	n/a	2	4	13	n/a	73	102	3	n/a	n/a	n/a	n/a	164.489	BM03ANS.jpg
131.717	0.514	Blank	Blank	83.178	n/a	2	4	13	n/a	73	n/a	3	n/a	n/a	n/a	n/a	164.986	n/a
132.248	0.497	happy	Picture	82.664	n/a	2	4	14	n/a	74	95	3	n/a	n/a	n/a	n/a	165.517	AF25ANS.jpg
132.745	0.514	Blank	Blank	82.15	n/a	2	4	14	n/a	74	n/a	3	n/a	n/a	n/a	n/a	166.014	n/a
133.276	0.497	happy	Picture	81.636	n/a	2	4	15	n/a	75	113	3	n/a	n/a	n/a	n/a	166.545	AM21ANS.jpg
133.773	0.514	Blank	Blank	81.122	n/a	2	4	15	n/a	75	n/a	3	n/a	n/a	n/a	n/a	167.042	n/a
134.304	0.497	happy	Picture	80.608	n/a	2	4	16	n/a	76	88	3	n/a	n/a	n/a	n/a	167.573	AF14ANS.jpg
134.801	0.514	Blank	Blank	80.094	n/a	2	4	16	n/a	76	n/a	3	n/a	n/a	n/a	n/a	168.07	n/a
135.332	0.497	happy	Picture	79.58	n/a	2	4	17	n/a	77	93	3	n/a	n/a	n/a	n/a	168.601	BF22ANS.jpg
135.829	0.514	Blank	Blank	79.066	n/a	2	4	17	n/a	77	n/a	3	n/a	n/a	n/a	n/a	169.098	n/a
136.359	0.497	happy	Picture	78.552	n/a	2	4	18	n/a	78	86	3	n/a	n/a	n/a	n/a	169.628	AF09ANS.jpg
136.857	0.514	Blank	Blank	78.038	n/a	2	4	18	n/a	78	n/a	3	n/a	n/a	n/a	n/a	170.126	n/a
137.387	0.497	happy	Picture	77.524	n/a	2	4	19	n/a	79	92	3	n/a	n/a	n/a	n/a	170.656	AF21ANS.jpg
137.885	0.514	Blank	Blank	77.01	n/a	2	4	19	n/a	79	n/a	3	n/a	n/a	n/a	n/a	171.154	n/a
138.415	0.497	happy	Picture	76.496	n/a	2	4	20	n/a	80	84	3	n/a	n/a	n/a	n/a	171.684	AF05ANS.jpg
138.913	0.514	Blank	Blank	75.983	n/a	2	4	20	n/a	80	n/a	3	n/a	n/a	n/a	n/a	172.181	n/a
139.443	10.014	ITI	Fixation+	65.953	n/a	2	n/a	n/a	n/a	n/a	n/a	n/a	n/a	n/a	n/a	n/a	172.712	n/a
149.473	0.497	neutral	Picture	65.439	n/a	2	5	1	n/a	81	4	1	n/a	n/a	n/a	n/a	182.742	AF05NES.jpg
149.971	0.514	Blank	Blank	64.925	n/a	2	5	1	n/a	81	n/a	1	n/a	n/a	n/a	n/a	183.239	n/a
150.501	0.497	neutral	Picture	64.411	n/a	2	5	2	n/a	82	14	1	n/a	n/a	n/a	n/a	183.77	AF23NES.jpg
150.999	0.514	Blank	Blank	63.897	n/a	2	5	2	n/a	82	n/a	1	n/a	n/a	n/a	n/a	184.267	n/a
151.529	0.497	neutral	Picture	63.383	n/a	2	5	3	n/a	83	19	1	n/a	n/a	n/a	n/a	184.798	AF31NES.jpg
152.026	0.514	Blank	Blank	62.869	n/a	2	5	3	n/a	83	n/a	1	n/a	n/a	n/a	n/a	185.295	n/a
152.557	0.497	neutral	Picture	62.355	n/a	2	5	4	n/a	84	8	1	n/a	n/a	n/a	n/a	185.826	AF14NES.jpg
153.054	0.514	Blank	Blank	61.841	n/a	2	5	4	n/a	84	n/a	1	n/a	n/a	n/a	n/a	186.323	n/a
153.585	0.497	neutral	Picture	61.327	n/a	2	5	5	n/a	85	25	1	n/a	n/a	n/a	n/a	186.854	BM06NES.jpg
154.082	0.514	Blank	Blank	60.813	n/a	2	5	5	n/a	85	n/a	1	n/a	n/a	n/a	n/a	187.351	n/a
154.613	0.497	neutral	Picture	60.299	n/a	2	5	6	n/a	86	9	1	n/a	n/a	n/a	n/a	187.881	AF17NES.jpg
155.11	0.514	Blank	Blank	59.785	n/a	2	5	6	n/a	86	n/a	1	n/a	n/a	n/a	n/a	188.379	n/a
155.641	0.497	neutral	Picture	59.271	n/a	2	5	7	n/a	87	2	1	n/a	n/a	n/a	n/a	188.909	AF03NES.jpg
156.138	0.514	Blank	Blank	58.757	n/a	2	5	7	n/a	87	n/a	1	n/a	n/a	n/a	n/a	189.407	n/a
156.668	0.497	neutral	Picture	58.243	n/a	2	5	8	n/a	88	17	1	n/a	n/a	n/a	n/a	189.937	BF28NES.jpg
157.166	0.514	Blank	Blank	57.729	n/a	2	5	8	n/a	88	n/a	1	n/a	n/a	n/a	n/a	190.435	n/a
157.696	0.497	neutral	Picture	57.215	n/a	2	5	9	n/a	89	6	1	n/a	n/a	n/a	n/a	190.965	AF09NES.jpg
158.194	0.514	Blank	Blank	56.701	n/a	2	5	9	n/a	89	n/a	1	n/a	n/a	n/a	n/a	191.463	n/a
158.724	0.497	neutral	Picture	56.188	n/a	2	5	10	n/a	90	12	1	n/a	n/a	n/a	n/a	191.993	AF21NES.jpg
159.221	0.514	Blank	Blank	55.674	n/a	2	5	10	n/a	90	n/a	1	n/a	n/a	n/a	n/a	192.49	n/a
159.752	0.497	neutral	Picture	55.16	n/a	2	5	11	n/a	91	24	1	n/a	n/a	n/a	n/a	193.021	BM05NES.jpg
160.249	0.514	Blank	Blank	54.646	n/a	2	5	11	n/a	91	n/a	1	n/a	n/a	n/a	n/a	193.518	n/a
160.78	0.497	neutral	Picture	54.132	n/a	2	5	12	n/a	92	34	1	n/a	n/a	n/a	n/a	194.049	AM22NES.jpg
161.277	0.514	Blank	Blank	53.618	n/a	2	5	12	n/a	92	n/a	1	n/a	n/a	n/a	n/a	194.546	n/a
161.808	0.497	neutral	Picture	53.104	n/a	2	5	13	n/a	93	23	1	n/a	n/a	n/a	n/a	195.077	AM04NES.jpg
162.305	0.514	Blank	Blank	52.59	n/a	2	5	13	n/a	93	n/a	1	n/a	n/a	n/a	n/a	195.574	n/a
162.836	0.497	neutral	Picture	52.076	n/a	2	5	14	n/a	94	15	1	n/a	n/a	n/a	n/a	196.105	AF25NES.jpg
163.333	0.514	Blank	Blank	51.562	n/a	2	5	14	n/a	94	n/a	1	n/a	n/a	n/a	n/a	196.602	n/a
163.864	0.497	neutral	Picture	51.048	n/a	2	5	15	n/a	95	37	1	n/a	n/a	n/a	n/a	197.132	BM25NES.jpg
164.361	0.514	Blank	Blank	50.534	n/a	2	5	15	n/a	95	n/a	1	n/a	n/a	n/a	n/a	197.63	n/a
164.892	0.497	neutral	Picture	50.02	n/a	2	5	16	n/a	96	32	1	n/a	n/a	n/a	n/a	198.16	AM14NES.jpg
165.389	0.514	Blank	Blank	49.506	n/a	2	5	16	n/a	96	n/a	1	n/a	n/a	n/a	n/a	198.658	n/a
165.919	0.497	neutral	Picture	48.992	n/a	2	5	17	n/a	97	3	1	n/a	n/a	n/a	n/a	199.188	BF04NES.jpg
166.417	0.514	Blank	Blank	48.478	n/a	2	5	17	n/a	97	n/a	1	n/a	n/a	n/a	n/a	199.686	n/a
166.947	0.497	neutral	Picture	47.964	n/a	2	5	18	n/a	98	16	1	n/a	n/a	n/a	n/a	200.216	AF26NES.jpg
167.445	0.514	Blank	Blank	47.451	n/a	2	5	18	n/a	98	n/a	1	n/a	n/a	n/a	n/a	200.714	n/a
167.975	0.497	neutral	Picture	46.937	n/a	2	5	19	n/a	99	27	1	n/a	n/a	n/a	n/a	201.244	BM08NES.jpg
168.472	0.514	Blank	Blank	46.423	n/a	2	5	19	n/a	99	n/a	1	n/a	n/a	n/a	n/a	201.741	n/a
169.003	0.497	neutral	Picture	45.909	n/a	2	5	20	n/a	100	28	1	n/a	n/a	n/a	n/a	202.272	AM09NES.jpg
169.5	0.514	Blank	Blank	45.395	n/a	2	5	20	n/a	100	n/a	1	n/a	n/a	n/a	n/a	202.769	n/a
170.031	10.014	ITI	Fixation+	35.365	n/a	2	n/a	n/a	n/a	n/a	n/a	n/a	n/a	n/a	n/a	n/a	203.3	n/a
180.061	0.497	happy	Picture	34.851	n/a	2	6	1	n/a	101	81	3	n/a	n/a	n/a	n/a	213.33	AF01ANS.jpg
180.558	0.514	Blank	Blank	34.337	n/a	2	6	1	n/a	101	n/a	3	n/a	n/a	n/a	n/a	213.827	n/a
181.089	0.497	happy	Picture	33.823	n/a	2	6	2	n/a	102	120	3	n/a	n/a	n/a	n/a	214.358	AM35ANS.jpg
181.586	0.514	Blank	Blank	33.309	n/a	2	6	2	n/a	102	n/a	3	n/a	n/a	n/a	n/a	214.855	n/a
182.117	0.497	happy	Picture	32.795	n/a	2	6	3	n/a	103	114	3	n/a	n/a	n/a	n/a	215.386	AM22ANS.jpg
182.614	0.514	Blank	Blank	32.281	n/a	2	6	3	n/a	103	n/a	3	n/a	n/a	n/a	n/a	215.883	n/a
183.145	0.497	happy	Picture	31.767	n/a	2	6	4	n/a	104	109	3	n/a	n/a	n/a	n/a	216.413	AM10ANS.jpg
183.642	0.514	Blank	Blank	31.253	n/a	2	6	4	n/a	104	n/a	3	n/a	n/a	n/a	n/a	216.911	n/a
184.172	0.497	happy	Picture	30.739	n/a	2	6	5	n/a	105	96	3	n/a	n/a	n/a	n/a	217.441	AF26ANS.jpg
184.67	0.514	Blank	Blank	30.225	n/a	2	6	5	n/a	105	n/a	3	n/a	n/a	n/a	n/a	217.939	n/a
185.2	0.497	happy	Picture	29.711	n/a	2	6	6	n/a	106	82	3	n/a	n/a	n/a	n/a	218.469	AF03ANS.jpg
185.698	0.514	Blank	Blank	29.197	n/a	2	6	6	n/a	106	n/a	3	n/a	n/a	n/a	n/a	218.967	n/a
186.228	0.497	happy	Picture	28.683	n/a	2	6	7	n/a	107	97	3	n/a	n/a	n/a	n/a	219.497	BF28ANS.jpg
186.726	0.514	Blank	Blank	28.169	n/a	2	6	7	n/a	107	n/a	3	n/a	n/a	n/a	n/a	219.995	n/a
187.256	0.497	happy	Picture	27.656	n/a	2	6	8	n/a	108	115	3	n/a	n/a	n/a	n/a	220.525	AM23ANS.jpg
187.754	0.514	Blank	Blank	27.142	n/a	2	6	8	n/a	108	n/a	3	n/a	n/a	n/a	n/a	221.022	n/a
188.284	0.497	happy	Picture	26.628	n/a	2	6	9	n/a	109	91	3	n/a	n/a	n/a	n/a	221.553	AF20ANS.jpg
188.781	0.514	Blank	Blank	26.114	n/a	2	6	9	n/a	109	n/a	3	n/a	n/a	n/a	n/a	222.05	n/a
189.312	0.497	happy	Picture	25.6	n/a	2	6	10	n/a	110	87	3	n/a	n/a	n/a	n/a	222.581	BF11ANS.jpg
189.809	0.514	Blank	Blank	25.086	n/a	2	6	10	n/a	110	n/a	3	n/a	n/a	n/a	n/a	223.078	n/a
190.34	0.497	happy	Picture	24.572	n/a	2	6	11	n/a	111	85	3	n/a	n/a	n/a	n/a	223.609	BF07ANS.jpg
190.837	0.514	Blank	Blank	24.058	n/a	2	6	11	n/a	111	n/a	3	n/a	n/a	n/a	n/a	224.106	n/a
191.368	0.497	happy	Picture	23.544	n/a	2	6	12	n/a	112	110	3	n/a	n/a	n/a	n/a	224.637	AM11ANS.jpg
191.865	0.514	Blank	Blank	23.03	n/a	2	6	12	n/a	112	n/a	3	n/a	n/a	n/a	n/a	225.134	n/a
192.396	0.497	happy	Picture	22.516	n/a	2	6	13	n/a	113	111	3	n/a	n/a	n/a	n/a	225.665	BM12ANS.jpg
192.893	0.514	Blank	Blank	22.002	n/a	2	6	13	n/a	113	n/a	3	n/a	n/a	n/a	n/a	226.162	n/a
193.423	0.497	happy	Picture	21.488	n/a	2	6	14	n/a	114	103	3	n/a	n/a	n/a	n/a	226.692	AM04ANS.jpg
193.921	0.514	Blank	Blank	20.974	n/a	2	6	14	n/a	114	n/a	3	n/a	n/a	n/a	n/a	227.19	n/a
194.451	0.497	happy	Picture	20.46	n/a	2	6	15	n/a	115	101	3	n/a	n/a	n/a	n/a	227.72	AM01ANS.jpg
194.949	0.514	Blank	Blank	19.946	n/a	2	6	15	n/a	115	n/a	3	n/a	n/a	n/a	n/a	228.218	n/a
195.479	0.497	happy	Picture	19.433	n/a	2	6	16	n/a	116	104	3	n/a	n/a	n/a	n/a	228.748	BM05ANS.jpg
195.977	0.514	Blank	Blank	18.919	n/a	2	6	16	n/a	116	n/a	3	n/a	n/a	n/a	n/a	229.245	n/a
196.507	0.497	happy	Picture	18.405	n/a	2	6	17	n/a	117	107	3	n/a	n/a	n/a	n/a	229.776	BM08ANS.jpg
197.005	0.514	Blank	Blank	17.891	n/a	2	6	17	n/a	117	n/a	3	n/a	n/a	n/a	n/a	230.273	n/a
197.535	0.497	happy	Picture	17.377	n/a	2	6	18	n/a	118	98	3	n/a	n/a	n/a	n/a	230.804	BF29ANS.jpg
198.032	0.514	Blank	Blank	16.863	n/a	2	6	18	n/a	118	n/a	3	n/a	n/a	n/a	n/a	231.301	n/a
198.563	0.497	happy	Picture	16.349	n/a	2	6	19	n/a	119	99	3	n/a	n/a	n/a	n/a	231.832	AF31ANS.jpg
199.06	0.514	Blank	Blank	15.835	n/a	2	6	19	n/a	119	n/a	3	n/a	n/a	n/a	n/a	232.329	n/a
199.591	0.497	happy	Picture	15.321	n/a	2	6	20	n/a	120	108	3	n/a	n/a	n/a	n/a	232.86	AM09ANS.jpg
200.088	0.514	Blank	Blank	14.807	n/a	2	6	20	n/a	120	n/a	3	n/a	n/a	n/a	n/a	233.357	n/a
200.619	10.014	ITI	Fixation+	4.777	n/a	2	n/a	n/a	n/a	n/a	n/a	n/a	n/a	n/a	n/a	n/a	233.887	n/a
215.409	n/a	ConfirmRating	Rate	n/a	4.775	2	n/a	n/a	0	n/a	n/a	n/a	2	Happy	62	51	248.678	n/a
219.832	n/a	ConfirmRating	Rate	n/a	4.393	2	n/a	n/a	1	n/a	n/a	n/a	3	Happy	50	50	253.101	n/a
219.85	15.004	Rest	Picture	n/a	n/a	n/a	n/a	n/a	n/a	n/a	n/a	n/a	0	n/a	0	0	253.119	n/a
234.87	10.014	ITI	Fixation+	94.478	n/a	3	n/a	n/a	n/a	n/a	n/a	n/a	n/a	n/a	n/a	n/a	268.139	n/a
244.9	0.497	angry	Picture	93.964	n/a	3	7	1	n/a	1	46	2	n/a	n/a	n/a	n/a	278.169	AF09HAS.jpg
245.398	0.514	Blank	Blank	93.45	n/a	3	7	1	n/a	1	n/a	2	n/a	n/a	n/a	n/a	278.667	n/a
245.928	0.497	angry	Picture	92.936	n/a	3	7	2	n/a	2	69	2	n/a	n/a	n/a	n/a	279.197	AM10HAS.jpg
246.426	0.514	Blank	Blank	92.422	n/a	3	7	2	n/a	2	n/a	2	n/a	n/a	n/a	n/a	279.695	n/a
246.956	0.497	angry	Picture	91.908	n/a	3	7	3	n/a	3	71	2	n/a	n/a	n/a	n/a	280.225	BM12HAS.jpg
247.454	0.514	Blank	Blank	91.394	n/a	3	7	3	n/a	3	n/a	2	n/a	n/a	n/a	n/a	280.723	n/a
247.984	0.497	angry	Picture	90.88	n/a	3	7	4	n/a	4	51	2	n/a	n/a	n/a	n/a	281.253	AF20HAS.jpg
248.482	0.514	Blank	Blank	90.366	n/a	3	7	4	n/a	4	n/a	2	n/a	n/a	n/a	n/a	281.75	n/a
249.012	0.497	angry	Picture	89.853	n/a	3	7	5	n/a	5	67	2	n/a	n/a	n/a	n/a	282.281	BM08HAS.jpg
249.509	0.514	Blank	Blank	89.338	n/a	3	7	5	n/a	5	n/a	2	n/a	n/a	n/a	n/a	282.778	n/a
250.04	0.497	angry	Picture	88.825	n/a	3	7	6	n/a	6	60	2	n/a	n/a	n/a	n/a	283.309	AF32HAS.jpg
250.537	0.514	Blank	Blank	88.311	n/a	3	7	6	n/a	6	n/a	2	n/a	n/a	n/a	n/a	283.806	n/a
251.068	0.497	angry	Picture	87.797	n/a	3	7	7	n/a	7	42	2	n/a	n/a	n/a	n/a	284.337	AF03HAS.jpg
251.565	0.514	Blank	Blank	87.283	n/a	3	7	7	n/a	7	n/a	2	n/a	n/a	n/a	n/a	284.834	n/a
252.096	0.497	angry	Picture	86.769	n/a	3	7	8	n/a	8	55	2	n/a	n/a	n/a	n/a	285.365	AF25HAS.jpg
252.593	0.514	Blank	Blank	86.255	n/a	3	7	8	n/a	8	n/a	2	n/a	n/a	n/a	n/a	285.862	n/a
253.124	0.497	angry	Picture	85.741	n/a	3	7	9	n/a	9	72	2	n/a	n/a	n/a	n/a	286.392	AM14HAS.jpg
253.621	0.514	Blank	Blank	85.227	n/a	3	7	9	n/a	9	n/a	2	n/a	n/a	n/a	n/a	286.89	n/a
254.151	0.497	angry	Picture	84.713	n/a	3	7	10	n/a	10	63	2	n/a	n/a	n/a	n/a	287.42	AM04HAS.jpg
254.649	0.514	Blank	Blank	84.199	n/a	3	7	10	n/a	10	n/a	2	n/a	n/a	n/a	n/a	287.918	n/a
255.179	0.497	angry	Picture	83.685	n/a	3	7	11	n/a	11	58	2	n/a	n/a	n/a	n/a	288.448	BF29HAS.jpg
255.677	0.514	Blank	Blank	83.171	n/a	3	7	11	n/a	11	n/a	2	n/a	n/a	n/a	n/a	288.945	n/a
256.207	0.497	angry	Picture	82.657	n/a	3	7	12	n/a	12	48	2	n/a	n/a	n/a	n/a	289.476	AF14HAS.jpg
256.705	0.514	Blank	Blank	82.143	n/a	3	7	12	n/a	12	n/a	2	n/a	n/a	n/a	n/a	289.973	n/a
257.235	0.497	angry	Picture	81.629	n/a	3	7	13	n/a	13	66	2	n/a	n/a	n/a	n/a	290.504	BM07HAS.jpg
257.732	0.514	Blank	Blank	81.116	n/a	3	7	13	n/a	13	n/a	2	n/a	n/a	n/a	n/a	291.001	n/a
258.263	0.497	angry	Picture	80.602	n/a	3	7	14	n/a	14	70	2	n/a	n/a	n/a	n/a	291.532	BM11HAS.jpg
258.76	0.514	Blank	Blank	80.088	n/a	3	7	14	n/a	14	n/a	2	n/a	n/a	n/a	n/a	292.029	n/a
259.291	0.497	angry	Picture	79.574	n/a	3	7	15	n/a	15	43	2	n/a	n/a	n/a	n/a	292.56	BF04HAS.jpg
259.788	0.514	Blank	Blank	79.06	n/a	3	7	15	n/a	15	n/a	2	n/a	n/a	n/a	n/a	293.057	n/a
260.319	0.497	angry	Picture	78.546	n/a	3	7	16	n/a	16	49	2	n/a	n/a	n/a	n/a	293.588	AF17HAS.jpg
260.816	0.514	Blank	Blank	78.032	n/a	3	7	16	n/a	16	n/a	2	n/a	n/a	n/a	n/a	294.085	n/a
261.347	0.497	angry	Picture	77.518	n/a	3	7	17	n/a	17	75	2	n/a	n/a	n/a	n/a	294.615	AM23HAS.jpg
261.844	0.514	Blank	Blank	77.004	n/a	3	7	17	n/a	17	n/a	2	n/a	n/a	n/a	n/a	295.113	n/a
262.375	0.497	angry	Picture	76.49	n/a	3	7	18	n/a	18	80	2	n/a	n/a	n/a	n/a	295.643	BM35HAS.jpg
262.872	0.514	Blank	Blank	75.976	n/a	3	7	18	n/a	18	n/a	2	n/a	n/a	n/a	n/a	296.141	n/a
263.402	0.497	angry	Picture	75.462	n/a	3	7	19	n/a	19	76	2	n/a	n/a	n/a	n/a	296.671	BM24HAS.jpg
263.9	0.514	Blank	Blank	74.948	n/a	3	7	19	n/a	19	n/a	2	n/a	n/a	n/a	n/a	297.169	n/a
264.43	0.497	angry	Picture	74.434	n/a	3	7	20	n/a	20	74	2	n/a	n/a	n/a	n/a	297.699	AM22HAS.jpg
264.928	0.514	Blank	Blank	73.92	n/a	3	7	20	n/a	20	n/a	2	n/a	n/a	n/a	n/a	298.197	n/a
265.458	10.014	ITI	Fixation+	63.89	n/a	3	n/a	n/a	n/a	n/a	n/a	n/a	n/a	n/a	n/a	n/a	298.727	n/a
275.488	0.497	neutral	Picture	63.376	n/a	3	8	1	n/a	21	33	1	n/a	n/a	n/a	n/a	308.757	AM21NES.jpg
275.986	0.514	Blank	Blank	62.862	n/a	3	8	1	n/a	21	n/a	1	n/a	n/a	n/a	n/a	309.255	n/a
276.516	0.497	neutral	Picture	62.348	n/a	3	8	2	n/a	22	39	1	n/a	n/a	n/a	n/a	309.785	AM28NES.jpg
277.014	0.514	Blank	Blank	61.834	n/a	3	8	2	n/a	22	n/a	1	n/a	n/a	n/a	n/a	310.282	n/a
277.544	0.497	neutral	Picture	61.32	n/a	3	8	3	n/a	23	25	1	n/a	n/a	n/a	n/a	310.813	BM06NES.jpg
278.041	0.514	Blank	Blank	60.807	n/a	3	8	3	n/a	23	n/a	1	n/a	n/a	n/a	n/a	311.31	n/a
278.572	0.497	neutral	Picture	60.293	n/a	3	8	4	n/a	24	5	1	n/a	n/a	n/a	n/a	311.841	BF07NES.jpg
279.069	0.514	Blank	Blank	59.779	n/a	3	8	4	n/a	24	n/a	1	n/a	n/a	n/a	n/a	312.338	n/a
279.6	0.497	neutral	Picture	59.265	n/a	3	8	5	n/a	25	10	1	n/a	n/a	n/a	n/a	312.869	AF18NES.jpg
280.097	0.514	Blank	Blank	58.751	n/a	3	8	5	n/a	25	n/a	1	n/a	n/a	n/a	n/a	313.366	n/a
280.628	0.497	neutral	Picture	58.237	n/a	3	8	6	n/a	26	34	1	n/a	n/a	n/a	n/a	313.897	AM22NES.jpg
281.125	0.514	Blank	Blank	57.723	n/a	3	8	6	n/a	26	n/a	1	n/a	n/a	n/a	n/a	314.394	n/a
281.655	0.497	neutral	Picture	57.209	n/a	3	8	7	n/a	27	36	1	n/a	n/a	n/a	n/a	314.924	BM24NES.jpg
282.153	0.514	Blank	Blank	56.695	n/a	3	8	7	n/a	27	n/a	1	n/a	n/a	n/a	n/a	315.422	n/a
282.683	0.497	neutral	Picture	56.181	n/a	3	8	8	n/a	28	14	1	n/a	n/a	n/a	n/a	315.952	AF23NES.jpg
283.181	0.514	Blank	Blank	55.667	n/a	3	8	8	n/a	28	n/a	1	n/a	n/a	n/a	n/a	316.45	n/a
283.711	0.497	neutral	Picture	55.153	n/a	3	8	9	n/a	29	9	1	n/a	n/a	n/a	n/a	316.98	AF17NES.jpg
284.209	0.514	Blank	Blank	54.639	n/a	3	8	9	n/a	29	n/a	1	n/a	n/a	n/a	n/a	317.478	n/a
284.739	0.497	neutral	Picture	54.125	n/a	3	8	10	n/a	30	19	1	n/a	n/a	n/a	n/a	318.008	AF31NES.jpg
285.236	0.514	Blank	Blank	53.611	n/a	3	8	10	n/a	30	n/a	1	n/a	n/a	n/a	n/a	318.505	n/a
285.767	0.497	neutral	Picture	53.097	n/a	3	8	11	n/a	31	15	1	n/a	n/a	n/a	n/a	319.036	AF25NES.jpg
286.264	0.514	Blank	Blank	52.583	n/a	3	8	11	n/a	31	n/a	1	n/a	n/a	n/a	n/a	319.533	n/a
286.795	0.497	neutral	Picture	52.07	n/a	3	8	12	n/a	32	22	1	n/a	n/a	n/a	n/a	320.064	BM03NES.jpg
287.292	0.514	Blank	Blank	51.556	n/a	3	8	12	n/a	32	n/a	1	n/a	n/a	n/a	n/a	320.561	n/a
287.823	0.497	neutral	Picture	51.042	n/a	3	8	13	n/a	33	11	1	n/a	n/a	n/a	n/a	321.092	AF20NES.jpg
288.32	0.514	Blank	Blank	50.528	n/a	3	8	13	n/a	33	n/a	1	n/a	n/a	n/a	n/a	321.589	n/a
288.851	0.497	neutral	Picture	50.014	n/a	3	8	14	n/a	34	4	1	n/a	n/a	n/a	n/a	322.12	AF05NES.jpg
289.348	0.514	Blank	Blank	49.5	n/a	3	8	14	n/a	34	n/a	1	n/a	n/a	n/a	n/a	322.617	n/a
289.879	0.497	neutral	Picture	48.986	n/a	3	8	15	n/a	35	17	1	n/a	n/a	n/a	n/a	323.147	BF28NES.jpg
290.376	0.514	Blank	Blank	48.472	n/a	3	8	15	n/a	35	n/a	1	n/a	n/a	n/a	n/a	323.645	n/a
290.907	0.497	neutral	Picture	47.958	n/a	3	8	16	n/a	36	13	1	n/a	n/a	n/a	n/a	324.175	BF22NES.jpg
291.404	0.514	Blank	Blank	47.444	n/a	3	8	16	n/a	36	n/a	1	n/a	n/a	n/a	n/a	324.673	n/a
291.934	0.497	neutral	Picture	46.93	n/a	3	8	17	n/a	37	12	1	n/a	n/a	n/a	n/a	325.203	AF21NES.jpg
292.432	0.514	Blank	Blank	46.416	n/a	3	8	17	n/a	37	n/a	1	n/a	n/a	n/a	n/a	325.701	n/a
292.962	0.497	neutral	Picture	45.902	n/a	3	8	18	n/a	38	24	1	n/a	n/a	n/a	n/a	326.231	BM05NES.jpg
293.46	0.514	Blank	Blank	45.388	n/a	3	8	18	n/a	38	n/a	1	n/a	n/a	n/a	n/a	326.728	n/a
293.99	0.497	neutral	Picture	44.874	n/a	3	8	19	n/a	39	29	1	n/a	n/a	n/a	n/a	327.259	AM10NES.jpg
294.487	0.514	Blank	Blank	44.36	n/a	3	8	19	n/a	39	n/a	1	n/a	n/a	n/a	n/a	327.756	n/a
295.018	0.497	neutral	Picture	43.846	n/a	3	8	20	n/a	40	23	1	n/a	n/a	n/a	n/a	328.287	AM04NES.jpg
295.515	0.514	Blank	Blank	43.333	n/a	3	8	20	n/a	40	n/a	1	n/a	n/a	n/a	n/a	328.784	n/a
296.046	10.014	ITI	Fixation+	33.302	n/a	3	n/a	n/a	n/a	n/a	n/a	n/a	n/a	n/a	n/a	n/a	329.315	n/a
306.076	0.497	angry	Picture	32.788	n/a	3	9	1	n/a	41	62	2	n/a	n/a	n/a	n/a	339.345	BM03HAS.jpg
306.573	0.514	Blank	Blank	32.274	n/a	3	9	1	n/a	41	n/a	2	n/a	n/a	n/a	n/a	339.842	n/a
307.104	0.497	angry	Picture	31.761	n/a	3	9	2	n/a	42	52	2	n/a	n/a	n/a	n/a	340.373	AF21HAS.jpg
307.601	0.514	Blank	Blank	31.247	n/a	3	9	2	n/a	42	n/a	2	n/a	n/a	n/a	n/a	340.87	n/a
308.132	0.497	angry	Picture	30.733	n/a	3	9	3	n/a	43	44	2	n/a	n/a	n/a	n/a	341.401	AF05HAS.jpg
308.629	0.514	Blank	Blank	30.219	n/a	3	9	3	n/a	43	n/a	2	n/a	n/a	n/a	n/a	341.898	n/a
309.16	0.497	angry	Picture	29.705	n/a	3	9	4	n/a	44	53	2	n/a	n/a	n/a	n/a	342.429	BF22HAS.jpg
309.657	0.514	Blank	Blank	29.191	n/a	3	9	4	n/a	44	n/a	2	n/a	n/a	n/a	n/a	342.926	n/a
310.188	0.497	angry	Picture	28.677	n/a	3	9	5	n/a	45	54	2	n/a	n/a	n/a	n/a	343.456	AF23HAS.jpg
310.685	0.514	Blank	Blank	28.163	n/a	3	9	5	n/a	45	n/a	2	n/a	n/a	n/a	n/a	343.954	n/a
311.215	0.497	angry	Picture	27.649	n/a	3	9	6	n/a	46	68	2	n/a	n/a	n/a	n/a	344.484	AM09HAS.jpg
311.713	0.514	Blank	Blank	27.135	n/a	3	9	6	n/a	46	n/a	2	n/a	n/a	n/a	n/a	344.982	n/a
312.243	0.497	angry	Picture	26.621	n/a	3	9	7	n/a	47	64	2	n/a	n/a	n/a	n/a	345.512	BM05HAS.jpg
312.741	0.514	Blank	Blank	26.107	n/a	3	9	7	n/a	47	n/a	2	n/a	n/a	n/a	n/a	346.01	n/a
313.271	0.497	angry	Picture	25.593	n/a	3	9	8	n/a	48	59	2	n/a	n/a	n/a	n/a	346.54	AF31HAS.jpg
313.769	0.514	Blank	Blank	25.079	n/a	3	9	8	n/a	48	n/a	2	n/a	n/a	n/a	n/a	347.038	n/a
314.299	0.497	angry	Picture	24.565	n/a	3	9	9	n/a	49	41	2	n/a	n/a	n/a	n/a	347.568	AF01HAS.jpg
314.796	0.514	Blank	Blank	24.051	n/a	3	9	9	n/a	49	n/a	2	n/a	n/a	n/a	n/a	348.065	n/a
315.327	0.497	angry	Picture	23.538	n/a	3	9	10	n/a	50	73	2	n/a	n/a	n/a	n/a	348.596	AM21HAS.jpg
315.824	0.514	Blank	Blank	23.024	n/a	3	9	10	n/a	50	n/a	2	n/a	n/a	n/a	n/a	349.093	n/a
316.355	0.497	angry	Picture	22.51	n/a	3	9	11	n/a	51	65	2	n/a	n/a	n/a	n/a	349.624	BM06HAS.jpg
316.852	0.514	Blank	Blank	21.996	n/a	3	9	11	n/a	51	n/a	2	n/a	n/a	n/a	n/a	350.121	n/a
317.383	0.497	angry	Picture	21.482	n/a	3	9	12	n/a	52	56	2	n/a	n/a	n/a	n/a	350.652	AF26HAS.jpg
317.88	0.514	Blank	Blank	20.968	n/a	3	9	12	n/a	52	n/a	2	n/a	n/a	n/a	n/a	351.149	n/a
318.411	0.497	angry	Picture	20.454	n/a	3	9	13	n/a	53	45	2	n/a	n/a	n/a	n/a	351.68	BF07HAS.jpg
318.908	0.514	Blank	Blank	19.94	n/a	3	9	13	n/a	53	n/a	2	n/a	n/a	n/a	n/a	352.177	n/a
319.438	0.497	angry	Picture	19.426	n/a	3	9	14	n/a	54	78	2	n/a	n/a	n/a	n/a	352.707	BM26HAS.jpg
319.936	0.514	Blank	Blank	18.912	n/a	3	9	14	n/a	54	n/a	2	n/a	n/a	n/a	n/a	353.205	n/a
320.466	0.497	angry	Picture	18.398	n/a	3	9	15	n/a	55	50	2	n/a	n/a	n/a	n/a	353.735	AF18HAS.jpg
320.964	0.514	Blank	Blank	17.884	n/a	3	9	15	n/a	55	n/a	2	n/a	n/a	n/a	n/a	354.233	n/a
321.494	0.497	angry	Picture	17.37	n/a	3	9	16	n/a	56	47	2	n/a	n/a	n/a	n/a	354.763	BF11HAS.jpg
321.992	0.514	Blank	Blank	16.856	n/a	3	9	16	n/a	56	n/a	2	n/a	n/a	n/a	n/a	355.26	n/a
322.522	0.497	angry	Picture	16.342	n/a	3	9	17	n/a	57	77	2	n/a	n/a	n/a	n/a	355.791	BM25HAS.jpg
323.019	0.514	Blank	Blank	15.828	n/a	3	9	17	n/a	57	n/a	2	n/a	n/a	n/a	n/a	356.288	n/a
323.55	0.497	angry	Picture	15.314	n/a	3	9	18	n/a	58	57	2	n/a	n/a	n/a	n/a	356.819	BF28HAS.jpg
324.047	0.514	Blank	Blank	14.8	n/a	3	9	18	n/a	58	n/a	2	n/a	n/a	n/a	n/a	357.316	n/a
324.578	0.497	angry	Picture	14.286	n/a	3	9	19	n/a	59	61	2	n/a	n/a	n/a	n/a	357.847	AM01HAS.jpg
325.075	0.514	Blank	Blank	13.773	n/a	3	9	19	n/a	59	n/a	2	n/a	n/a	n/a	n/a	358.344	n/a
325.606	0.497	angry	Picture	13.259	n/a	3	9	20	n/a	60	79	2	n/a	n/a	n/a	n/a	358.875	BM28HAS.jpg
326.103	0.514	Blank	Blank	12.745	n/a	3	9	20	n/a	60	n/a	2	n/a	n/a	n/a	n/a	359.372	n/a
326.634	10.014	ITI	Fixation+	2.715	n/a	3	n/a	n/a	n/a	n/a	n/a	n/a	n/a	n/a	n/a	n/a	359.903	n/a
339.362	n/a	ConfirmRating	Rate	n/a	2.703	3	n/a	n/a	0	n/a	n/a	n/a	2	Angry	50	50	372.631	n/a
340.719	n/a	ConfirmRating	Rate	n/a	1.343	3	n/a	n/a	1	n/a	n/a	n/a	3	Angry	50	50	373.988	n/a
340.742	10.014	ITI	Fixation+	95.195	n/a	4	n/a	n/a	n/a	n/a	n/a	n/a	n/a	n/a	n/a	n/a	374.011	n/a
350.772	0.497	happy	Picture	94.681	n/a	4	10	1	n/a	61	119	3	n/a	n/a	n/a	n/a	384.041	BM28ANS.jpg
351.27	0.514	Blank	Blank	94.167	n/a	4	10	1	n/a	61	n/a	3	n/a	n/a	n/a	n/a	384.539	n/a
351.8	0.497	happy	Picture	93.653	n/a	4	10	2	n/a	62	100	3	n/a	n/a	n/a	n/a	385.069	AF32ANS.jpg
352.298	0.514	Blank	Blank	93.139	n/a	4	10	2	n/a	62	n/a	3	n/a	n/a	n/a	n/a	385.566	n/a
352.828	0.497	happy	Picture	92.626	n/a	4	10	3	n/a	63	118	3	n/a	n/a	n/a	n/a	386.097	BM26ANS.jpg
353.325	0.514	Blank	Blank	92.112	n/a	4	10	3	n/a	63	n/a	3	n/a	n/a	n/a	n/a	386.594	n/a
353.856	0.497	happy	Picture	91.598	n/a	4	10	4	n/a	64	89	3	n/a	n/a	n/a	n/a	387.125	AF17ANS.jpg
354.353	0.514	Blank	Blank	91.084	n/a	4	10	4	n/a	64	n/a	3	n/a	n/a	n/a	n/a	387.622	n/a
354.884	0.497	happy	Picture	90.57	n/a	4	10	5	n/a	65	116	3	n/a	n/a	n/a	n/a	388.153	BM24ANS.jpg
355.381	0.514	Blank	Blank	90.056	n/a	4	10	5	n/a	65	n/a	3	n/a	n/a	n/a	n/a	388.65	n/a
355.912	0.497	happy	Picture	89.542	n/a	4	10	6	n/a	66	105	3	n/a	n/a	n/a	n/a	389.181	BM06ANS.jpg
356.409	0.514	Blank	Blank	89.028	n/a	4	10	6	n/a	66	n/a	3	n/a	n/a	n/a	n/a	389.678	n/a
356.94	0.497	happy	Picture	88.514	n/a	4	10	7	n/a	67	106	3	n/a	n/a	n/a	n/a	390.209	AM07ANS.jpg
357.437	0.514	Blank	Blank	88.0	n/a	4	10	7	n/a	67	n/a	3	n/a	n/a	n/a	n/a	390.706	n/a
357.967	0.497	happy	Picture	87.486	n/a	4	10	8	n/a	68	94	3	n/a	n/a	n/a	n/a	391.236	AF23ANS.jpg
358.465	0.514	Blank	Blank	86.972	n/a	4	10	8	n/a	68	n/a	3	n/a	n/a	n/a	n/a	391.734	n/a
358.995	0.497	happy	Picture	86.458	n/a	4	10	9	n/a	69	117	3	n/a	n/a	n/a	n/a	392.264	BM25ANS.jpg
359.493	0.514	Blank	Blank	85.944	n/a	4	10	9	n/a	69	n/a	3	n/a	n/a	n/a	n/a	392.762	n/a
360.023	0.497	happy	Picture	85.43	n/a	4	10	10	n/a	70	90	3	n/a	n/a	n/a	n/a	393.292	AF18ANS.jpg
360.521	0.514	Blank	Blank	84.916	n/a	4	10	10	n/a	70	n/a	3	n/a	n/a	n/a	n/a	393.789	n/a
361.051	0.497	happy	Picture	84.402	n/a	4	10	11	n/a	71	83	3	n/a	n/a	n/a	n/a	394.32	BF04ANS.jpg
361.548	0.514	Blank	Blank	83.889	n/a	4	10	11	n/a	71	n/a	3	n/a	n/a	n/a	n/a	394.817	n/a
362.079	0.497	happy	Picture	83.375	n/a	4	10	12	n/a	72	112	3	n/a	n/a	n/a	n/a	395.348	AM14ANS.jpg
362.576	0.514	Blank	Blank	82.861	n/a	4	10	12	n/a	72	n/a	3	n/a	n/a	n/a	n/a	395.845	n/a
363.107	0.497	happy	Picture	82.347	n/a	4	10	13	n/a	73	102	3	n/a	n/a	n/a	n/a	396.376	BM03ANS.jpg
363.604	0.514	Blank	Blank	81.833	n/a	4	10	13	n/a	73	n/a	3	n/a	n/a	n/a	n/a	396.873	n/a
364.135	0.497	happy	Picture	81.319	n/a	4	10	14	n/a	74	95	3	n/a	n/a	n/a	n/a	397.404	AF25ANS.jpg
364.632	0.514	Blank	Blank	80.805	n/a	4	10	14	n/a	74	n/a	3	n/a	n/a	n/a	n/a	397.901	n/a
365.163	0.497	happy	Picture	80.291	n/a	4	10	15	n/a	75	113	3	n/a	n/a	n/a	n/a	398.432	AM21ANS.jpg
365.66	0.514	Blank	Blank	79.777	n/a	4	10	15	n/a	75	n/a	3	n/a	n/a	n/a	n/a	398.929	n/a
366.191	0.497	happy	Picture	79.263	n/a	4	10	16	n/a	76	88	3	n/a	n/a	n/a	n/a	399.459	AF14ANS.jpg
366.688	0.514	Blank	Blank	78.749	n/a	4	10	16	n/a	76	n/a	3	n/a	n/a	n/a	n/a	399.957	n/a
367.218	0.497	happy	Picture	78.235	n/a	4	10	17	n/a	77	93	3	n/a	n/a	n/a	n/a	400.487	BF22ANS.jpg
367.716	0.514	Blank	Blank	77.721	n/a	4	10	17	n/a	77	n/a	3	n/a	n/a	n/a	n/a	400.985	n/a
368.246	0.497	happy	Picture	77.207	n/a	4	10	18	n/a	78	86	3	n/a	n/a	n/a	n/a	401.515	AF09ANS.jpg
368.744	0.514	Blank	Blank	76.693	n/a	4	10	18	n/a	78	n/a	3	n/a	n/a	n/a	n/a	402.013	n/a
369.274	0.497	happy	Picture	76.179	n/a	4	10	19	n/a	79	92	3	n/a	n/a	n/a	n/a	402.543	AF21ANS.jpg
369.771	0.514	Blank	Blank	75.665	n/a	4	10	19	n/a	79	n/a	3	n/a	n/a	n/a	n/a	403.04	n/a
370.302	0.497	happy	Picture	75.152	n/a	4	10	20	n/a	80	84	3	n/a	n/a	n/a	n/a	403.571	AF05ANS.jpg
370.799	0.514	Blank	Blank	74.638	n/a	4	10	20	n/a	80	n/a	3	n/a	n/a	n/a	n/a	404.068	n/a
371.33	10.014	ITI	Fixation+	64.607	n/a	4	n/a	n/a	n/a	n/a	n/a	n/a	n/a	n/a	n/a	n/a	404.599	n/a
381.36	0.497	neutral	Picture	64.094	n/a	4	11	1	n/a	81	4	1	n/a	n/a	n/a	n/a	414.629	AF05NES.jpg
381.857	0.514	Blank	Blank	63.58	n/a	4	11	1	n/a	81	n/a	1	n/a	n/a	n/a	n/a	415.126	n/a
382.388	0.497	neutral	Picture	63.066	n/a	4	11	2	n/a	82	14	1	n/a	n/a	n/a	n/a	415.657	AF23NES.jpg
382.885	0.514	Blank	Blank	62.552	n/a	4	11	2	n/a	82	n/a	1	n/a	n/a	n/a	n/a	416.154	n/a
383.416	0.497	neutral	Picture	62.038	n/a	4	11	3	n/a	83	19	1	n/a	n/a	n/a	n/a	416.685	AF31NES.jpg
383.913	0.514	Blank	Blank	61.524	n/a	4	11	3	n/a	83	n/a	1	n/a	n/a	n/a	n/a	417.182	n/a
384.444	0.497	neutral	Picture	61.01	n/a	4	11	4	n/a	84	8	1	n/a	n/a	n/a	n/a	417.713	AF14NES.jpg
384.941	0.514	Blank	Blank	60.496	n/a	4	11	4	n/a	84	n/a	1	n/a	n/a	n/a	n/a	418.21	n/a
385.472	0.497	neutral	Picture	59.982	n/a	4	11	5	n/a	85	25	1	n/a	n/a	n/a	n/a	418.74	BM06NES.jpg
385.969	0.514	Blank	Blank	59.468	n/a	4	11	5	n/a	85	n/a	1	n/a	n/a	n/a	n/a	419.238	n/a
386.5	0.497	neutral	Picture	58.954	n/a	4	11	6	n/a	86	9	1	n/a	n/a	n/a	n/a	419.768	AF17NES.jpg
386.997	0.514	Blank	Blank	58.44	n/a	4	11	6	n/a	86	n/a	1	n/a	n/a	n/a	n/a	420.266	n/a
387.527	0.497	neutral	Picture	57.926	n/a	4	11	7	n/a	87	2	1	n/a	n/a	n/a	n/a	420.796	AF03NES.jpg
388.025	0.514	Blank	Blank	57.412	n/a	4	11	7	n/a	87	n/a	1	n/a	n/a	n/a	n/a	421.294	n/a
388.555	0.497	neutral	Picture	56.898	n/a	4	11	8	n/a	88	17	1	n/a	n/a	n/a	n/a	421.824	BF28NES.jpg
389.053	0.514	Blank	Blank	56.384	n/a	4	11	8	n/a	88	n/a	1	n/a	n/a	n/a	n/a	422.322	n/a
389.583	0.497	neutral	Picture	55.87	n/a	4	11	9	n/a	89	6	1	n/a	n/a	n/a	n/a	422.852	AF09NES.jpg
390.081	0.514	Blank	Blank	55.357	n/a	4	11	9	n/a	89	n/a	1	n/a	n/a	n/a	n/a	423.349	n/a
390.611	0.497	neutral	Picture	54.843	n/a	4	11	10	n/a	90	12	1	n/a	n/a	n/a	n/a	423.88	AF21NES.jpg
391.108	0.514	Blank	Blank	54.329	n/a	4	11	10	n/a	90	n/a	1	n/a	n/a	n/a	n/a	424.377	n/a
391.639	0.497	neutral	Picture	53.815	n/a	4	11	11	n/a	91	24	1	n/a	n/a	n/a	n/a	424.908	BM05NES.jpg
392.136	0.514	Blank	Blank	53.301	n/a	4	11	11	n/a	91	n/a	1	n/a	n/a	n/a	n/a	425.405	n/a
392.667	0.497	neutral	Picture	52.787	n/a	4	11	12	n/a	92	34	1	n/a	n/a	n/a	n/a	425.936	AM22NES.jpg
393.164	0.514	Blank	Blank	52.273	n/a	4	11	12	n/a	92	n/a	1	n/a	n/a	n/a	n/a	426.433	n/a
393.695	0.497	neutral	Picture	51.759	n/a	4	11	13	n/a	93	23	1	n/a	n/a	n/a	n/a	426.964	AM04NES.jpg
394.192	0.514	Blank	Blank	51.245	n/a	4	11	13	n/a	93	n/a	1	n/a	n/a	n/a	n/a	427.461	n/a
394.722	0.497	neutral	Picture	50.731	n/a	4	11	14	n/a	94	15	1	n/a	n/a	n/a	n/a	427.991	AF25NES.jpg
395.22	0.514	Blank	Blank	50.217	n/a	4	11	14	n/a	94	n/a	1	n/a	n/a	n/a	n/a	428.489	n/a
395.75	0.497	neutral	Picture	49.703	n/a	4	11	15	n/a	95	37	1	n/a	n/a	n/a	n/a	429.019	BM25NES.jpg
396.248	0.514	Blank	Blank	49.189	n/a	4	11	15	n/a	95	n/a	1	n/a	n/a	n/a	n/a	429.517	n/a
396.778	0.497	neutral	Picture	48.675	n/a	4	11	16	n/a	96	32	1	n/a	n/a	n/a	n/a	430.047	AM14NES.jpg
397.276	0.514	Blank	Blank	48.161	n/a	4	11	16	n/a	96	n/a	1	n/a	n/a	n/a	n/a	430.545	n/a
397.806	0.497	neutral	Picture	47.647	n/a	4	11	17	n/a	97	3	1	n/a	n/a	n/a	n/a	431.075	BF04NES.jpg
398.304	0.514	Blank	Blank	47.133	n/a	4	11	17	n/a	97	n/a	1	n/a	n/a	n/a	n/a	431.572	n/a
398.834	0.497	neutral	Picture	46.62	n/a	4	11	18	n/a	98	16	1	n/a	n/a	n/a	n/a	432.103	AF26NES.jpg
399.331	0.514	Blank	Blank	46.106	n/a	4	11	18	n/a	98	n/a	1	n/a	n/a	n/a	n/a	432.6	n/a
399.862	0.497	neutral	Picture	45.592	n/a	4	11	19	n/a	99	27	1	n/a	n/a	n/a	n/a	433.131	BM08NES.jpg
400.359	0.514	Blank	Blank	45.078	n/a	4	11	19	n/a	99	n/a	1	n/a	n/a	n/a	n/a	433.628	n/a
400.89	0.497	neutral	Picture	44.564	n/a	4	11	20	n/a	100	28	1	n/a	n/a	n/a	n/a	434.159	AM09NES.jpg
401.387	0.514	Blank	Blank	44.05	n/a	4	11	20	n/a	100	n/a	1	n/a	n/a	n/a	n/a	434.656	n/a
401.918	10.014	ITI	Fixation+	34.02	n/a	4	n/a	n/a	n/a	n/a	n/a	n/a	n/a	n/a	n/a	n/a	435.187	n/a
411.948	0.497	happy	Picture	33.506	n/a	4	12	1	n/a	101	81	3	n/a	n/a	n/a	n/a	445.217	AF01ANS.jpg
412.445	0.514	Blank	Blank	32.992	n/a	4	12	1	n/a	101	n/a	3	n/a	n/a	n/a	n/a	445.714	n/a
412.976	0.497	happy	Picture	32.478	n/a	4	12	2	n/a	102	120	3	n/a	n/a	n/a	n/a	446.245	AM35ANS.jpg
413.473	0.514	Blank	Blank	31.964	n/a	4	12	2	n/a	102	n/a	3	n/a	n/a	n/a	n/a	446.742	n/a
414.004	0.497	happy	Picture	31.45	n/a	4	12	3	n/a	103	114	3	n/a	n/a	n/a	n/a	447.272	AM22ANS.jpg
414.501	0.514	Blank	Blank	30.936	n/a	4	12	3	n/a	103	n/a	3	n/a	n/a	n/a	n/a	447.77	n/a
415.032	0.497	happy	Picture	30.422	n/a	4	12	4	n/a	104	109	3	n/a	n/a	n/a	n/a	448.3	AM10ANS.jpg
415.529	0.514	Blank	Blank	29.908	n/a	4	12	4	n/a	104	n/a	3	n/a	n/a	n/a	n/a	448.798	n/a
416.059	0.497	happy	Picture	29.394	n/a	4	12	5	n/a	105	96	3	n/a	n/a	n/a	n/a	449.328	AF26ANS.jpg
416.557	0.514	Blank	Blank	28.88	n/a	4	12	5	n/a	105	n/a	3	n/a	n/a	n/a	n/a	449.826	n/a
417.087	0.497	happy	Picture	28.366	n/a	4	12	6	n/a	106	82	3	n/a	n/a	n/a	n/a	450.356	AF03ANS.jpg
417.585	0.514	Blank	Blank	27.852	n/a	4	12	6	n/a	106	n/a	3	n/a	n/a	n/a	n/a	450.853	n/a
418.115	0.497	happy	Picture	27.338	n/a	4	12	7	n/a	107	97	3	n/a	n/a	n/a	n/a	451.384	BF28ANS.jpg
418.612	0.514	Blank	Blank	26.824	n/a	4	12	7	n/a	107	n/a	3	n/a	n/a	n/a	n/a	451.881	n/a
419.143	0.497	happy	Picture	26.31	n/a	4	12	8	n/a	108	115	3	n/a	n/a	n/a	n/a	452.412	AM23ANS.jpg
419.64	0.514	Blank	Blank	25.797	n/a	4	12	8	n/a	108	n/a	3	n/a	n/a	n/a	n/a	452.909	n/a
420.171	0.497	happy	Picture	25.283	n/a	4	12	9	n/a	109	91	3	n/a	n/a	n/a	n/a	453.44	AF20ANS.jpg
420.668	0.514	Blank	Blank	24.769	n/a	4	12	9	n/a	109	n/a	3	n/a	n/a	n/a	n/a	453.937	n/a
421.199	0.497	happy	Picture	24.255	n/a	4	12	10	n/a	110	87	3	n/a	n/a	n/a	n/a	454.468	BF11ANS.jpg
421.696	0.514	Blank	Blank	23.741	n/a	4	12	10	n/a	110	n/a	3	n/a	n/a	n/a	n/a	454.965	n/a
422.227	0.497	happy	Picture	23.227	n/a	4	12	11	n/a	111	85	3	n/a	n/a	n/a	n/a	455.496	BF07ANS.jpg
422.724	0.514	Blank	Blank	22.713	n/a	4	12	11	n/a	111	n/a	3	n/a	n/a	n/a	n/a	455.993	n/a
423.255	0.497	happy	Picture	22.199	n/a	4	12	12	n/a	112	110	3	n/a	n/a	n/a	n/a	456.524	AM11ANS.jpg
423.752	0.514	Blank	Blank	21.685	n/a	4	12	12	n/a	112	n/a	3	n/a	n/a	n/a	n/a	457.021	n/a
424.282	0.497	happy	Picture	21.171	n/a	4	12	13	n/a	113	111	3	n/a	n/a	n/a	n/a	457.551	BM12ANS.jpg
424.78	0.514	Blank	Blank	20.657	n/a	4	12	13	n/a	113	n/a	3	n/a	n/a	n/a	n/a	458.049	n/a
425.31	0.497	happy	Picture	20.143	n/a	4	12	14	n/a	114	103	3	n/a	n/a	n/a	n/a	458.579	AM04ANS.jpg
425.808	0.514	Blank	Blank	19.629	n/a	4	12	14	n/a	114	n/a	3	n/a	n/a	n/a	n/a	459.077	n/a
426.338	0.497	happy	Picture	19.115	n/a	4	12	15	n/a	115	101	3	n/a	n/a	n/a	n/a	459.607	AM01ANS.jpg
426.836	0.514	Blank	Blank	18.601	n/a	4	12	15	n/a	115	n/a	3	n/a	n/a	n/a	n/a	460.104	n/a
427.366	0.497	happy	Picture	18.087	n/a	4	12	16	n/a	116	104	3	n/a	n/a	n/a	n/a	460.635	BM05ANS.jpg
427.864	0.514	Blank	Blank	17.574	n/a	4	12	16	n/a	116	n/a	3	n/a	n/a	n/a	n/a	461.132	n/a
428.394	0.497	happy	Picture	17.06	n/a	4	12	17	n/a	117	107	3	n/a	n/a	n/a	n/a	461.663	BM08ANS.jpg
428.891	0.514	Blank	Blank	16.546	n/a	4	12	17	n/a	117	n/a	3	n/a	n/a	n/a	n/a	462.16	n/a
429.422	0.497	happy	Picture	16.032	n/a	4	12	18	n/a	118	98	3	n/a	n/a	n/a	n/a	462.691	BF29ANS.jpg
429.919	0.514	Blank	Blank	15.518	n/a	4	12	18	n/a	118	n/a	3	n/a	n/a	n/a	n/a	463.188	n/a
430.45	0.497	happy	Picture	15.004	n/a	4	12	19	n/a	119	99	3	n/a	n/a	n/a	n/a	463.719	AF31ANS.jpg
430.947	0.514	Blank	Blank	14.49	n/a	4	12	19	n/a	119	n/a	3	n/a	n/a	n/a	n/a	464.216	n/a
431.478	0.497	happy	Picture	13.976	n/a	4	12	20	n/a	120	108	3	n/a	n/a	n/a	n/a	464.747	AM09ANS.jpg
431.975	0.514	Blank	Blank	13.462	n/a	4	12	20	n/a	120	n/a	3	n/a	n/a	n/a	n/a	465.244	n/a
432.505	10.014	ITI	Fixation+	3.432	n/a	4	n/a	n/a	n/a	n/a	n/a	n/a	n/a	n/a	n/a	n/a	465.774	n/a
445.951	n/a	ConfirmRating	Rate	n/a	3.415	4	n/a	n/a	0	n/a	n/a	n/a	2	Happy	59	51	479.22	n/a
447.294	n/a	ConfirmRating	Rate	n/a	1.343	4	n/a	n/a	1	n/a	n/a	n/a	3	Happy	50	50	480.563	n/a
