onset	duration	trial_type	event_type	time_until_response	response_time	trial_number	block_num_within_trial	image_seq_num_within_block	question_seq_num_within_block	image_seq_num	picture_number	condition	question_type	block_type	rating	rating_computed	onset_uncorrected	KDEV_imagefile
0.002	10.01	ITI	Fixation+	95.791	n/a	1	n/a	n/a	n/a	n/a	n/a	n/a	n/a	n/a	n/a	n/a	31.275	n/a
10.012	0.513	happy	Picture	95.277	n/a	1	1	1	n/a	1	46	2	n/a	n/a	n/a	n/a	41.285	AF09HAS.jpg
10.525	0.5	Blank	Blank	94.777	n/a	1	1	1	n/a	1	n/a	2	n/a	n/a	n/a	n/a	41.799	n/a
11.056	0.47	happy	Picture	94.276	n/a	1	1	2	n/a	2	69	2	n/a	n/a	n/a	n/a	42.329	AM10HAS.jpg
11.526	0.508	Blank	Blank	93.768	n/a	1	1	2	n/a	2	n/a	2	n/a	n/a	n/a	n/a	42.799	n/a
12.034	0.514	happy	Picture	93.254	n/a	1	1	3	n/a	3	71	2	n/a	n/a	n/a	n/a	43.308	BM12HAS.jpg
12.548	0.5	Blank	Blank	92.754	n/a	1	1	3	n/a	3	n/a	2	n/a	n/a	n/a	n/a	43.821	n/a
13.078	0.47	happy	Picture	92.254	n/a	1	1	4	n/a	4	51	2	n/a	n/a	n/a	n/a	44.352	AF20HAS.jpg
13.548	0.508	Blank	Blank	91.746	n/a	1	1	4	n/a	4	n/a	2	n/a	n/a	n/a	n/a	44.822	n/a
14.057	0.513	happy	Picture	91.231	n/a	1	1	5	n/a	5	67	2	n/a	n/a	n/a	n/a	45.33	BM08HAS.jpg
14.57	0.5	Blank	Blank	90.731	n/a	1	1	5	n/a	5	n/a	2	n/a	n/a	n/a	n/a	45.844	n/a
15.101	0.47	happy	Picture	90.231	n/a	1	1	6	n/a	6	60	2	n/a	n/a	n/a	n/a	46.374	AF32HAS.jpg
15.571	0.508	Blank	Blank	89.723	n/a	1	1	6	n/a	6	n/a	2	n/a	n/a	n/a	n/a	46.844	n/a
16.079	0.513	happy	Picture	89.209	n/a	1	1	7	n/a	7	42	2	n/a	n/a	n/a	n/a	47.353	AF03HAS.jpg
16.593	0.5	Blank	Blank	88.709	n/a	1	1	7	n/a	7	n/a	2	n/a	n/a	n/a	n/a	47.866	n/a
17.124	0.47	happy	Picture	88.209	n/a	1	1	8	n/a	8	55	2	n/a	n/a	n/a	n/a	48.397	AF25HAS.jpg
17.593	0.508	Blank	Blank	87.7	n/a	1	1	8	n/a	8	n/a	2	n/a	n/a	n/a	n/a	48.867	n/a
18.102	0.513	happy	Picture	87.186	n/a	1	1	9	n/a	9	72	2	n/a	n/a	n/a	n/a	49.376	AM14HAS.jpg
18.616	0.5	Blank	Blank	86.686	n/a	1	1	9	n/a	9	n/a	2	n/a	n/a	n/a	n/a	49.889	n/a
19.146	0.47	happy	Picture	86.186	n/a	1	1	10	n/a	10	63	2	n/a	n/a	n/a	n/a	50.419	AM04HAS.jpg
19.616	0.508	Blank	Blank	85.678	n/a	1	1	10	n/a	10	n/a	2	n/a	n/a	n/a	n/a	50.889	n/a
20.125	0.513	happy	Picture	85.164	n/a	1	1	11	n/a	11	58	2	n/a	n/a	n/a	n/a	51.398	BF29HAS.jpg
20.638	0.5	Blank	Blank	84.664	n/a	1	1	11	n/a	11	n/a	2	n/a	n/a	n/a	n/a	51.912	n/a
21.169	0.47	happy	Picture	84.163	n/a	1	1	12	n/a	12	48	2	n/a	n/a	n/a	n/a	52.442	AF14HAS.jpg
21.639	0.508	Blank	Blank	83.655	n/a	1	1	12	n/a	12	n/a	2	n/a	n/a	n/a	n/a	52.912	n/a
22.147	0.513	happy	Picture	83.141	n/a	1	1	13	n/a	13	66	2	n/a	n/a	n/a	n/a	53.421	BM07HAS.jpg
22.661	0.5	Blank	Blank	82.641	n/a	1	1	13	n/a	13	n/a	2	n/a	n/a	n/a	n/a	53.934	n/a
23.191	0.47	happy	Picture	82.141	n/a	1	1	14	n/a	14	70	2	n/a	n/a	n/a	n/a	54.465	BM11HAS.jpg
23.661	0.508	Blank	Blank	81.632	n/a	1	1	14	n/a	14	n/a	2	n/a	n/a	n/a	n/a	54.934	n/a
24.17	0.513	happy	Picture	81.118	n/a	1	1	15	n/a	15	43	2	n/a	n/a	n/a	n/a	55.443	BF04HAS.jpg
24.683	0.5	Blank	Blank	80.618	n/a	1	1	15	n/a	15	n/a	2	n/a	n/a	n/a	n/a	55.957	n/a
25.214	0.47	happy	Picture	80.118	n/a	1	1	16	n/a	16	49	2	n/a	n/a	n/a	n/a	56.487	AF17HAS.jpg
25.684	0.508	Blank	Blank	79.61	n/a	1	1	16	n/a	16	n/a	2	n/a	n/a	n/a	n/a	56.957	n/a
26.192	0.513	happy	Picture	79.096	n/a	1	1	17	n/a	17	75	2	n/a	n/a	n/a	n/a	57.466	AM23HAS.jpg
26.706	0.5	Blank	Blank	78.596	n/a	1	1	17	n/a	17	n/a	2	n/a	n/a	n/a	n/a	57.979	n/a
27.237	0.47	happy	Picture	78.096	n/a	1	1	18	n/a	18	80	2	n/a	n/a	n/a	n/a	58.51	BM35HAS.jpg
27.706	0.508	Blank	Blank	77.587	n/a	1	1	18	n/a	18	n/a	2	n/a	n/a	n/a	n/a	58.98	n/a
28.215	0.513	happy	Picture	77.073	n/a	1	1	19	n/a	19	76	2	n/a	n/a	n/a	n/a	59.489	BM24HAS.jpg
28.729	0.5	Blank	Blank	76.573	n/a	1	1	19	n/a	19	n/a	2	n/a	n/a	n/a	n/a	60.002	n/a
29.259	0.47	happy	Picture	76.073	n/a	1	1	20	n/a	20	74	2	n/a	n/a	n/a	n/a	60.532	AM22HAS.jpg
29.729	0.509	Blank	Blank	75.565	n/a	1	1	20	n/a	20	n/a	2	n/a	n/a	n/a	n/a	61.002	n/a
30.238	10.013	ITI	Fixation+	65.551	n/a	1	n/a	n/a	n/a	n/a	n/a	n/a	n/a	n/a	n/a	n/a	61.511	n/a
40.251	0.513	neutral	Picture	65.037	n/a	1	2	1	n/a	21	33	1	n/a	n/a	n/a	n/a	71.525	AM21NES.jpg
40.765	0.5	Blank	Blank	64.537	n/a	1	2	1	n/a	21	n/a	1	n/a	n/a	n/a	n/a	72.038	n/a
41.295	0.47	neutral	Picture	64.037	n/a	1	2	2	n/a	22	39	1	n/a	n/a	n/a	n/a	72.569	AM28NES.jpg
41.765	0.508	Blank	Blank	63.529	n/a	1	2	2	n/a	22	n/a	1	n/a	n/a	n/a	n/a	73.038	n/a
42.274	0.513	neutral	Picture	63.014	n/a	1	2	3	n/a	23	25	1	n/a	n/a	n/a	n/a	73.547	BM06NES.jpg
42.787	0.5	Blank	Blank	62.514	n/a	1	2	3	n/a	23	n/a	1	n/a	n/a	n/a	n/a	74.061	n/a
43.318	0.47	neutral	Picture	62.014	n/a	1	2	4	n/a	24	5	1	n/a	n/a	n/a	n/a	74.591	BF07NES.jpg
43.788	0.509	Blank	Blank	61.506	n/a	1	2	4	n/a	24	n/a	1	n/a	n/a	n/a	n/a	75.061	n/a
44.297	0.513	neutral	Picture	60.992	n/a	1	2	5	n/a	25	10	1	n/a	n/a	n/a	n/a	75.57	AF18NES.jpg
44.81	0.5	Blank	Blank	60.492	n/a	1	2	5	n/a	25	n/a	1	n/a	n/a	n/a	n/a	76.083	n/a
45.341	0.47	neutral	Picture	59.992	n/a	1	2	6	n/a	26	34	1	n/a	n/a	n/a	n/a	76.614	AM22NES.jpg
45.81	0.508	Blank	Blank	59.483	n/a	1	2	6	n/a	26	n/a	1	n/a	n/a	n/a	n/a	77.084	n/a
46.319	0.513	neutral	Picture	58.969	n/a	1	2	7	n/a	27	36	1	n/a	n/a	n/a	n/a	77.593	BM24NES.jpg
46.833	0.5	Blank	Blank	58.469	n/a	1	2	7	n/a	27	n/a	1	n/a	n/a	n/a	n/a	78.106	n/a
47.363	0.47	neutral	Picture	57.969	n/a	1	2	8	n/a	28	14	1	n/a	n/a	n/a	n/a	78.636	AF23NES.jpg
47.833	0.509	Blank	Blank	57.461	n/a	1	2	8	n/a	28	n/a	1	n/a	n/a	n/a	n/a	79.106	n/a
48.342	0.513	neutral	Picture	56.947	n/a	1	2	9	n/a	29	9	1	n/a	n/a	n/a	n/a	79.615	AF17NES.jpg
48.855	0.5	Blank	Blank	56.447	n/a	1	2	9	n/a	29	n/a	1	n/a	n/a	n/a	n/a	80.129	n/a
49.386	0.47	neutral	Picture	55.947	n/a	1	2	10	n/a	30	19	1	n/a	n/a	n/a	n/a	80.659	AF31NES.jpg
49.855	0.509	Blank	Blank	55.438	n/a	1	2	10	n/a	30	n/a	1	n/a	n/a	n/a	n/a	81.129	n/a
50.364	0.513	neutral	Picture	54.924	n/a	1	2	11	n/a	31	15	1	n/a	n/a	n/a	n/a	81.638	AF25NES.jpg
50.878	0.5	Blank	Blank	54.424	n/a	1	2	11	n/a	31	n/a	1	n/a	n/a	n/a	n/a	82.151	n/a
51.408	0.47	neutral	Picture	53.924	n/a	1	2	12	n/a	32	22	1	n/a	n/a	n/a	n/a	82.682	BM03NES.jpg
51.878	0.508	Blank	Blank	53.415	n/a	1	2	12	n/a	32	n/a	1	n/a	n/a	n/a	n/a	83.152	n/a
52.387	0.513	neutral	Picture	52.901	n/a	1	2	13	n/a	33	11	1	n/a	n/a	n/a	n/a	83.66	AF20NES.jpg
52.9	0.5	Blank	Blank	52.401	n/a	1	2	13	n/a	33	n/a	1	n/a	n/a	n/a	n/a	84.174	n/a
53.431	0.47	neutral	Picture	51.901	n/a	1	2	14	n/a	34	4	1	n/a	n/a	n/a	n/a	84.704	AF05NES.jpg
53.901	0.508	Blank	Blank	51.393	n/a	1	2	14	n/a	34	n/a	1	n/a	n/a	n/a	n/a	85.174	n/a
54.41	0.513	neutral	Picture	50.879	n/a	1	2	15	n/a	35	17	1	n/a	n/a	n/a	n/a	85.683	BF28NES.jpg
54.923	0.5	Blank	Blank	50.379	n/a	1	2	15	n/a	35	n/a	1	n/a	n/a	n/a	n/a	86.196	n/a
55.454	0.47	neutral	Picture	49.879	n/a	1	2	16	n/a	36	13	1	n/a	n/a	n/a	n/a	86.727	BF22NES.jpg
55.923	0.509	Blank	Blank	49.37	n/a	1	2	16	n/a	36	n/a	1	n/a	n/a	n/a	n/a	87.197	n/a
56.432	0.513	neutral	Picture	48.856	n/a	1	2	17	n/a	37	12	1	n/a	n/a	n/a	n/a	87.706	AF21NES.jpg
56.946	0.5	Blank	Blank	48.356	n/a	1	2	17	n/a	37	n/a	1	n/a	n/a	n/a	n/a	88.219	n/a
57.476	0.469	neutral	Picture	47.856	n/a	1	2	18	n/a	38	24	1	n/a	n/a	n/a	n/a	88.75	BM05NES.jpg
57.946	0.509	Blank	Blank	47.348	n/a	1	2	18	n/a	38	n/a	1	n/a	n/a	n/a	n/a	89.219	n/a
58.455	0.513	neutral	Picture	46.834	n/a	1	2	19	n/a	39	29	1	n/a	n/a	n/a	n/a	89.728	AM10NES.jpg
58.968	0.5	Blank	Blank	46.334	n/a	1	2	19	n/a	39	n/a	1	n/a	n/a	n/a	n/a	90.242	n/a
59.499	0.47	neutral	Picture	45.833	n/a	1	2	20	n/a	40	23	1	n/a	n/a	n/a	n/a	90.772	AM04NES.jpg
59.969	0.508	Blank	Blank	45.325	n/a	1	2	20	n/a	40	n/a	1	n/a	n/a	n/a	n/a	91.242	n/a
60.477	10.013	ITI	Fixation+	35.311	n/a	1	n/a	n/a	n/a	n/a	n/a	n/a	n/a	n/a	n/a	n/a	91.751	n/a
70.491	0.513	happy	Picture	34.797	n/a	1	3	1	n/a	41	62	2	n/a	n/a	n/a	n/a	101.764	BM03HAS.jpg
71.004	0.5	Blank	Blank	34.297	n/a	1	3	1	n/a	41	n/a	2	n/a	n/a	n/a	n/a	102.278	n/a
71.535	0.47	happy	Picture	33.797	n/a	1	3	2	n/a	42	52	2	n/a	n/a	n/a	n/a	102.808	AF21HAS.jpg
72.005	0.508	Blank	Blank	33.289	n/a	1	3	2	n/a	42	n/a	2	n/a	n/a	n/a	n/a	103.278	n/a
72.514	0.513	happy	Picture	32.775	n/a	1	3	3	n/a	43	44	2	n/a	n/a	n/a	n/a	103.787	AF05HAS.jpg
73.027	0.5	Blank	Blank	32.275	n/a	1	3	3	n/a	43	n/a	2	n/a	n/a	n/a	n/a	104.3	n/a
73.558	0.47	happy	Picture	31.775	n/a	1	3	4	n/a	44	53	2	n/a	n/a	n/a	n/a	104.831	BF22HAS.jpg
74.027	0.509	Blank	Blank	31.266	n/a	1	3	4	n/a	44	n/a	2	n/a	n/a	n/a	n/a	105.3	n/a
74.536	0.513	happy	Picture	30.752	n/a	1	3	5	n/a	45	54	2	n/a	n/a	n/a	n/a	105.809	AF23HAS.jpg
75.05	0.5	Blank	Blank	30.252	n/a	1	3	5	n/a	45	n/a	2	n/a	n/a	n/a	n/a	106.323	n/a
75.58	0.47	happy	Picture	29.752	n/a	1	3	6	n/a	46	68	2	n/a	n/a	n/a	n/a	106.853	AM09HAS.jpg
76.05	0.509	Blank	Blank	29.244	n/a	1	3	6	n/a	46	n/a	2	n/a	n/a	n/a	n/a	107.323	n/a
76.559	0.513	happy	Picture	28.73	n/a	1	3	7	n/a	47	64	2	n/a	n/a	n/a	n/a	107.832	BM05HAS.jpg
77.072	0.5	Blank	Blank	28.23	n/a	1	3	7	n/a	47	n/a	2	n/a	n/a	n/a	n/a	108.346	n/a
77.603	0.47	happy	Picture	27.729	n/a	1	3	8	n/a	48	59	2	n/a	n/a	n/a	n/a	108.876	AF31HAS.jpg
78.073	0.508	Blank	Blank	27.221	n/a	1	3	8	n/a	48	n/a	2	n/a	n/a	n/a	n/a	109.346	n/a
78.581	0.513	happy	Picture	26.707	n/a	1	3	9	n/a	49	41	2	n/a	n/a	n/a	n/a	109.855	AF01HAS.jpg
79.095	0.5	Blank	Blank	26.207	n/a	1	3	9	n/a	49	n/a	2	n/a	n/a	n/a	n/a	110.368	n/a
79.625	0.47	happy	Picture	25.707	n/a	1	3	10	n/a	50	73	2	n/a	n/a	n/a	n/a	110.899	AM21HAS.jpg
80.095	0.508	Blank	Blank	25.198	n/a	1	3	10	n/a	50	n/a	2	n/a	n/a	n/a	n/a	111.368	n/a
80.604	0.513	happy	Picture	24.684	n/a	1	3	11	n/a	51	65	2	n/a	n/a	n/a	n/a	111.877	BM06HAS.jpg
81.117	0.5	Blank	Blank	24.184	n/a	1	3	11	n/a	51	n/a	2	n/a	n/a	n/a	n/a	112.391	n/a
81.648	0.469	happy	Picture	23.684	n/a	1	3	12	n/a	52	56	2	n/a	n/a	n/a	n/a	112.921	AF26HAS.jpg
82.118	0.509	Blank	Blank	23.176	n/a	1	3	12	n/a	52	n/a	2	n/a	n/a	n/a	n/a	113.391	n/a
82.627	0.513	happy	Picture	22.662	n/a	1	3	13	n/a	53	45	2	n/a	n/a	n/a	n/a	113.9	BF07HAS.jpg
83.14	0.5	Blank	Blank	22.162	n/a	1	3	13	n/a	53	n/a	2	n/a	n/a	n/a	n/a	114.413	n/a
83.671	0.47	happy	Picture	21.661	n/a	1	3	14	n/a	54	78	2	n/a	n/a	n/a	n/a	114.944	BM26HAS.jpg
84.14	0.508	Blank	Blank	21.153	n/a	1	3	14	n/a	54	n/a	2	n/a	n/a	n/a	n/a	115.414	n/a
84.649	0.513	happy	Picture	20.639	n/a	1	3	15	n/a	55	50	2	n/a	n/a	n/a	n/a	115.922	AF18HAS.jpg
85.163	0.5	Blank	Blank	20.139	n/a	1	3	15	n/a	55	n/a	2	n/a	n/a	n/a	n/a	116.436	n/a
85.693	0.47	happy	Picture	19.639	n/a	1	3	16	n/a	56	47	2	n/a	n/a	n/a	n/a	116.967	BF11HAS.jpg
86.163	0.508	Blank	Blank	19.131	n/a	1	3	16	n/a	56	n/a	2	n/a	n/a	n/a	n/a	117.436	n/a
86.672	0.513	happy	Picture	18.617	n/a	1	3	17	n/a	57	77	2	n/a	n/a	n/a	n/a	117.945	BM25HAS.jpg
87.185	0.5	Blank	Blank	18.117	n/a	1	3	17	n/a	57	n/a	2	n/a	n/a	n/a	n/a	118.459	n/a
87.716	0.47	happy	Picture	17.617	n/a	1	3	18	n/a	58	57	2	n/a	n/a	n/a	n/a	118.989	BF28HAS.jpg
88.185	0.508	Blank	Blank	17.108	n/a	1	3	18	n/a	58	n/a	2	n/a	n/a	n/a	n/a	119.459	n/a
88.694	0.514	happy	Picture	16.594	n/a	1	3	19	n/a	59	61	2	n/a	n/a	n/a	n/a	119.968	AM01HAS.jpg
89.208	0.5	Blank	Blank	16.094	n/a	1	3	19	n/a	59	n/a	2	n/a	n/a	n/a	n/a	120.481	n/a
89.738	0.47	happy	Picture	15.594	n/a	1	3	20	n/a	60	79	2	n/a	n/a	n/a	n/a	121.012	BM28HAS.jpg
90.208	0.508	Blank	Blank	15.085	n/a	1	3	20	n/a	60	n/a	2	n/a	n/a	n/a	n/a	121.482	n/a
90.717	10.013	ITI	Fixation+	5.072	n/a	1	n/a	n/a	n/a	n/a	n/a	n/a	n/a	n/a	n/a	n/a	121.99	n/a
105.802	n/a	ConfirmRating	Rate	n/a	5.063	1	n/a	n/a	0	n/a	n/a	n/a	2	Happy	72	52	137.075	n/a
110.845	n/a	ConfirmRating	Rate	n/a	5.037	1	n/a	n/a	1	n/a	n/a	n/a	3	Happy	8	46	142.118	n/a
110.86	10.013	ITI	Fixation+	94.562	n/a	2	n/a	n/a	n/a	n/a	n/a	n/a	n/a	n/a	n/a	n/a	142.133	n/a
120.874	0.513	angry	Picture	94.048	n/a	2	4	1	n/a	61	119	3	n/a	n/a	n/a	n/a	152.147	BM28ANS.jpg
121.387	0.5	Blank	Blank	93.548	n/a	2	4	1	n/a	61	n/a	3	n/a	n/a	n/a	n/a	152.661	n/a
121.918	0.47	angry	Picture	93.047	n/a	2	4	2	n/a	62	100	3	n/a	n/a	n/a	n/a	153.191	AF32ANS.jpg
122.388	0.508	Blank	Blank	92.539	n/a	2	4	2	n/a	62	n/a	3	n/a	n/a	n/a	n/a	153.661	n/a
122.896	0.513	angry	Picture	92.025	n/a	2	4	3	n/a	63	118	3	n/a	n/a	n/a	n/a	154.17	BM26ANS.jpg
123.41	0.5	Blank	Blank	91.525	n/a	2	4	3	n/a	63	n/a	3	n/a	n/a	n/a	n/a	154.683	n/a
123.94	0.47	angry	Picture	91.025	n/a	2	4	4	n/a	64	89	3	n/a	n/a	n/a	n/a	155.214	AF17ANS.jpg
124.41	0.508	Blank	Blank	90.516	n/a	2	4	4	n/a	64	n/a	3	n/a	n/a	n/a	n/a	155.684	n/a
124.919	0.513	angry	Picture	90.003	n/a	2	4	5	n/a	65	116	3	n/a	n/a	n/a	n/a	156.192	BM24ANS.jpg
125.432	0.5	Blank	Blank	89.502	n/a	2	4	5	n/a	65	n/a	3	n/a	n/a	n/a	n/a	156.706	n/a
125.963	0.47	angry	Picture	89.002	n/a	2	4	6	n/a	66	105	3	n/a	n/a	n/a	n/a	157.236	BM06ANS.jpg
126.433	0.508	Blank	Blank	88.494	n/a	2	4	6	n/a	66	n/a	3	n/a	n/a	n/a	n/a	157.706	n/a
126.942	0.513	angry	Picture	87.98	n/a	2	4	7	n/a	67	106	3	n/a	n/a	n/a	n/a	158.215	AM07ANS.jpg
127.455	0.5	Blank	Blank	87.48	n/a	2	4	7	n/a	67	n/a	3	n/a	n/a	n/a	n/a	158.728	n/a
127.986	0.47	angry	Picture	86.98	n/a	2	4	8	n/a	68	94	3	n/a	n/a	n/a	n/a	159.259	AF23ANS.jpg
128.455	0.509	Blank	Blank	86.471	n/a	2	4	8	n/a	68	n/a	3	n/a	n/a	n/a	n/a	159.728	n/a
128.964	0.513	angry	Picture	85.957	n/a	2	4	9	n/a	69	117	3	n/a	n/a	n/a	n/a	160.238	BM25ANS.jpg
129.478	0.5	Blank	Blank	85.457	n/a	2	4	9	n/a	69	n/a	3	n/a	n/a	n/a	n/a	160.751	n/a
130.008	0.47	angry	Picture	84.957	n/a	2	4	10	n/a	70	90	3	n/a	n/a	n/a	n/a	161.281	AF18ANS.jpg
130.478	0.508	Blank	Blank	84.449	n/a	2	4	10	n/a	70	n/a	3	n/a	n/a	n/a	n/a	161.751	n/a
130.987	0.513	angry	Picture	83.935	n/a	2	4	11	n/a	71	83	3	n/a	n/a	n/a	n/a	162.26	BF04ANS.jpg
131.5	0.5	Blank	Blank	83.435	n/a	2	4	11	n/a	71	n/a	3	n/a	n/a	n/a	n/a	162.774	n/a
132.031	0.47	angry	Picture	82.935	n/a	2	4	12	n/a	72	112	3	n/a	n/a	n/a	n/a	163.304	AM14ANS.jpg
132.5	0.508	Blank	Blank	82.426	n/a	2	4	12	n/a	72	n/a	3	n/a	n/a	n/a	n/a	163.774	n/a
133.009	0.513	angry	Picture	81.912	n/a	2	4	13	n/a	73	102	3	n/a	n/a	n/a	n/a	164.283	BM03ANS.jpg
133.523	0.5	Blank	Blank	81.412	n/a	2	4	13	n/a	73	n/a	3	n/a	n/a	n/a	n/a	164.796	n/a
134.053	0.47	angry	Picture	80.912	n/a	2	4	14	n/a	74	95	3	n/a	n/a	n/a	n/a	165.327	AF25ANS.jpg
134.523	0.509	Blank	Blank	80.403	n/a	2	4	14	n/a	74	n/a	3	n/a	n/a	n/a	n/a	165.796	n/a
135.032	0.513	angry	Picture	79.89	n/a	2	4	15	n/a	75	113	3	n/a	n/a	n/a	n/a	166.305	AM21ANS.jpg
135.545	0.5	Blank	Blank	79.389	n/a	2	4	15	n/a	75	n/a	3	n/a	n/a	n/a	n/a	166.819	n/a
136.076	0.469	angry	Picture	78.889	n/a	2	4	16	n/a	76	88	3	n/a	n/a	n/a	n/a	167.349	AF14ANS.jpg
136.546	0.509	Blank	Blank	78.381	n/a	2	4	16	n/a	76	n/a	3	n/a	n/a	n/a	n/a	167.819	n/a
137.054	0.513	angry	Picture	77.867	n/a	2	4	17	n/a	77	93	3	n/a	n/a	n/a	n/a	168.328	BF22ANS.jpg
137.568	0.5	Blank	Blank	77.367	n/a	2	4	17	n/a	77	n/a	3	n/a	n/a	n/a	n/a	168.841	n/a
138.099	0.47	angry	Picture	76.867	n/a	2	4	18	n/a	78	86	3	n/a	n/a	n/a	n/a	169.372	AF09ANS.jpg
138.568	0.508	Blank	Blank	76.358	n/a	2	4	18	n/a	78	n/a	3	n/a	n/a	n/a	n/a	169.842	n/a
139.077	0.513	angry	Picture	75.844	n/a	2	4	19	n/a	79	92	3	n/a	n/a	n/a	n/a	170.351	AF21ANS.jpg
139.591	0.5	Blank	Blank	75.344	n/a	2	4	19	n/a	79	n/a	3	n/a	n/a	n/a	n/a	170.864	n/a
140.121	0.469	angry	Picture	74.844	n/a	2	4	20	n/a	80	84	3	n/a	n/a	n/a	n/a	171.395	AF05ANS.jpg
140.591	0.509	Blank	Blank	74.336	n/a	2	4	20	n/a	80	n/a	3	n/a	n/a	n/a	n/a	171.864	n/a
141.1	10.013	ITI	Fixation+	64.322	n/a	2	n/a	n/a	n/a	n/a	n/a	n/a	n/a	n/a	n/a	n/a	172.373	n/a
151.113	0.513	neutral	Picture	63.808	n/a	2	5	1	n/a	81	4	1	n/a	n/a	n/a	n/a	182.387	AF05NES.jpg
151.627	0.5	Blank	Blank	63.308	n/a	2	5	1	n/a	81	n/a	1	n/a	n/a	n/a	n/a	182.9	n/a
152.157	0.47	neutral	Picture	62.808	n/a	2	5	2	n/a	82	14	1	n/a	n/a	n/a	n/a	183.431	AF23NES.jpg
152.627	0.508	Blank	Blank	62.299	n/a	2	5	2	n/a	82	n/a	1	n/a	n/a	n/a	n/a	183.9	n/a
153.136	0.513	neutral	Picture	61.786	n/a	2	5	3	n/a	83	19	1	n/a	n/a	n/a	n/a	184.409	AF31NES.jpg
153.649	0.5	Blank	Blank	61.286	n/a	2	5	3	n/a	83	n/a	1	n/a	n/a	n/a	n/a	184.923	n/a
154.18	0.47	neutral	Picture	60.785	n/a	2	5	4	n/a	84	8	1	n/a	n/a	n/a	n/a	185.453	AF14NES.jpg
154.649	0.509	Blank	Blank	60.277	n/a	2	5	4	n/a	84	n/a	1	n/a	n/a	n/a	n/a	185.923	n/a
155.159	0.513	neutral	Picture	59.763	n/a	2	5	5	n/a	85	25	1	n/a	n/a	n/a	n/a	186.432	BM06NES.jpg
155.672	0.5	Blank	Blank	59.263	n/a	2	5	5	n/a	85	n/a	1	n/a	n/a	n/a	n/a	186.945	n/a
156.202	0.47	neutral	Picture	58.763	n/a	2	5	6	n/a	86	9	1	n/a	n/a	n/a	n/a	187.476	AF17NES.jpg
156.672	0.508	Blank	Blank	58.254	n/a	2	5	6	n/a	86	n/a	1	n/a	n/a	n/a	n/a	187.946	n/a
157.181	0.513	neutral	Picture	57.74	n/a	2	5	7	n/a	87	2	1	n/a	n/a	n/a	n/a	188.454	AF03NES.jpg
157.695	0.5	Blank	Blank	57.24	n/a	2	5	7	n/a	87	n/a	1	n/a	n/a	n/a	n/a	188.968	n/a
158.225	0.47	neutral	Picture	56.74	n/a	2	5	8	n/a	88	17	1	n/a	n/a	n/a	n/a	189.499	BF28NES.jpg
158.695	0.508	Blank	Blank	56.232	n/a	2	5	8	n/a	88	n/a	1	n/a	n/a	n/a	n/a	189.968	n/a
159.204	0.513	neutral	Picture	55.718	n/a	2	5	9	n/a	89	6	1	n/a	n/a	n/a	n/a	190.477	AF09NES.jpg
159.717	0.5	Blank	Blank	55.218	n/a	2	5	9	n/a	89	n/a	1	n/a	n/a	n/a	n/a	190.991	n/a
160.248	0.469	neutral	Picture	54.718	n/a	2	5	10	n/a	90	12	1	n/a	n/a	n/a	n/a	191.521	AF21NES.jpg
160.717	0.509	Blank	Blank	54.209	n/a	2	5	10	n/a	90	n/a	1	n/a	n/a	n/a	n/a	191.991	n/a
161.226	0.513	neutral	Picture	53.695	n/a	2	5	11	n/a	91	24	1	n/a	n/a	n/a	n/a	192.5	BM05NES.jpg
161.74	0.5	Blank	Blank	53.195	n/a	2	5	11	n/a	91	n/a	1	n/a	n/a	n/a	n/a	193.013	n/a
162.27	0.47	neutral	Picture	52.695	n/a	2	5	12	n/a	92	34	1	n/a	n/a	n/a	n/a	193.544	AM22NES.jpg
162.74	0.508	Blank	Blank	52.186	n/a	2	5	12	n/a	92	n/a	1	n/a	n/a	n/a	n/a	194.013	n/a
163.249	0.514	neutral	Picture	51.672	n/a	2	5	13	n/a	93	23	1	n/a	n/a	n/a	n/a	194.522	AM04NES.jpg
163.762	0.5	Blank	Blank	51.172	n/a	2	5	13	n/a	93	n/a	1	n/a	n/a	n/a	n/a	195.036	n/a
164.293	0.47	neutral	Picture	50.672	n/a	2	5	14	n/a	94	15	1	n/a	n/a	n/a	n/a	195.566	AF25NES.jpg
164.763	0.508	Blank	Blank	50.164	n/a	2	5	14	n/a	94	n/a	1	n/a	n/a	n/a	n/a	196.036	n/a
165.272	0.514	neutral	Picture	49.65	n/a	2	5	15	n/a	95	37	1	n/a	n/a	n/a	n/a	196.545	BM25NES.jpg
165.785	0.5	Blank	Blank	49.15	n/a	2	5	15	n/a	95	n/a	1	n/a	n/a	n/a	n/a	197.059	n/a
166.316	0.47	neutral	Picture	48.65	n/a	2	5	16	n/a	96	32	1	n/a	n/a	n/a	n/a	197.589	AM14NES.jpg
166.785	0.508	Blank	Blank	48.141	n/a	2	5	16	n/a	96	n/a	1	n/a	n/a	n/a	n/a	198.059	n/a
167.294	0.514	neutral	Picture	47.627	n/a	2	5	17	n/a	97	3	1	n/a	n/a	n/a	n/a	198.567	BF04NES.jpg
167.808	0.5	Blank	Blank	47.127	n/a	2	5	17	n/a	97	n/a	1	n/a	n/a	n/a	n/a	199.081	n/a
168.338	0.47	neutral	Picture	46.627	n/a	2	5	18	n/a	98	16	1	n/a	n/a	n/a	n/a	199.612	AF26NES.jpg
168.808	0.508	Blank	Blank	46.119	n/a	2	5	18	n/a	98	n/a	1	n/a	n/a	n/a	n/a	200.081	n/a
169.317	0.514	neutral	Picture	45.605	n/a	2	5	19	n/a	99	27	1	n/a	n/a	n/a	n/a	200.59	BM08NES.jpg
169.83	0.5	Blank	Blank	45.105	n/a	2	5	19	n/a	99	n/a	1	n/a	n/a	n/a	n/a	201.104	n/a
170.361	0.47	neutral	Picture	44.605	n/a	2	5	20	n/a	100	28	1	n/a	n/a	n/a	n/a	201.634	AM09NES.jpg
170.83	0.508	Blank	Blank	44.096	n/a	2	5	20	n/a	100	n/a	1	n/a	n/a	n/a	n/a	202.104	n/a
171.339	10.013	ITI	Fixation+	34.082	n/a	2	n/a	n/a	n/a	n/a	n/a	n/a	n/a	n/a	n/a	n/a	202.613	n/a
181.353	0.513	angry	Picture	33.569	n/a	2	6	1	n/a	101	81	3	n/a	n/a	n/a	n/a	212.626	AF01ANS.jpg
181.866	0.5	Blank	Blank	33.069	n/a	2	6	1	n/a	101	n/a	3	n/a	n/a	n/a	n/a	213.14	n/a
182.397	0.47	angry	Picture	32.568	n/a	2	6	2	n/a	102	120	3	n/a	n/a	n/a	n/a	213.67	AM35ANS.jpg
182.867	0.508	Blank	Blank	32.06	n/a	2	6	2	n/a	102	n/a	3	n/a	n/a	n/a	n/a	214.14	n/a
183.375	0.513	angry	Picture	31.546	n/a	2	6	3	n/a	103	114	3	n/a	n/a	n/a	n/a	214.649	AM22ANS.jpg
183.889	0.5	Blank	Blank	31.046	n/a	2	6	3	n/a	103	n/a	3	n/a	n/a	n/a	n/a	215.162	n/a
184.42	0.469	angry	Picture	30.546	n/a	2	6	4	n/a	104	109	3	n/a	n/a	n/a	n/a	215.693	AM10ANS.jpg
184.889	0.509	Blank	Blank	30.037	n/a	2	6	4	n/a	104	n/a	3	n/a	n/a	n/a	n/a	216.162	n/a
185.398	0.513	angry	Picture	29.523	n/a	2	6	5	n/a	105	96	3	n/a	n/a	n/a	n/a	216.672	AF26ANS.jpg
185.912	0.5	Blank	Blank	29.023	n/a	2	6	5	n/a	105	n/a	3	n/a	n/a	n/a	n/a	217.185	n/a
186.442	0.47	angry	Picture	28.523	n/a	2	6	6	n/a	106	82	3	n/a	n/a	n/a	n/a	217.716	AF03ANS.jpg
186.912	0.508	Blank	Blank	28.015	n/a	2	6	6	n/a	106	n/a	3	n/a	n/a	n/a	n/a	218.185	n/a
187.421	0.513	angry	Picture	27.501	n/a	2	6	7	n/a	107	97	3	n/a	n/a	n/a	n/a	218.694	BF28ANS.jpg
187.934	0.5	Blank	Blank	27.001	n/a	2	6	7	n/a	107	n/a	3	n/a	n/a	n/a	n/a	219.208	n/a
188.465	0.47	angry	Picture	26.5	n/a	2	6	8	n/a	108	115	3	n/a	n/a	n/a	n/a	219.738	AM23ANS.jpg
188.935	0.508	Blank	Blank	25.992	n/a	2	6	8	n/a	108	n/a	3	n/a	n/a	n/a	n/a	220.208	n/a
189.443	0.514	angry	Picture	25.478	n/a	2	6	9	n/a	109	91	3	n/a	n/a	n/a	n/a	220.717	AF20ANS.jpg
189.957	0.5	Blank	Blank	24.978	n/a	2	6	9	n/a	109	n/a	3	n/a	n/a	n/a	n/a	221.23	n/a
190.487	0.47	angry	Picture	24.478	n/a	2	6	10	n/a	110	87	3	n/a	n/a	n/a	n/a	221.761	BF11ANS.jpg
190.957	0.508	Blank	Blank	23.969	n/a	2	6	10	n/a	110	n/a	3	n/a	n/a	n/a	n/a	222.231	n/a
191.466	0.514	angry	Picture	23.455	n/a	2	6	11	n/a	111	85	3	n/a	n/a	n/a	n/a	222.739	BF07ANS.jpg
191.98	0.5	Blank	Blank	22.955	n/a	2	6	11	n/a	111	n/a	3	n/a	n/a	n/a	n/a	223.253	n/a
192.51	0.47	angry	Picture	22.455	n/a	2	6	12	n/a	112	110	3	n/a	n/a	n/a	n/a	223.783	AM11ANS.jpg
192.98	0.508	Blank	Blank	21.947	n/a	2	6	12	n/a	112	n/a	3	n/a	n/a	n/a	n/a	224.253	n/a
193.489	0.513	angry	Picture	21.433	n/a	2	6	13	n/a	113	111	3	n/a	n/a	n/a	n/a	224.762	BM12ANS.jpg
194.002	0.5	Blank	Blank	20.933	n/a	2	6	13	n/a	113	n/a	3	n/a	n/a	n/a	n/a	225.275	n/a
194.533	0.47	angry	Picture	20.432	n/a	2	6	14	n/a	114	103	3	n/a	n/a	n/a	n/a	225.806	AM04ANS.jpg
195.002	0.508	Blank	Blank	19.924	n/a	2	6	14	n/a	114	n/a	3	n/a	n/a	n/a	n/a	226.276	n/a
195.511	0.513	angry	Picture	19.41	n/a	2	6	15	n/a	115	101	3	n/a	n/a	n/a	n/a	226.785	AM01ANS.jpg
196.025	0.5	Blank	Blank	18.91	n/a	2	6	15	n/a	115	n/a	3	n/a	n/a	n/a	n/a	227.298	n/a
196.555	0.47	angry	Picture	18.41	n/a	2	6	16	n/a	116	104	3	n/a	n/a	n/a	n/a	227.829	BM05ANS.jpg
197.025	0.508	Blank	Blank	17.902	n/a	2	6	16	n/a	116	n/a	3	n/a	n/a	n/a	n/a	228.298	n/a
197.534	0.513	angry	Picture	17.388	n/a	2	6	17	n/a	117	107	3	n/a	n/a	n/a	n/a	228.807	BM08ANS.jpg
198.047	0.5	Blank	Blank	16.888	n/a	2	6	17	n/a	117	n/a	3	n/a	n/a	n/a	n/a	229.321	n/a
198.578	0.47	angry	Picture	16.387	n/a	2	6	18	n/a	118	98	3	n/a	n/a	n/a	n/a	229.851	BF29ANS.jpg
199.048	0.508	Blank	Blank	15.879	n/a	2	6	18	n/a	118	n/a	3	n/a	n/a	n/a	n/a	230.321	n/a
199.556	0.513	angry	Picture	15.365	n/a	2	6	19	n/a	119	99	3	n/a	n/a	n/a	n/a	230.83	AF31ANS.jpg
200.07	0.5	Blank	Blank	14.865	n/a	2	6	19	n/a	119	n/a	3	n/a	n/a	n/a	n/a	231.343	n/a
200.6	0.47	angry	Picture	14.365	n/a	2	6	20	n/a	120	108	3	n/a	n/a	n/a	n/a	231.874	AM09ANS.jpg
201.07	0.508	Blank	Blank	13.856	n/a	2	6	20	n/a	120	n/a	3	n/a	n/a	n/a	n/a	232.344	n/a
201.579	10.013	ITI	Fixation+	3.843	n/a	2	n/a	n/a	n/a	n/a	n/a	n/a	n/a	n/a	n/a	n/a	232.852	n/a
215.435	n/a	ConfirmRating	Rate	n/a	3.843	2	n/a	n/a	0	n/a	n/a	n/a	2	Angry	74	53	246.708	n/a
218.06	n/a	ConfirmRating	Rate	n/a	2.65	2	n/a	n/a	1	n/a	n/a	n/a	3	Angry	10	48	249.333	n/a
218.091	15.003	Rest	Picture	n/a	n/a	n/a	n/a	n/a	n/a	n/a	n/a	n/a	0	n/a	0	0	249.365	n/a
233.095	10.013	ITI	Fixation+	93.894	n/a	3	n/a	n/a	n/a	n/a	n/a	n/a	n/a	n/a	n/a	n/a	264.368	n/a
243.109	0.513	happy	Picture	93.381	n/a	3	7	1	n/a	1	46	2	n/a	n/a	n/a	n/a	274.382	AF09HAS.jpg
243.622	0.5	Blank	Blank	92.881	n/a	3	7	1	n/a	1	n/a	2	n/a	n/a	n/a	n/a	274.896	n/a
244.153	0.47	happy	Picture	92.38	n/a	3	7	2	n/a	2	69	2	n/a	n/a	n/a	n/a	275.426	AM10HAS.jpg
244.622	0.508	Blank	Blank	91.872	n/a	3	7	2	n/a	2	n/a	2	n/a	n/a	n/a	n/a	275.896	n/a
245.131	0.513	happy	Picture	91.358	n/a	3	7	3	n/a	3	71	2	n/a	n/a	n/a	n/a	276.405	BM12HAS.jpg
245.645	0.5	Blank	Blank	90.858	n/a	3	7	3	n/a	3	n/a	2	n/a	n/a	n/a	n/a	276.918	n/a
246.175	0.469	happy	Picture	90.358	n/a	3	7	4	n/a	4	51	2	n/a	n/a	n/a	n/a	277.449	AF20HAS.jpg
246.645	0.509	Blank	Blank	89.849	n/a	3	7	4	n/a	4	n/a	2	n/a	n/a	n/a	n/a	277.918	n/a
247.154	0.513	happy	Picture	89.335	n/a	3	7	5	n/a	5	67	2	n/a	n/a	n/a	n/a	278.427	BM08HAS.jpg
247.667	0.5	Blank	Blank	88.835	n/a	3	7	5	n/a	5	n/a	2	n/a	n/a	n/a	n/a	278.941	n/a
248.198	0.469	happy	Picture	88.335	n/a	3	7	6	n/a	6	60	2	n/a	n/a	n/a	n/a	279.471	AF32HAS.jpg
248.667	0.509	Blank	Blank	87.827	n/a	3	7	6	n/a	6	n/a	2	n/a	n/a	n/a	n/a	279.941	n/a
249.177	0.513	happy	Picture	87.313	n/a	3	7	7	n/a	7	42	2	n/a	n/a	n/a	n/a	280.45	AF03HAS.jpg
249.69	0.5	Blank	Blank	86.813	n/a	3	7	7	n/a	7	n/a	2	n/a	n/a	n/a	n/a	280.964	n/a
250.221	0.47	happy	Picture	86.312	n/a	3	7	8	n/a	8	55	2	n/a	n/a	n/a	n/a	281.494	AF25HAS.jpg
250.691	0.508	Blank	Blank	85.804	n/a	3	7	8	n/a	8	n/a	2	n/a	n/a	n/a	n/a	281.964	n/a
251.199	0.514	happy	Picture	85.29	n/a	3	7	9	n/a	9	72	2	n/a	n/a	n/a	n/a	282.473	AM14HAS.jpg
251.713	0.5	Blank	Blank	84.79	n/a	3	7	9	n/a	9	n/a	2	n/a	n/a	n/a	n/a	282.986	n/a
252.243	0.47	happy	Picture	84.29	n/a	3	7	10	n/a	10	63	2	n/a	n/a	n/a	n/a	283.517	AM04HAS.jpg
252.713	0.508	Blank	Blank	83.781	n/a	3	7	10	n/a	10	n/a	2	n/a	n/a	n/a	n/a	283.986	n/a
253.222	0.514	happy	Picture	83.267	n/a	3	7	11	n/a	11	58	2	n/a	n/a	n/a	n/a	284.495	BF29HAS.jpg
253.735	0.5	Blank	Blank	82.767	n/a	3	7	11	n/a	11	n/a	2	n/a	n/a	n/a	n/a	285.009	n/a
254.266	0.47	happy	Picture	82.267	n/a	3	7	12	n/a	12	48	2	n/a	n/a	n/a	n/a	285.539	AF14HAS.jpg
254.735	0.508	Blank	Blank	81.759	n/a	3	7	12	n/a	12	n/a	2	n/a	n/a	n/a	n/a	286.009	n/a
255.244	0.513	happy	Picture	81.245	n/a	3	7	13	n/a	13	66	2	n/a	n/a	n/a	n/a	286.518	BM07HAS.jpg
255.758	0.5	Blank	Blank	80.745	n/a	3	7	13	n/a	13	n/a	2	n/a	n/a	n/a	n/a	287.031	n/a
256.288	0.47	happy	Picture	80.245	n/a	3	7	14	n/a	14	70	2	n/a	n/a	n/a	n/a	287.562	BM11HAS.jpg
256.758	0.508	Blank	Blank	79.736	n/a	3	7	14	n/a	14	n/a	2	n/a	n/a	n/a	n/a	288.031	n/a
257.267	0.513	happy	Picture	79.222	n/a	3	7	15	n/a	15	43	2	n/a	n/a	n/a	n/a	288.54	BF04HAS.jpg
257.781	0.5	Blank	Blank	78.722	n/a	3	7	15	n/a	15	n/a	2	n/a	n/a	n/a	n/a	289.054	n/a
258.311	0.47	happy	Picture	78.222	n/a	3	7	16	n/a	16	49	2	n/a	n/a	n/a	n/a	289.584	AF17HAS.jpg
258.781	0.508	Blank	Blank	77.714	n/a	3	7	16	n/a	16	n/a	2	n/a	n/a	n/a	n/a	290.054	n/a
259.29	0.513	happy	Picture	77.2	n/a	3	7	17	n/a	17	75	2	n/a	n/a	n/a	n/a	290.563	AM23HAS.jpg
259.803	0.5	Blank	Blank	76.7	n/a	3	7	17	n/a	17	n/a	2	n/a	n/a	n/a	n/a	291.077	n/a
260.334	0.47	happy	Picture	76.199	n/a	3	7	18	n/a	18	80	2	n/a	n/a	n/a	n/a	291.607	BM35HAS.jpg
260.803	0.508	Blank	Blank	75.691	n/a	3	7	18	n/a	18	n/a	2	n/a	n/a	n/a	n/a	292.077	n/a
261.312	0.513	happy	Picture	75.177	n/a	3	7	19	n/a	19	76	2	n/a	n/a	n/a	n/a	292.586	BM24HAS.jpg
261.826	0.5	Blank	Blank	74.677	n/a	3	7	19	n/a	19	n/a	2	n/a	n/a	n/a	n/a	293.099	n/a
262.356	0.47	happy	Picture	74.177	n/a	3	7	20	n/a	20	74	2	n/a	n/a	n/a	n/a	293.63	AM22HAS.jpg
262.826	0.508	Blank	Blank	73.668	n/a	3	7	20	n/a	20	n/a	2	n/a	n/a	n/a	n/a	294.099	n/a
263.335	10.013	ITI	Fixation+	63.655	n/a	3	n/a	n/a	n/a	n/a	n/a	n/a	n/a	n/a	n/a	n/a	294.608	n/a
273.348	0.513	neutral	Picture	63.141	n/a	3	8	1	n/a	21	33	1	n/a	n/a	n/a	n/a	304.622	AM21NES.jpg
273.862	0.5	Blank	Blank	62.641	n/a	3	8	1	n/a	21	n/a	1	n/a	n/a	n/a	n/a	305.135	n/a
274.392	0.47	neutral	Picture	62.141	n/a	3	8	2	n/a	22	39	1	n/a	n/a	n/a	n/a	305.666	AM28NES.jpg
274.862	0.508	Blank	Blank	61.632	n/a	3	8	2	n/a	22	n/a	1	n/a	n/a	n/a	n/a	306.135	n/a
275.371	0.514	neutral	Picture	61.118	n/a	3	8	3	n/a	23	25	1	n/a	n/a	n/a	n/a	306.644	BM06NES.jpg
275.885	0.5	Blank	Blank	60.618	n/a	3	8	3	n/a	23	n/a	1	n/a	n/a	n/a	n/a	307.158	n/a
276.415	0.47	neutral	Picture	60.118	n/a	3	8	4	n/a	24	5	1	n/a	n/a	n/a	n/a	307.688	BF07NES.jpg
276.885	0.508	Blank	Blank	59.61	n/a	3	8	4	n/a	24	n/a	1	n/a	n/a	n/a	n/a	308.158	n/a
277.394	0.514	neutral	Picture	59.096	n/a	3	8	5	n/a	25	10	1	n/a	n/a	n/a	n/a	308.667	AF18NES.jpg
277.907	0.5	Blank	Blank	58.596	n/a	3	8	5	n/a	25	n/a	1	n/a	n/a	n/a	n/a	309.18	n/a
278.438	0.47	neutral	Picture	58.095	n/a	3	8	6	n/a	26	34	1	n/a	n/a	n/a	n/a	309.711	AM22NES.jpg
278.907	0.508	Blank	Blank	57.587	n/a	3	8	6	n/a	26	n/a	1	n/a	n/a	n/a	n/a	310.181	n/a
279.416	0.514	neutral	Picture	57.073	n/a	3	8	7	n/a	27	36	1	n/a	n/a	n/a	n/a	310.69	BM24NES.jpg
279.93	0.5	Blank	Blank	56.573	n/a	3	8	7	n/a	27	n/a	1	n/a	n/a	n/a	n/a	311.203	n/a
280.46	0.47	neutral	Picture	56.073	n/a	3	8	8	n/a	28	14	1	n/a	n/a	n/a	n/a	311.734	AF23NES.jpg
280.93	0.508	Blank	Blank	55.564	n/a	3	8	8	n/a	28	n/a	1	n/a	n/a	n/a	n/a	312.203	n/a
281.439	0.513	neutral	Picture	55.05	n/a	3	8	9	n/a	29	9	1	n/a	n/a	n/a	n/a	312.712	AF17NES.jpg
281.952	0.5	Blank	Blank	54.55	n/a	3	8	9	n/a	29	n/a	1	n/a	n/a	n/a	n/a	313.226	n/a
282.483	0.47	neutral	Picture	54.05	n/a	3	8	10	n/a	30	19	1	n/a	n/a	n/a	n/a	313.756	AF31NES.jpg
282.953	0.508	Blank	Blank	53.542	n/a	3	8	10	n/a	30	n/a	1	n/a	n/a	n/a	n/a	314.226	n/a
283.461	0.513	neutral	Picture	53.028	n/a	3	8	11	n/a	31	15	1	n/a	n/a	n/a	n/a	314.735	AF25NES.jpg
283.975	0.5	Blank	Blank	52.528	n/a	3	8	11	n/a	31	n/a	1	n/a	n/a	n/a	n/a	315.248	n/a
284.505	0.47	neutral	Picture	52.027	n/a	3	8	12	n/a	32	22	1	n/a	n/a	n/a	n/a	315.779	BM03NES.jpg
284.975	0.508	Blank	Blank	51.519	n/a	3	8	12	n/a	32	n/a	1	n/a	n/a	n/a	n/a	316.249	n/a
285.484	0.513	neutral	Picture	51.005	n/a	3	8	13	n/a	33	11	1	n/a	n/a	n/a	n/a	316.757	AF20NES.jpg
285.998	0.5	Blank	Blank	50.505	n/a	3	8	13	n/a	33	n/a	1	n/a	n/a	n/a	n/a	317.271	n/a
286.528	0.47	neutral	Picture	50.005	n/a	3	8	14	n/a	34	4	1	n/a	n/a	n/a	n/a	317.801	AF05NES.jpg
286.998	0.508	Blank	Blank	49.496	n/a	3	8	14	n/a	34	n/a	1	n/a	n/a	n/a	n/a	318.271	n/a
287.507	0.513	neutral	Picture	48.983	n/a	3	8	15	n/a	35	17	1	n/a	n/a	n/a	n/a	318.78	BF28NES.jpg
288.02	0.5	Blank	Blank	48.483	n/a	3	8	15	n/a	35	n/a	1	n/a	n/a	n/a	n/a	319.293	n/a
288.551	0.47	neutral	Picture	47.982	n/a	3	8	16	n/a	36	13	1	n/a	n/a	n/a	n/a	319.824	BF22NES.jpg
289.02	0.509	Blank	Blank	47.474	n/a	3	8	16	n/a	36	n/a	1	n/a	n/a	n/a	n/a	320.294	n/a
289.529	0.513	neutral	Picture	46.96	n/a	3	8	17	n/a	37	12	1	n/a	n/a	n/a	n/a	320.803	AF21NES.jpg
290.043	0.5	Blank	Blank	46.46	n/a	3	8	17	n/a	37	n/a	1	n/a	n/a	n/a	n/a	321.316	n/a
290.573	0.47	neutral	Picture	45.96	n/a	3	8	18	n/a	38	24	1	n/a	n/a	n/a	n/a	321.847	BM05NES.jpg
291.043	0.509	Blank	Blank	45.451	n/a	3	8	18	n/a	38	n/a	1	n/a	n/a	n/a	n/a	322.316	n/a
291.552	0.513	neutral	Picture	44.937	n/a	3	8	19	n/a	39	29	1	n/a	n/a	n/a	n/a	322.825	AM10NES.jpg
292.065	0.5	Blank	Blank	44.437	n/a	3	8	19	n/a	39	n/a	1	n/a	n/a	n/a	n/a	323.339	n/a
292.596	0.47	neutral	Picture	43.937	n/a	3	8	20	n/a	40	23	1	n/a	n/a	n/a	n/a	323.869	AM04NES.jpg
293.066	0.508	Blank	Blank	43.429	n/a	3	8	20	n/a	40	n/a	1	n/a	n/a	n/a	n/a	324.339	n/a
293.574	10.013	ITI	Fixation+	33.415	n/a	3	n/a	n/a	n/a	n/a	n/a	n/a	n/a	n/a	n/a	n/a	324.848	n/a
303.588	0.513	happy	Picture	32.901	n/a	3	9	1	n/a	41	62	2	n/a	n/a	n/a	n/a	334.861	BM03HAS.jpg
304.102	0.5	Blank	Blank	32.401	n/a	3	9	1	n/a	41	n/a	2	n/a	n/a	n/a	n/a	335.375	n/a
304.632	0.47	happy	Picture	31.901	n/a	3	9	2	n/a	42	52	2	n/a	n/a	n/a	n/a	335.905	AF21HAS.jpg
305.102	0.508	Blank	Blank	31.393	n/a	3	9	2	n/a	42	n/a	2	n/a	n/a	n/a	n/a	336.375	n/a
305.611	0.513	happy	Picture	30.879	n/a	3	9	3	n/a	43	44	2	n/a	n/a	n/a	n/a	336.884	AF05HAS.jpg
306.124	0.5	Blank	Blank	30.379	n/a	3	9	3	n/a	43	n/a	2	n/a	n/a	n/a	n/a	337.397	n/a
306.655	0.47	happy	Picture	29.878	n/a	3	9	4	n/a	44	53	2	n/a	n/a	n/a	n/a	337.928	BF22HAS.jpg
307.125	0.508	Blank	Blank	29.37	n/a	3	9	4	n/a	44	n/a	2	n/a	n/a	n/a	n/a	338.398	n/a
307.633	0.513	happy	Picture	28.856	n/a	3	9	5	n/a	45	54	2	n/a	n/a	n/a	n/a	338.907	AF23HAS.jpg
308.147	0.5	Blank	Blank	28.356	n/a	3	9	5	n/a	45	n/a	2	n/a	n/a	n/a	n/a	339.42	n/a
308.677	0.47	happy	Picture	27.856	n/a	3	9	6	n/a	46	68	2	n/a	n/a	n/a	n/a	339.951	AM09HAS.jpg
309.147	0.509	Blank	Blank	27.347	n/a	3	9	6	n/a	46	n/a	2	n/a	n/a	n/a	n/a	340.42	n/a
309.656	0.513	happy	Picture	26.833	n/a	3	9	7	n/a	47	64	2	n/a	n/a	n/a	n/a	340.929	BM05HAS.jpg
310.169	0.5	Blank	Blank	26.333	n/a	3	9	7	n/a	47	n/a	2	n/a	n/a	n/a	n/a	341.443	n/a
310.7	0.47	happy	Picture	25.833	n/a	3	9	8	n/a	48	59	2	n/a	n/a	n/a	n/a	341.973	AF31HAS.jpg
311.169	0.509	Blank	Blank	25.325	n/a	3	9	8	n/a	48	n/a	2	n/a	n/a	n/a	n/a	342.443	n/a
311.678	0.513	happy	Picture	24.811	n/a	3	9	9	n/a	49	41	2	n/a	n/a	n/a	n/a	342.952	AF01HAS.jpg
312.192	0.5	Blank	Blank	24.311	n/a	3	9	9	n/a	49	n/a	2	n/a	n/a	n/a	n/a	343.465	n/a
312.722	0.47	happy	Picture	23.81	n/a	3	9	10	n/a	50	73	2	n/a	n/a	n/a	n/a	343.996	AM21HAS.jpg
313.192	0.508	Blank	Blank	23.302	n/a	3	9	10	n/a	50	n/a	2	n/a	n/a	n/a	n/a	344.466	n/a
313.701	0.513	happy	Picture	22.788	n/a	3	9	11	n/a	51	65	2	n/a	n/a	n/a	n/a	344.974	BM06HAS.jpg
314.215	0.5	Blank	Blank	22.288	n/a	3	9	11	n/a	51	n/a	2	n/a	n/a	n/a	n/a	345.488	n/a
314.745	0.47	happy	Picture	21.788	n/a	3	9	12	n/a	52	56	2	n/a	n/a	n/a	n/a	346.018	AF26HAS.jpg
315.215	0.508	Blank	Blank	21.279	n/a	3	9	12	n/a	52	n/a	2	n/a	n/a	n/a	n/a	346.488	n/a
315.724	0.513	happy	Picture	20.766	n/a	3	9	13	n/a	53	45	2	n/a	n/a	n/a	n/a	346.997	BF07HAS.jpg
316.237	0.5	Blank	Blank	20.266	n/a	3	9	13	n/a	53	n/a	2	n/a	n/a	n/a	n/a	347.51	n/a
316.768	0.47	happy	Picture	19.765	n/a	3	9	14	n/a	54	78	2	n/a	n/a	n/a	n/a	348.041	BM26HAS.jpg
317.237	0.508	Blank	Blank	19.257	n/a	3	9	14	n/a	54	n/a	2	n/a	n/a	n/a	n/a	348.511	n/a
317.746	0.513	happy	Picture	18.743	n/a	3	9	15	n/a	55	50	2	n/a	n/a	n/a	n/a	349.02	AF18HAS.jpg
318.26	0.5	Blank	Blank	18.243	n/a	3	9	15	n/a	55	n/a	2	n/a	n/a	n/a	n/a	349.533	n/a
318.79	0.47	happy	Picture	17.743	n/a	3	9	16	n/a	56	47	2	n/a	n/a	n/a	n/a	350.064	BF11HAS.jpg
319.26	0.508	Blank	Blank	17.234	n/a	3	9	16	n/a	56	n/a	2	n/a	n/a	n/a	n/a	350.533	n/a
319.769	0.513	happy	Picture	16.72	n/a	3	9	17	n/a	57	77	2	n/a	n/a	n/a	n/a	351.042	BM25HAS.jpg
320.282	0.5	Blank	Blank	16.22	n/a	3	9	17	n/a	57	n/a	2	n/a	n/a	n/a	n/a	351.556	n/a
320.813	0.47	happy	Picture	15.72	n/a	3	9	18	n/a	58	57	2	n/a	n/a	n/a	n/a	352.086	BF28HAS.jpg
321.282	0.509	Blank	Blank	15.212	n/a	3	9	18	n/a	58	n/a	2	n/a	n/a	n/a	n/a	352.556	n/a
321.791	0.513	happy	Picture	14.698	n/a	3	9	19	n/a	59	61	2	n/a	n/a	n/a	n/a	353.065	AM01HAS.jpg
322.305	0.5	Blank	Blank	14.198	n/a	3	9	19	n/a	59	n/a	2	n/a	n/a	n/a	n/a	353.578	n/a
322.836	0.47	happy	Picture	13.697	n/a	3	9	20	n/a	60	79	2	n/a	n/a	n/a	n/a	354.109	BM28HAS.jpg
323.305	0.508	Blank	Blank	13.189	n/a	3	9	20	n/a	60	n/a	2	n/a	n/a	n/a	n/a	354.579	n/a
323.814	10.013	ITI	Fixation+	3.175	n/a	3	n/a	n/a	n/a	n/a	n/a	n/a	n/a	n/a	n/a	n/a	355.087	n/a
337.003	n/a	ConfirmRating	Rate	n/a	3.18	3	n/a	n/a	0	n/a	n/a	n/a	2	Happy	70	52	368.276	n/a
341.28	n/a	ConfirmRating	Rate	n/a	4.275	3	n/a	n/a	1	n/a	n/a	n/a	3	Happy	8	47	372.553	n/a
341.288	10.013	ITI	Fixation+	94.31	n/a	4	n/a	n/a	n/a	n/a	n/a	n/a	n/a	n/a	n/a	n/a	372.561	n/a
351.302	0.513	angry	Picture	93.796	n/a	4	10	1	n/a	61	119	3	n/a	n/a	n/a	n/a	382.575	BM28ANS.jpg
351.815	0.5	Blank	Blank	93.296	n/a	4	10	1	n/a	61	n/a	3	n/a	n/a	n/a	n/a	383.089	n/a
352.346	0.47	angry	Picture	92.795	n/a	4	10	2	n/a	62	100	3	n/a	n/a	n/a	n/a	383.619	AF32ANS.jpg
352.815	0.508	Blank	Blank	92.287	n/a	4	10	2	n/a	62	n/a	3	n/a	n/a	n/a	n/a	384.089	n/a
353.324	0.513	angry	Picture	91.773	n/a	4	10	3	n/a	63	118	3	n/a	n/a	n/a	n/a	384.598	BM26ANS.jpg
353.838	0.5	Blank	Blank	91.273	n/a	4	10	3	n/a	63	n/a	3	n/a	n/a	n/a	n/a	385.111	n/a
354.368	0.47	angry	Picture	90.773	n/a	4	10	4	n/a	64	89	3	n/a	n/a	n/a	n/a	385.642	AF17ANS.jpg
354.838	0.508	Blank	Blank	90.264	n/a	4	10	4	n/a	64	n/a	3	n/a	n/a	n/a	n/a	386.111	n/a
355.347	0.513	angry	Picture	89.75	n/a	4	10	5	n/a	65	116	3	n/a	n/a	n/a	n/a	386.62	BM24ANS.jpg
355.86	0.5	Blank	Blank	89.25	n/a	4	10	5	n/a	65	n/a	3	n/a	n/a	n/a	n/a	387.134	n/a
356.391	0.47	angry	Picture	88.75	n/a	4	10	6	n/a	66	105	3	n/a	n/a	n/a	n/a	387.664	BM06ANS.jpg
356.861	0.508	Blank	Blank	88.242	n/a	4	10	6	n/a	66	n/a	3	n/a	n/a	n/a	n/a	388.134	n/a
357.369	0.513	angry	Picture	87.728	n/a	4	10	7	n/a	67	106	3	n/a	n/a	n/a	n/a	388.643	AM07ANS.jpg
357.883	0.5	Blank	Blank	87.228	n/a	4	10	7	n/a	67	n/a	3	n/a	n/a	n/a	n/a	389.156	n/a
358.413	0.47	angry	Picture	86.727	n/a	4	10	8	n/a	68	94	3	n/a	n/a	n/a	n/a	389.687	AF23ANS.jpg
358.883	0.508	Blank	Blank	86.219	n/a	4	10	8	n/a	68	n/a	3	n/a	n/a	n/a	n/a	390.157	n/a
359.392	0.513	angry	Picture	85.705	n/a	4	10	9	n/a	69	117	3	n/a	n/a	n/a	n/a	390.665	BM25ANS.jpg
359.906	0.5	Blank	Blank	85.205	n/a	4	10	9	n/a	69	n/a	3	n/a	n/a	n/a	n/a	391.179	n/a
360.436	0.47	angry	Picture	84.705	n/a	4	10	10	n/a	70	90	3	n/a	n/a	n/a	n/a	391.709	AF18ANS.jpg
360.906	0.508	Blank	Blank	84.196	n/a	4	10	10	n/a	70	n/a	3	n/a	n/a	n/a	n/a	392.179	n/a
361.415	0.513	angry	Picture	83.683	n/a	4	10	11	n/a	71	83	3	n/a	n/a	n/a	n/a	392.688	BF04ANS.jpg
361.928	0.5	Blank	Blank	83.183	n/a	4	10	11	n/a	71	n/a	3	n/a	n/a	n/a	n/a	393.202	n/a
362.459	0.47	angry	Picture	82.682	n/a	4	10	12	n/a	72	112	3	n/a	n/a	n/a	n/a	393.732	AM14ANS.jpg
362.928	0.508	Blank	Blank	82.174	n/a	4	10	12	n/a	72	n/a	3	n/a	n/a	n/a	n/a	394.202	n/a
363.437	0.513	angry	Picture	81.66	n/a	4	10	13	n/a	73	102	3	n/a	n/a	n/a	n/a	394.711	BM03ANS.jpg
363.951	0.5	Blank	Blank	81.16	n/a	4	10	13	n/a	73	n/a	3	n/a	n/a	n/a	n/a	395.224	n/a
364.481	0.47	angry	Picture	80.66	n/a	4	10	14	n/a	74	95	3	n/a	n/a	n/a	n/a	395.755	AF25ANS.jpg
364.951	0.508	Blank	Blank	80.151	n/a	4	10	14	n/a	74	n/a	3	n/a	n/a	n/a	n/a	396.224	n/a
365.46	0.513	angry	Picture	79.637	n/a	4	10	15	n/a	75	113	3	n/a	n/a	n/a	n/a	396.733	AM21ANS.jpg
365.973	0.5	Blank	Blank	79.137	n/a	4	10	15	n/a	75	n/a	3	n/a	n/a	n/a	n/a	397.247	n/a
366.504	0.469	angry	Picture	78.637	n/a	4	10	16	n/a	76	88	3	n/a	n/a	n/a	n/a	397.777	AF14ANS.jpg
366.973	0.509	Blank	Blank	78.129	n/a	4	10	16	n/a	76	n/a	3	n/a	n/a	n/a	n/a	398.247	n/a
367.483	0.513	angry	Picture	77.615	n/a	4	10	17	n/a	77	93	3	n/a	n/a	n/a	n/a	398.756	BF22ANS.jpg
367.996	0.5	Blank	Blank	77.115	n/a	4	10	17	n/a	77	n/a	3	n/a	n/a	n/a	n/a	399.269	n/a
368.526	0.47	angry	Picture	76.615	n/a	4	10	18	n/a	78	86	3	n/a	n/a	n/a	n/a	399.8	AF09ANS.jpg
368.996	0.508	Blank	Blank	76.106	n/a	4	10	18	n/a	78	n/a	3	n/a	n/a	n/a	n/a	400.27	n/a
369.505	0.513	angry	Picture	75.592	n/a	4	10	19	n/a	79	92	3	n/a	n/a	n/a	n/a	400.779	AF21ANS.jpg
370.019	0.5	Blank	Blank	75.092	n/a	4	10	19	n/a	79	n/a	3	n/a	n/a	n/a	n/a	401.292	n/a
370.549	0.47	angry	Picture	74.592	n/a	4	10	20	n/a	80	84	3	n/a	n/a	n/a	n/a	401.822	AF05ANS.jpg
371.019	0.508	Blank	Blank	74.084	n/a	4	10	20	n/a	80	n/a	3	n/a	n/a	n/a	n/a	402.292	n/a
371.528	10.013	ITI	Fixation+	64.07	n/a	4	n/a	n/a	n/a	n/a	n/a	n/a	n/a	n/a	n/a	n/a	402.801	n/a
381.541	0.513	neutral	Picture	63.556	n/a	4	11	1	n/a	81	4	1	n/a	n/a	n/a	n/a	412.815	AF05NES.jpg
382.055	0.5	Blank	Blank	63.056	n/a	4	11	1	n/a	81	n/a	1	n/a	n/a	n/a	n/a	413.328	n/a
382.585	0.47	neutral	Picture	62.556	n/a	4	11	2	n/a	82	14	1	n/a	n/a	n/a	n/a	413.859	AF23NES.jpg
383.055	0.508	Blank	Blank	62.047	n/a	4	11	2	n/a	82	n/a	1	n/a	n/a	n/a	n/a	414.329	n/a
383.564	0.513	neutral	Picture	61.533	n/a	4	11	3	n/a	83	19	1	n/a	n/a	n/a	n/a	414.837	AF31NES.jpg
384.077	0.5	Blank	Blank	61.033	n/a	4	11	3	n/a	83	n/a	1	n/a	n/a	n/a	n/a	415.351	n/a
384.608	0.47	neutral	Picture	60.533	n/a	4	11	4	n/a	84	8	1	n/a	n/a	n/a	n/a	415.881	AF14NES.jpg
385.077	0.509	Blank	Blank	60.025	n/a	4	11	4	n/a	84	n/a	1	n/a	n/a	n/a	n/a	416.351	n/a
385.586	0.513	neutral	Picture	59.511	n/a	4	11	5	n/a	85	25	1	n/a	n/a	n/a	n/a	416.86	BM06NES.jpg
386.1	0.5	Blank	Blank	59.011	n/a	4	11	5	n/a	85	n/a	1	n/a	n/a	n/a	n/a	417.373	n/a
386.63	0.47	neutral	Picture	58.511	n/a	4	11	6	n/a	86	9	1	n/a	n/a	n/a	n/a	417.904	AF17NES.jpg
387.1	0.509	Blank	Blank	58.002	n/a	4	11	6	n/a	86	n/a	1	n/a	n/a	n/a	n/a	418.373	n/a
387.609	0.513	neutral	Picture	57.488	n/a	4	11	7	n/a	87	2	1	n/a	n/a	n/a	n/a	418.882	AF03NES.jpg
388.123	0.5	Blank	Blank	56.988	n/a	4	11	7	n/a	87	n/a	1	n/a	n/a	n/a	n/a	419.396	n/a
388.653	0.47	neutral	Picture	56.488	n/a	4	11	8	n/a	88	17	1	n/a	n/a	n/a	n/a	419.926	BF28NES.jpg
389.123	0.509	Blank	Blank	55.979	n/a	4	11	8	n/a	88	n/a	1	n/a	n/a	n/a	n/a	420.396	n/a
389.632	0.513	neutral	Picture	55.466	n/a	4	11	9	n/a	89	6	1	n/a	n/a	n/a	n/a	420.905	AF09NES.jpg
390.145	0.5	Blank	Blank	54.966	n/a	4	11	9	n/a	89	n/a	1	n/a	n/a	n/a	n/a	421.418	n/a
390.676	0.47	neutral	Picture	54.465	n/a	4	11	10	n/a	90	12	1	n/a	n/a	n/a	n/a	421.949	AF21NES.jpg
391.145	0.509	Blank	Blank	53.957	n/a	4	11	10	n/a	90	n/a	1	n/a	n/a	n/a	n/a	422.419	n/a
391.654	0.513	neutral	Picture	53.443	n/a	4	11	11	n/a	91	24	1	n/a	n/a	n/a	n/a	422.928	BM05NES.jpg
392.168	0.5	Blank	Blank	52.943	n/a	4	11	11	n/a	91	n/a	1	n/a	n/a	n/a	n/a	423.441	n/a
392.698	0.469	neutral	Picture	52.443	n/a	4	11	12	n/a	92	34	1	n/a	n/a	n/a	n/a	423.972	AM22NES.jpg
393.168	0.509	Blank	Blank	51.934	n/a	4	11	12	n/a	92	n/a	1	n/a	n/a	n/a	n/a	424.441	n/a
393.677	0.513	neutral	Picture	51.42	n/a	4	11	13	n/a	93	23	1	n/a	n/a	n/a	n/a	424.95	AM04NES.jpg
394.19	0.5	Blank	Blank	50.92	n/a	4	11	13	n/a	93	n/a	1	n/a	n/a	n/a	n/a	425.464	n/a
394.721	0.47	neutral	Picture	50.42	n/a	4	11	14	n/a	94	15	1	n/a	n/a	n/a	n/a	425.994	AF25NES.jpg
395.191	0.508	Blank	Blank	49.912	n/a	4	11	14	n/a	94	n/a	1	n/a	n/a	n/a	n/a	426.464	n/a
395.699	0.514	neutral	Picture	49.398	n/a	4	11	15	n/a	95	37	1	n/a	n/a	n/a	n/a	426.973	BM25NES.jpg
396.213	0.5	Blank	Blank	48.898	n/a	4	11	15	n/a	95	n/a	1	n/a	n/a	n/a	n/a	427.486	n/a
396.744	0.47	neutral	Picture	48.397	n/a	4	11	16	n/a	96	32	1	n/a	n/a	n/a	n/a	428.017	AM14NES.jpg
397.213	0.508	Blank	Blank	47.889	n/a	4	11	16	n/a	96	n/a	1	n/a	n/a	n/a	n/a	428.487	n/a
397.722	0.514	neutral	Picture	47.375	n/a	4	11	17	n/a	97	3	1	n/a	n/a	n/a	n/a	428.995	BF04NES.jpg
398.236	0.5	Blank	Blank	46.875	n/a	4	11	17	n/a	97	n/a	1	n/a	n/a	n/a	n/a	429.509	n/a
398.766	0.47	neutral	Picture	46.375	n/a	4	11	18	n/a	98	16	1	n/a	n/a	n/a	n/a	430.039	AF26NES.jpg
399.236	0.508	Blank	Blank	45.866	n/a	4	11	18	n/a	98	n/a	1	n/a	n/a	n/a	n/a	430.509	n/a
399.745	0.514	neutral	Picture	45.353	n/a	4	11	19	n/a	99	27	1	n/a	n/a	n/a	n/a	431.018	BM08NES.jpg
400.258	0.5	Blank	Blank	44.852	n/a	4	11	19	n/a	99	n/a	1	n/a	n/a	n/a	n/a	431.532	n/a
400.789	0.47	neutral	Picture	44.352	n/a	4	11	20	n/a	100	28	1	n/a	n/a	n/a	n/a	432.062	AM09NES.jpg
401.259	0.508	Blank	Blank	43.844	n/a	4	11	20	n/a	100	n/a	1	n/a	n/a	n/a	n/a	432.532	n/a
401.767	10.013	ITI	Fixation+	33.83	n/a	4	n/a	n/a	n/a	n/a	n/a	n/a	n/a	n/a	n/a	n/a	433.041	n/a
411.781	0.513	angry	Picture	33.316	n/a	4	12	1	n/a	101	81	3	n/a	n/a	n/a	n/a	443.054	AF01ANS.jpg
412.294	0.5	Blank	Blank	32.816	n/a	4	12	1	n/a	101	n/a	3	n/a	n/a	n/a	n/a	443.568	n/a
412.825	0.47	angry	Picture	32.316	n/a	4	12	2	n/a	102	120	3	n/a	n/a	n/a	n/a	444.098	AM35ANS.jpg
413.295	0.508	Blank	Blank	31.808	n/a	4	12	2	n/a	102	n/a	3	n/a	n/a	n/a	n/a	444.568	n/a
413.803	0.513	angry	Picture	31.294	n/a	4	12	3	n/a	103	114	3	n/a	n/a	n/a	n/a	445.077	AM22ANS.jpg
414.317	0.5	Blank	Blank	30.794	n/a	4	12	3	n/a	103	n/a	3	n/a	n/a	n/a	n/a	445.59	n/a
414.848	0.47	angry	Picture	30.293	n/a	4	12	4	n/a	104	109	3	n/a	n/a	n/a	n/a	446.121	AM10ANS.jpg
415.317	0.508	Blank	Blank	29.785	n/a	4	12	4	n/a	104	n/a	3	n/a	n/a	n/a	n/a	446.591	n/a
415.826	0.513	angry	Picture	29.271	n/a	4	12	5	n/a	105	96	3	n/a	n/a	n/a	n/a	447.099	AF26ANS.jpg
416.34	0.5	Blank	Blank	28.771	n/a	4	12	5	n/a	105	n/a	3	n/a	n/a	n/a	n/a	447.613	n/a
416.87	0.47	angry	Picture	28.271	n/a	4	12	6	n/a	106	82	3	n/a	n/a	n/a	n/a	448.144	AF03ANS.jpg
417.34	0.508	Blank	Blank	27.762	n/a	4	12	6	n/a	106	n/a	3	n/a	n/a	n/a	n/a	448.613	n/a
417.849	0.513	angry	Picture	27.249	n/a	4	12	7	n/a	107	97	3	n/a	n/a	n/a	n/a	449.122	BF28ANS.jpg
418.362	0.5	Blank	Blank	26.749	n/a	4	12	7	n/a	107	n/a	3	n/a	n/a	n/a	n/a	449.635	n/a
418.893	0.47	angry	Picture	26.248	n/a	4	12	8	n/a	108	115	3	n/a	n/a	n/a	n/a	450.166	AM23ANS.jpg
419.362	0.508	Blank	Blank	25.74	n/a	4	12	8	n/a	108	n/a	3	n/a	n/a	n/a	n/a	450.636	n/a
419.871	0.514	angry	Picture	25.226	n/a	4	12	9	n/a	109	91	3	n/a	n/a	n/a	n/a	451.145	AF20ANS.jpg
420.385	0.5	Blank	Blank	24.726	n/a	4	12	9	n/a	109	n/a	3	n/a	n/a	n/a	n/a	451.658	n/a
420.915	0.47	angry	Picture	24.226	n/a	4	12	10	n/a	110	87	3	n/a	n/a	n/a	n/a	452.189	BF11ANS.jpg
421.385	0.508	Blank	Blank	23.717	n/a	4	12	10	n/a	110	n/a	3	n/a	n/a	n/a	n/a	452.659	n/a
421.894	0.514	angry	Picture	23.203	n/a	4	12	11	n/a	111	85	3	n/a	n/a	n/a	n/a	453.167	BF07ANS.jpg
422.407	0.5	Blank	Blank	22.703	n/a	4	12	11	n/a	111	n/a	3	n/a	n/a	n/a	n/a	453.681	n/a
422.938	0.47	angry	Picture	22.203	n/a	4	12	12	n/a	112	110	3	n/a	n/a	n/a	n/a	454.211	AM11ANS.jpg
423.408	0.508	Blank	Blank	21.695	n/a	4	12	12	n/a	112	n/a	3	n/a	n/a	n/a	n/a	454.681	n/a
423.917	0.513	angry	Picture	21.181	n/a	4	12	13	n/a	113	111	3	n/a	n/a	n/a	n/a	455.19	BM12ANS.jpg
424.43	0.5	Blank	Blank	20.681	n/a	4	12	13	n/a	113	n/a	3	n/a	n/a	n/a	n/a	455.703	n/a
424.961	0.47	angry	Picture	20.18	n/a	4	12	14	n/a	114	103	3	n/a	n/a	n/a	n/a	456.234	AM04ANS.jpg
425.43	0.508	Blank	Blank	19.672	n/a	4	12	14	n/a	114	n/a	3	n/a	n/a	n/a	n/a	456.704	n/a
425.939	0.514	angry	Picture	19.158	n/a	4	12	15	n/a	115	101	3	n/a	n/a	n/a	n/a	457.212	AM01ANS.jpg
426.453	0.5	Blank	Blank	18.658	n/a	4	12	15	n/a	115	n/a	3	n/a	n/a	n/a	n/a	457.726	n/a
426.983	0.47	angry	Picture	18.158	n/a	4	12	16	n/a	116	104	3	n/a	n/a	n/a	n/a	458.257	BM05ANS.jpg
427.453	0.508	Blank	Blank	17.649	n/a	4	12	16	n/a	116	n/a	3	n/a	n/a	n/a	n/a	458.726	n/a
427.962	0.513	angry	Picture	17.135	n/a	4	12	17	n/a	117	107	3	n/a	n/a	n/a	n/a	459.235	BM08ANS.jpg
428.475	0.5	Blank	Blank	16.635	n/a	4	12	17	n/a	117	n/a	3	n/a	n/a	n/a	n/a	459.749	n/a
429.006	0.47	angry	Picture	16.135	n/a	4	12	18	n/a	118	98	3	n/a	n/a	n/a	n/a	460.279	BF29ANS.jpg
429.476	0.508	Blank	Blank	15.627	n/a	4	12	18	n/a	118	n/a	3	n/a	n/a	n/a	n/a	460.749	n/a
429.984	0.513	angry	Picture	15.113	n/a	4	12	19	n/a	119	99	3	n/a	n/a	n/a	n/a	461.258	AF31ANS.jpg
430.498	0.5	Blank	Blank	14.613	n/a	4	12	19	n/a	119	n/a	3	n/a	n/a	n/a	n/a	461.771	n/a
431.028	0.47	angry	Picture	14.113	n/a	4	12	20	n/a	120	108	3	n/a	n/a	n/a	n/a	462.302	AM09ANS.jpg
431.498	0.508	Blank	Blank	13.604	n/a	4	12	20	n/a	120	n/a	3	n/a	n/a	n/a	n/a	462.772	n/a
432.007	10.013	ITI	Fixation+	3.591	n/a	4	n/a	n/a	n/a	n/a	n/a	n/a	n/a	n/a	n/a	n/a	463.28	n/a
445.611	n/a	ConfirmRating	Rate	n/a	3.611	4	n/a	n/a	0	n/a	n/a	n/a	2	Angry	64	51	476.884	n/a
448.636	n/a	ConfirmRating	Rate	n/a	3.014	4	n/a	n/a	1	n/a	n/a	n/a	3	Angry	10	46	479.909	n/a
