onset	duration	trial_type	event_type	time_until_response	response_time	trial_number	block_num_within_trial	image_seq_num_within_block	question_seq_num_within_block	image_seq_num	picture_number	condition	question_type	block_type	rating	rating_computed	onset_uncorrected	KDEV_imagefile
0.008	10.014	ITI	Fixation+	100.988	n/a	1	n/a	n/a	n/a	n/a	n/a	n/a	n/a	n/a	n/a	n/a	29.936	n/a
10.038	0.497	happy	Picture	100.474	n/a	1	1	1	n/a	1	46	2	n/a	n/a	n/a	n/a	39.966	AF09HAS.jpg
10.535	0.514	Blank	Blank	99.96	n/a	1	1	1	n/a	1	n/a	2	n/a	n/a	n/a	n/a	40.463	n/a
11.066	0.497	happy	Picture	99.446	n/a	1	1	2	n/a	2	69	2	n/a	n/a	n/a	n/a	40.994	AM10HAS.jpg
11.563	0.514	Blank	Blank	98.932	n/a	1	1	2	n/a	2	n/a	2	n/a	n/a	n/a	n/a	41.491	n/a
12.094	0.497	happy	Picture	98.418	n/a	1	1	3	n/a	3	71	2	n/a	n/a	n/a	n/a	42.022	BM12HAS.jpg
12.591	0.514	Blank	Blank	97.904	n/a	1	1	3	n/a	3	n/a	2	n/a	n/a	n/a	n/a	42.519	n/a
13.122	0.497	happy	Picture	97.39	n/a	1	1	4	n/a	4	51	2	n/a	n/a	n/a	n/a	43.05	AF20HAS.jpg
13.619	0.514	Blank	Blank	96.876	n/a	1	1	4	n/a	4	n/a	2	n/a	n/a	n/a	n/a	43.547	n/a
14.149	0.497	happy	Picture	96.362	n/a	1	1	5	n/a	5	67	2	n/a	n/a	n/a	n/a	44.078	BM08HAS.jpg
14.647	0.514	Blank	Blank	95.848	n/a	1	1	5	n/a	5	n/a	2	n/a	n/a	n/a	n/a	44.575	n/a
15.177	0.497	happy	Picture	95.334	n/a	1	1	6	n/a	6	60	2	n/a	n/a	n/a	n/a	45.105	AF32HAS.jpg
15.675	0.514	Blank	Blank	94.82	n/a	1	1	6	n/a	6	n/a	2	n/a	n/a	n/a	n/a	45.603	n/a
16.205	0.497	happy	Picture	94.306	n/a	1	1	7	n/a	7	42	2	n/a	n/a	n/a	n/a	46.133	AF03HAS.jpg
16.702	0.514	Blank	Blank	93.792	n/a	1	1	7	n/a	7	n/a	2	n/a	n/a	n/a	n/a	46.631	n/a
17.233	0.497	happy	Picture	93.278	n/a	1	1	8	n/a	8	55	2	n/a	n/a	n/a	n/a	47.161	AF25HAS.jpg
17.73	0.514	Blank	Blank	92.764	n/a	1	1	8	n/a	8	n/a	2	n/a	n/a	n/a	n/a	47.659	n/a
18.261	0.497	happy	Picture	92.251	n/a	1	1	9	n/a	9	72	2	n/a	n/a	n/a	n/a	48.189	AM14HAS.jpg
18.758	0.514	Blank	Blank	91.737	n/a	1	1	9	n/a	9	n/a	2	n/a	n/a	n/a	n/a	48.686	n/a
19.289	0.497	happy	Picture	91.223	n/a	1	1	10	n/a	10	63	2	n/a	n/a	n/a	n/a	49.217	AM04HAS.jpg
19.786	0.514	Blank	Blank	90.709	n/a	1	1	10	n/a	10	n/a	2	n/a	n/a	n/a	n/a	49.714	n/a
20.317	0.497	happy	Picture	90.195	n/a	1	1	11	n/a	11	58	2	n/a	n/a	n/a	n/a	50.245	BF29HAS.jpg
20.814	0.514	Blank	Blank	89.681	n/a	1	1	11	n/a	11	n/a	2	n/a	n/a	n/a	n/a	50.742	n/a
21.345	0.497	happy	Picture	89.167	n/a	1	1	12	n/a	12	48	2	n/a	n/a	n/a	n/a	51.273	AF14HAS.jpg
21.842	0.514	Blank	Blank	88.653	n/a	1	1	12	n/a	12	n/a	2	n/a	n/a	n/a	n/a	51.77	n/a
22.372	0.497	happy	Picture	88.139	n/a	1	1	13	n/a	13	66	2	n/a	n/a	n/a	n/a	52.301	BM07HAS.jpg
22.87	0.514	Blank	Blank	87.625	n/a	1	1	13	n/a	13	n/a	2	n/a	n/a	n/a	n/a	52.798	n/a
23.4	0.497	happy	Picture	87.111	n/a	1	1	14	n/a	14	70	2	n/a	n/a	n/a	n/a	53.328	BM11HAS.jpg
23.898	0.514	Blank	Blank	86.597	n/a	1	1	14	n/a	14	n/a	2	n/a	n/a	n/a	n/a	53.826	n/a
24.428	0.497	happy	Picture	86.083	n/a	1	1	15	n/a	15	43	2	n/a	n/a	n/a	n/a	54.356	BF04HAS.jpg
24.926	0.514	Blank	Blank	85.569	n/a	1	1	15	n/a	15	n/a	2	n/a	n/a	n/a	n/a	54.854	n/a
25.456	0.497	happy	Picture	85.055	n/a	1	1	16	n/a	16	49	2	n/a	n/a	n/a	n/a	55.384	AF17HAS.jpg
25.953	0.514	Blank	Blank	84.541	n/a	1	1	16	n/a	16	n/a	2	n/a	n/a	n/a	n/a	55.882	n/a
26.484	0.497	happy	Picture	84.027	n/a	1	1	17	n/a	17	75	2	n/a	n/a	n/a	n/a	56.412	AM23HAS.jpg
26.981	0.514	Blank	Blank	83.514	n/a	1	1	17	n/a	17	n/a	2	n/a	n/a	n/a	n/a	56.91	n/a
27.512	0.497	happy	Picture	83.0	n/a	1	1	18	n/a	18	80	2	n/a	n/a	n/a	n/a	57.44	BM35HAS.jpg
28.009	0.514	Blank	Blank	82.486	n/a	1	1	18	n/a	18	n/a	2	n/a	n/a	n/a	n/a	57.937	n/a
28.54	0.497	happy	Picture	81.972	n/a	1	1	19	n/a	19	76	2	n/a	n/a	n/a	n/a	58.468	BM24HAS.jpg
29.037	0.514	Blank	Blank	81.458	n/a	1	1	19	n/a	19	n/a	2	n/a	n/a	n/a	n/a	58.965	n/a
29.568	0.497	happy	Picture	80.944	n/a	1	1	20	n/a	20	74	2	n/a	n/a	n/a	n/a	59.496	AM22HAS.jpg
30.065	0.514	Blank	Blank	80.43	n/a	1	1	20	n/a	20	n/a	2	n/a	n/a	n/a	n/a	59.993	n/a
30.595	10.014	ITI	Fixation+	70.4	n/a	1	n/a	n/a	n/a	n/a	n/a	n/a	n/a	n/a	n/a	n/a	60.524	n/a
40.626	0.497	neutral	Picture	69.886	n/a	1	2	1	n/a	21	33	1	n/a	n/a	n/a	n/a	70.554	AM21NES.jpg
41.123	0.514	Blank	Blank	69.372	n/a	1	2	1	n/a	21	n/a	1	n/a	n/a	n/a	n/a	71.051	n/a
41.653	0.497	neutral	Picture	68.858	n/a	1	2	2	n/a	22	39	1	n/a	n/a	n/a	n/a	71.582	AM28NES.jpg
42.151	0.514	Blank	Blank	68.344	n/a	1	2	2	n/a	22	n/a	1	n/a	n/a	n/a	n/a	72.079	n/a
42.681	0.497	neutral	Picture	67.83	n/a	1	2	3	n/a	23	25	1	n/a	n/a	n/a	n/a	72.61	BM06NES.jpg
43.179	0.514	Blank	Blank	67.316	n/a	1	2	3	n/a	23	n/a	1	n/a	n/a	n/a	n/a	73.107	n/a
43.709	0.497	neutral	Picture	66.802	n/a	1	2	4	n/a	24	5	1	n/a	n/a	n/a	n/a	73.637	BF07NES.jpg
44.207	0.514	Blank	Blank	66.288	n/a	1	2	4	n/a	24	n/a	1	n/a	n/a	n/a	n/a	74.135	n/a
44.737	0.497	neutral	Picture	65.774	n/a	1	2	5	n/a	25	10	1	n/a	n/a	n/a	n/a	74.665	AF18NES.jpg
45.234	0.514	Blank	Blank	65.26	n/a	1	2	5	n/a	25	n/a	1	n/a	n/a	n/a	n/a	75.163	n/a
45.765	0.497	neutral	Picture	64.746	n/a	1	2	6	n/a	26	34	1	n/a	n/a	n/a	n/a	75.693	AM22NES.jpg
46.262	0.514	Blank	Blank	64.232	n/a	1	2	6	n/a	26	n/a	1	n/a	n/a	n/a	n/a	76.191	n/a
46.793	0.497	neutral	Picture	63.718	n/a	1	2	7	n/a	27	36	1	n/a	n/a	n/a	n/a	76.721	BM24NES.jpg
47.29	0.514	Blank	Blank	63.205	n/a	1	2	7	n/a	27	n/a	1	n/a	n/a	n/a	n/a	77.218	n/a
47.821	0.497	neutral	Picture	62.691	n/a	1	2	8	n/a	28	14	1	n/a	n/a	n/a	n/a	77.749	AF23NES.jpg
48.318	0.514	Blank	Blank	62.177	n/a	1	2	8	n/a	28	n/a	1	n/a	n/a	n/a	n/a	78.246	n/a
48.849	0.497	neutral	Picture	61.663	n/a	1	2	9	n/a	29	9	1	n/a	n/a	n/a	n/a	78.777	AF17NES.jpg
49.346	0.514	Blank	Blank	61.149	n/a	1	2	9	n/a	29	n/a	1	n/a	n/a	n/a	n/a	79.274	n/a
49.876	0.497	neutral	Picture	60.635	n/a	1	2	10	n/a	30	19	1	n/a	n/a	n/a	n/a	79.805	AF31NES.jpg
50.374	0.514	Blank	Blank	60.121	n/a	1	2	10	n/a	30	n/a	1	n/a	n/a	n/a	n/a	80.302	n/a
50.904	0.497	neutral	Picture	59.607	n/a	1	2	11	n/a	31	15	1	n/a	n/a	n/a	n/a	80.833	AF25NES.jpg
51.402	0.514	Blank	Blank	59.093	n/a	1	2	11	n/a	31	n/a	1	n/a	n/a	n/a	n/a	81.33	n/a
51.932	0.497	neutral	Picture	58.579	n/a	1	2	12	n/a	32	22	1	n/a	n/a	n/a	n/a	81.861	BM03NES.jpg
52.43	0.514	Blank	Blank	58.065	n/a	1	2	12	n/a	32	n/a	1	n/a	n/a	n/a	n/a	82.358	n/a
52.96	0.497	neutral	Picture	57.551	n/a	1	2	13	n/a	33	11	1	n/a	n/a	n/a	n/a	82.888	AF20NES.jpg
53.457	0.514	Blank	Blank	57.037	n/a	1	2	13	n/a	33	n/a	1	n/a	n/a	n/a	n/a	83.386	n/a
53.988	0.497	neutral	Picture	56.523	n/a	1	2	14	n/a	34	4	1	n/a	n/a	n/a	n/a	83.916	AF05NES.jpg
54.485	0.514	Blank	Blank	56.009	n/a	1	2	14	n/a	34	n/a	1	n/a	n/a	n/a	n/a	84.414	n/a
55.016	0.497	neutral	Picture	55.495	n/a	1	2	15	n/a	35	17	1	n/a	n/a	n/a	n/a	84.944	BF28NES.jpg
55.513	0.514	Blank	Blank	54.982	n/a	1	2	15	n/a	35	n/a	1	n/a	n/a	n/a	n/a	85.442	n/a
56.044	0.497	neutral	Picture	54.468	n/a	1	2	16	n/a	36	13	1	n/a	n/a	n/a	n/a	85.972	BF22NES.jpg
56.541	0.514	Blank	Blank	53.954	n/a	1	2	16	n/a	36	n/a	1	n/a	n/a	n/a	n/a	86.469	n/a
57.072	0.497	neutral	Picture	53.44	n/a	1	2	17	n/a	37	12	1	n/a	n/a	n/a	n/a	87.0	AF21NES.jpg
57.569	0.514	Blank	Blank	52.926	n/a	1	2	17	n/a	37	n/a	1	n/a	n/a	n/a	n/a	87.497	n/a
58.1	0.497	neutral	Picture	52.412	n/a	1	2	18	n/a	38	24	1	n/a	n/a	n/a	n/a	88.028	BM05NES.jpg
58.597	0.514	Blank	Blank	51.898	n/a	1	2	18	n/a	38	n/a	1	n/a	n/a	n/a	n/a	88.525	n/a
59.127	0.497	neutral	Picture	51.384	n/a	1	2	19	n/a	39	29	1	n/a	n/a	n/a	n/a	89.056	AM10NES.jpg
59.625	0.514	Blank	Blank	50.87	n/a	1	2	19	n/a	39	n/a	1	n/a	n/a	n/a	n/a	89.553	n/a
60.155	0.497	neutral	Picture	50.356	n/a	1	2	20	n/a	40	23	1	n/a	n/a	n/a	n/a	90.084	AM04NES.jpg
60.653	0.514	Blank	Blank	49.842	n/a	1	2	20	n/a	40	n/a	1	n/a	n/a	n/a	n/a	90.581	n/a
61.183	10.014	ITI	Fixation+	39.812	n/a	1	n/a	n/a	n/a	n/a	n/a	n/a	n/a	n/a	n/a	n/a	91.111	n/a
71.213	0.497	happy	Picture	39.298	n/a	1	3	1	n/a	41	62	2	n/a	n/a	n/a	n/a	101.142	BM03HAS.jpg
71.711	0.514	Blank	Blank	38.784	n/a	1	3	1	n/a	41	n/a	2	n/a	n/a	n/a	n/a	101.639	n/a
72.241	0.497	happy	Picture	38.27	n/a	1	3	2	n/a	42	52	2	n/a	n/a	n/a	n/a	102.169	AF21HAS.jpg
72.739	0.514	Blank	Blank	37.756	n/a	1	3	2	n/a	42	n/a	2	n/a	n/a	n/a	n/a	102.667	n/a
73.269	0.497	happy	Picture	37.242	n/a	1	3	3	n/a	43	44	2	n/a	n/a	n/a	n/a	103.197	AF05HAS.jpg
73.766	0.514	Blank	Blank	36.728	n/a	1	3	3	n/a	43	n/a	2	n/a	n/a	n/a	n/a	103.695	n/a
74.297	0.497	happy	Picture	36.214	n/a	1	3	4	n/a	44	53	2	n/a	n/a	n/a	n/a	104.225	BF22HAS.jpg
74.794	0.514	Blank	Blank	35.7	n/a	1	3	4	n/a	44	n/a	2	n/a	n/a	n/a	n/a	104.723	n/a
75.325	0.497	happy	Picture	35.186	n/a	1	3	5	n/a	45	54	2	n/a	n/a	n/a	n/a	105.253	AF23HAS.jpg
75.822	0.514	Blank	Blank	34.672	n/a	1	3	5	n/a	45	n/a	2	n/a	n/a	n/a	n/a	105.751	n/a
76.353	0.497	happy	Picture	34.159	n/a	1	3	6	n/a	46	68	2	n/a	n/a	n/a	n/a	106.281	AM09HAS.jpg
76.85	0.514	Blank	Blank	33.645	n/a	1	3	6	n/a	46	n/a	2	n/a	n/a	n/a	n/a	106.778	n/a
77.381	0.497	happy	Picture	33.131	n/a	1	3	7	n/a	47	64	2	n/a	n/a	n/a	n/a	107.309	BM05HAS.jpg
77.878	0.514	Blank	Blank	32.617	n/a	1	3	7	n/a	47	n/a	2	n/a	n/a	n/a	n/a	107.806	n/a
78.409	0.497	happy	Picture	32.103	n/a	1	3	8	n/a	48	59	2	n/a	n/a	n/a	n/a	108.337	AF31HAS.jpg
78.906	0.514	Blank	Blank	31.589	n/a	1	3	8	n/a	48	n/a	2	n/a	n/a	n/a	n/a	108.834	n/a
79.436	0.497	happy	Picture	31.075	n/a	1	3	9	n/a	49	41	2	n/a	n/a	n/a	n/a	109.365	AF01HAS.jpg
79.934	0.514	Blank	Blank	30.561	n/a	1	3	9	n/a	49	n/a	2	n/a	n/a	n/a	n/a	109.862	n/a
80.464	0.497	happy	Picture	30.047	n/a	1	3	10	n/a	50	73	2	n/a	n/a	n/a	n/a	110.392	AM21HAS.jpg
80.962	0.514	Blank	Blank	29.533	n/a	1	3	10	n/a	50	n/a	2	n/a	n/a	n/a	n/a	110.89	n/a
81.492	0.497	happy	Picture	29.019	n/a	1	3	11	n/a	51	65	2	n/a	n/a	n/a	n/a	111.42	BM06HAS.jpg
81.99	0.514	Blank	Blank	28.505	n/a	1	3	11	n/a	51	n/a	2	n/a	n/a	n/a	n/a	111.918	n/a
82.52	0.497	happy	Picture	27.991	n/a	1	3	12	n/a	52	56	2	n/a	n/a	n/a	n/a	112.448	AF26HAS.jpg
83.017	0.514	Blank	Blank	27.477	n/a	1	3	12	n/a	52	n/a	2	n/a	n/a	n/a	n/a	112.946	n/a
83.548	0.497	happy	Picture	26.963	n/a	1	3	13	n/a	53	45	2	n/a	n/a	n/a	n/a	113.476	BF07HAS.jpg
84.045	0.514	Blank	Blank	26.449	n/a	1	3	13	n/a	53	n/a	2	n/a	n/a	n/a	n/a	113.974	n/a
84.576	0.497	happy	Picture	25.936	n/a	1	3	14	n/a	54	78	2	n/a	n/a	n/a	n/a	114.504	BM26HAS.jpg
85.073	0.514	Blank	Blank	25.422	n/a	1	3	14	n/a	54	n/a	2	n/a	n/a	n/a	n/a	115.001	n/a
85.604	0.497	happy	Picture	24.908	n/a	1	3	15	n/a	55	50	2	n/a	n/a	n/a	n/a	115.532	AF18HAS.jpg
86.101	0.514	Blank	Blank	24.394	n/a	1	3	15	n/a	55	n/a	2	n/a	n/a	n/a	n/a	116.029	n/a
86.632	0.497	happy	Picture	23.88	n/a	1	3	16	n/a	56	47	2	n/a	n/a	n/a	n/a	116.56	BF11HAS.jpg
87.129	0.514	Blank	Blank	23.366	n/a	1	3	16	n/a	56	n/a	2	n/a	n/a	n/a	n/a	117.057	n/a
87.659	0.497	happy	Picture	22.852	n/a	1	3	17	n/a	57	77	2	n/a	n/a	n/a	n/a	117.588	BM25HAS.jpg
88.157	0.514	Blank	Blank	22.338	n/a	1	3	17	n/a	57	n/a	2	n/a	n/a	n/a	n/a	118.085	n/a
88.687	0.497	happy	Picture	21.824	n/a	1	3	18	n/a	58	57	2	n/a	n/a	n/a	n/a	118.616	BF28HAS.jpg
89.185	0.514	Blank	Blank	21.31	n/a	1	3	18	n/a	58	n/a	2	n/a	n/a	n/a	n/a	119.113	n/a
89.715	0.497	happy	Picture	20.796	n/a	1	3	19	n/a	59	61	2	n/a	n/a	n/a	n/a	119.644	AM01HAS.jpg
90.213	0.514	Blank	Blank	20.282	n/a	1	3	19	n/a	59	n/a	2	n/a	n/a	n/a	n/a	120.141	n/a
90.743	0.497	happy	Picture	19.768	n/a	1	3	20	n/a	60	79	2	n/a	n/a	n/a	n/a	120.671	BM28HAS.jpg
91.24	0.514	Blank	Blank	19.254	n/a	1	3	20	n/a	60	n/a	2	n/a	n/a	n/a	n/a	121.169	n/a
91.771	10.014	ITI	Fixation+	9.224	n/a	1	n/a	n/a	n/a	n/a	n/a	n/a	n/a	n/a	n/a	n/a	121.699	n/a
111.009	n/a	ConfirmRating	Rate	n/a	9.201	1	n/a	n/a	0	n/a	n/a	n/a	2	Happy	19	49	140.937	n/a
118.561	n/a	ConfirmRating	Rate	n/a	7.527	1	n/a	n/a	1	n/a	n/a	n/a	3	Happy	62	51	148.489	n/a
118.579	10.014	ITI	Fixation+	98.171	n/a	2	n/a	n/a	n/a	n/a	n/a	n/a	n/a	n/a	n/a	n/a	148.507	n/a
128.609	0.497	angry	Picture	97.657	n/a	2	4	1	n/a	61	119	3	n/a	n/a	n/a	n/a	158.537	BM28ANS.jpg
129.106	0.514	Blank	Blank	97.143	n/a	2	4	1	n/a	61	n/a	3	n/a	n/a	n/a	n/a	159.035	n/a
129.637	0.497	angry	Picture	96.629	n/a	2	4	2	n/a	62	100	3	n/a	n/a	n/a	n/a	159.565	AF32ANS.jpg
130.134	0.514	Blank	Blank	96.115	n/a	2	4	2	n/a	62	n/a	3	n/a	n/a	n/a	n/a	160.062	n/a
130.665	0.497	angry	Picture	95.602	n/a	2	4	3	n/a	63	118	3	n/a	n/a	n/a	n/a	160.593	BM26ANS.jpg
131.162	0.514	Blank	Blank	95.087	n/a	2	4	3	n/a	63	n/a	3	n/a	n/a	n/a	n/a	161.09	n/a
131.693	0.497	angry	Picture	94.574	n/a	2	4	4	n/a	64	89	3	n/a	n/a	n/a	n/a	161.621	AF17ANS.jpg
132.19	0.514	Blank	Blank	94.06	n/a	2	4	4	n/a	64	n/a	3	n/a	n/a	n/a	n/a	162.118	n/a
132.72	0.497	angry	Picture	93.546	n/a	2	4	5	n/a	65	116	3	n/a	n/a	n/a	n/a	162.649	BM24ANS.jpg
133.218	0.514	Blank	Blank	93.032	n/a	2	4	5	n/a	65	n/a	3	n/a	n/a	n/a	n/a	163.146	n/a
133.748	0.497	angry	Picture	92.518	n/a	2	4	6	n/a	66	105	3	n/a	n/a	n/a	n/a	163.677	BM06ANS.jpg
134.246	0.514	Blank	Blank	92.004	n/a	2	4	6	n/a	66	n/a	3	n/a	n/a	n/a	n/a	164.174	n/a
134.776	0.497	angry	Picture	91.49	n/a	2	4	7	n/a	67	106	3	n/a	n/a	n/a	n/a	164.704	AM07ANS.jpg
135.274	0.514	Blank	Blank	90.976	n/a	2	4	7	n/a	67	n/a	3	n/a	n/a	n/a	n/a	165.202	n/a
135.804	0.497	angry	Picture	90.462	n/a	2	4	8	n/a	68	94	3	n/a	n/a	n/a	n/a	165.732	AF23ANS.jpg
136.302	0.514	Blank	Blank	89.948	n/a	2	4	8	n/a	68	n/a	3	n/a	n/a	n/a	n/a	166.23	n/a
136.832	0.497	angry	Picture	89.434	n/a	2	4	9	n/a	69	117	3	n/a	n/a	n/a	n/a	166.76	BM25ANS.jpg
137.329	0.514	Blank	Blank	88.92	n/a	2	4	9	n/a	69	n/a	3	n/a	n/a	n/a	n/a	167.258	n/a
137.86	0.497	angry	Picture	88.406	n/a	2	4	10	n/a	70	90	3	n/a	n/a	n/a	n/a	167.788	AF18ANS.jpg
138.357	0.514	Blank	Blank	87.892	n/a	2	4	10	n/a	70	n/a	3	n/a	n/a	n/a	n/a	168.286	n/a
138.888	0.497	angry	Picture	87.378	n/a	2	4	11	n/a	71	83	3	n/a	n/a	n/a	n/a	168.816	BF04ANS.jpg
139.385	0.514	Blank	Blank	86.864	n/a	2	4	11	n/a	71	n/a	3	n/a	n/a	n/a	n/a	169.313	n/a
139.916	0.497	angry	Picture	86.351	n/a	2	4	12	n/a	72	112	3	n/a	n/a	n/a	n/a	169.844	AM14ANS.jpg
140.413	0.514	Blank	Blank	85.837	n/a	2	4	12	n/a	72	n/a	3	n/a	n/a	n/a	n/a	170.341	n/a
140.944	0.497	angry	Picture	85.323	n/a	2	4	13	n/a	73	102	3	n/a	n/a	n/a	n/a	170.872	BM03ANS.jpg
141.441	0.514	Blank	Blank	84.809	n/a	2	4	13	n/a	73	n/a	3	n/a	n/a	n/a	n/a	171.369	n/a
141.971	0.497	angry	Picture	84.295	n/a	2	4	14	n/a	74	95	3	n/a	n/a	n/a	n/a	171.9	AF25ANS.jpg
142.469	0.514	Blank	Blank	83.781	n/a	2	4	14	n/a	74	n/a	3	n/a	n/a	n/a	n/a	172.397	n/a
142.999	0.497	angry	Picture	83.267	n/a	2	4	15	n/a	75	113	3	n/a	n/a	n/a	n/a	172.928	AM21ANS.jpg
143.497	0.514	Blank	Blank	82.753	n/a	2	4	15	n/a	75	n/a	3	n/a	n/a	n/a	n/a	173.425	n/a
144.027	0.497	angry	Picture	82.239	n/a	2	4	16	n/a	76	88	3	n/a	n/a	n/a	n/a	173.955	AF14ANS.jpg
144.525	0.514	Blank	Blank	81.725	n/a	2	4	16	n/a	76	n/a	3	n/a	n/a	n/a	n/a	174.453	n/a
145.055	0.497	angry	Picture	81.211	n/a	2	4	17	n/a	77	93	3	n/a	n/a	n/a	n/a	174.983	BF22ANS.jpg
145.553	0.514	Blank	Blank	80.697	n/a	2	4	17	n/a	77	n/a	3	n/a	n/a	n/a	n/a	175.481	n/a
146.083	0.497	angry	Picture	80.183	n/a	2	4	18	n/a	78	86	3	n/a	n/a	n/a	n/a	176.011	AF09ANS.jpg
146.58	0.514	Blank	Blank	79.669	n/a	2	4	18	n/a	78	n/a	3	n/a	n/a	n/a	n/a	176.509	n/a
147.111	0.497	angry	Picture	79.155	n/a	2	4	19	n/a	79	92	3	n/a	n/a	n/a	n/a	177.039	AF21ANS.jpg
147.608	0.514	Blank	Blank	78.641	n/a	2	4	19	n/a	79	n/a	3	n/a	n/a	n/a	n/a	177.536	n/a
148.139	0.497	angry	Picture	78.127	n/a	2	4	20	n/a	80	84	3	n/a	n/a	n/a	n/a	178.067	AF05ANS.jpg
148.636	0.514	Blank	Blank	77.613	n/a	2	4	20	n/a	80	n/a	3	n/a	n/a	n/a	n/a	178.564	n/a
149.167	10.014	ITI	Fixation+	67.583	n/a	2	n/a	n/a	n/a	n/a	n/a	n/a	n/a	n/a	n/a	n/a	179.095	n/a
159.197	0.497	neutral	Picture	67.07	n/a	2	5	1	n/a	81	4	1	n/a	n/a	n/a	n/a	189.125	AF05NES.jpg
159.694	0.514	Blank	Blank	66.555	n/a	2	5	1	n/a	81	n/a	1	n/a	n/a	n/a	n/a	189.622	n/a
160.225	0.497	neutral	Picture	66.042	n/a	2	5	2	n/a	82	14	1	n/a	n/a	n/a	n/a	190.153	AF23NES.jpg
160.722	0.514	Blank	Blank	65.528	n/a	2	5	2	n/a	82	n/a	1	n/a	n/a	n/a	n/a	190.65	n/a
161.252	0.497	neutral	Picture	65.014	n/a	2	5	3	n/a	83	19	1	n/a	n/a	n/a	n/a	191.181	AF31NES.jpg
161.75	0.514	Blank	Blank	64.5	n/a	2	5	3	n/a	83	n/a	1	n/a	n/a	n/a	n/a	191.678	n/a
162.28	0.497	neutral	Picture	63.986	n/a	2	5	4	n/a	84	8	1	n/a	n/a	n/a	n/a	192.209	AF14NES.jpg
162.778	0.514	Blank	Blank	63.472	n/a	2	5	4	n/a	84	n/a	1	n/a	n/a	n/a	n/a	192.706	n/a
163.308	0.497	neutral	Picture	62.958	n/a	2	5	5	n/a	85	25	1	n/a	n/a	n/a	n/a	193.237	BM06NES.jpg
163.806	0.514	Blank	Blank	62.444	n/a	2	5	5	n/a	85	n/a	1	n/a	n/a	n/a	n/a	193.734	n/a
164.336	0.497	neutral	Picture	61.93	n/a	2	5	6	n/a	86	9	1	n/a	n/a	n/a	n/a	194.264	AF17NES.jpg
164.834	0.514	Blank	Blank	61.416	n/a	2	5	6	n/a	86	n/a	1	n/a	n/a	n/a	n/a	194.762	n/a
165.364	0.497	neutral	Picture	60.902	n/a	2	5	7	n/a	87	2	1	n/a	n/a	n/a	n/a	195.292	AF03NES.jpg
165.861	0.514	Blank	Blank	60.388	n/a	2	5	7	n/a	87	n/a	1	n/a	n/a	n/a	n/a	195.79	n/a
166.392	0.497	neutral	Picture	59.874	n/a	2	5	8	n/a	88	17	1	n/a	n/a	n/a	n/a	196.32	BF28NES.jpg
166.889	0.514	Blank	Blank	59.36	n/a	2	5	8	n/a	88	n/a	1	n/a	n/a	n/a	n/a	196.817	n/a
167.42	0.497	neutral	Picture	58.846	n/a	2	5	9	n/a	89	6	1	n/a	n/a	n/a	n/a	197.348	AF09NES.jpg
167.917	0.514	Blank	Blank	58.332	n/a	2	5	9	n/a	89	n/a	1	n/a	n/a	n/a	n/a	197.845	n/a
168.448	0.497	neutral	Picture	57.819	n/a	2	5	10	n/a	90	12	1	n/a	n/a	n/a	n/a	198.376	AF21NES.jpg
168.945	0.514	Blank	Blank	57.305	n/a	2	5	10	n/a	90	n/a	1	n/a	n/a	n/a	n/a	198.873	n/a
169.476	0.497	neutral	Picture	56.791	n/a	2	5	11	n/a	91	24	1	n/a	n/a	n/a	n/a	199.404	BM05NES.jpg
169.973	0.514	Blank	Blank	56.277	n/a	2	5	11	n/a	91	n/a	1	n/a	n/a	n/a	n/a	199.901	n/a
170.504	0.497	neutral	Picture	55.763	n/a	2	5	12	n/a	92	34	1	n/a	n/a	n/a	n/a	200.432	AM22NES.jpg
171.001	0.514	Blank	Blank	55.249	n/a	2	5	12	n/a	92	n/a	1	n/a	n/a	n/a	n/a	200.929	n/a
171.531	0.497	neutral	Picture	54.735	n/a	2	5	13	n/a	93	23	1	n/a	n/a	n/a	n/a	201.46	AM04NES.jpg
172.029	0.514	Blank	Blank	54.221	n/a	2	5	13	n/a	93	n/a	1	n/a	n/a	n/a	n/a	201.957	n/a
172.559	0.497	neutral	Picture	53.707	n/a	2	5	14	n/a	94	15	1	n/a	n/a	n/a	n/a	202.487	AF25NES.jpg
173.057	0.514	Blank	Blank	53.193	n/a	2	5	14	n/a	94	n/a	1	n/a	n/a	n/a	n/a	202.985	n/a
173.587	0.497	neutral	Picture	52.679	n/a	2	5	15	n/a	95	37	1	n/a	n/a	n/a	n/a	203.515	BM25NES.jpg
174.084	0.514	Blank	Blank	52.165	n/a	2	5	15	n/a	95	n/a	1	n/a	n/a	n/a	n/a	204.013	n/a
174.615	0.497	neutral	Picture	51.651	n/a	2	5	16	n/a	96	32	1	n/a	n/a	n/a	n/a	204.543	AM14NES.jpg
175.112	0.514	Blank	Blank	51.137	n/a	2	5	16	n/a	96	n/a	1	n/a	n/a	n/a	n/a	205.041	n/a
175.643	0.497	neutral	Picture	50.623	n/a	2	5	17	n/a	97	3	1	n/a	n/a	n/a	n/a	205.571	BF04NES.jpg
176.14	0.514	Blank	Blank	50.109	n/a	2	5	17	n/a	97	n/a	1	n/a	n/a	n/a	n/a	206.069	n/a
176.671	0.497	neutral	Picture	49.596	n/a	2	5	18	n/a	98	16	1	n/a	n/a	n/a	n/a	206.599	AF26NES.jpg
177.168	0.514	Blank	Blank	49.081	n/a	2	5	18	n/a	98	n/a	1	n/a	n/a	n/a	n/a	207.096	n/a
177.699	0.497	neutral	Picture	48.568	n/a	2	5	19	n/a	99	27	1	n/a	n/a	n/a	n/a	207.627	BM08NES.jpg
178.196	0.514	Blank	Blank	48.054	n/a	2	5	19	n/a	99	n/a	1	n/a	n/a	n/a	n/a	208.124	n/a
178.726	0.497	neutral	Picture	47.54	n/a	2	5	20	n/a	100	28	1	n/a	n/a	n/a	n/a	208.655	AM09NES.jpg
179.224	0.514	Blank	Blank	47.026	n/a	2	5	20	n/a	100	n/a	1	n/a	n/a	n/a	n/a	209.152	n/a
179.754	10.014	ITI	Fixation+	36.996	n/a	2	n/a	n/a	n/a	n/a	n/a	n/a	n/a	n/a	n/a	n/a	209.683	n/a
189.785	0.497	angry	Picture	36.482	n/a	2	6	1	n/a	101	81	3	n/a	n/a	n/a	n/a	219.713	AF01ANS.jpg
190.282	0.514	Blank	Blank	35.968	n/a	2	6	1	n/a	101	n/a	3	n/a	n/a	n/a	n/a	220.21	n/a
190.812	0.497	angry	Picture	35.454	n/a	2	6	2	n/a	102	120	3	n/a	n/a	n/a	n/a	220.741	AM35ANS.jpg
191.31	0.514	Blank	Blank	34.94	n/a	2	6	2	n/a	102	n/a	3	n/a	n/a	n/a	n/a	221.238	n/a
191.84	0.497	angry	Picture	34.426	n/a	2	6	3	n/a	103	114	3	n/a	n/a	n/a	n/a	221.768	AM22ANS.jpg
192.338	0.514	Blank	Blank	33.912	n/a	2	6	3	n/a	103	n/a	3	n/a	n/a	n/a	n/a	222.266	n/a
192.868	0.497	angry	Picture	33.398	n/a	2	6	4	n/a	104	109	3	n/a	n/a	n/a	n/a	222.796	AM10ANS.jpg
193.366	0.514	Blank	Blank	32.884	n/a	2	6	4	n/a	104	n/a	3	n/a	n/a	n/a	n/a	223.294	n/a
193.896	0.497	angry	Picture	32.37	n/a	2	6	5	n/a	105	96	3	n/a	n/a	n/a	n/a	223.824	AF26ANS.jpg
194.393	0.514	Blank	Blank	31.856	n/a	2	6	5	n/a	105	n/a	3	n/a	n/a	n/a	n/a	224.322	n/a
194.924	0.497	angry	Picture	31.342	n/a	2	6	6	n/a	106	82	3	n/a	n/a	n/a	n/a	224.852	AF03ANS.jpg
195.421	0.514	Blank	Blank	30.828	n/a	2	6	6	n/a	106	n/a	3	n/a	n/a	n/a	n/a	225.35	n/a
195.952	0.497	angry	Picture	30.314	n/a	2	6	7	n/a	107	97	3	n/a	n/a	n/a	n/a	225.88	BF28ANS.jpg
196.449	0.514	Blank	Blank	29.8	n/a	2	6	7	n/a	107	n/a	3	n/a	n/a	n/a	n/a	226.377	n/a
196.98	0.497	angry	Picture	29.286	n/a	2	6	8	n/a	108	115	3	n/a	n/a	n/a	n/a	226.908	AM23ANS.jpg
197.477	0.514	Blank	Blank	28.773	n/a	2	6	8	n/a	108	n/a	3	n/a	n/a	n/a	n/a	227.405	n/a
198.008	0.497	angry	Picture	28.259	n/a	2	6	9	n/a	109	91	3	n/a	n/a	n/a	n/a	227.936	AF20ANS.jpg
198.505	0.514	Blank	Blank	27.745	n/a	2	6	9	n/a	109	n/a	3	n/a	n/a	n/a	n/a	228.433	n/a
199.035	0.497	angry	Picture	27.231	n/a	2	6	10	n/a	110	87	3	n/a	n/a	n/a	n/a	228.964	BF11ANS.jpg
199.533	0.514	Blank	Blank	26.717	n/a	2	6	10	n/a	110	n/a	3	n/a	n/a	n/a	n/a	229.461	n/a
200.063	0.497	angry	Picture	26.203	n/a	2	6	11	n/a	111	85	3	n/a	n/a	n/a	n/a	229.992	BF07ANS.jpg
200.561	0.514	Blank	Blank	25.689	n/a	2	6	11	n/a	111	n/a	3	n/a	n/a	n/a	n/a	230.489	n/a
201.091	0.497	angry	Picture	25.175	n/a	2	6	12	n/a	112	110	3	n/a	n/a	n/a	n/a	231.019	AM11ANS.jpg
201.589	0.514	Blank	Blank	24.661	n/a	2	6	12	n/a	112	n/a	3	n/a	n/a	n/a	n/a	231.517	n/a
202.119	0.497	angry	Picture	24.147	n/a	2	6	13	n/a	113	111	3	n/a	n/a	n/a	n/a	232.047	BM12ANS.jpg
202.617	0.514	Blank	Blank	23.633	n/a	2	6	13	n/a	113	n/a	3	n/a	n/a	n/a	n/a	232.545	n/a
203.147	0.497	angry	Picture	23.119	n/a	2	6	14	n/a	114	103	3	n/a	n/a	n/a	n/a	233.075	AM04ANS.jpg
203.644	0.514	Blank	Blank	22.605	n/a	2	6	14	n/a	114	n/a	3	n/a	n/a	n/a	n/a	233.573	n/a
204.175	0.497	angry	Picture	22.091	n/a	2	6	15	n/a	115	101	3	n/a	n/a	n/a	n/a	234.103	AM01ANS.jpg
204.672	0.514	Blank	Blank	21.577	n/a	2	6	15	n/a	115	n/a	3	n/a	n/a	n/a	n/a	234.601	n/a
205.203	0.497	angry	Picture	21.063	n/a	2	6	16	n/a	116	104	3	n/a	n/a	n/a	n/a	235.131	BM05ANS.jpg
205.7	0.514	Blank	Blank	20.549	n/a	2	6	16	n/a	116	n/a	3	n/a	n/a	n/a	n/a	235.628	n/a
206.231	0.497	angry	Picture	20.036	n/a	2	6	17	n/a	117	107	3	n/a	n/a	n/a	n/a	236.159	BM08ANS.jpg
206.728	0.514	Blank	Blank	19.522	n/a	2	6	17	n/a	117	n/a	3	n/a	n/a	n/a	n/a	236.656	n/a
207.259	0.497	angry	Picture	19.008	n/a	2	6	18	n/a	118	98	3	n/a	n/a	n/a	n/a	237.187	BF29ANS.jpg
207.756	0.514	Blank	Blank	18.494	n/a	2	6	18	n/a	118	n/a	3	n/a	n/a	n/a	n/a	237.684	n/a
208.286	0.497	angry	Picture	17.98	n/a	2	6	19	n/a	119	99	3	n/a	n/a	n/a	n/a	238.215	AF31ANS.jpg
208.784	0.514	Blank	Blank	17.466	n/a	2	6	19	n/a	119	n/a	3	n/a	n/a	n/a	n/a	238.712	n/a
209.314	0.497	angry	Picture	16.952	n/a	2	6	20	n/a	120	108	3	n/a	n/a	n/a	n/a	239.243	AM09ANS.jpg
209.812	0.514	Blank	Blank	16.438	n/a	2	6	20	n/a	120	n/a	3	n/a	n/a	n/a	n/a	239.74	n/a
210.342	10.014	ITI	Fixation+	6.408	n/a	2	n/a	n/a	n/a	n/a	n/a	n/a	n/a	n/a	n/a	n/a	240.27	n/a
226.764	n/a	ConfirmRating	Rate	n/a	6.4	2	n/a	n/a	0	n/a	n/a	n/a	2	Angry	16	49	256.692	n/a
231.288	n/a	ConfirmRating	Rate	n/a	4.51	2	n/a	n/a	1	n/a	n/a	n/a	3	Angry	76	52	261.216	n/a
231.314	15.004	Rest	Picture	n/a	n/a	n/a	n/a	n/a	n/a	n/a	n/a	n/a	0	n/a	0	0	261.243	n/a
246.335	10.014	ITI	Fixation+	95.112	n/a	3	n/a	n/a	n/a	n/a	n/a	n/a	n/a	n/a	n/a	n/a	276.263	n/a
256.365	0.497	happy	Picture	94.598	n/a	3	7	1	n/a	1	46	2	n/a	n/a	n/a	n/a	286.293	AF09HAS.jpg
256.862	0.514	Blank	Blank	94.084	n/a	3	7	1	n/a	1	n/a	2	n/a	n/a	n/a	n/a	286.79	n/a
257.393	0.497	happy	Picture	93.57	n/a	3	7	2	n/a	2	69	2	n/a	n/a	n/a	n/a	287.321	AM10HAS.jpg
257.89	0.514	Blank	Blank	93.056	n/a	3	7	2	n/a	2	n/a	2	n/a	n/a	n/a	n/a	287.818	n/a
258.421	0.497	happy	Picture	92.542	n/a	3	7	3	n/a	3	71	2	n/a	n/a	n/a	n/a	288.349	BM12HAS.jpg
258.918	0.514	Blank	Blank	92.028	n/a	3	7	3	n/a	3	n/a	2	n/a	n/a	n/a	n/a	288.846	n/a
259.448	0.497	happy	Picture	91.514	n/a	3	7	4	n/a	4	51	2	n/a	n/a	n/a	n/a	289.377	AF20HAS.jpg
259.946	0.514	Blank	Blank	91.001	n/a	3	7	4	n/a	4	n/a	2	n/a	n/a	n/a	n/a	289.874	n/a
260.476	0.497	happy	Picture	90.487	n/a	3	7	5	n/a	5	67	2	n/a	n/a	n/a	n/a	290.404	BM08HAS.jpg
260.974	0.514	Blank	Blank	89.973	n/a	3	7	5	n/a	5	n/a	2	n/a	n/a	n/a	n/a	290.902	n/a
261.504	0.497	happy	Picture	89.459	n/a	3	7	6	n/a	6	60	2	n/a	n/a	n/a	n/a	291.432	AF32HAS.jpg
262.002	0.514	Blank	Blank	88.945	n/a	3	7	6	n/a	6	n/a	2	n/a	n/a	n/a	n/a	291.93	n/a
262.532	0.497	happy	Picture	88.431	n/a	3	7	7	n/a	7	42	2	n/a	n/a	n/a	n/a	292.46	AF03HAS.jpg
263.029	0.514	Blank	Blank	87.917	n/a	3	7	7	n/a	7	n/a	2	n/a	n/a	n/a	n/a	292.958	n/a
263.56	0.497	happy	Picture	87.403	n/a	3	7	8	n/a	8	55	2	n/a	n/a	n/a	n/a	293.488	AF25HAS.jpg
264.057	0.514	Blank	Blank	86.889	n/a	3	7	8	n/a	8	n/a	2	n/a	n/a	n/a	n/a	293.986	n/a
264.588	0.497	happy	Picture	86.375	n/a	3	7	9	n/a	9	72	2	n/a	n/a	n/a	n/a	294.516	AM14HAS.jpg
265.085	0.514	Blank	Blank	85.861	n/a	3	7	9	n/a	9	n/a	2	n/a	n/a	n/a	n/a	295.013	n/a
265.616	0.497	happy	Picture	85.347	n/a	3	7	10	n/a	10	63	2	n/a	n/a	n/a	n/a	295.544	AM04HAS.jpg
266.113	0.514	Blank	Blank	84.833	n/a	3	7	10	n/a	10	n/a	2	n/a	n/a	n/a	n/a	296.041	n/a
266.644	0.497	happy	Picture	84.319	n/a	3	7	11	n/a	11	58	2	n/a	n/a	n/a	n/a	296.572	BF29HAS.jpg
267.141	0.514	Blank	Blank	83.805	n/a	3	7	11	n/a	11	n/a	2	n/a	n/a	n/a	n/a	297.069	n/a
267.671	0.497	happy	Picture	83.291	n/a	3	7	12	n/a	12	48	2	n/a	n/a	n/a	n/a	297.6	AF14HAS.jpg
268.169	0.514	Blank	Blank	82.778	n/a	3	7	12	n/a	12	n/a	2	n/a	n/a	n/a	n/a	298.097	n/a
268.699	0.497	happy	Picture	82.264	n/a	3	7	13	n/a	13	66	2	n/a	n/a	n/a	n/a	298.628	BM07HAS.jpg
269.197	0.514	Blank	Blank	81.75	n/a	3	7	13	n/a	13	n/a	2	n/a	n/a	n/a	n/a	299.125	n/a
269.727	0.497	happy	Picture	81.236	n/a	3	7	14	n/a	14	70	2	n/a	n/a	n/a	n/a	299.656	BM11HAS.jpg
270.225	0.514	Blank	Blank	80.722	n/a	3	7	14	n/a	14	n/a	2	n/a	n/a	n/a	n/a	300.153	n/a
270.755	0.497	happy	Picture	80.208	n/a	3	7	15	n/a	15	43	2	n/a	n/a	n/a	n/a	300.683	BF04HAS.jpg
271.252	0.514	Blank	Blank	79.694	n/a	3	7	15	n/a	15	n/a	2	n/a	n/a	n/a	n/a	301.181	n/a
271.783	0.497	happy	Picture	79.18	n/a	3	7	16	n/a	16	49	2	n/a	n/a	n/a	n/a	301.711	AF17HAS.jpg
272.28	0.514	Blank	Blank	78.666	n/a	3	7	16	n/a	16	n/a	2	n/a	n/a	n/a	n/a	302.209	n/a
272.811	0.497	happy	Picture	78.152	n/a	3	7	17	n/a	17	75	2	n/a	n/a	n/a	n/a	302.739	AM23HAS.jpg
273.308	0.514	Blank	Blank	77.638	n/a	3	7	17	n/a	17	n/a	2	n/a	n/a	n/a	n/a	303.236	n/a
273.839	0.497	happy	Picture	77.124	n/a	3	7	18	n/a	18	80	2	n/a	n/a	n/a	n/a	303.767	BM35HAS.jpg
274.336	0.514	Blank	Blank	76.61	n/a	3	7	18	n/a	18	n/a	2	n/a	n/a	n/a	n/a	304.264	n/a
274.867	0.497	happy	Picture	76.096	n/a	3	7	19	n/a	19	76	2	n/a	n/a	n/a	n/a	304.795	BM24HAS.jpg
275.364	0.514	Blank	Blank	75.582	n/a	3	7	19	n/a	19	n/a	2	n/a	n/a	n/a	n/a	305.292	n/a
275.895	0.497	happy	Picture	75.068	n/a	3	7	20	n/a	20	74	2	n/a	n/a	n/a	n/a	305.823	AM22HAS.jpg
276.392	0.514	Blank	Blank	74.554	n/a	3	7	20	n/a	20	n/a	2	n/a	n/a	n/a	n/a	306.32	n/a
276.922	10.014	ITI	Fixation+	64.524	n/a	3	n/a	n/a	n/a	n/a	n/a	n/a	n/a	n/a	n/a	n/a	306.851	n/a
286.953	0.497	neutral	Picture	64.01	n/a	3	8	1	n/a	21	33	1	n/a	n/a	n/a	n/a	316.881	AM21NES.jpg
287.45	0.514	Blank	Blank	63.496	n/a	3	8	1	n/a	21	n/a	1	n/a	n/a	n/a	n/a	317.378	n/a
287.981	0.497	neutral	Picture	62.983	n/a	3	8	2	n/a	22	39	1	n/a	n/a	n/a	n/a	317.909	AM28NES.jpg
288.478	0.514	Blank	Blank	62.469	n/a	3	8	2	n/a	22	n/a	1	n/a	n/a	n/a	n/a	318.406	n/a
289.008	0.497	neutral	Picture	61.955	n/a	3	8	3	n/a	23	25	1	n/a	n/a	n/a	n/a	318.937	BM06NES.jpg
289.506	0.514	Blank	Blank	61.441	n/a	3	8	3	n/a	23	n/a	1	n/a	n/a	n/a	n/a	319.434	n/a
290.036	0.497	neutral	Picture	60.927	n/a	3	8	4	n/a	24	5	1	n/a	n/a	n/a	n/a	319.964	BF07NES.jpg
290.534	0.514	Blank	Blank	60.413	n/a	3	8	4	n/a	24	n/a	1	n/a	n/a	n/a	n/a	320.462	n/a
291.064	0.497	neutral	Picture	59.899	n/a	3	8	5	n/a	25	10	1	n/a	n/a	n/a	n/a	320.992	AF18NES.jpg
291.562	0.514	Blank	Blank	59.385	n/a	3	8	5	n/a	25	n/a	1	n/a	n/a	n/a	n/a	321.49	n/a
292.092	0.497	neutral	Picture	58.871	n/a	3	8	6	n/a	26	34	1	n/a	n/a	n/a	n/a	322.02	AM22NES.jpg
292.589	0.514	Blank	Blank	58.357	n/a	3	8	6	n/a	26	n/a	1	n/a	n/a	n/a	n/a	322.518	n/a
293.12	0.497	neutral	Picture	57.843	n/a	3	8	7	n/a	27	36	1	n/a	n/a	n/a	n/a	323.048	BM24NES.jpg
293.617	0.514	Blank	Blank	57.329	n/a	3	8	7	n/a	27	n/a	1	n/a	n/a	n/a	n/a	323.545	n/a
294.148	0.497	neutral	Picture	56.815	n/a	3	8	8	n/a	28	14	1	n/a	n/a	n/a	n/a	324.076	AF23NES.jpg
294.645	0.514	Blank	Blank	56.301	n/a	3	8	8	n/a	28	n/a	1	n/a	n/a	n/a	n/a	324.573	n/a
295.176	0.497	neutral	Picture	55.787	n/a	3	8	9	n/a	29	9	1	n/a	n/a	n/a	n/a	325.104	AF17NES.jpg
295.673	0.514	Blank	Blank	55.273	n/a	3	8	9	n/a	29	n/a	1	n/a	n/a	n/a	n/a	325.601	n/a
296.204	0.497	neutral	Picture	54.759	n/a	3	8	10	n/a	30	19	1	n/a	n/a	n/a	n/a	326.132	AF31NES.jpg
296.701	0.514	Blank	Blank	54.246	n/a	3	8	10	n/a	30	n/a	1	n/a	n/a	n/a	n/a	326.629	n/a
297.231	0.497	neutral	Picture	53.731	n/a	3	8	11	n/a	31	15	1	n/a	n/a	n/a	n/a	327.16	AF25NES.jpg
297.729	0.514	Blank	Blank	53.218	n/a	3	8	11	n/a	31	n/a	1	n/a	n/a	n/a	n/a	327.657	n/a
298.259	0.497	neutral	Picture	52.704	n/a	3	8	12	n/a	32	22	1	n/a	n/a	n/a	n/a	328.188	BM03NES.jpg
298.757	0.514	Blank	Blank	52.19	n/a	3	8	12	n/a	32	n/a	1	n/a	n/a	n/a	n/a	328.685	n/a
299.287	0.497	neutral	Picture	51.676	n/a	3	8	13	n/a	33	11	1	n/a	n/a	n/a	n/a	329.215	AF20NES.jpg
299.784	0.514	Blank	Blank	51.162	n/a	3	8	13	n/a	33	n/a	1	n/a	n/a	n/a	n/a	329.713	n/a
300.315	0.497	neutral	Picture	50.648	n/a	3	8	14	n/a	34	4	1	n/a	n/a	n/a	n/a	330.243	AF05NES.jpg
300.812	0.514	Blank	Blank	50.134	n/a	3	8	14	n/a	34	n/a	1	n/a	n/a	n/a	n/a	330.741	n/a
301.343	0.497	neutral	Picture	49.62	n/a	3	8	15	n/a	35	17	1	n/a	n/a	n/a	n/a	331.271	BF28NES.jpg
301.84	0.514	Blank	Blank	49.106	n/a	3	8	15	n/a	35	n/a	1	n/a	n/a	n/a	n/a	331.769	n/a
302.371	0.497	neutral	Picture	48.592	n/a	3	8	16	n/a	36	13	1	n/a	n/a	n/a	n/a	332.299	BF22NES.jpg
302.868	0.514	Blank	Blank	48.078	n/a	3	8	16	n/a	36	n/a	1	n/a	n/a	n/a	n/a	332.796	n/a
303.399	0.497	neutral	Picture	47.564	n/a	3	8	17	n/a	37	12	1	n/a	n/a	n/a	n/a	333.327	AF21NES.jpg
303.896	0.514	Blank	Blank	47.05	n/a	3	8	17	n/a	37	n/a	1	n/a	n/a	n/a	n/a	333.824	n/a
304.427	0.497	neutral	Picture	46.536	n/a	3	8	18	n/a	38	24	1	n/a	n/a	n/a	n/a	334.355	BM05NES.jpg
304.924	0.514	Blank	Blank	46.022	n/a	3	8	18	n/a	38	n/a	1	n/a	n/a	n/a	n/a	334.852	n/a
305.454	0.497	neutral	Picture	45.509	n/a	3	8	19	n/a	39	29	1	n/a	n/a	n/a	n/a	335.383	AM10NES.jpg
305.952	0.514	Blank	Blank	44.995	n/a	3	8	19	n/a	39	n/a	1	n/a	n/a	n/a	n/a	335.88	n/a
306.482	0.497	neutral	Picture	44.481	n/a	3	8	20	n/a	40	23	1	n/a	n/a	n/a	n/a	336.411	AM04NES.jpg
306.98	0.514	Blank	Blank	43.967	n/a	3	8	20	n/a	40	n/a	1	n/a	n/a	n/a	n/a	336.908	n/a
307.51	10.014	ITI	Fixation+	33.937	n/a	3	n/a	n/a	n/a	n/a	n/a	n/a	n/a	n/a	n/a	n/a	337.438	n/a
317.54	0.497	happy	Picture	33.423	n/a	3	9	1	n/a	41	62	2	n/a	n/a	n/a	n/a	347.469	BM03HAS.jpg
318.038	0.514	Blank	Blank	32.909	n/a	3	9	1	n/a	41	n/a	2	n/a	n/a	n/a	n/a	347.966	n/a
318.568	0.497	happy	Picture	32.395	n/a	3	9	2	n/a	42	52	2	n/a	n/a	n/a	n/a	348.497	AF21HAS.jpg
319.066	0.514	Blank	Blank	31.881	n/a	3	9	2	n/a	42	n/a	2	n/a	n/a	n/a	n/a	348.994	n/a
319.596	0.497	happy	Picture	31.367	n/a	3	9	3	n/a	43	44	2	n/a	n/a	n/a	n/a	349.524	AF05HAS.jpg
320.094	0.514	Blank	Blank	30.853	n/a	3	9	3	n/a	43	n/a	2	n/a	n/a	n/a	n/a	350.022	n/a
320.624	0.497	happy	Picture	30.339	n/a	3	9	4	n/a	44	53	2	n/a	n/a	n/a	n/a	350.552	BF22HAS.jpg
321.121	0.514	Blank	Blank	29.825	n/a	3	9	4	n/a	44	n/a	2	n/a	n/a	n/a	n/a	351.05	n/a
321.652	0.497	happy	Picture	29.311	n/a	3	9	5	n/a	45	54	2	n/a	n/a	n/a	n/a	351.58	AF23HAS.jpg
322.149	0.514	Blank	Blank	28.797	n/a	3	9	5	n/a	45	n/a	2	n/a	n/a	n/a	n/a	352.077	n/a
322.68	0.497	happy	Picture	28.283	n/a	3	9	6	n/a	46	68	2	n/a	n/a	n/a	n/a	352.608	AM09HAS.jpg
323.177	0.514	Blank	Blank	27.769	n/a	3	9	6	n/a	46	n/a	2	n/a	n/a	n/a	n/a	353.105	n/a
323.708	0.497	happy	Picture	27.255	n/a	3	9	7	n/a	47	64	2	n/a	n/a	n/a	n/a	353.636	BM05HAS.jpg
324.205	0.514	Blank	Blank	26.741	n/a	3	9	7	n/a	47	n/a	2	n/a	n/a	n/a	n/a	354.133	n/a
324.736	0.497	happy	Picture	26.227	n/a	3	9	8	n/a	48	59	2	n/a	n/a	n/a	n/a	354.664	AF31HAS.jpg
325.233	0.514	Blank	Blank	25.713	n/a	3	9	8	n/a	48	n/a	2	n/a	n/a	n/a	n/a	355.161	n/a
325.763	0.497	happy	Picture	25.2	n/a	3	9	9	n/a	49	41	2	n/a	n/a	n/a	n/a	355.692	AF01HAS.jpg
326.261	0.514	Blank	Blank	24.686	n/a	3	9	9	n/a	49	n/a	2	n/a	n/a	n/a	n/a	356.189	n/a
326.791	0.497	happy	Picture	24.172	n/a	3	9	10	n/a	50	73	2	n/a	n/a	n/a	n/a	356.719	AM21HAS.jpg
327.289	0.514	Blank	Blank	23.658	n/a	3	9	10	n/a	50	n/a	2	n/a	n/a	n/a	n/a	357.217	n/a
327.819	0.497	happy	Picture	23.144	n/a	3	9	11	n/a	51	65	2	n/a	n/a	n/a	n/a	357.747	BM06HAS.jpg
328.317	0.514	Blank	Blank	22.63	n/a	3	9	11	n/a	51	n/a	2	n/a	n/a	n/a	n/a	358.245	n/a
328.847	0.497	happy	Picture	22.116	n/a	3	9	12	n/a	52	56	2	n/a	n/a	n/a	n/a	358.775	AF26HAS.jpg
329.344	0.514	Blank	Blank	21.602	n/a	3	9	12	n/a	52	n/a	2	n/a	n/a	n/a	n/a	359.273	n/a
329.875	0.497	happy	Picture	21.088	n/a	3	9	13	n/a	53	45	2	n/a	n/a	n/a	n/a	359.803	BF07HAS.jpg
330.372	0.514	Blank	Blank	20.574	n/a	3	9	13	n/a	53	n/a	2	n/a	n/a	n/a	n/a	360.3	n/a
330.903	0.497	happy	Picture	20.06	n/a	3	9	14	n/a	54	78	2	n/a	n/a	n/a	n/a	360.831	BM26HAS.jpg
331.4	0.514	Blank	Blank	19.546	n/a	3	9	14	n/a	54	n/a	2	n/a	n/a	n/a	n/a	361.328	n/a
331.931	0.497	happy	Picture	19.032	n/a	3	9	15	n/a	55	50	2	n/a	n/a	n/a	n/a	361.859	AF18HAS.jpg
332.428	0.514	Blank	Blank	18.518	n/a	3	9	15	n/a	55	n/a	2	n/a	n/a	n/a	n/a	362.356	n/a
332.959	0.497	happy	Picture	18.004	n/a	3	9	16	n/a	56	47	2	n/a	n/a	n/a	n/a	362.887	BF11HAS.jpg
333.456	0.514	Blank	Blank	17.49	n/a	3	9	16	n/a	56	n/a	2	n/a	n/a	n/a	n/a	363.384	n/a
333.986	0.497	happy	Picture	16.977	n/a	3	9	17	n/a	57	77	2	n/a	n/a	n/a	n/a	363.915	BM25HAS.jpg
334.484	0.514	Blank	Blank	16.463	n/a	3	9	17	n/a	57	n/a	2	n/a	n/a	n/a	n/a	364.412	n/a
335.014	0.497	happy	Picture	15.949	n/a	3	9	18	n/a	58	57	2	n/a	n/a	n/a	n/a	364.943	BF28HAS.jpg
335.512	0.514	Blank	Blank	15.435	n/a	3	9	18	n/a	58	n/a	2	n/a	n/a	n/a	n/a	365.44	n/a
336.042	0.497	happy	Picture	14.921	n/a	3	9	19	n/a	59	61	2	n/a	n/a	n/a	n/a	365.971	AM01HAS.jpg
336.54	0.514	Blank	Blank	14.407	n/a	3	9	19	n/a	59	n/a	2	n/a	n/a	n/a	n/a	366.468	n/a
337.07	0.497	happy	Picture	13.893	n/a	3	9	20	n/a	60	79	2	n/a	n/a	n/a	n/a	366.998	BM28HAS.jpg
337.567	0.514	Blank	Blank	13.379	n/a	3	9	20	n/a	60	n/a	2	n/a	n/a	n/a	n/a	367.496	n/a
338.098	10.014	ITI	Fixation+	3.349	n/a	3	n/a	n/a	n/a	n/a	n/a	n/a	n/a	n/a	n/a	n/a	368.026	n/a
351.46	n/a	ConfirmRating	Rate	n/a	3.332	3	n/a	n/a	0	n/a	n/a	n/a	2	Happy	63	51	381.389	n/a
355.808	n/a	ConfirmRating	Rate	n/a	4.343	3	n/a	n/a	1	n/a	n/a	n/a	3	Happy	36	49	385.736	n/a
355.837	10.014	ITI	Fixation+	97.809	n/a	4	n/a	n/a	n/a	n/a	n/a	n/a	n/a	n/a	n/a	n/a	385.765	n/a
365.867	0.497	angry	Picture	97.295	n/a	4	10	1	n/a	61	119	3	n/a	n/a	n/a	n/a	395.796	BM28ANS.jpg
366.365	0.514	Blank	Blank	96.781	n/a	4	10	1	n/a	61	n/a	3	n/a	n/a	n/a	n/a	396.293	n/a
366.895	0.497	angry	Picture	96.267	n/a	4	10	2	n/a	62	100	3	n/a	n/a	n/a	n/a	396.824	AF32ANS.jpg
367.393	0.514	Blank	Blank	95.754	n/a	4	10	2	n/a	62	n/a	3	n/a	n/a	n/a	n/a	397.321	n/a
367.923	0.497	angry	Picture	95.24	n/a	4	10	3	n/a	63	118	3	n/a	n/a	n/a	n/a	397.851	BM26ANS.jpg
368.421	0.514	Blank	Blank	94.726	n/a	4	10	3	n/a	63	n/a	3	n/a	n/a	n/a	n/a	398.349	n/a
368.951	0.497	angry	Picture	94.212	n/a	4	10	4	n/a	64	89	3	n/a	n/a	n/a	n/a	398.879	AF17ANS.jpg
369.448	0.514	Blank	Blank	93.698	n/a	4	10	4	n/a	64	n/a	3	n/a	n/a	n/a	n/a	399.377	n/a
369.979	0.497	angry	Picture	93.184	n/a	4	10	5	n/a	65	116	3	n/a	n/a	n/a	n/a	399.907	BM24ANS.jpg
370.476	0.514	Blank	Blank	92.67	n/a	4	10	5	n/a	65	n/a	3	n/a	n/a	n/a	n/a	400.404	n/a
371.007	0.497	angry	Picture	92.156	n/a	4	10	6	n/a	66	105	3	n/a	n/a	n/a	n/a	400.935	BM06ANS.jpg
371.504	0.514	Blank	Blank	91.642	n/a	4	10	6	n/a	66	n/a	3	n/a	n/a	n/a	n/a	401.432	n/a
372.035	0.497	angry	Picture	91.128	n/a	4	10	7	n/a	67	106	3	n/a	n/a	n/a	n/a	401.963	AM07ANS.jpg
372.532	0.514	Blank	Blank	90.614	n/a	4	10	7	n/a	67	n/a	3	n/a	n/a	n/a	n/a	402.46	n/a
373.063	0.497	angry	Picture	90.1	n/a	4	10	8	n/a	68	94	3	n/a	n/a	n/a	n/a	402.991	AF23ANS.jpg
373.56	0.514	Blank	Blank	89.586	n/a	4	10	8	n/a	68	n/a	3	n/a	n/a	n/a	n/a	403.488	n/a
374.091	0.497	angry	Picture	89.072	n/a	4	10	9	n/a	69	117	3	n/a	n/a	n/a	n/a	404.019	BM25ANS.jpg
374.588	0.514	Blank	Blank	88.558	n/a	4	10	9	n/a	69	n/a	3	n/a	n/a	n/a	n/a	404.516	n/a
375.118	0.497	angry	Picture	88.044	n/a	4	10	10	n/a	70	90	3	n/a	n/a	n/a	n/a	405.047	AF18ANS.jpg
375.616	0.514	Blank	Blank	87.53	n/a	4	10	10	n/a	70	n/a	3	n/a	n/a	n/a	n/a	405.544	n/a
376.146	0.497	angry	Picture	87.017	n/a	4	10	11	n/a	71	83	3	n/a	n/a	n/a	n/a	406.074	BF04ANS.jpg
376.644	0.514	Blank	Blank	86.503	n/a	4	10	11	n/a	71	n/a	3	n/a	n/a	n/a	n/a	406.572	n/a
377.174	0.497	angry	Picture	85.989	n/a	4	10	12	n/a	72	112	3	n/a	n/a	n/a	n/a	407.102	AM14ANS.jpg
377.671	0.514	Blank	Blank	85.475	n/a	4	10	12	n/a	72	n/a	3	n/a	n/a	n/a	n/a	407.6	n/a
378.202	0.497	angry	Picture	84.961	n/a	4	10	13	n/a	73	102	3	n/a	n/a	n/a	n/a	408.13	BM03ANS.jpg
378.699	0.514	Blank	Blank	84.447	n/a	4	10	13	n/a	73	n/a	3	n/a	n/a	n/a	n/a	408.628	n/a
379.23	0.497	angry	Picture	83.933	n/a	4	10	14	n/a	74	95	3	n/a	n/a	n/a	n/a	409.158	AF25ANS.jpg
379.727	0.514	Blank	Blank	83.419	n/a	4	10	14	n/a	74	n/a	3	n/a	n/a	n/a	n/a	409.655	n/a
380.258	0.497	angry	Picture	82.905	n/a	4	10	15	n/a	75	113	3	n/a	n/a	n/a	n/a	410.186	AM21ANS.jpg
380.755	0.514	Blank	Blank	82.391	n/a	4	10	15	n/a	75	n/a	3	n/a	n/a	n/a	n/a	410.683	n/a
381.286	0.497	angry	Picture	81.877	n/a	4	10	16	n/a	76	88	3	n/a	n/a	n/a	n/a	411.214	AF14ANS.jpg
381.783	0.514	Blank	Blank	81.363	n/a	4	10	16	n/a	76	n/a	3	n/a	n/a	n/a	n/a	411.711	n/a
382.313	0.497	angry	Picture	80.849	n/a	4	10	17	n/a	77	93	3	n/a	n/a	n/a	n/a	412.242	BF22ANS.jpg
382.811	0.514	Blank	Blank	80.335	n/a	4	10	17	n/a	77	n/a	3	n/a	n/a	n/a	n/a	412.739	n/a
383.341	0.497	angry	Picture	79.821	n/a	4	10	18	n/a	78	86	3	n/a	n/a	n/a	n/a	413.27	AF09ANS.jpg
383.839	0.514	Blank	Blank	79.308	n/a	4	10	18	n/a	78	n/a	3	n/a	n/a	n/a	n/a	413.767	n/a
384.369	0.497	angry	Picture	78.793	n/a	4	10	19	n/a	79	92	3	n/a	n/a	n/a	n/a	414.298	AF21ANS.jpg
384.867	0.514	Blank	Blank	78.28	n/a	4	10	19	n/a	79	n/a	3	n/a	n/a	n/a	n/a	414.795	n/a
385.397	0.497	angry	Picture	77.766	n/a	4	10	20	n/a	80	84	3	n/a	n/a	n/a	n/a	415.325	AF05ANS.jpg
385.894	0.514	Blank	Blank	77.252	n/a	4	10	20	n/a	80	n/a	3	n/a	n/a	n/a	n/a	415.823	n/a
386.425	10.014	ITI	Fixation+	67.222	n/a	4	n/a	n/a	n/a	n/a	n/a	n/a	n/a	n/a	n/a	n/a	416.353	n/a
396.455	0.497	neutral	Picture	66.708	n/a	4	11	1	n/a	81	4	1	n/a	n/a	n/a	n/a	426.383	AF05NES.jpg
396.953	0.514	Blank	Blank	66.194	n/a	4	11	1	n/a	81	n/a	1	n/a	n/a	n/a	n/a	426.881	n/a
397.483	0.497	neutral	Picture	65.68	n/a	4	11	2	n/a	82	14	1	n/a	n/a	n/a	n/a	427.411	AF23NES.jpg
397.98	0.514	Blank	Blank	65.166	n/a	4	11	2	n/a	82	n/a	1	n/a	n/a	n/a	n/a	427.909	n/a
398.511	0.497	neutral	Picture	64.652	n/a	4	11	3	n/a	83	19	1	n/a	n/a	n/a	n/a	428.439	AF31NES.jpg
399.008	0.514	Blank	Blank	64.138	n/a	4	11	3	n/a	83	n/a	1	n/a	n/a	n/a	n/a	428.937	n/a
399.539	0.497	neutral	Picture	63.624	n/a	4	11	4	n/a	84	8	1	n/a	n/a	n/a	n/a	429.467	AF14NES.jpg
400.036	0.514	Blank	Blank	63.11	n/a	4	11	4	n/a	84	n/a	1	n/a	n/a	n/a	n/a	429.964	n/a
400.567	0.497	neutral	Picture	62.596	n/a	4	11	5	n/a	85	25	1	n/a	n/a	n/a	n/a	430.495	BM06NES.jpg
401.064	0.514	Blank	Blank	62.082	n/a	4	11	5	n/a	85	n/a	1	n/a	n/a	n/a	n/a	430.992	n/a
401.595	0.497	neutral	Picture	61.568	n/a	4	11	6	n/a	86	9	1	n/a	n/a	n/a	n/a	431.523	AF17NES.jpg
402.092	0.514	Blank	Blank	61.054	n/a	4	11	6	n/a	86	n/a	1	n/a	n/a	n/a	n/a	432.02	n/a
402.623	0.497	neutral	Picture	60.54	n/a	4	11	7	n/a	87	2	1	n/a	n/a	n/a	n/a	432.551	AF03NES.jpg
403.12	0.514	Blank	Blank	60.026	n/a	4	11	7	n/a	87	n/a	1	n/a	n/a	n/a	n/a	433.048	n/a
403.65	0.497	neutral	Picture	59.512	n/a	4	11	8	n/a	88	17	1	n/a	n/a	n/a	n/a	433.579	BF28NES.jpg
404.148	0.514	Blank	Blank	58.998	n/a	4	11	8	n/a	88	n/a	1	n/a	n/a	n/a	n/a	434.076	n/a
404.678	0.497	neutral	Picture	58.485	n/a	4	11	9	n/a	89	6	1	n/a	n/a	n/a	n/a	434.606	AF09NES.jpg
405.176	0.514	Blank	Blank	57.971	n/a	4	11	9	n/a	89	n/a	1	n/a	n/a	n/a	n/a	435.104	n/a
405.706	0.497	neutral	Picture	57.457	n/a	4	11	10	n/a	90	12	1	n/a	n/a	n/a	n/a	435.634	AF21NES.jpg
406.204	0.514	Blank	Blank	56.943	n/a	4	11	10	n/a	90	n/a	1	n/a	n/a	n/a	n/a	436.132	n/a
406.734	0.497	neutral	Picture	56.429	n/a	4	11	11	n/a	91	24	1	n/a	n/a	n/a	n/a	436.662	BM05NES.jpg
407.231	0.514	Blank	Blank	55.915	n/a	4	11	11	n/a	91	n/a	1	n/a	n/a	n/a	n/a	437.16	n/a
407.762	0.497	neutral	Picture	55.401	n/a	4	11	12	n/a	92	34	1	n/a	n/a	n/a	n/a	437.69	AM22NES.jpg
408.259	0.514	Blank	Blank	54.887	n/a	4	11	12	n/a	92	n/a	1	n/a	n/a	n/a	n/a	438.188	n/a
408.79	0.497	neutral	Picture	54.373	n/a	4	11	13	n/a	93	23	1	n/a	n/a	n/a	n/a	438.718	AM04NES.jpg
409.287	0.514	Blank	Blank	53.859	n/a	4	11	13	n/a	93	n/a	1	n/a	n/a	n/a	n/a	439.215	n/a
409.818	0.497	neutral	Picture	53.345	n/a	4	11	14	n/a	94	15	1	n/a	n/a	n/a	n/a	439.746	AF25NES.jpg
410.315	0.514	Blank	Blank	52.831	n/a	4	11	14	n/a	94	n/a	1	n/a	n/a	n/a	n/a	440.243	n/a
410.846	0.497	neutral	Picture	52.317	n/a	4	11	15	n/a	95	37	1	n/a	n/a	n/a	n/a	440.774	BM25NES.jpg
411.343	0.514	Blank	Blank	51.803	n/a	4	11	15	n/a	95	n/a	1	n/a	n/a	n/a	n/a	441.271	n/a
411.873	0.497	neutral	Picture	51.289	n/a	4	11	16	n/a	96	32	1	n/a	n/a	n/a	n/a	441.802	AM14NES.jpg
412.371	0.514	Blank	Blank	50.776	n/a	4	11	16	n/a	96	n/a	1	n/a	n/a	n/a	n/a	442.299	n/a
412.901	0.497	neutral	Picture	50.261	n/a	4	11	17	n/a	97	3	1	n/a	n/a	n/a	n/a	442.829	BF04NES.jpg
413.399	0.514	Blank	Blank	49.748	n/a	4	11	17	n/a	97	n/a	1	n/a	n/a	n/a	n/a	443.327	n/a
413.929	0.497	neutral	Picture	49.234	n/a	4	11	18	n/a	98	16	1	n/a	n/a	n/a	n/a	443.857	AF26NES.jpg
414.427	0.514	Blank	Blank	48.72	n/a	4	11	18	n/a	98	n/a	1	n/a	n/a	n/a	n/a	444.355	n/a
414.957	0.497	neutral	Picture	48.206	n/a	4	11	19	n/a	99	27	1	n/a	n/a	n/a	n/a	444.885	BM08NES.jpg
415.454	0.514	Blank	Blank	47.692	n/a	4	11	19	n/a	99	n/a	1	n/a	n/a	n/a	n/a	445.383	n/a
415.985	0.497	neutral	Picture	47.178	n/a	4	11	20	n/a	100	28	1	n/a	n/a	n/a	n/a	445.913	AM09NES.jpg
416.482	0.514	Blank	Blank	46.664	n/a	4	11	20	n/a	100	n/a	1	n/a	n/a	n/a	n/a	446.411	n/a
417.013	10.014	ITI	Fixation+	36.634	n/a	4	n/a	n/a	n/a	n/a	n/a	n/a	n/a	n/a	n/a	n/a	446.941	n/a
427.043	0.497	angry	Picture	36.12	n/a	4	12	1	n/a	101	81	3	n/a	n/a	n/a	n/a	456.971	AF01ANS.jpg
427.54	0.514	Blank	Blank	35.606	n/a	4	12	1	n/a	101	n/a	3	n/a	n/a	n/a	n/a	457.469	n/a
428.071	0.497	angry	Picture	35.092	n/a	4	12	2	n/a	102	120	3	n/a	n/a	n/a	n/a	457.999	AM35ANS.jpg
428.568	0.514	Blank	Blank	34.578	n/a	4	12	2	n/a	102	n/a	3	n/a	n/a	n/a	n/a	458.496	n/a
429.099	0.497	angry	Picture	34.064	n/a	4	12	3	n/a	103	114	3	n/a	n/a	n/a	n/a	459.027	AM22ANS.jpg
429.596	0.514	Blank	Blank	33.55	n/a	4	12	3	n/a	103	n/a	3	n/a	n/a	n/a	n/a	459.524	n/a
430.127	0.497	angry	Picture	33.036	n/a	4	12	4	n/a	104	109	3	n/a	n/a	n/a	n/a	460.055	AM10ANS.jpg
430.624	0.514	Blank	Blank	32.522	n/a	4	12	4	n/a	104	n/a	3	n/a	n/a	n/a	n/a	460.552	n/a
431.154	0.497	angry	Picture	32.008	n/a	4	12	5	n/a	105	96	3	n/a	n/a	n/a	n/a	461.083	AF26ANS.jpg
431.652	0.514	Blank	Blank	31.494	n/a	4	12	5	n/a	105	n/a	3	n/a	n/a	n/a	n/a	461.58	n/a
432.182	0.497	angry	Picture	30.98	n/a	4	12	6	n/a	106	82	3	n/a	n/a	n/a	n/a	462.111	AF03ANS.jpg
432.68	0.514	Blank	Blank	30.466	n/a	4	12	6	n/a	106	n/a	3	n/a	n/a	n/a	n/a	462.608	n/a
433.21	0.497	angry	Picture	29.953	n/a	4	12	7	n/a	107	97	3	n/a	n/a	n/a	n/a	463.139	BF28ANS.jpg
433.708	0.514	Blank	Blank	29.439	n/a	4	12	7	n/a	107	n/a	3	n/a	n/a	n/a	n/a	463.636	n/a
434.238	0.497	angry	Picture	28.925	n/a	4	12	8	n/a	108	115	3	n/a	n/a	n/a	n/a	464.166	AM23ANS.jpg
434.736	0.514	Blank	Blank	28.411	n/a	4	12	8	n/a	108	n/a	3	n/a	n/a	n/a	n/a	464.664	n/a
435.266	0.497	angry	Picture	27.897	n/a	4	12	9	n/a	109	91	3	n/a	n/a	n/a	n/a	465.194	AF20ANS.jpg
435.763	0.514	Blank	Blank	27.383	n/a	4	12	9	n/a	109	n/a	3	n/a	n/a	n/a	n/a	465.692	n/a
436.294	0.497	angry	Picture	26.869	n/a	4	12	10	n/a	110	87	3	n/a	n/a	n/a	n/a	466.222	BF11ANS.jpg
436.791	0.514	Blank	Blank	26.355	n/a	4	12	10	n/a	110	n/a	3	n/a	n/a	n/a	n/a	466.719	n/a
437.322	0.497	angry	Picture	25.841	n/a	4	12	11	n/a	111	85	3	n/a	n/a	n/a	n/a	467.25	BF07ANS.jpg
437.819	0.514	Blank	Blank	25.327	n/a	4	12	11	n/a	111	n/a	3	n/a	n/a	n/a	n/a	467.747	n/a
438.35	0.497	angry	Picture	24.813	n/a	4	12	12	n/a	112	110	3	n/a	n/a	n/a	n/a	468.278	AM11ANS.jpg
438.847	0.514	Blank	Blank	24.299	n/a	4	12	12	n/a	112	n/a	3	n/a	n/a	n/a	n/a	468.775	n/a
439.378	0.497	angry	Picture	23.785	n/a	4	12	13	n/a	113	111	3	n/a	n/a	n/a	n/a	469.306	BM12ANS.jpg
439.875	0.514	Blank	Blank	23.271	n/a	4	12	13	n/a	113	n/a	3	n/a	n/a	n/a	n/a	469.803	n/a
440.405	0.497	angry	Picture	22.757	n/a	4	12	14	n/a	114	103	3	n/a	n/a	n/a	n/a	470.334	AM04ANS.jpg
440.903	0.514	Blank	Blank	22.243	n/a	4	12	14	n/a	114	n/a	3	n/a	n/a	n/a	n/a	470.831	n/a
441.433	0.497	angry	Picture	21.729	n/a	4	12	15	n/a	115	101	3	n/a	n/a	n/a	n/a	471.361	AM01ANS.jpg
441.931	0.514	Blank	Blank	21.216	n/a	4	12	15	n/a	115	n/a	3	n/a	n/a	n/a	n/a	471.859	n/a
442.461	0.497	angry	Picture	20.702	n/a	4	12	16	n/a	116	104	3	n/a	n/a	n/a	n/a	472.389	BM05ANS.jpg
442.959	0.514	Blank	Blank	20.188	n/a	4	12	16	n/a	116	n/a	3	n/a	n/a	n/a	n/a	472.887	n/a
443.489	0.497	angry	Picture	19.674	n/a	4	12	17	n/a	117	107	3	n/a	n/a	n/a	n/a	473.417	BM08ANS.jpg
443.986	0.514	Blank	Blank	19.16	n/a	4	12	17	n/a	117	n/a	3	n/a	n/a	n/a	n/a	473.915	n/a
444.517	0.497	angry	Picture	18.646	n/a	4	12	18	n/a	118	98	3	n/a	n/a	n/a	n/a	474.445	BF29ANS.jpg
445.014	0.514	Blank	Blank	18.132	n/a	4	12	18	n/a	118	n/a	3	n/a	n/a	n/a	n/a	474.942	n/a
445.545	0.497	angry	Picture	17.618	n/a	4	12	19	n/a	119	99	3	n/a	n/a	n/a	n/a	475.473	AF31ANS.jpg
446.042	0.514	Blank	Blank	17.104	n/a	4	12	19	n/a	119	n/a	3	n/a	n/a	n/a	n/a	475.97	n/a
446.573	0.497	angry	Picture	16.59	n/a	4	12	20	n/a	120	108	3	n/a	n/a	n/a	n/a	476.501	AM09ANS.jpg
447.07	0.514	Blank	Blank	16.076	n/a	4	12	20	n/a	120	n/a	3	n/a	n/a	n/a	n/a	476.998	n/a
447.601	10.014	ITI	Fixation+	6.046	n/a	4	n/a	n/a	n/a	n/a	n/a	n/a	n/a	n/a	n/a	n/a	477.529	n/a
463.66	n/a	ConfirmRating	Rate	n/a	6.034	4	n/a	n/a	0	n/a	n/a	n/a	2	Angry	25	49	493.588	n/a
467.909	n/a	ConfirmRating	Rate	n/a	4.227	4	n/a	n/a	1	n/a	n/a	n/a	3	Angry	67	51	497.837	n/a
