onset	duration	trial_type	event_type	time_until_response	response_time	trial_number	block_num_within_trial	image_seq_num_within_block	question_seq_num_within_block	image_seq_num	picture_number	condition	question_type	block_type	rating	rating_computed	onset_uncorrected	KDEV_imagefile
0.004	10.014	ITI	Fixation+	111.242	n/a	1	n/a	n/a	n/a	n/a	n/a	n/a	n/a	n/a	n/a	n/a	76.489	n/a
10.034	0.497	angry	Picture	110.728	n/a	1	1	1	n/a	1	108	3	n/a	n/a	n/a	n/a	86.519	AM09ANS.jpg
10.531	0.514	Blank	Blank	110.214	n/a	1	1	1	n/a	1	n/a	3	n/a	n/a	n/a	n/a	87.016	n/a
11.062	0.497	angry	Picture	109.7	n/a	1	1	2	n/a	2	99	3	n/a	n/a	n/a	n/a	87.547	AF31ANS.jpg
11.559	0.514	Blank	Blank	109.186	n/a	1	1	2	n/a	2	n/a	3	n/a	n/a	n/a	n/a	88.044	n/a
12.09	0.497	angry	Picture	108.672	n/a	1	1	3	n/a	3	98	3	n/a	n/a	n/a	n/a	88.575	BF29ANS.jpg
12.587	0.514	Blank	Blank	108.158	n/a	1	1	3	n/a	3	n/a	3	n/a	n/a	n/a	n/a	89.072	n/a
13.118	0.497	angry	Picture	107.644	n/a	1	1	4	n/a	4	107	3	n/a	n/a	n/a	n/a	89.603	BM08ANS.jpg
13.615	0.514	Blank	Blank	107.13	n/a	1	1	4	n/a	4	n/a	3	n/a	n/a	n/a	n/a	90.1	n/a
14.145	0.497	angry	Picture	106.616	n/a	1	1	5	n/a	5	104	3	n/a	n/a	n/a	n/a	90.63	BM05ANS.jpg
14.643	0.514	Blank	Blank	106.102	n/a	1	1	5	n/a	5	n/a	3	n/a	n/a	n/a	n/a	91.128	n/a
15.173	0.497	angry	Picture	105.588	n/a	1	1	6	n/a	6	101	3	n/a	n/a	n/a	n/a	91.658	AM01ANS.jpg
15.671	0.514	Blank	Blank	105.074	n/a	1	1	6	n/a	6	n/a	3	n/a	n/a	n/a	n/a	92.156	n/a
16.201	0.497	angry	Picture	104.56	n/a	1	1	7	n/a	7	103	3	n/a	n/a	n/a	n/a	92.686	AM04ANS.jpg
16.698	0.514	Blank	Blank	104.046	n/a	1	1	7	n/a	7	n/a	3	n/a	n/a	n/a	n/a	93.183	n/a
17.229	0.497	angry	Picture	103.532	n/a	1	1	8	n/a	8	111	3	n/a	n/a	n/a	n/a	93.714	BM12ANS.jpg
17.726	0.514	Blank	Blank	103.018	n/a	1	1	8	n/a	8	n/a	3	n/a	n/a	n/a	n/a	94.211	n/a
18.257	0.497	angry	Picture	102.504	n/a	1	1	9	n/a	9	110	3	n/a	n/a	n/a	n/a	94.742	AM11ANS.jpg
18.754	0.514	Blank	Blank	101.991	n/a	1	1	9	n/a	9	n/a	3	n/a	n/a	n/a	n/a	95.239	n/a
19.285	0.497	angry	Picture	101.477	n/a	1	1	10	n/a	10	85	3	n/a	n/a	n/a	n/a	95.77	BF07ANS.jpg
19.782	0.514	Blank	Blank	100.963	n/a	1	1	10	n/a	10	n/a	3	n/a	n/a	n/a	n/a	96.267	n/a
20.313	0.497	angry	Picture	100.449	n/a	1	1	11	n/a	11	87	3	n/a	n/a	n/a	n/a	96.798	BF11ANS.jpg
20.81	0.514	Blank	Blank	99.935	n/a	1	1	11	n/a	11	n/a	3	n/a	n/a	n/a	n/a	97.295	n/a
21.341	0.497	angry	Picture	99.421	n/a	1	1	12	n/a	12	91	3	n/a	n/a	n/a	n/a	97.826	AF20ANS.jpg
21.838	0.514	Blank	Blank	98.907	n/a	1	1	12	n/a	12	n/a	3	n/a	n/a	n/a	n/a	98.323	n/a
22.368	0.497	angry	Picture	98.393	n/a	1	1	13	n/a	13	115	3	n/a	n/a	n/a	n/a	98.853	AM23ANS.jpg
22.866	0.514	Blank	Blank	97.879	n/a	1	1	13	n/a	13	n/a	3	n/a	n/a	n/a	n/a	99.351	n/a
23.396	0.497	angry	Picture	97.365	n/a	1	1	14	n/a	14	97	3	n/a	n/a	n/a	n/a	99.881	BF28ANS.jpg
23.894	0.514	Blank	Blank	96.851	n/a	1	1	14	n/a	14	n/a	3	n/a	n/a	n/a	n/a	100.379	n/a
24.424	0.497	angry	Picture	96.337	n/a	1	1	15	n/a	15	82	3	n/a	n/a	n/a	n/a	100.909	AF03ANS.jpg
24.921	0.514	Blank	Blank	95.823	n/a	1	1	15	n/a	15	n/a	3	n/a	n/a	n/a	n/a	101.406	n/a
25.452	0.497	angry	Picture	95.309	n/a	1	1	16	n/a	16	96	3	n/a	n/a	n/a	n/a	101.937	AF26ANS.jpg
25.949	0.514	Blank	Blank	94.795	n/a	1	1	16	n/a	16	n/a	3	n/a	n/a	n/a	n/a	102.434	n/a
26.48	0.497	angry	Picture	94.281	n/a	1	1	17	n/a	17	109	3	n/a	n/a	n/a	n/a	102.965	AM10ANS.jpg
26.977	0.514	Blank	Blank	93.768	n/a	1	1	17	n/a	17	n/a	3	n/a	n/a	n/a	n/a	103.462	n/a
27.508	0.497	angry	Picture	93.254	n/a	1	1	18	n/a	18	114	3	n/a	n/a	n/a	n/a	103.993	AM22ANS.jpg
28.005	0.514	Blank	Blank	92.74	n/a	1	1	18	n/a	18	n/a	3	n/a	n/a	n/a	n/a	104.49	n/a
28.536	0.497	angry	Picture	92.226	n/a	1	1	19	n/a	19	120	3	n/a	n/a	n/a	n/a	105.021	AM35ANS.jpg
29.033	0.514	Blank	Blank	91.712	n/a	1	1	19	n/a	19	n/a	3	n/a	n/a	n/a	n/a	105.518	n/a
29.564	0.497	angry	Picture	91.198	n/a	1	1	20	n/a	20	81	3	n/a	n/a	n/a	n/a	106.049	AF01ANS.jpg
30.061	0.514	Blank	Blank	90.684	n/a	1	1	20	n/a	20	n/a	3	n/a	n/a	n/a	n/a	106.546	n/a
30.591	10.014	ITI	Fixation+	80.654	n/a	1	n/a	n/a	n/a	n/a	n/a	n/a	n/a	n/a	n/a	n/a	107.076	n/a
40.622	0.497	neutral	Picture	80.14	n/a	1	2	1	n/a	21	28	1	n/a	n/a	n/a	n/a	117.107	AM09NES.jpg
41.119	0.514	Blank	Blank	79.626	n/a	1	2	1	n/a	21	n/a	1	n/a	n/a	n/a	n/a	117.604	n/a
41.65	0.497	neutral	Picture	79.112	n/a	1	2	2	n/a	22	27	1	n/a	n/a	n/a	n/a	118.135	BM08NES.jpg
42.147	0.514	Blank	Blank	78.598	n/a	1	2	2	n/a	22	n/a	1	n/a	n/a	n/a	n/a	118.632	n/a
42.677	0.497	neutral	Picture	78.084	n/a	1	2	3	n/a	23	16	1	n/a	n/a	n/a	n/a	119.162	AF26NES.jpg
43.175	0.514	Blank	Blank	77.57	n/a	1	2	3	n/a	23	n/a	1	n/a	n/a	n/a	n/a	119.66	n/a
43.705	0.497	neutral	Picture	77.056	n/a	1	2	4	n/a	24	3	1	n/a	n/a	n/a	n/a	120.19	BF04NES.jpg
44.203	0.514	Blank	Blank	76.542	n/a	1	2	4	n/a	24	n/a	1	n/a	n/a	n/a	n/a	120.688	n/a
44.733	0.497	neutral	Picture	76.028	n/a	1	2	5	n/a	25	32	1	n/a	n/a	n/a	n/a	121.218	AM14NES.jpg
45.231	0.514	Blank	Blank	75.514	n/a	1	2	5	n/a	25	n/a	1	n/a	n/a	n/a	n/a	121.716	n/a
45.761	0.497	neutral	Picture	75.0	n/a	1	2	6	n/a	26	37	1	n/a	n/a	n/a	n/a	122.246	BM25NES.jpg
46.258	0.514	Blank	Blank	74.486	n/a	1	2	6	n/a	26	n/a	1	n/a	n/a	n/a	n/a	122.743	n/a
46.789	0.497	neutral	Picture	73.973	n/a	1	2	7	n/a	27	15	1	n/a	n/a	n/a	n/a	123.274	AF25NES.jpg
47.286	0.514	Blank	Blank	73.459	n/a	1	2	7	n/a	27	n/a	1	n/a	n/a	n/a	n/a	123.771	n/a
47.817	0.497	neutral	Picture	72.945	n/a	1	2	8	n/a	28	23	1	n/a	n/a	n/a	n/a	124.302	AM04NES.jpg
48.314	0.514	Blank	Blank	72.431	n/a	1	2	8	n/a	28	n/a	1	n/a	n/a	n/a	n/a	124.799	n/a
48.845	0.497	neutral	Picture	71.917	n/a	1	2	9	n/a	29	34	1	n/a	n/a	n/a	n/a	125.33	AM22NES.jpg
49.342	0.514	Blank	Blank	71.403	n/a	1	2	9	n/a	29	n/a	1	n/a	n/a	n/a	n/a	125.827	n/a
49.873	0.497	neutral	Picture	70.889	n/a	1	2	10	n/a	30	24	1	n/a	n/a	n/a	n/a	126.358	BM05NES.jpg
50.37	0.514	Blank	Blank	70.375	n/a	1	2	10	n/a	30	n/a	1	n/a	n/a	n/a	n/a	126.855	n/a
50.9	0.497	neutral	Picture	69.861	n/a	1	2	11	n/a	31	12	1	n/a	n/a	n/a	n/a	127.385	AF21NES.jpg
51.398	0.514	Blank	Blank	69.347	n/a	1	2	11	n/a	31	n/a	1	n/a	n/a	n/a	n/a	127.883	n/a
51.928	0.497	neutral	Picture	68.833	n/a	1	2	12	n/a	32	6	1	n/a	n/a	n/a	n/a	128.413	AF09NES.jpg
52.426	0.514	Blank	Blank	68.319	n/a	1	2	12	n/a	32	n/a	1	n/a	n/a	n/a	n/a	128.911	n/a
52.956	0.497	neutral	Picture	67.805	n/a	1	2	13	n/a	33	17	1	n/a	n/a	n/a	n/a	129.441	BF28NES.jpg
53.454	0.514	Blank	Blank	67.291	n/a	1	2	13	n/a	33	n/a	1	n/a	n/a	n/a	n/a	129.939	n/a
53.984	0.497	neutral	Picture	66.777	n/a	1	2	14	n/a	34	2	1	n/a	n/a	n/a	n/a	130.469	AF03NES.jpg
54.481	0.514	Blank	Blank	66.263	n/a	1	2	14	n/a	34	n/a	1	n/a	n/a	n/a	n/a	130.966	n/a
55.012	0.497	neutral	Picture	65.749	n/a	1	2	15	n/a	35	9	1	n/a	n/a	n/a	n/a	131.497	AF17NES.jpg
55.509	0.514	Blank	Blank	65.236	n/a	1	2	15	n/a	35	n/a	1	n/a	n/a	n/a	n/a	131.994	n/a
56.04	0.497	neutral	Picture	64.722	n/a	1	2	16	n/a	36	25	1	n/a	n/a	n/a	n/a	132.525	BM06NES.jpg
56.537	0.514	Blank	Blank	64.208	n/a	1	2	16	n/a	36	n/a	1	n/a	n/a	n/a	n/a	133.022	n/a
57.068	0.497	neutral	Picture	63.694	n/a	1	2	17	n/a	37	8	1	n/a	n/a	n/a	n/a	133.553	AF14NES.jpg
57.565	0.514	Blank	Blank	63.18	n/a	1	2	17	n/a	37	n/a	1	n/a	n/a	n/a	n/a	134.05	n/a
58.096	0.497	neutral	Picture	62.666	n/a	1	2	18	n/a	38	19	1	n/a	n/a	n/a	n/a	134.581	AF31NES.jpg
58.593	0.514	Blank	Blank	62.152	n/a	1	2	18	n/a	38	n/a	1	n/a	n/a	n/a	n/a	135.078	n/a
59.123	0.497	neutral	Picture	61.638	n/a	1	2	19	n/a	39	14	1	n/a	n/a	n/a	n/a	135.608	AF23NES.jpg
59.621	0.514	Blank	Blank	61.124	n/a	1	2	19	n/a	39	n/a	1	n/a	n/a	n/a	n/a	136.106	n/a
60.151	0.497	neutral	Picture	60.61	n/a	1	2	20	n/a	40	4	1	n/a	n/a	n/a	n/a	136.636	AF05NES.jpg
60.649	0.514	Blank	Blank	60.096	n/a	1	2	20	n/a	40	n/a	1	n/a	n/a	n/a	n/a	137.134	n/a
61.179	10.014	ITI	Fixation+	50.066	n/a	1	n/a	n/a	n/a	n/a	n/a	n/a	n/a	n/a	n/a	n/a	137.664	n/a
71.209	0.497	angry	Picture	49.552	n/a	1	3	1	n/a	41	84	3	n/a	n/a	n/a	n/a	147.694	AF05ANS.jpg
71.707	0.514	Blank	Blank	49.038	n/a	1	3	1	n/a	41	n/a	3	n/a	n/a	n/a	n/a	148.192	n/a
72.237	0.497	angry	Picture	48.524	n/a	1	3	2	n/a	42	92	3	n/a	n/a	n/a	n/a	148.722	AF21ANS.jpg
72.735	0.514	Blank	Blank	48.01	n/a	1	3	2	n/a	42	n/a	3	n/a	n/a	n/a	n/a	149.22	n/a
73.265	0.497	angry	Picture	47.496	n/a	1	3	3	n/a	43	86	3	n/a	n/a	n/a	n/a	149.75	AF09ANS.jpg
73.762	0.514	Blank	Blank	46.982	n/a	1	3	3	n/a	43	n/a	3	n/a	n/a	n/a	n/a	150.247	n/a
74.293	0.497	angry	Picture	46.469	n/a	1	3	4	n/a	44	93	3	n/a	n/a	n/a	n/a	150.778	BF22ANS.jpg
74.79	0.514	Blank	Blank	45.955	n/a	1	3	4	n/a	44	n/a	3	n/a	n/a	n/a	n/a	151.275	n/a
75.321	0.497	angry	Picture	45.441	n/a	1	3	5	n/a	45	88	3	n/a	n/a	n/a	n/a	151.806	AF14ANS.jpg
75.818	0.514	Blank	Blank	44.927	n/a	1	3	5	n/a	45	n/a	3	n/a	n/a	n/a	n/a	152.303	n/a
76.349	0.497	angry	Picture	44.413	n/a	1	3	6	n/a	46	113	3	n/a	n/a	n/a	n/a	152.834	AM21ANS.jpg
76.846	0.514	Blank	Blank	43.899	n/a	1	3	6	n/a	46	n/a	3	n/a	n/a	n/a	n/a	153.331	n/a
77.377	0.497	angry	Picture	43.385	n/a	1	3	7	n/a	47	95	3	n/a	n/a	n/a	n/a	153.862	AF25ANS.jpg
77.874	0.514	Blank	Blank	42.871	n/a	1	3	7	n/a	47	n/a	3	n/a	n/a	n/a	n/a	154.359	n/a
78.404	0.497	angry	Picture	42.357	n/a	1	3	8	n/a	48	102	3	n/a	n/a	n/a	n/a	154.889	BM03ANS.jpg
78.902	0.514	Blank	Blank	41.843	n/a	1	3	8	n/a	48	n/a	3	n/a	n/a	n/a	n/a	155.387	n/a
79.432	0.497	angry	Picture	41.329	n/a	1	3	9	n/a	49	112	3	n/a	n/a	n/a	n/a	155.917	AM14ANS.jpg
79.93	0.514	Blank	Blank	40.815	n/a	1	3	9	n/a	49	n/a	3	n/a	n/a	n/a	n/a	156.415	n/a
80.46	0.497	angry	Picture	40.301	n/a	1	3	10	n/a	50	83	3	n/a	n/a	n/a	n/a	156.945	BF04ANS.jpg
80.958	0.514	Blank	Blank	39.787	n/a	1	3	10	n/a	50	n/a	3	n/a	n/a	n/a	n/a	157.443	n/a
81.488	0.497	angry	Picture	39.273	n/a	1	3	11	n/a	51	90	3	n/a	n/a	n/a	n/a	157.973	AF18ANS.jpg
81.985	0.514	Blank	Blank	38.759	n/a	1	3	11	n/a	51	n/a	3	n/a	n/a	n/a	n/a	158.47	n/a
82.516	0.497	angry	Picture	38.245	n/a	1	3	12	n/a	52	117	3	n/a	n/a	n/a	n/a	159.001	BM25ANS.jpg
83.013	0.514	Blank	Blank	37.731	n/a	1	3	12	n/a	52	n/a	3	n/a	n/a	n/a	n/a	159.498	n/a
83.544	0.497	angry	Picture	37.218	n/a	1	3	13	n/a	53	94	3	n/a	n/a	n/a	n/a	160.029	AF23ANS.jpg
84.041	0.514	Blank	Blank	36.704	n/a	1	3	13	n/a	53	n/a	3	n/a	n/a	n/a	n/a	160.526	n/a
84.572	0.497	angry	Picture	36.19	n/a	1	3	14	n/a	54	106	3	n/a	n/a	n/a	n/a	161.057	AM07ANS.jpg
85.069	0.514	Blank	Blank	35.676	n/a	1	3	14	n/a	54	n/a	3	n/a	n/a	n/a	n/a	161.554	n/a
85.6	0.497	angry	Picture	35.162	n/a	1	3	15	n/a	55	105	3	n/a	n/a	n/a	n/a	162.085	BM06ANS.jpg
86.097	0.514	Blank	Blank	34.648	n/a	1	3	15	n/a	55	n/a	3	n/a	n/a	n/a	n/a	162.582	n/a
86.628	0.497	angry	Picture	34.134	n/a	1	3	16	n/a	56	116	3	n/a	n/a	n/a	n/a	163.113	BM24ANS.jpg
87.125	0.514	Blank	Blank	33.62	n/a	1	3	16	n/a	56	n/a	3	n/a	n/a	n/a	n/a	163.61	n/a
87.655	0.497	angry	Picture	33.106	n/a	1	3	17	n/a	57	89	3	n/a	n/a	n/a	n/a	164.14	AF17ANS.jpg
88.153	0.514	Blank	Blank	32.592	n/a	1	3	17	n/a	57	n/a	3	n/a	n/a	n/a	n/a	164.638	n/a
88.682	0.498	angry	Picture	32.078	n/a	1	3	18	n/a	58	118	3	n/a	n/a	n/a	n/a	165.167	BM26ANS.jpg
89.181	0.514	Blank	Blank	31.564	n/a	1	3	18	n/a	58	n/a	3	n/a	n/a	n/a	n/a	165.666	n/a
89.711	0.497	angry	Picture	31.05	n/a	1	3	19	n/a	59	100	3	n/a	n/a	n/a	n/a	166.196	AF32ANS.jpg
90.209	0.514	Blank	Blank	30.536	n/a	1	3	19	n/a	59	n/a	3	n/a	n/a	n/a	n/a	166.694	n/a
90.739	0.497	angry	Picture	30.023	n/a	1	3	20	n/a	60	119	3	n/a	n/a	n/a	n/a	167.224	BM28ANS.jpg
91.236	0.514	Blank	Blank	29.508	n/a	1	3	20	n/a	60	n/a	3	n/a	n/a	n/a	n/a	167.721	n/a
91.767	10.014	ITI	Fixation+	19.478	n/a	1	n/a	n/a	n/a	n/a	n/a	n/a	n/a	n/a	n/a	n/a	168.252	n/a
121.259	n/a	ConfirmRating	Rate	n/a	19.447	1	n/a	n/a	0	n/a	n/a	n/a	2	Angry	20	48	197.744	n/a
124.012	n/a	ConfirmRating	Rate	n/a	2.735	1	n/a	n/a	1	n/a	n/a	n/a	3	Angry	0	49	200.497	n/a
124.029	10.014	ITI	Fixation+	100.386	n/a	2	n/a	n/a	n/a	n/a	n/a	n/a	n/a	n/a	n/a	n/a	200.514	n/a
134.059	0.497	happy	Picture	99.872	n/a	2	4	1	n/a	61	79	2	n/a	n/a	n/a	n/a	210.544	BM28HAS.jpg
134.557	0.514	Blank	Blank	99.358	n/a	2	4	1	n/a	61	n/a	2	n/a	n/a	n/a	n/a	211.042	n/a
135.087	0.497	happy	Picture	98.844	n/a	2	4	2	n/a	62	61	2	n/a	n/a	n/a	n/a	211.572	AM01HAS.jpg
135.584	0.514	Blank	Blank	98.33	n/a	2	4	2	n/a	62	n/a	2	n/a	n/a	n/a	n/a	212.069	n/a
136.115	0.497	happy	Picture	97.817	n/a	2	4	3	n/a	63	57	2	n/a	n/a	n/a	n/a	212.6	BF28HAS.jpg
136.612	0.514	Blank	Blank	97.303	n/a	2	4	3	n/a	63	n/a	2	n/a	n/a	n/a	n/a	213.097	n/a
137.143	0.497	happy	Picture	96.789	n/a	2	4	4	n/a	64	77	2	n/a	n/a	n/a	n/a	213.628	BM25HAS.jpg
137.64	0.514	Blank	Blank	96.275	n/a	2	4	4	n/a	64	n/a	2	n/a	n/a	n/a	n/a	214.125	n/a
138.171	0.497	happy	Picture	95.761	n/a	2	4	5	n/a	65	47	2	n/a	n/a	n/a	n/a	214.656	BF11HAS.jpg
138.668	0.514	Blank	Blank	95.247	n/a	2	4	5	n/a	65	n/a	2	n/a	n/a	n/a	n/a	215.153	n/a
139.199	0.497	happy	Picture	94.733	n/a	2	4	6	n/a	66	50	2	n/a	n/a	n/a	n/a	215.684	AF18HAS.jpg
139.696	0.514	Blank	Blank	94.219	n/a	2	4	6	n/a	66	n/a	2	n/a	n/a	n/a	n/a	216.181	n/a
140.226	0.497	happy	Picture	93.705	n/a	2	4	7	n/a	67	78	2	n/a	n/a	n/a	n/a	216.711	BM26HAS.jpg
140.724	0.514	Blank	Blank	93.191	n/a	2	4	7	n/a	67	n/a	2	n/a	n/a	n/a	n/a	217.209	n/a
141.254	0.497	happy	Picture	92.677	n/a	2	4	8	n/a	68	45	2	n/a	n/a	n/a	n/a	217.739	BF07HAS.jpg
141.752	0.514	Blank	Blank	92.163	n/a	2	4	8	n/a	68	n/a	2	n/a	n/a	n/a	n/a	218.237	n/a
142.282	0.497	happy	Picture	91.649	n/a	2	4	9	n/a	69	56	2	n/a	n/a	n/a	n/a	218.767	AF26HAS.jpg
142.779	0.514	Blank	Blank	91.135	n/a	2	4	9	n/a	69	n/a	2	n/a	n/a	n/a	n/a	219.264	n/a
143.31	0.497	happy	Picture	90.621	n/a	2	4	10	n/a	70	65	2	n/a	n/a	n/a	n/a	219.795	BM06HAS.jpg
143.807	0.514	Blank	Blank	90.107	n/a	2	4	10	n/a	70	n/a	2	n/a	n/a	n/a	n/a	220.292	n/a
144.338	0.497	happy	Picture	89.593	n/a	2	4	11	n/a	71	73	2	n/a	n/a	n/a	n/a	220.823	AM21HAS.jpg
144.835	0.514	Blank	Blank	89.08	n/a	2	4	11	n/a	71	n/a	2	n/a	n/a	n/a	n/a	221.32	n/a
145.366	0.497	happy	Picture	88.566	n/a	2	4	12	n/a	72	41	2	n/a	n/a	n/a	n/a	221.851	AF01HAS.jpg
145.863	0.514	Blank	Blank	88.052	n/a	2	4	12	n/a	72	n/a	2	n/a	n/a	n/a	n/a	222.348	n/a
146.394	0.497	happy	Picture	87.538	n/a	2	4	13	n/a	73	59	2	n/a	n/a	n/a	n/a	222.879	AF31HAS.jpg
146.891	0.514	Blank	Blank	87.024	n/a	2	4	13	n/a	73	n/a	2	n/a	n/a	n/a	n/a	223.376	n/a
147.422	0.497	happy	Picture	86.51	n/a	2	4	14	n/a	74	64	2	n/a	n/a	n/a	n/a	223.907	BM05HAS.jpg
147.919	0.514	Blank	Blank	85.996	n/a	2	4	14	n/a	74	n/a	2	n/a	n/a	n/a	n/a	224.404	n/a
148.449	0.497	happy	Picture	85.482	n/a	2	4	15	n/a	75	68	2	n/a	n/a	n/a	n/a	224.934	AM09HAS.jpg
148.947	0.514	Blank	Blank	84.968	n/a	2	4	15	n/a	75	n/a	2	n/a	n/a	n/a	n/a	225.432	n/a
149.477	0.497	happy	Picture	84.454	n/a	2	4	16	n/a	76	54	2	n/a	n/a	n/a	n/a	225.962	AF23HAS.jpg
149.975	0.514	Blank	Blank	83.94	n/a	2	4	16	n/a	76	n/a	2	n/a	n/a	n/a	n/a	226.46	n/a
150.505	0.497	happy	Picture	83.426	n/a	2	4	17	n/a	77	53	2	n/a	n/a	n/a	n/a	226.99	BF22HAS.jpg
151.003	0.514	Blank	Blank	82.912	n/a	2	4	17	n/a	77	n/a	2	n/a	n/a	n/a	n/a	227.488	n/a
151.533	0.497	happy	Picture	82.398	n/a	2	4	18	n/a	78	44	2	n/a	n/a	n/a	n/a	228.018	AF05HAS.jpg
152.03	0.514	Blank	Blank	81.884	n/a	2	4	18	n/a	78	n/a	2	n/a	n/a	n/a	n/a	228.515	n/a
152.561	0.497	happy	Picture	81.37	n/a	2	4	19	n/a	79	52	2	n/a	n/a	n/a	n/a	229.046	AF21HAS.jpg
153.058	0.514	Blank	Blank	80.857	n/a	2	4	19	n/a	79	n/a	2	n/a	n/a	n/a	n/a	229.543	n/a
153.589	0.497	happy	Picture	80.343	n/a	2	4	20	n/a	80	62	2	n/a	n/a	n/a	n/a	230.074	BM03HAS.jpg
154.086	0.514	Blank	Blank	79.829	n/a	2	4	20	n/a	80	n/a	2	n/a	n/a	n/a	n/a	230.571	n/a
154.617	10.014	ITI	Fixation+	69.799	n/a	2	n/a	n/a	n/a	n/a	n/a	n/a	n/a	n/a	n/a	n/a	231.102	n/a
164.647	0.497	neutral	Picture	69.285	n/a	2	5	1	n/a	81	23	1	n/a	n/a	n/a	n/a	241.132	AM04NES.jpg
165.144	0.514	Blank	Blank	68.771	n/a	2	5	1	n/a	81	n/a	1	n/a	n/a	n/a	n/a	241.629	n/a
165.675	0.497	neutral	Picture	68.257	n/a	2	5	2	n/a	82	29	1	n/a	n/a	n/a	n/a	242.16	AM10NES.jpg
166.172	0.514	Blank	Blank	67.743	n/a	2	5	2	n/a	82	n/a	1	n/a	n/a	n/a	n/a	242.657	n/a
166.703	0.497	neutral	Picture	67.229	n/a	2	5	3	n/a	83	24	1	n/a	n/a	n/a	n/a	243.188	BM05NES.jpg
167.2	0.514	Blank	Blank	66.715	n/a	2	5	3	n/a	83	n/a	1	n/a	n/a	n/a	n/a	243.685	n/a
167.731	0.497	neutral	Picture	66.201	n/a	2	5	4	n/a	84	12	1	n/a	n/a	n/a	n/a	244.215	AF21NES.jpg
168.228	0.514	Blank	Blank	65.687	n/a	2	5	4	n/a	84	n/a	1	n/a	n/a	n/a	n/a	244.713	n/a
168.758	0.497	neutral	Picture	65.173	n/a	2	5	5	n/a	85	13	1	n/a	n/a	n/a	n/a	245.243	BF22NES.jpg
169.256	0.514	Blank	Blank	64.659	n/a	2	5	5	n/a	85	n/a	1	n/a	n/a	n/a	n/a	245.741	n/a
169.786	0.497	neutral	Picture	64.145	n/a	2	5	6	n/a	86	17	1	n/a	n/a	n/a	n/a	246.271	BF28NES.jpg
170.284	0.514	Blank	Blank	63.631	n/a	2	5	6	n/a	86	n/a	1	n/a	n/a	n/a	n/a	246.769	n/a
170.814	0.497	neutral	Picture	63.117	n/a	2	5	7	n/a	87	4	1	n/a	n/a	n/a	n/a	247.299	AF05NES.jpg
171.312	0.514	Blank	Blank	62.603	n/a	2	5	7	n/a	87	n/a	1	n/a	n/a	n/a	n/a	247.797	n/a
171.842	0.497	neutral	Picture	62.089	n/a	2	5	8	n/a	88	11	1	n/a	n/a	n/a	n/a	248.327	AF20NES.jpg
172.339	0.514	Blank	Blank	61.575	n/a	2	5	8	n/a	88	n/a	1	n/a	n/a	n/a	n/a	248.824	n/a
172.87	0.497	neutral	Picture	61.062	n/a	2	5	9	n/a	89	22	1	n/a	n/a	n/a	n/a	249.355	BM03NES.jpg
173.367	0.514	Blank	Blank	60.548	n/a	2	5	9	n/a	89	n/a	1	n/a	n/a	n/a	n/a	249.852	n/a
173.898	0.497	neutral	Picture	60.034	n/a	2	5	10	n/a	90	15	1	n/a	n/a	n/a	n/a	250.383	AF25NES.jpg
174.395	0.514	Blank	Blank	59.52	n/a	2	5	10	n/a	90	n/a	1	n/a	n/a	n/a	n/a	250.88	n/a
174.926	0.497	neutral	Picture	59.006	n/a	2	5	11	n/a	91	19	1	n/a	n/a	n/a	n/a	251.411	AF31NES.jpg
175.423	0.514	Blank	Blank	58.492	n/a	2	5	11	n/a	91	n/a	1	n/a	n/a	n/a	n/a	251.908	n/a
175.954	0.497	neutral	Picture	57.978	n/a	2	5	12	n/a	92	9	1	n/a	n/a	n/a	n/a	252.439	AF17NES.jpg
176.451	0.514	Blank	Blank	57.464	n/a	2	5	12	n/a	92	n/a	1	n/a	n/a	n/a	n/a	252.936	n/a
176.981	0.497	neutral	Picture	56.95	n/a	2	5	13	n/a	93	14	1	n/a	n/a	n/a	n/a	253.466	AF23NES.jpg
177.479	0.514	Blank	Blank	56.436	n/a	2	5	13	n/a	93	n/a	1	n/a	n/a	n/a	n/a	253.964	n/a
178.009	0.497	neutral	Picture	55.922	n/a	2	5	14	n/a	94	36	1	n/a	n/a	n/a	n/a	254.494	BM24NES.jpg
178.507	0.514	Blank	Blank	55.408	n/a	2	5	14	n/a	94	n/a	1	n/a	n/a	n/a	n/a	254.992	n/a
179.037	0.497	neutral	Picture	54.894	n/a	2	5	15	n/a	95	34	1	n/a	n/a	n/a	n/a	255.522	AM22NES.jpg
179.534	0.514	Blank	Blank	54.38	n/a	2	5	15	n/a	95	n/a	1	n/a	n/a	n/a	n/a	256.019	n/a
180.065	0.497	neutral	Picture	53.866	n/a	2	5	16	n/a	96	10	1	n/a	n/a	n/a	n/a	256.55	AF18NES.jpg
180.562	0.514	Blank	Blank	53.352	n/a	2	5	16	n/a	96	n/a	1	n/a	n/a	n/a	n/a	257.047	n/a
181.093	0.497	neutral	Picture	52.838	n/a	2	5	17	n/a	97	5	1	n/a	n/a	n/a	n/a	257.578	BF07NES.jpg
181.59	0.514	Blank	Blank	52.325	n/a	2	5	17	n/a	97	n/a	1	n/a	n/a	n/a	n/a	258.075	n/a
182.121	0.497	neutral	Picture	51.811	n/a	2	5	18	n/a	98	25	1	n/a	n/a	n/a	n/a	258.606	BM06NES.jpg
182.618	0.514	Blank	Blank	51.297	n/a	2	5	18	n/a	98	n/a	1	n/a	n/a	n/a	n/a	259.103	n/a
183.149	0.497	neutral	Picture	50.783	n/a	2	5	19	n/a	99	39	1	n/a	n/a	n/a	n/a	259.634	AM28NES.jpg
183.646	0.514	Blank	Blank	50.269	n/a	2	5	19	n/a	99	n/a	1	n/a	n/a	n/a	n/a	260.131	n/a
184.176	0.497	neutral	Picture	49.755	n/a	2	5	20	n/a	100	33	1	n/a	n/a	n/a	n/a	260.661	AM21NES.jpg
184.674	0.514	Blank	Blank	49.241	n/a	2	5	20	n/a	100	n/a	1	n/a	n/a	n/a	n/a	261.159	n/a
185.204	10.014	ITI	Fixation+	39.211	n/a	2	n/a	n/a	n/a	n/a	n/a	n/a	n/a	n/a	n/a	n/a	261.689	n/a
195.234	0.497	happy	Picture	38.697	n/a	2	6	1	n/a	101	74	2	n/a	n/a	n/a	n/a	271.719	AM22HAS.jpg
195.732	0.514	Blank	Blank	38.183	n/a	2	6	1	n/a	101	n/a	2	n/a	n/a	n/a	n/a	272.217	n/a
196.262	0.497	happy	Picture	37.669	n/a	2	6	2	n/a	102	76	2	n/a	n/a	n/a	n/a	272.747	BM24HAS.jpg
196.76	0.514	Blank	Blank	37.155	n/a	2	6	2	n/a	102	n/a	2	n/a	n/a	n/a	n/a	273.245	n/a
197.29	0.497	happy	Picture	36.641	n/a	2	6	3	n/a	103	80	2	n/a	n/a	n/a	n/a	273.775	BM35HAS.jpg
197.788	0.514	Blank	Blank	36.127	n/a	2	6	3	n/a	103	n/a	2	n/a	n/a	n/a	n/a	274.273	n/a
198.318	0.497	happy	Picture	35.613	n/a	2	6	4	n/a	104	75	2	n/a	n/a	n/a	n/a	274.803	AM23HAS.jpg
198.815	0.514	Blank	Blank	35.099	n/a	2	6	4	n/a	104	n/a	2	n/a	n/a	n/a	n/a	275.3	n/a
199.346	0.497	happy	Picture	34.585	n/a	2	6	5	n/a	105	49	2	n/a	n/a	n/a	n/a	275.831	AF17HAS.jpg
199.843	0.514	Blank	Blank	34.071	n/a	2	6	5	n/a	105	n/a	2	n/a	n/a	n/a	n/a	276.328	n/a
200.374	0.497	happy	Picture	33.557	n/a	2	6	6	n/a	106	43	2	n/a	n/a	n/a	n/a	276.859	BF04HAS.jpg
200.871	0.514	Blank	Blank	33.044	n/a	2	6	6	n/a	106	n/a	2	n/a	n/a	n/a	n/a	277.356	n/a
201.402	0.497	happy	Picture	32.53	n/a	2	6	7	n/a	107	70	2	n/a	n/a	n/a	n/a	277.887	BM11HAS.jpg
201.899	0.514	Blank	Blank	32.016	n/a	2	6	7	n/a	107	n/a	2	n/a	n/a	n/a	n/a	278.384	n/a
202.43	0.497	happy	Picture	31.502	n/a	2	6	8	n/a	108	66	2	n/a	n/a	n/a	n/a	278.915	BM07HAS.jpg
202.927	0.514	Blank	Blank	30.988	n/a	2	6	8	n/a	108	n/a	2	n/a	n/a	n/a	n/a	279.412	n/a
203.458	0.497	happy	Picture	30.474	n/a	2	6	9	n/a	109	48	2	n/a	n/a	n/a	n/a	279.943	AF14HAS.jpg
203.955	0.514	Blank	Blank	29.96	n/a	2	6	9	n/a	109	n/a	2	n/a	n/a	n/a	n/a	280.44	n/a
204.485	0.497	happy	Picture	29.446	n/a	2	6	10	n/a	110	58	2	n/a	n/a	n/a	n/a	280.97	BF29HAS.jpg
204.983	0.514	Blank	Blank	28.932	n/a	2	6	10	n/a	110	n/a	2	n/a	n/a	n/a	n/a	281.468	n/a
205.513	0.497	happy	Picture	28.418	n/a	2	6	11	n/a	111	63	2	n/a	n/a	n/a	n/a	281.998	AM04HAS.jpg
206.011	0.514	Blank	Blank	27.904	n/a	2	6	11	n/a	111	n/a	2	n/a	n/a	n/a	n/a	282.496	n/a
206.541	0.497	happy	Picture	27.39	n/a	2	6	12	n/a	112	72	2	n/a	n/a	n/a	n/a	283.026	AM14HAS.jpg
207.039	0.514	Blank	Blank	26.876	n/a	2	6	12	n/a	112	n/a	2	n/a	n/a	n/a	n/a	283.524	n/a
207.569	0.497	happy	Picture	26.362	n/a	2	6	13	n/a	113	55	2	n/a	n/a	n/a	n/a	284.054	AF25HAS.jpg
208.066	0.514	Blank	Blank	25.848	n/a	2	6	13	n/a	113	n/a	2	n/a	n/a	n/a	n/a	284.551	n/a
208.597	0.497	happy	Picture	25.334	n/a	2	6	14	n/a	114	42	2	n/a	n/a	n/a	n/a	285.082	AF03HAS.jpg
209.094	0.514	Blank	Blank	24.82	n/a	2	6	14	n/a	114	n/a	2	n/a	n/a	n/a	n/a	285.579	n/a
209.625	0.497	happy	Picture	24.307	n/a	2	6	15	n/a	115	60	2	n/a	n/a	n/a	n/a	286.11	AF32HAS.jpg
210.122	0.514	Blank	Blank	23.793	n/a	2	6	15	n/a	115	n/a	2	n/a	n/a	n/a	n/a	286.607	n/a
210.653	0.497	happy	Picture	23.279	n/a	2	6	16	n/a	116	67	2	n/a	n/a	n/a	n/a	287.138	BM08HAS.jpg
211.15	0.514	Blank	Blank	22.765	n/a	2	6	16	n/a	116	n/a	2	n/a	n/a	n/a	n/a	287.635	n/a
211.681	0.497	happy	Picture	22.251	n/a	2	6	17	n/a	117	51	2	n/a	n/a	n/a	n/a	288.166	AF20HAS.jpg
212.178	0.514	Blank	Blank	21.737	n/a	2	6	17	n/a	117	n/a	2	n/a	n/a	n/a	n/a	288.663	n/a
212.708	0.497	happy	Picture	21.223	n/a	2	6	18	n/a	118	71	2	n/a	n/a	n/a	n/a	289.193	BM12HAS.jpg
213.206	0.514	Blank	Blank	20.709	n/a	2	6	18	n/a	118	n/a	2	n/a	n/a	n/a	n/a	289.691	n/a
213.736	0.497	happy	Picture	20.195	n/a	2	6	19	n/a	119	69	2	n/a	n/a	n/a	n/a	290.221	AM10HAS.jpg
214.234	0.514	Blank	Blank	19.681	n/a	2	6	19	n/a	119	n/a	2	n/a	n/a	n/a	n/a	290.719	n/a
214.764	0.497	happy	Picture	19.167	n/a	2	6	20	n/a	120	46	2	n/a	n/a	n/a	n/a	291.249	AF09HAS.jpg
215.262	0.514	Blank	Blank	18.653	n/a	2	6	20	n/a	120	n/a	2	n/a	n/a	n/a	n/a	291.747	n/a
215.792	10.014	ITI	Fixation+	8.623	n/a	2	n/a	n/a	n/a	n/a	n/a	n/a	n/a	n/a	n/a	n/a	292.277	n/a
234.429	n/a	ConfirmRating	Rate	n/a	8.621	2	n/a	n/a	0	n/a	n/a	n/a	2	Happy	42	50	310.914	n/a
236.966	n/a	ConfirmRating	Rate	n/a	2.52	2	n/a	n/a	1	n/a	n/a	n/a	3	Happy	0	49	313.451	n/a
236.996	15.004	Rest	Picture	n/a	n/a	n/a	n/a	n/a	n/a	n/a	n/a	n/a	0	n/a	0	0	313.481	n/a
252.017	10.014	ITI	Fixation+	114.858	n/a	3	n/a	n/a	n/a	n/a	n/a	n/a	n/a	n/a	n/a	n/a	328.502	n/a
262.047	0.497	angry	Picture	114.344	n/a	3	7	1	n/a	1	108	3	n/a	n/a	n/a	n/a	338.532	AM09ANS.jpg
262.544	0.514	Blank	Blank	113.83	n/a	3	7	1	n/a	1	n/a	3	n/a	n/a	n/a	n/a	339.029	n/a
263.075	0.497	angry	Picture	113.316	n/a	3	7	2	n/a	2	99	3	n/a	n/a	n/a	n/a	339.56	AF31ANS.jpg
263.572	0.514	Blank	Blank	112.802	n/a	3	7	2	n/a	2	n/a	3	n/a	n/a	n/a	n/a	340.057	n/a
264.102	0.497	angry	Picture	112.288	n/a	3	7	3	n/a	3	98	3	n/a	n/a	n/a	n/a	340.587	BF29ANS.jpg
264.6	0.514	Blank	Blank	111.774	n/a	3	7	3	n/a	3	n/a	3	n/a	n/a	n/a	n/a	341.085	n/a
265.13	0.497	angry	Picture	111.26	n/a	3	7	4	n/a	4	107	3	n/a	n/a	n/a	n/a	341.615	BM08ANS.jpg
265.628	0.514	Blank	Blank	110.747	n/a	3	7	4	n/a	4	n/a	3	n/a	n/a	n/a	n/a	342.113	n/a
266.158	0.497	angry	Picture	110.233	n/a	3	7	5	n/a	5	104	3	n/a	n/a	n/a	n/a	342.643	BM05ANS.jpg
266.656	0.514	Blank	Blank	109.719	n/a	3	7	5	n/a	5	n/a	3	n/a	n/a	n/a	n/a	343.141	n/a
267.186	0.497	angry	Picture	109.205	n/a	3	7	6	n/a	6	101	3	n/a	n/a	n/a	n/a	343.671	AM01ANS.jpg
267.683	0.514	Blank	Blank	108.691	n/a	3	7	6	n/a	6	n/a	3	n/a	n/a	n/a	n/a	344.168	n/a
268.214	0.497	angry	Picture	108.177	n/a	3	7	7	n/a	7	103	3	n/a	n/a	n/a	n/a	344.699	AM04ANS.jpg
268.711	0.514	Blank	Blank	107.663	n/a	3	7	7	n/a	7	n/a	3	n/a	n/a	n/a	n/a	345.196	n/a
269.242	0.497	angry	Picture	107.149	n/a	3	7	8	n/a	8	111	3	n/a	n/a	n/a	n/a	345.727	BM12ANS.jpg
269.739	0.514	Blank	Blank	106.635	n/a	3	7	8	n/a	8	n/a	3	n/a	n/a	n/a	n/a	346.224	n/a
270.27	0.497	angry	Picture	106.121	n/a	3	7	9	n/a	9	110	3	n/a	n/a	n/a	n/a	346.755	AM11ANS.jpg
270.767	0.514	Blank	Blank	105.607	n/a	3	7	9	n/a	9	n/a	3	n/a	n/a	n/a	n/a	347.252	n/a
271.298	0.497	angry	Picture	105.093	n/a	3	7	10	n/a	10	85	3	n/a	n/a	n/a	n/a	347.783	BF07ANS.jpg
271.795	0.514	Blank	Blank	104.579	n/a	3	7	10	n/a	10	n/a	3	n/a	n/a	n/a	n/a	348.28	n/a
272.325	0.497	angry	Picture	104.065	n/a	3	7	11	n/a	11	87	3	n/a	n/a	n/a	n/a	348.81	BF11ANS.jpg
272.823	0.514	Blank	Blank	103.551	n/a	3	7	11	n/a	11	n/a	3	n/a	n/a	n/a	n/a	349.308	n/a
273.353	0.497	angry	Picture	103.037	n/a	3	7	12	n/a	12	91	3	n/a	n/a	n/a	n/a	349.838	AF20ANS.jpg
273.851	0.514	Blank	Blank	102.523	n/a	3	7	12	n/a	12	n/a	3	n/a	n/a	n/a	n/a	350.336	n/a
274.381	0.497	angry	Picture	102.01	n/a	3	7	13	n/a	13	115	3	n/a	n/a	n/a	n/a	350.866	AM23ANS.jpg
274.879	0.514	Blank	Blank	101.496	n/a	3	7	13	n/a	13	n/a	3	n/a	n/a	n/a	n/a	351.364	n/a
275.409	0.497	angry	Picture	100.982	n/a	3	7	14	n/a	14	97	3	n/a	n/a	n/a	n/a	351.894	BF28ANS.jpg
275.906	0.514	Blank	Blank	100.468	n/a	3	7	14	n/a	14	n/a	3	n/a	n/a	n/a	n/a	352.392	n/a
276.437	0.497	angry	Picture	99.954	n/a	3	7	15	n/a	15	82	3	n/a	n/a	n/a	n/a	352.922	AF03ANS.jpg
276.934	0.514	Blank	Blank	99.44	n/a	3	7	15	n/a	15	n/a	3	n/a	n/a	n/a	n/a	353.419	n/a
277.465	0.497	angry	Picture	98.926	n/a	3	7	16	n/a	16	96	3	n/a	n/a	n/a	n/a	353.95	AF26ANS.jpg
277.962	0.514	Blank	Blank	98.412	n/a	3	7	16	n/a	16	n/a	3	n/a	n/a	n/a	n/a	354.447	n/a
278.493	0.497	angry	Picture	97.898	n/a	3	7	17	n/a	17	109	3	n/a	n/a	n/a	n/a	354.978	AM10ANS.jpg
278.99	0.514	Blank	Blank	97.384	n/a	3	7	17	n/a	17	n/a	3	n/a	n/a	n/a	n/a	355.475	n/a
279.521	0.497	angry	Picture	96.87	n/a	3	7	18	n/a	18	114	3	n/a	n/a	n/a	n/a	356.006	AM22ANS.jpg
280.018	0.514	Blank	Blank	96.356	n/a	3	7	18	n/a	18	n/a	3	n/a	n/a	n/a	n/a	356.503	n/a
280.548	0.497	angry	Picture	95.842	n/a	3	7	19	n/a	19	120	3	n/a	n/a	n/a	n/a	357.034	AM35ANS.jpg
281.046	0.514	Blank	Blank	95.328	n/a	3	7	19	n/a	19	n/a	3	n/a	n/a	n/a	n/a	357.531	n/a
281.576	0.497	angry	Picture	94.814	n/a	3	7	20	n/a	20	81	3	n/a	n/a	n/a	n/a	358.061	AF01ANS.jpg
282.074	0.514	Blank	Blank	94.3	n/a	3	7	20	n/a	20	n/a	3	n/a	n/a	n/a	n/a	358.559	n/a
282.604	10.014	ITI	Fixation+	84.27	n/a	3	n/a	n/a	n/a	n/a	n/a	n/a	n/a	n/a	n/a	n/a	359.089	n/a
292.634	0.497	neutral	Picture	83.756	n/a	3	8	1	n/a	21	28	1	n/a	n/a	n/a	n/a	369.119	AM09NES.jpg
293.132	0.514	Blank	Blank	83.242	n/a	3	8	1	n/a	21	n/a	1	n/a	n/a	n/a	n/a	369.617	n/a
293.662	0.497	neutral	Picture	82.729	n/a	3	8	2	n/a	22	27	1	n/a	n/a	n/a	n/a	370.147	BM08NES.jpg
294.16	0.513	Blank	Blank	82.215	n/a	3	8	2	n/a	22	n/a	1	n/a	n/a	n/a	n/a	370.645	n/a
294.69	0.497	neutral	Picture	81.701	n/a	3	8	3	n/a	23	16	1	n/a	n/a	n/a	n/a	371.175	AF26NES.jpg
295.188	0.514	Blank	Blank	81.187	n/a	3	8	3	n/a	23	n/a	1	n/a	n/a	n/a	n/a	371.673	n/a
295.718	0.497	neutral	Picture	80.673	n/a	3	8	4	n/a	24	3	1	n/a	n/a	n/a	n/a	372.203	BF04NES.jpg
296.215	0.514	Blank	Blank	80.159	n/a	3	8	4	n/a	24	n/a	1	n/a	n/a	n/a	n/a	372.7	n/a
296.746	0.497	neutral	Picture	79.645	n/a	3	8	5	n/a	25	32	1	n/a	n/a	n/a	n/a	373.231	AM14NES.jpg
297.243	0.514	Blank	Blank	79.131	n/a	3	8	5	n/a	25	n/a	1	n/a	n/a	n/a	n/a	373.728	n/a
297.774	0.497	neutral	Picture	78.617	n/a	3	8	6	n/a	26	37	1	n/a	n/a	n/a	n/a	374.259	BM25NES.jpg
298.271	0.514	Blank	Blank	78.103	n/a	3	8	6	n/a	26	n/a	1	n/a	n/a	n/a	n/a	374.756	n/a
298.802	0.497	neutral	Picture	77.589	n/a	3	8	7	n/a	27	15	1	n/a	n/a	n/a	n/a	375.287	AF25NES.jpg
299.299	0.514	Blank	Blank	77.075	n/a	3	8	7	n/a	27	n/a	1	n/a	n/a	n/a	n/a	375.784	n/a
299.829	0.497	neutral	Picture	76.561	n/a	3	8	8	n/a	28	23	1	n/a	n/a	n/a	n/a	376.315	AM04NES.jpg
300.327	0.514	Blank	Blank	76.047	n/a	3	8	8	n/a	28	n/a	1	n/a	n/a	n/a	n/a	376.812	n/a
300.857	0.497	neutral	Picture	75.533	n/a	3	8	9	n/a	29	34	1	n/a	n/a	n/a	n/a	377.342	AM22NES.jpg
301.355	0.514	Blank	Blank	75.019	n/a	3	8	9	n/a	29	n/a	1	n/a	n/a	n/a	n/a	377.84	n/a
301.885	0.497	neutral	Picture	74.505	n/a	3	8	10	n/a	30	24	1	n/a	n/a	n/a	n/a	378.37	BM05NES.jpg
302.383	0.514	Blank	Blank	73.992	n/a	3	8	10	n/a	30	n/a	1	n/a	n/a	n/a	n/a	378.868	n/a
302.913	0.497	neutral	Picture	73.478	n/a	3	8	11	n/a	31	12	1	n/a	n/a	n/a	n/a	379.398	AF21NES.jpg
303.411	0.514	Blank	Blank	72.964	n/a	3	8	11	n/a	31	n/a	1	n/a	n/a	n/a	n/a	379.896	n/a
303.941	0.497	neutral	Picture	72.45	n/a	3	8	12	n/a	32	6	1	n/a	n/a	n/a	n/a	380.426	AF09NES.jpg
304.438	0.514	Blank	Blank	71.936	n/a	3	8	12	n/a	32	n/a	1	n/a	n/a	n/a	n/a	380.923	n/a
304.969	0.497	neutral	Picture	71.422	n/a	3	8	13	n/a	33	17	1	n/a	n/a	n/a	n/a	381.454	BF28NES.jpg
305.466	0.514	Blank	Blank	70.908	n/a	3	8	13	n/a	33	n/a	1	n/a	n/a	n/a	n/a	381.951	n/a
305.997	0.497	neutral	Picture	70.394	n/a	3	8	14	n/a	34	2	1	n/a	n/a	n/a	n/a	382.482	AF03NES.jpg
306.494	0.514	Blank	Blank	69.88	n/a	3	8	14	n/a	34	n/a	1	n/a	n/a	n/a	n/a	382.979	n/a
307.025	0.497	neutral	Picture	69.366	n/a	3	8	15	n/a	35	9	1	n/a	n/a	n/a	n/a	383.51	AF17NES.jpg
307.522	0.514	Blank	Blank	68.852	n/a	3	8	15	n/a	35	n/a	1	n/a	n/a	n/a	n/a	384.007	n/a
308.053	0.497	neutral	Picture	68.338	n/a	3	8	16	n/a	36	25	1	n/a	n/a	n/a	n/a	384.538	BM06NES.jpg
308.55	0.514	Blank	Blank	67.824	n/a	3	8	16	n/a	36	n/a	1	n/a	n/a	n/a	n/a	385.035	n/a
309.08	0.497	neutral	Picture	67.31	n/a	3	8	17	n/a	37	8	1	n/a	n/a	n/a	n/a	385.565	AF14NES.jpg
309.578	0.514	Blank	Blank	66.796	n/a	3	8	17	n/a	37	n/a	1	n/a	n/a	n/a	n/a	386.063	n/a
310.108	0.497	neutral	Picture	66.282	n/a	3	8	18	n/a	38	19	1	n/a	n/a	n/a	n/a	386.593	AF31NES.jpg
310.606	0.514	Blank	Blank	65.769	n/a	3	8	18	n/a	38	n/a	1	n/a	n/a	n/a	n/a	387.091	n/a
311.136	0.497	neutral	Picture	65.255	n/a	3	8	19	n/a	39	14	1	n/a	n/a	n/a	n/a	387.621	AF23NES.jpg
311.634	0.514	Blank	Blank	64.741	n/a	3	8	19	n/a	39	n/a	1	n/a	n/a	n/a	n/a	388.119	n/a
312.164	0.497	neutral	Picture	64.227	n/a	3	8	20	n/a	40	4	1	n/a	n/a	n/a	n/a	388.649	AF05NES.jpg
312.661	0.514	Blank	Blank	63.713	n/a	3	8	20	n/a	40	n/a	1	n/a	n/a	n/a	n/a	389.146	n/a
313.192	10.014	ITI	Fixation+	53.683	n/a	3	n/a	n/a	n/a	n/a	n/a	n/a	n/a	n/a	n/a	n/a	389.677	n/a
323.222	0.497	angry	Picture	53.169	n/a	3	9	1	n/a	41	84	3	n/a	n/a	n/a	n/a	399.707	AF05ANS.jpg
323.719	0.514	Blank	Blank	52.655	n/a	3	9	1	n/a	41	n/a	3	n/a	n/a	n/a	n/a	400.204	n/a
324.25	0.497	angry	Picture	52.141	n/a	3	9	2	n/a	42	92	3	n/a	n/a	n/a	n/a	400.735	AF21ANS.jpg
324.747	0.514	Blank	Blank	51.627	n/a	3	9	2	n/a	42	n/a	3	n/a	n/a	n/a	n/a	401.232	n/a
325.278	0.497	angry	Picture	51.113	n/a	3	9	3	n/a	43	86	3	n/a	n/a	n/a	n/a	401.763	AF09ANS.jpg
325.775	0.514	Blank	Blank	50.599	n/a	3	9	3	n/a	43	n/a	3	n/a	n/a	n/a	n/a	402.26	n/a
326.306	0.497	angry	Picture	50.085	n/a	3	9	4	n/a	44	93	3	n/a	n/a	n/a	n/a	402.791	BF22ANS.jpg
326.803	0.514	Blank	Blank	49.571	n/a	3	9	4	n/a	44	n/a	3	n/a	n/a	n/a	n/a	403.288	n/a
327.334	0.497	angry	Picture	49.057	n/a	3	9	5	n/a	45	88	3	n/a	n/a	n/a	n/a	403.819	AF14ANS.jpg
327.831	0.514	Blank	Blank	48.543	n/a	3	9	5	n/a	45	n/a	3	n/a	n/a	n/a	n/a	404.316	n/a
328.361	0.497	angry	Picture	48.029	n/a	3	9	6	n/a	46	113	3	n/a	n/a	n/a	n/a	404.846	AM21ANS.jpg
328.859	0.514	Blank	Blank	47.515	n/a	3	9	6	n/a	46	n/a	3	n/a	n/a	n/a	n/a	405.344	n/a
329.389	0.497	angry	Picture	47.001	n/a	3	9	7	n/a	47	95	3	n/a	n/a	n/a	n/a	405.874	AF25ANS.jpg
329.887	0.514	Blank	Blank	46.488	n/a	3	9	7	n/a	47	n/a	3	n/a	n/a	n/a	n/a	406.372	n/a
330.417	0.497	angry	Picture	45.974	n/a	3	9	8	n/a	48	102	3	n/a	n/a	n/a	n/a	406.902	BM03ANS.jpg
330.915	0.514	Blank	Blank	45.46	n/a	3	9	8	n/a	48	n/a	3	n/a	n/a	n/a	n/a	407.4	n/a
331.445	0.497	angry	Picture	44.946	n/a	3	9	9	n/a	49	112	3	n/a	n/a	n/a	n/a	407.93	AM14ANS.jpg
331.942	0.514	Blank	Blank	44.432	n/a	3	9	9	n/a	49	n/a	3	n/a	n/a	n/a	n/a	408.428	n/a
332.473	0.497	angry	Picture	43.918	n/a	3	9	10	n/a	50	83	3	n/a	n/a	n/a	n/a	408.958	BF04ANS.jpg
332.97	0.514	Blank	Blank	43.404	n/a	3	9	10	n/a	50	n/a	3	n/a	n/a	n/a	n/a	409.455	n/a
333.501	0.497	angry	Picture	42.89	n/a	3	9	11	n/a	51	90	3	n/a	n/a	n/a	n/a	409.986	AF18ANS.jpg
333.998	0.514	Blank	Blank	42.376	n/a	3	9	11	n/a	51	n/a	3	n/a	n/a	n/a	n/a	410.483	n/a
334.529	0.497	angry	Picture	41.862	n/a	3	9	12	n/a	52	117	3	n/a	n/a	n/a	n/a	411.014	BM25ANS.jpg
335.026	0.514	Blank	Blank	41.348	n/a	3	9	12	n/a	52	n/a	3	n/a	n/a	n/a	n/a	411.511	n/a
335.557	0.497	angry	Picture	40.834	n/a	3	9	13	n/a	53	94	3	n/a	n/a	n/a	n/a	412.042	AF23ANS.jpg
336.054	0.514	Blank	Blank	40.32	n/a	3	9	13	n/a	53	n/a	3	n/a	n/a	n/a	n/a	412.539	n/a
336.584	0.497	angry	Picture	39.806	n/a	3	9	14	n/a	54	106	3	n/a	n/a	n/a	n/a	413.07	AM07ANS.jpg
337.082	0.514	Blank	Blank	39.292	n/a	3	9	14	n/a	54	n/a	3	n/a	n/a	n/a	n/a	413.567	n/a
337.612	0.497	angry	Picture	38.778	n/a	3	9	15	n/a	55	105	3	n/a	n/a	n/a	n/a	414.097	BM06ANS.jpg
338.11	0.514	Blank	Blank	38.264	n/a	3	9	15	n/a	55	n/a	3	n/a	n/a	n/a	n/a	414.595	n/a
338.64	0.497	angry	Picture	37.751	n/a	3	9	16	n/a	56	116	3	n/a	n/a	n/a	n/a	415.125	BM24ANS.jpg
339.138	0.514	Blank	Blank	37.237	n/a	3	9	16	n/a	56	n/a	3	n/a	n/a	n/a	n/a	415.623	n/a
339.668	0.497	angry	Picture	36.723	n/a	3	9	17	n/a	57	89	3	n/a	n/a	n/a	n/a	416.153	AF17ANS.jpg
340.166	0.514	Blank	Blank	36.209	n/a	3	9	17	n/a	57	n/a	3	n/a	n/a	n/a	n/a	416.651	n/a
340.696	0.497	angry	Picture	35.695	n/a	3	9	18	n/a	58	118	3	n/a	n/a	n/a	n/a	417.181	BM26ANS.jpg
341.193	0.514	Blank	Blank	35.181	n/a	3	9	18	n/a	58	n/a	3	n/a	n/a	n/a	n/a	417.678	n/a
341.724	0.497	angry	Picture	34.667	n/a	3	9	19	n/a	59	100	3	n/a	n/a	n/a	n/a	418.209	AF32ANS.jpg
342.221	0.514	Blank	Blank	34.153	n/a	3	9	19	n/a	59	n/a	3	n/a	n/a	n/a	n/a	418.706	n/a
342.752	0.497	angry	Picture	33.639	n/a	3	9	20	n/a	60	119	3	n/a	n/a	n/a	n/a	419.237	BM28ANS.jpg
343.249	0.514	Blank	Blank	33.125	n/a	3	9	20	n/a	60	n/a	3	n/a	n/a	n/a	n/a	419.734	n/a
343.78	10.014	ITI	Fixation+	23.095	n/a	3	n/a	n/a	n/a	n/a	n/a	n/a	n/a	n/a	n/a	n/a	420.265	n/a
376.888	n/a	ConfirmRating	Rate	n/a	23.094	3	n/a	n/a	0	n/a	n/a	n/a	2	Angry	36	49	453.373	n/a
379.017	n/a	ConfirmRating	Rate	n/a	2.106	3	n/a	n/a	1	n/a	n/a	n/a	3	Angry	0	49	455.502	n/a
379.043	10.014	ITI	Fixation+	99.087	n/a	4	n/a	n/a	n/a	n/a	n/a	n/a	n/a	n/a	n/a	n/a	455.528	n/a
389.073	0.497	happy	Picture	98.573	n/a	4	10	1	n/a	61	79	2	n/a	n/a	n/a	n/a	465.558	BM28HAS.jpg
389.57	0.514	Blank	Blank	98.059	n/a	4	10	1	n/a	61	n/a	2	n/a	n/a	n/a	n/a	466.055	n/a
390.101	0.497	happy	Picture	97.545	n/a	4	10	2	n/a	62	61	2	n/a	n/a	n/a	n/a	466.586	AM01HAS.jpg
390.598	0.514	Blank	Blank	97.031	n/a	4	10	2	n/a	62	n/a	2	n/a	n/a	n/a	n/a	467.083	n/a
391.128	0.497	happy	Picture	96.517	n/a	4	10	3	n/a	63	57	2	n/a	n/a	n/a	n/a	467.613	BF28HAS.jpg
391.626	0.514	Blank	Blank	96.003	n/a	4	10	3	n/a	63	n/a	2	n/a	n/a	n/a	n/a	468.111	n/a
392.156	0.497	happy	Picture	95.489	n/a	4	10	4	n/a	64	77	2	n/a	n/a	n/a	n/a	468.641	BM25HAS.jpg
392.654	0.514	Blank	Blank	94.975	n/a	4	10	4	n/a	64	n/a	2	n/a	n/a	n/a	n/a	469.139	n/a
393.184	0.497	happy	Picture	94.462	n/a	4	10	5	n/a	65	47	2	n/a	n/a	n/a	n/a	469.669	BF11HAS.jpg
393.681	0.514	Blank	Blank	93.948	n/a	4	10	5	n/a	65	n/a	2	n/a	n/a	n/a	n/a	470.166	n/a
394.212	0.497	happy	Picture	93.434	n/a	4	10	6	n/a	66	50	2	n/a	n/a	n/a	n/a	470.697	AF18HAS.jpg
394.709	0.514	Blank	Blank	92.92	n/a	4	10	6	n/a	66	n/a	2	n/a	n/a	n/a	n/a	471.194	n/a
395.24	0.497	happy	Picture	92.406	n/a	4	10	7	n/a	67	78	2	n/a	n/a	n/a	n/a	471.725	BM26HAS.jpg
395.737	0.514	Blank	Blank	91.892	n/a	4	10	7	n/a	67	n/a	2	n/a	n/a	n/a	n/a	472.222	n/a
396.268	0.497	happy	Picture	91.378	n/a	4	10	8	n/a	68	45	2	n/a	n/a	n/a	n/a	472.753	BF07HAS.jpg
396.765	0.514	Blank	Blank	90.864	n/a	4	10	8	n/a	68	n/a	2	n/a	n/a	n/a	n/a	473.25	n/a
397.296	0.497	happy	Picture	90.35	n/a	4	10	9	n/a	69	56	2	n/a	n/a	n/a	n/a	473.781	AF26HAS.jpg
397.793	0.514	Blank	Blank	89.836	n/a	4	10	9	n/a	69	n/a	2	n/a	n/a	n/a	n/a	474.278	n/a
398.324	0.497	happy	Picture	89.322	n/a	4	10	10	n/a	70	65	2	n/a	n/a	n/a	n/a	474.809	BM06HAS.jpg
398.821	0.514	Blank	Blank	88.808	n/a	4	10	10	n/a	70	n/a	2	n/a	n/a	n/a	n/a	475.306	n/a
399.351	0.497	happy	Picture	88.294	n/a	4	10	11	n/a	71	73	2	n/a	n/a	n/a	n/a	475.837	AM21HAS.jpg
399.849	0.514	Blank	Blank	87.78	n/a	4	10	11	n/a	71	n/a	2	n/a	n/a	n/a	n/a	476.334	n/a
400.379	0.497	happy	Picture	87.266	n/a	4	10	12	n/a	72	41	2	n/a	n/a	n/a	n/a	476.864	AF01HAS.jpg
400.877	0.514	Blank	Blank	86.752	n/a	4	10	12	n/a	72	n/a	2	n/a	n/a	n/a	n/a	477.362	n/a
401.407	0.497	happy	Picture	86.238	n/a	4	10	13	n/a	73	59	2	n/a	n/a	n/a	n/a	477.892	AF31HAS.jpg
401.905	0.514	Blank	Blank	85.725	n/a	4	10	13	n/a	73	n/a	2	n/a	n/a	n/a	n/a	478.39	n/a
402.435	0.497	happy	Picture	85.211	n/a	4	10	14	n/a	74	64	2	n/a	n/a	n/a	n/a	478.92	BM05HAS.jpg
402.933	0.514	Blank	Blank	84.697	n/a	4	10	14	n/a	74	n/a	2	n/a	n/a	n/a	n/a	479.418	n/a
403.463	0.497	happy	Picture	84.183	n/a	4	10	15	n/a	75	68	2	n/a	n/a	n/a	n/a	479.948	AM09HAS.jpg
403.96	0.514	Blank	Blank	83.669	n/a	4	10	15	n/a	75	n/a	2	n/a	n/a	n/a	n/a	480.445	n/a
404.491	0.497	happy	Picture	83.155	n/a	4	10	16	n/a	76	54	2	n/a	n/a	n/a	n/a	480.976	AF23HAS.jpg
404.988	0.514	Blank	Blank	82.641	n/a	4	10	16	n/a	76	n/a	2	n/a	n/a	n/a	n/a	481.473	n/a
405.519	0.497	happy	Picture	82.127	n/a	4	10	17	n/a	77	53	2	n/a	n/a	n/a	n/a	482.004	BF22HAS.jpg
406.016	0.514	Blank	Blank	81.613	n/a	4	10	17	n/a	77	n/a	2	n/a	n/a	n/a	n/a	482.501	n/a
406.547	0.497	happy	Picture	81.099	n/a	4	10	18	n/a	78	44	2	n/a	n/a	n/a	n/a	483.032	AF05HAS.jpg
407.044	0.514	Blank	Blank	80.585	n/a	4	10	18	n/a	78	n/a	2	n/a	n/a	n/a	n/a	483.529	n/a
407.575	0.497	happy	Picture	80.071	n/a	4	10	19	n/a	79	52	2	n/a	n/a	n/a	n/a	484.06	AF21HAS.jpg
408.072	0.514	Blank	Blank	79.557	n/a	4	10	19	n/a	79	n/a	2	n/a	n/a	n/a	n/a	484.557	n/a
408.602	0.497	happy	Picture	79.043	n/a	4	10	20	n/a	80	62	2	n/a	n/a	n/a	n/a	485.087	BM03HAS.jpg
409.1	0.514	Blank	Blank	78.529	n/a	4	10	20	n/a	80	n/a	2	n/a	n/a	n/a	n/a	485.585	n/a
409.63	10.014	ITI	Fixation+	68.499	n/a	4	n/a	n/a	n/a	n/a	n/a	n/a	n/a	n/a	n/a	n/a	486.115	n/a
419.66	0.497	neutral	Picture	67.985	n/a	4	11	1	n/a	81	23	1	n/a	n/a	n/a	n/a	496.145	AM04NES.jpg
420.158	0.514	Blank	Blank	67.471	n/a	4	11	1	n/a	81	n/a	1	n/a	n/a	n/a	n/a	496.643	n/a
420.688	0.497	neutral	Picture	66.957	n/a	4	11	2	n/a	82	29	1	n/a	n/a	n/a	n/a	497.173	AM10NES.jpg
421.186	0.514	Blank	Blank	66.444	n/a	4	11	2	n/a	82	n/a	1	n/a	n/a	n/a	n/a	497.671	n/a
421.716	0.497	neutral	Picture	65.93	n/a	4	11	3	n/a	83	24	1	n/a	n/a	n/a	n/a	498.201	BM05NES.jpg
422.214	0.514	Blank	Blank	65.416	n/a	4	11	3	n/a	83	n/a	1	n/a	n/a	n/a	n/a	498.699	n/a
422.744	0.497	neutral	Picture	64.902	n/a	4	11	4	n/a	84	12	1	n/a	n/a	n/a	n/a	499.229	AF21NES.jpg
423.241	0.514	Blank	Blank	64.388	n/a	4	11	4	n/a	84	n/a	1	n/a	n/a	n/a	n/a	499.726	n/a
423.772	0.497	neutral	Picture	63.874	n/a	4	11	5	n/a	85	13	1	n/a	n/a	n/a	n/a	500.257	BF22NES.jpg
424.269	0.514	Blank	Blank	63.36	n/a	4	11	5	n/a	85	n/a	1	n/a	n/a	n/a	n/a	500.754	n/a
424.8	0.497	neutral	Picture	62.846	n/a	4	11	6	n/a	86	17	1	n/a	n/a	n/a	n/a	501.285	BF28NES.jpg
425.297	0.514	Blank	Blank	62.332	n/a	4	11	6	n/a	86	n/a	1	n/a	n/a	n/a	n/a	501.782	n/a
425.828	0.497	neutral	Picture	61.818	n/a	4	11	7	n/a	87	4	1	n/a	n/a	n/a	n/a	502.313	AF05NES.jpg
426.325	0.514	Blank	Blank	61.304	n/a	4	11	7	n/a	87	n/a	1	n/a	n/a	n/a	n/a	502.81	n/a
426.856	0.497	neutral	Picture	60.79	n/a	4	11	8	n/a	88	11	1	n/a	n/a	n/a	n/a	503.341	AF20NES.jpg
427.353	0.514	Blank	Blank	60.276	n/a	4	11	8	n/a	88	n/a	1	n/a	n/a	n/a	n/a	503.838	n/a
427.883	0.497	neutral	Picture	59.762	n/a	4	11	9	n/a	89	22	1	n/a	n/a	n/a	n/a	504.368	BM03NES.jpg
428.381	0.514	Blank	Blank	59.248	n/a	4	11	9	n/a	89	n/a	1	n/a	n/a	n/a	n/a	504.866	n/a
428.911	0.497	neutral	Picture	58.734	n/a	4	11	10	n/a	90	15	1	n/a	n/a	n/a	n/a	505.396	AF25NES.jpg
429.409	0.514	Blank	Blank	58.22	n/a	4	11	10	n/a	90	n/a	1	n/a	n/a	n/a	n/a	505.894	n/a
429.939	0.497	neutral	Picture	57.707	n/a	4	11	11	n/a	91	19	1	n/a	n/a	n/a	n/a	506.424	AF31NES.jpg
430.436	0.514	Blank	Blank	57.193	n/a	4	11	11	n/a	91	n/a	1	n/a	n/a	n/a	n/a	506.921	n/a
430.967	0.497	neutral	Picture	56.679	n/a	4	11	12	n/a	92	9	1	n/a	n/a	n/a	n/a	507.452	AF17NES.jpg
431.464	0.514	Blank	Blank	56.165	n/a	4	11	12	n/a	92	n/a	1	n/a	n/a	n/a	n/a	507.949	n/a
431.995	0.497	neutral	Picture	55.651	n/a	4	11	13	n/a	93	14	1	n/a	n/a	n/a	n/a	508.48	AF23NES.jpg
432.492	0.514	Blank	Blank	55.137	n/a	4	11	13	n/a	93	n/a	1	n/a	n/a	n/a	n/a	508.977	n/a
433.023	0.497	neutral	Picture	54.623	n/a	4	11	14	n/a	94	36	1	n/a	n/a	n/a	n/a	509.508	BM24NES.jpg
433.52	0.514	Blank	Blank	54.109	n/a	4	11	14	n/a	94	n/a	1	n/a	n/a	n/a	n/a	510.005	n/a
434.051	0.497	neutral	Picture	53.595	n/a	4	11	15	n/a	95	34	1	n/a	n/a	n/a	n/a	510.536	AM22NES.jpg
434.548	0.514	Blank	Blank	53.081	n/a	4	11	15	n/a	95	n/a	1	n/a	n/a	n/a	n/a	511.033	n/a
435.079	0.497	neutral	Picture	52.567	n/a	4	11	16	n/a	96	10	1	n/a	n/a	n/a	n/a	511.564	AF18NES.jpg
435.576	0.514	Blank	Blank	52.053	n/a	4	11	16	n/a	96	n/a	1	n/a	n/a	n/a	n/a	512.061	n/a
436.106	0.497	neutral	Picture	51.539	n/a	4	11	17	n/a	97	5	1	n/a	n/a	n/a	n/a	512.591	BF07NES.jpg
436.604	0.514	Blank	Blank	51.025	n/a	4	11	17	n/a	97	n/a	1	n/a	n/a	n/a	n/a	513.089	n/a
437.134	0.497	neutral	Picture	50.511	n/a	4	11	18	n/a	98	25	1	n/a	n/a	n/a	n/a	513.619	BM06NES.jpg
437.632	0.514	Blank	Blank	49.997	n/a	4	11	18	n/a	98	n/a	1	n/a	n/a	n/a	n/a	514.117	n/a
438.162	0.497	neutral	Picture	49.484	n/a	4	11	19	n/a	99	39	1	n/a	n/a	n/a	n/a	514.647	AM28NES.jpg
438.659	0.514	Blank	Blank	48.97	n/a	4	11	19	n/a	99	n/a	1	n/a	n/a	n/a	n/a	515.144	n/a
439.19	0.497	neutral	Picture	48.456	n/a	4	11	20	n/a	100	33	1	n/a	n/a	n/a	n/a	515.675	AM21NES.jpg
439.687	0.514	Blank	Blank	47.942	n/a	4	11	20	n/a	100	n/a	1	n/a	n/a	n/a	n/a	516.172	n/a
440.218	10.014	ITI	Fixation+	37.912	n/a	4	n/a	n/a	n/a	n/a	n/a	n/a	n/a	n/a	n/a	n/a	516.703	n/a
450.248	0.497	happy	Picture	37.398	n/a	4	12	1	n/a	101	74	2	n/a	n/a	n/a	n/a	526.733	AM22HAS.jpg
450.745	0.514	Blank	Blank	36.884	n/a	4	12	1	n/a	101	n/a	2	n/a	n/a	n/a	n/a	527.23	n/a
451.276	0.497	happy	Picture	36.37	n/a	4	12	2	n/a	102	76	2	n/a	n/a	n/a	n/a	527.761	BM24HAS.jpg
451.773	0.514	Blank	Blank	35.856	n/a	4	12	2	n/a	102	n/a	2	n/a	n/a	n/a	n/a	528.258	n/a
452.304	0.497	happy	Picture	35.342	n/a	4	12	3	n/a	103	80	2	n/a	n/a	n/a	n/a	528.789	BM35HAS.jpg
452.801	0.514	Blank	Blank	34.828	n/a	4	12	3	n/a	103	n/a	2	n/a	n/a	n/a	n/a	529.286	n/a
453.332	0.497	happy	Picture	34.314	n/a	4	12	4	n/a	104	75	2	n/a	n/a	n/a	n/a	529.817	AM23HAS.jpg
453.829	0.514	Blank	Blank	33.8	n/a	4	12	4	n/a	104	n/a	2	n/a	n/a	n/a	n/a	530.314	n/a
454.36	0.497	happy	Picture	33.286	n/a	4	12	5	n/a	105	49	2	n/a	n/a	n/a	n/a	530.845	AF17HAS.jpg
454.857	0.514	Blank	Blank	32.772	n/a	4	12	5	n/a	105	n/a	2	n/a	n/a	n/a	n/a	531.342	n/a
455.387	0.497	happy	Picture	32.258	n/a	4	12	6	n/a	106	43	2	n/a	n/a	n/a	n/a	531.872	BF04HAS.jpg
455.885	0.514	Blank	Blank	31.744	n/a	4	12	6	n/a	106	n/a	2	n/a	n/a	n/a	n/a	532.37	n/a
456.415	0.497	happy	Picture	31.23	n/a	4	12	7	n/a	107	70	2	n/a	n/a	n/a	n/a	532.9	BM11HAS.jpg
456.913	0.514	Blank	Blank	30.716	n/a	4	12	7	n/a	107	n/a	2	n/a	n/a	n/a	n/a	533.398	n/a
457.443	0.497	happy	Picture	30.202	n/a	4	12	8	n/a	108	66	2	n/a	n/a	n/a	n/a	533.928	BM07HAS.jpg
457.941	0.514	Blank	Blank	29.689	n/a	4	12	8	n/a	108	n/a	2	n/a	n/a	n/a	n/a	534.426	n/a
458.471	0.497	happy	Picture	29.175	n/a	4	12	9	n/a	109	48	2	n/a	n/a	n/a	n/a	534.956	AF14HAS.jpg
458.968	0.514	Blank	Blank	28.661	n/a	4	12	9	n/a	109	n/a	2	n/a	n/a	n/a	n/a	535.453	n/a
459.499	0.497	happy	Picture	28.147	n/a	4	12	10	n/a	110	58	2	n/a	n/a	n/a	n/a	535.984	BF29HAS.jpg
459.996	0.514	Blank	Blank	27.633	n/a	4	12	10	n/a	110	n/a	2	n/a	n/a	n/a	n/a	536.481	n/a
460.527	0.497	happy	Picture	27.119	n/a	4	12	11	n/a	111	63	2	n/a	n/a	n/a	n/a	537.012	AM04HAS.jpg
461.024	0.514	Blank	Blank	26.605	n/a	4	12	11	n/a	111	n/a	2	n/a	n/a	n/a	n/a	537.509	n/a
461.555	0.497	happy	Picture	26.091	n/a	4	12	12	n/a	112	72	2	n/a	n/a	n/a	n/a	538.04	AM14HAS.jpg
462.052	0.514	Blank	Blank	25.577	n/a	4	12	12	n/a	112	n/a	2	n/a	n/a	n/a	n/a	538.537	n/a
462.583	0.497	happy	Picture	25.063	n/a	4	12	13	n/a	113	55	2	n/a	n/a	n/a	n/a	539.068	AF25HAS.jpg
463.08	0.514	Blank	Blank	24.549	n/a	4	12	13	n/a	113	n/a	2	n/a	n/a	n/a	n/a	539.565	n/a
463.611	0.497	happy	Picture	24.035	n/a	4	12	14	n/a	114	42	2	n/a	n/a	n/a	n/a	540.096	AF03HAS.jpg
464.108	0.514	Blank	Blank	23.521	n/a	4	12	14	n/a	114	n/a	2	n/a	n/a	n/a	n/a	540.593	n/a
464.638	0.497	happy	Picture	23.007	n/a	4	12	15	n/a	115	60	2	n/a	n/a	n/a	n/a	541.123	AF32HAS.jpg
465.136	0.514	Blank	Blank	22.493	n/a	4	12	15	n/a	115	n/a	2	n/a	n/a	n/a	n/a	541.621	n/a
465.665	0.498	happy	Picture	21.979	n/a	4	12	16	n/a	116	67	2	n/a	n/a	n/a	n/a	542.15	BM08HAS.jpg
466.164	0.514	Blank	Blank	21.465	n/a	4	12	16	n/a	116	n/a	2	n/a	n/a	n/a	n/a	542.649	n/a
466.694	0.497	happy	Picture	20.952	n/a	4	12	17	n/a	117	51	2	n/a	n/a	n/a	n/a	543.179	AF20HAS.jpg
467.192	0.514	Blank	Blank	20.438	n/a	4	12	17	n/a	117	n/a	2	n/a	n/a	n/a	n/a	543.677	n/a
467.722	0.497	happy	Picture	19.924	n/a	4	12	18	n/a	118	71	2	n/a	n/a	n/a	n/a	544.207	BM12HAS.jpg
468.219	0.514	Blank	Blank	19.41	n/a	4	12	18	n/a	118	n/a	2	n/a	n/a	n/a	n/a	544.704	n/a
468.75	0.497	happy	Picture	18.896	n/a	4	12	19	n/a	119	69	2	n/a	n/a	n/a	n/a	545.235	AM10HAS.jpg
469.247	0.514	Blank	Blank	18.382	n/a	4	12	19	n/a	119	n/a	2	n/a	n/a	n/a	n/a	545.732	n/a
469.778	0.497	happy	Picture	17.868	n/a	4	12	20	n/a	120	46	2	n/a	n/a	n/a	n/a	546.263	AF09HAS.jpg
470.275	0.514	Blank	Blank	17.354	n/a	4	12	20	n/a	120	n/a	2	n/a	n/a	n/a	n/a	546.76	n/a
470.806	10.014	ITI	Fixation+	7.324	n/a	4	n/a	n/a	n/a	n/a	n/a	n/a	n/a	n/a	n/a	n/a	547.291	n/a
488.143	n/a	ConfirmRating	Rate	n/a	7.312	4	n/a	n/a	0	n/a	n/a	n/a	2	Happy	50	50	564.628	n/a
492.201	n/a	ConfirmRating	Rate	n/a	4.045	4	n/a	n/a	1	n/a	n/a	n/a	3	Happy	38	49	568.686	n/a
