onset	duration	trial_type	event_type	time_until_response	response_time	trial_number	block_num_within_trial	image_seq_num_within_block	question_seq_num_within_block	image_seq_num	picture_number	condition	question_type	block_type	rating	rating_computed	onset_uncorrected	KDEV_imagefile
0.002	10.014	ITI	Fixation+	96.734	n/a	1	n/a	n/a	n/a	n/a	n/a	n/a	n/a	n/a	n/a	n/a	30.052	n/a
10.032	0.497	happy	Picture	96.22	n/a	1	1	1	n/a	1	108	3	n/a	n/a	n/a	n/a	40.082	AM09ANS.jpg
10.53	0.514	Blank	Blank	95.707	n/a	1	1	1	n/a	1	n/a	3	n/a	n/a	n/a	n/a	40.58	n/a
11.06	0.497	happy	Picture	95.193	n/a	1	1	2	n/a	2	99	3	n/a	n/a	n/a	n/a	41.11	AF31ANS.jpg
11.558	0.514	Blank	Blank	94.679	n/a	1	1	2	n/a	2	n/a	3	n/a	n/a	n/a	n/a	41.608	n/a
12.088	0.497	happy	Picture	94.165	n/a	1	1	3	n/a	3	98	3	n/a	n/a	n/a	n/a	42.138	BF29ANS.jpg
12.586	0.514	Blank	Blank	93.651	n/a	1	1	3	n/a	3	n/a	3	n/a	n/a	n/a	n/a	42.635	n/a
13.116	0.497	happy	Picture	93.137	n/a	1	1	4	n/a	4	107	3	n/a	n/a	n/a	n/a	43.166	BM08ANS.jpg
13.614	0.514	Blank	Blank	92.623	n/a	1	1	4	n/a	4	n/a	3	n/a	n/a	n/a	n/a	43.663	n/a
14.144	0.497	happy	Picture	92.109	n/a	1	1	5	n/a	5	104	3	n/a	n/a	n/a	n/a	44.194	BM05ANS.jpg
14.641	0.514	Blank	Blank	91.595	n/a	1	1	5	n/a	5	n/a	3	n/a	n/a	n/a	n/a	44.691	n/a
15.172	0.497	happy	Picture	91.081	n/a	1	1	6	n/a	6	101	3	n/a	n/a	n/a	n/a	45.222	AM01ANS.jpg
15.669	0.514	Blank	Blank	90.567	n/a	1	1	6	n/a	6	n/a	3	n/a	n/a	n/a	n/a	45.719	n/a
16.2	0.497	happy	Picture	90.053	n/a	1	1	7	n/a	7	103	3	n/a	n/a	n/a	n/a	46.249	AM04ANS.jpg
16.697	0.514	Blank	Blank	89.539	n/a	1	1	7	n/a	7	n/a	3	n/a	n/a	n/a	n/a	46.747	n/a
17.228	0.497	happy	Picture	89.025	n/a	1	1	8	n/a	8	111	3	n/a	n/a	n/a	n/a	47.277	BM12ANS.jpg
17.725	0.514	Blank	Blank	88.511	n/a	1	1	8	n/a	8	n/a	3	n/a	n/a	n/a	n/a	47.775	n/a
18.256	0.497	happy	Picture	87.997	n/a	1	1	9	n/a	9	110	3	n/a	n/a	n/a	n/a	48.305	AM11ANS.jpg
18.753	0.514	Blank	Blank	87.483	n/a	1	1	9	n/a	9	n/a	3	n/a	n/a	n/a	n/a	48.803	n/a
19.283	0.497	happy	Picture	86.969	n/a	1	1	10	n/a	10	85	3	n/a	n/a	n/a	n/a	49.333	BF07ANS.jpg
19.781	0.514	Blank	Blank	86.456	n/a	1	1	10	n/a	10	n/a	3	n/a	n/a	n/a	n/a	49.831	n/a
20.311	0.497	happy	Picture	85.942	n/a	1	1	11	n/a	11	87	3	n/a	n/a	n/a	n/a	50.361	BF11ANS.jpg
20.809	0.514	Blank	Blank	85.428	n/a	1	1	11	n/a	11	n/a	3	n/a	n/a	n/a	n/a	50.858	n/a
21.339	0.497	happy	Picture	84.914	n/a	1	1	12	n/a	12	91	3	n/a	n/a	n/a	n/a	51.389	AF20ANS.jpg
21.837	0.514	Blank	Blank	84.4	n/a	1	1	12	n/a	12	n/a	3	n/a	n/a	n/a	n/a	51.886	n/a
22.367	0.497	happy	Picture	83.886	n/a	1	1	13	n/a	13	115	3	n/a	n/a	n/a	n/a	52.417	AM23ANS.jpg
22.864	0.514	Blank	Blank	83.372	n/a	1	1	13	n/a	13	n/a	3	n/a	n/a	n/a	n/a	52.914	n/a
23.395	0.497	happy	Picture	82.858	n/a	1	1	14	n/a	14	97	3	n/a	n/a	n/a	n/a	53.445	BF28ANS.jpg
23.892	0.514	Blank	Blank	82.344	n/a	1	1	14	n/a	14	n/a	3	n/a	n/a	n/a	n/a	53.942	n/a
24.423	0.497	happy	Picture	81.83	n/a	1	1	15	n/a	15	82	3	n/a	n/a	n/a	n/a	54.473	AF03ANS.jpg
24.92	0.514	Blank	Blank	81.316	n/a	1	1	15	n/a	15	n/a	3	n/a	n/a	n/a	n/a	54.97	n/a
25.451	0.497	happy	Picture	80.802	n/a	1	1	16	n/a	16	96	3	n/a	n/a	n/a	n/a	55.501	AF26ANS.jpg
25.948	0.514	Blank	Blank	80.288	n/a	1	1	16	n/a	16	n/a	3	n/a	n/a	n/a	n/a	55.998	n/a
26.479	0.497	happy	Picture	79.774	n/a	1	1	17	n/a	17	109	3	n/a	n/a	n/a	n/a	56.528	AM10ANS.jpg
26.976	0.514	Blank	Blank	79.26	n/a	1	1	17	n/a	17	n/a	3	n/a	n/a	n/a	n/a	57.026	n/a
27.507	0.497	happy	Picture	78.746	n/a	1	1	18	n/a	18	114	3	n/a	n/a	n/a	n/a	57.556	AM22ANS.jpg
28.004	0.514	Blank	Blank	78.232	n/a	1	1	18	n/a	18	n/a	3	n/a	n/a	n/a	n/a	58.054	n/a
28.535	0.497	happy	Picture	77.719	n/a	1	1	19	n/a	19	120	3	n/a	n/a	n/a	n/a	58.584	AM35ANS.jpg
29.032	0.514	Blank	Blank	77.205	n/a	1	1	19	n/a	19	n/a	3	n/a	n/a	n/a	n/a	59.081	n/a
29.562	0.497	happy	Picture	76.691	n/a	1	1	20	n/a	20	81	3	n/a	n/a	n/a	n/a	59.612	AF01ANS.jpg
30.06	0.514	Blank	Blank	76.177	n/a	1	1	20	n/a	20	n/a	3	n/a	n/a	n/a	n/a	60.109	n/a
30.59	10.014	ITI	Fixation+	66.147	n/a	1	n/a	n/a	n/a	n/a	n/a	n/a	n/a	n/a	n/a	n/a	60.64	n/a
40.62	0.497	neutral	Picture	65.633	n/a	1	2	1	n/a	21	28	1	n/a	n/a	n/a	n/a	70.67	AM09NES.jpg
41.118	0.514	Blank	Blank	65.119	n/a	1	2	1	n/a	21	n/a	1	n/a	n/a	n/a	n/a	71.168	n/a
41.648	0.497	neutral	Picture	64.605	n/a	1	2	2	n/a	22	27	1	n/a	n/a	n/a	n/a	71.698	BM08NES.jpg
42.146	0.514	Blank	Blank	64.091	n/a	1	2	2	n/a	22	n/a	1	n/a	n/a	n/a	n/a	72.195	n/a
42.676	0.497	neutral	Picture	63.577	n/a	1	2	3	n/a	23	16	1	n/a	n/a	n/a	n/a	72.726	AF26NES.jpg
43.174	0.514	Blank	Blank	63.063	n/a	1	2	3	n/a	23	n/a	1	n/a	n/a	n/a	n/a	73.223	n/a
43.704	0.497	neutral	Picture	62.549	n/a	1	2	4	n/a	24	3	1	n/a	n/a	n/a	n/a	73.754	BF04NES.jpg
44.201	0.514	Blank	Blank	62.035	n/a	1	2	4	n/a	24	n/a	1	n/a	n/a	n/a	n/a	74.251	n/a
44.732	0.497	neutral	Picture	61.521	n/a	1	2	5	n/a	25	32	1	n/a	n/a	n/a	n/a	74.782	AM14NES.jpg
45.229	0.514	Blank	Blank	61.007	n/a	1	2	5	n/a	25	n/a	1	n/a	n/a	n/a	n/a	75.279	n/a
45.76	0.497	neutral	Picture	60.493	n/a	1	2	6	n/a	26	37	1	n/a	n/a	n/a	n/a	75.81	BM25NES.jpg
46.257	0.514	Blank	Blank	59.979	n/a	1	2	6	n/a	26	n/a	1	n/a	n/a	n/a	n/a	76.307	n/a
46.788	0.497	neutral	Picture	59.465	n/a	1	2	7	n/a	27	15	1	n/a	n/a	n/a	n/a	76.837	AF25NES.jpg
47.285	0.514	Blank	Blank	58.951	n/a	1	2	7	n/a	27	n/a	1	n/a	n/a	n/a	n/a	77.335	n/a
47.816	0.497	neutral	Picture	58.437	n/a	1	2	8	n/a	28	23	1	n/a	n/a	n/a	n/a	77.865	AM04NES.jpg
48.313	0.514	Blank	Blank	57.923	n/a	1	2	8	n/a	28	n/a	1	n/a	n/a	n/a	n/a	78.363	n/a
48.843	0.497	neutral	Picture	57.409	n/a	1	2	9	n/a	29	34	1	n/a	n/a	n/a	n/a	78.893	AM22NES.jpg
49.341	0.514	Blank	Blank	56.896	n/a	1	2	9	n/a	29	n/a	1	n/a	n/a	n/a	n/a	79.391	n/a
49.871	0.497	neutral	Picture	56.382	n/a	1	2	10	n/a	30	24	1	n/a	n/a	n/a	n/a	79.921	BM05NES.jpg
50.369	0.514	Blank	Blank	55.868	n/a	1	2	10	n/a	30	n/a	1	n/a	n/a	n/a	n/a	80.418	n/a
50.899	0.497	neutral	Picture	55.354	n/a	1	2	11	n/a	31	12	1	n/a	n/a	n/a	n/a	80.949	AF21NES.jpg
51.397	0.514	Blank	Blank	54.84	n/a	1	2	11	n/a	31	n/a	1	n/a	n/a	n/a	n/a	81.446	n/a
51.927	0.497	neutral	Picture	54.326	n/a	1	2	12	n/a	32	6	1	n/a	n/a	n/a	n/a	81.977	AF09NES.jpg
52.424	0.514	Blank	Blank	53.812	n/a	1	2	12	n/a	32	n/a	1	n/a	n/a	n/a	n/a	82.474	n/a
52.955	0.497	neutral	Picture	53.298	n/a	1	2	13	n/a	33	17	1	n/a	n/a	n/a	n/a	83.005	BF28NES.jpg
53.452	0.514	Blank	Blank	52.784	n/a	1	2	13	n/a	33	n/a	1	n/a	n/a	n/a	n/a	83.502	n/a
53.983	0.497	neutral	Picture	52.27	n/a	1	2	14	n/a	34	2	1	n/a	n/a	n/a	n/a	84.033	AF03NES.jpg
54.48	0.514	Blank	Blank	51.756	n/a	1	2	14	n/a	34	n/a	1	n/a	n/a	n/a	n/a	84.53	n/a
55.011	0.497	neutral	Picture	51.242	n/a	1	2	15	n/a	35	9	1	n/a	n/a	n/a	n/a	85.061	AF17NES.jpg
55.508	0.514	Blank	Blank	50.728	n/a	1	2	15	n/a	35	n/a	1	n/a	n/a	n/a	n/a	85.558	n/a
56.039	0.497	neutral	Picture	50.214	n/a	1	2	16	n/a	36	25	1	n/a	n/a	n/a	n/a	86.088	BM06NES.jpg
56.536	0.514	Blank	Blank	49.7	n/a	1	2	16	n/a	36	n/a	1	n/a	n/a	n/a	n/a	86.586	n/a
57.067	0.497	neutral	Picture	49.186	n/a	1	2	17	n/a	37	8	1	n/a	n/a	n/a	n/a	87.116	AF14NES.jpg
57.564	0.514	Blank	Blank	48.672	n/a	1	2	17	n/a	37	n/a	1	n/a	n/a	n/a	n/a	87.614	n/a
58.094	0.497	neutral	Picture	48.158	n/a	1	2	18	n/a	38	19	1	n/a	n/a	n/a	n/a	88.144	AF31NES.jpg
58.592	0.514	Blank	Blank	47.645	n/a	1	2	18	n/a	38	n/a	1	n/a	n/a	n/a	n/a	88.642	n/a
59.122	0.497	neutral	Picture	47.131	n/a	1	2	19	n/a	39	14	1	n/a	n/a	n/a	n/a	89.172	AF23NES.jpg
59.62	0.514	Blank	Blank	46.617	n/a	1	2	19	n/a	39	n/a	1	n/a	n/a	n/a	n/a	89.669	n/a
60.15	0.497	neutral	Picture	46.103	n/a	1	2	20	n/a	40	4	1	n/a	n/a	n/a	n/a	90.2	AF05NES.jpg
60.648	0.514	Blank	Blank	45.589	n/a	1	2	20	n/a	40	n/a	1	n/a	n/a	n/a	n/a	90.697	n/a
61.178	10.014	ITI	Fixation+	35.559	n/a	1	n/a	n/a	n/a	n/a	n/a	n/a	n/a	n/a	n/a	n/a	91.228	n/a
71.208	0.497	happy	Picture	35.045	n/a	1	3	1	n/a	41	84	3	n/a	n/a	n/a	n/a	101.258	AF05ANS.jpg
71.706	0.514	Blank	Blank	34.531	n/a	1	3	1	n/a	41	n/a	3	n/a	n/a	n/a	n/a	101.755	n/a
72.236	0.497	happy	Picture	34.017	n/a	1	3	2	n/a	42	92	3	n/a	n/a	n/a	n/a	102.286	AF21ANS.jpg
72.734	0.514	Blank	Blank	33.503	n/a	1	3	2	n/a	42	n/a	3	n/a	n/a	n/a	n/a	102.783	n/a
73.264	0.497	happy	Picture	32.989	n/a	1	3	3	n/a	43	86	3	n/a	n/a	n/a	n/a	103.314	AF09ANS.jpg
73.761	0.514	Blank	Blank	32.475	n/a	1	3	3	n/a	43	n/a	3	n/a	n/a	n/a	n/a	103.811	n/a
74.292	0.497	happy	Picture	31.961	n/a	1	3	4	n/a	44	93	3	n/a	n/a	n/a	n/a	104.342	BF22ANS.jpg
74.789	0.514	Blank	Blank	31.447	n/a	1	3	4	n/a	44	n/a	3	n/a	n/a	n/a	n/a	104.839	n/a
75.32	0.497	happy	Picture	30.933	n/a	1	3	5	n/a	45	88	3	n/a	n/a	n/a	n/a	105.37	AF14ANS.jpg
75.817	0.514	Blank	Blank	30.419	n/a	1	3	5	n/a	45	n/a	3	n/a	n/a	n/a	n/a	105.867	n/a
76.348	0.497	happy	Picture	29.905	n/a	1	3	6	n/a	46	113	3	n/a	n/a	n/a	n/a	106.397	AM21ANS.jpg
76.845	0.514	Blank	Blank	29.391	n/a	1	3	6	n/a	46	n/a	3	n/a	n/a	n/a	n/a	106.895	n/a
77.376	0.497	happy	Picture	28.877	n/a	1	3	7	n/a	47	95	3	n/a	n/a	n/a	n/a	107.425	AF25ANS.jpg
77.873	0.514	Blank	Blank	28.363	n/a	1	3	7	n/a	47	n/a	3	n/a	n/a	n/a	n/a	107.923	n/a
78.403	0.497	happy	Picture	27.849	n/a	1	3	8	n/a	48	102	3	n/a	n/a	n/a	n/a	108.453	BM03ANS.jpg
78.901	0.514	Blank	Blank	27.336	n/a	1	3	8	n/a	48	n/a	3	n/a	n/a	n/a	n/a	108.951	n/a
79.431	0.497	happy	Picture	26.822	n/a	1	3	9	n/a	49	112	3	n/a	n/a	n/a	n/a	109.481	AM14ANS.jpg
79.929	0.514	Blank	Blank	26.308	n/a	1	3	9	n/a	49	n/a	3	n/a	n/a	n/a	n/a	109.978	n/a
80.459	0.497	happy	Picture	25.794	n/a	1	3	10	n/a	50	83	3	n/a	n/a	n/a	n/a	110.509	BF04ANS.jpg
80.957	0.514	Blank	Blank	25.28	n/a	1	3	10	n/a	50	n/a	3	n/a	n/a	n/a	n/a	111.006	n/a
81.487	0.497	happy	Picture	24.766	n/a	1	3	11	n/a	51	90	3	n/a	n/a	n/a	n/a	111.537	AF18ANS.jpg
81.985	0.514	Blank	Blank	24.252	n/a	1	3	11	n/a	51	n/a	3	n/a	n/a	n/a	n/a	112.034	n/a
82.515	0.497	happy	Picture	23.738	n/a	1	3	12	n/a	52	117	3	n/a	n/a	n/a	n/a	112.565	BM25ANS.jpg
83.012	0.514	Blank	Blank	23.224	n/a	1	3	12	n/a	52	n/a	3	n/a	n/a	n/a	n/a	113.062	n/a
83.543	0.497	happy	Picture	22.71	n/a	1	3	13	n/a	53	94	3	n/a	n/a	n/a	n/a	113.593	AF23ANS.jpg
84.04	0.514	Blank	Blank	22.196	n/a	1	3	13	n/a	53	n/a	3	n/a	n/a	n/a	n/a	114.09	n/a
84.571	0.497	happy	Picture	21.682	n/a	1	3	14	n/a	54	106	3	n/a	n/a	n/a	n/a	114.621	AM07ANS.jpg
85.068	0.514	Blank	Blank	21.168	n/a	1	3	14	n/a	54	n/a	3	n/a	n/a	n/a	n/a	115.118	n/a
85.599	0.497	happy	Picture	20.654	n/a	1	3	15	n/a	55	105	3	n/a	n/a	n/a	n/a	115.648	BM06ANS.jpg
86.096	0.514	Blank	Blank	20.14	n/a	1	3	15	n/a	55	n/a	3	n/a	n/a	n/a	n/a	116.146	n/a
86.627	0.497	happy	Picture	19.626	n/a	1	3	16	n/a	56	116	3	n/a	n/a	n/a	n/a	116.676	BM24ANS.jpg
87.124	0.514	Blank	Blank	19.112	n/a	1	3	16	n/a	56	n/a	3	n/a	n/a	n/a	n/a	117.174	n/a
87.654	0.497	happy	Picture	18.598	n/a	1	3	17	n/a	57	89	3	n/a	n/a	n/a	n/a	117.704	AF17ANS.jpg
88.152	0.514	Blank	Blank	18.085	n/a	1	3	17	n/a	57	n/a	3	n/a	n/a	n/a	n/a	118.202	n/a
88.682	0.497	happy	Picture	17.571	n/a	1	3	18	n/a	58	118	3	n/a	n/a	n/a	n/a	118.732	BM26ANS.jpg
89.18	0.514	Blank	Blank	17.057	n/a	1	3	18	n/a	58	n/a	3	n/a	n/a	n/a	n/a	119.23	n/a
89.71	0.497	happy	Picture	16.543	n/a	1	3	19	n/a	59	100	3	n/a	n/a	n/a	n/a	119.76	AF32ANS.jpg
90.208	0.514	Blank	Blank	16.029	n/a	1	3	19	n/a	59	n/a	3	n/a	n/a	n/a	n/a	120.257	n/a
90.738	0.497	happy	Picture	15.515	n/a	1	3	20	n/a	60	119	3	n/a	n/a	n/a	n/a	120.788	BM28ANS.jpg
91.236	0.514	Blank	Blank	15.001	n/a	1	3	20	n/a	60	n/a	3	n/a	n/a	n/a	n/a	121.285	n/a
91.766	10.014	ITI	Fixation+	4.971	n/a	1	n/a	n/a	n/a	n/a	n/a	n/a	n/a	n/a	n/a	n/a	121.816	n/a
106.75	n/a	ConfirmRating	Rate	n/a	4.957	1	n/a	n/a	0	n/a	n/a	n/a	2	Happy	50	50	136.8	n/a
112.522	n/a	ConfirmRating	Rate	n/a	5.753	1	n/a	n/a	1	n/a	n/a	n/a	3	Happy	0	44	142.572	n/a
112.539	10.014	ITI	Fixation+	95.845	n/a	2	n/a	n/a	n/a	n/a	n/a	n/a	n/a	n/a	n/a	n/a	142.589	n/a
122.57	0.497	angry	Picture	95.331	n/a	2	4	1	n/a	61	79	2	n/a	n/a	n/a	n/a	152.619	BM28HAS.jpg
123.067	0.514	Blank	Blank	94.817	n/a	2	4	1	n/a	61	n/a	2	n/a	n/a	n/a	n/a	153.117	n/a
123.597	0.497	angry	Picture	94.303	n/a	2	4	2	n/a	62	61	2	n/a	n/a	n/a	n/a	153.647	AM01HAS.jpg
124.095	0.514	Blank	Blank	93.789	n/a	2	4	2	n/a	62	n/a	2	n/a	n/a	n/a	n/a	154.144	n/a
124.625	0.497	angry	Picture	93.275	n/a	2	4	3	n/a	63	57	2	n/a	n/a	n/a	n/a	154.675	BF28HAS.jpg
125.123	0.514	Blank	Blank	92.761	n/a	2	4	3	n/a	63	n/a	2	n/a	n/a	n/a	n/a	155.172	n/a
125.653	0.497	angry	Picture	92.247	n/a	2	4	4	n/a	64	77	2	n/a	n/a	n/a	n/a	155.703	BM25HAS.jpg
126.15	0.514	Blank	Blank	91.733	n/a	2	4	4	n/a	64	n/a	2	n/a	n/a	n/a	n/a	156.2	n/a
126.681	0.497	angry	Picture	91.219	n/a	2	4	5	n/a	65	47	2	n/a	n/a	n/a	n/a	156.731	BF11HAS.jpg
127.178	0.514	Blank	Blank	90.705	n/a	2	4	5	n/a	65	n/a	2	n/a	n/a	n/a	n/a	157.228	n/a
127.709	0.497	angry	Picture	90.191	n/a	2	4	6	n/a	66	50	2	n/a	n/a	n/a	n/a	157.759	AF18HAS.jpg
128.206	0.514	Blank	Blank	89.677	n/a	2	4	6	n/a	66	n/a	2	n/a	n/a	n/a	n/a	158.256	n/a
128.737	0.497	angry	Picture	89.163	n/a	2	4	7	n/a	67	78	2	n/a	n/a	n/a	n/a	158.786	BM26HAS.jpg
129.234	0.514	Blank	Blank	88.65	n/a	2	4	7	n/a	67	n/a	2	n/a	n/a	n/a	n/a	159.284	n/a
129.765	0.497	angry	Picture	88.136	n/a	2	4	8	n/a	68	45	2	n/a	n/a	n/a	n/a	159.814	BF07HAS.jpg
130.262	0.514	Blank	Blank	87.622	n/a	2	4	8	n/a	68	n/a	2	n/a	n/a	n/a	n/a	160.312	n/a
130.793	0.497	angry	Picture	87.108	n/a	2	4	9	n/a	69	56	2	n/a	n/a	n/a	n/a	160.842	AF26HAS.jpg
131.29	0.514	Blank	Blank	86.594	n/a	2	4	9	n/a	69	n/a	2	n/a	n/a	n/a	n/a	161.34	n/a
131.821	0.497	angry	Picture	86.08	n/a	2	4	10	n/a	70	65	2	n/a	n/a	n/a	n/a	161.87	BM06HAS.jpg
132.318	0.514	Blank	Blank	85.566	n/a	2	4	10	n/a	70	n/a	2	n/a	n/a	n/a	n/a	162.368	n/a
132.848	0.497	angry	Picture	85.052	n/a	2	4	11	n/a	71	73	2	n/a	n/a	n/a	n/a	162.898	AM21HAS.jpg
133.346	0.514	Blank	Blank	84.538	n/a	2	4	11	n/a	71	n/a	2	n/a	n/a	n/a	n/a	163.395	n/a
133.876	0.497	angry	Picture	84.024	n/a	2	4	12	n/a	72	41	2	n/a	n/a	n/a	n/a	163.926	AF01HAS.jpg
134.374	0.514	Blank	Blank	83.51	n/a	2	4	12	n/a	72	n/a	2	n/a	n/a	n/a	n/a	164.423	n/a
134.904	0.497	angry	Picture	82.996	n/a	2	4	13	n/a	73	59	2	n/a	n/a	n/a	n/a	164.954	AF31HAS.jpg
135.401	0.514	Blank	Blank	82.482	n/a	2	4	13	n/a	73	n/a	2	n/a	n/a	n/a	n/a	165.451	n/a
135.932	0.497	angry	Picture	81.968	n/a	2	4	14	n/a	74	64	2	n/a	n/a	n/a	n/a	165.982	BM05HAS.jpg
136.429	0.514	Blank	Blank	81.454	n/a	2	4	14	n/a	74	n/a	2	n/a	n/a	n/a	n/a	166.479	n/a
136.96	0.497	angry	Picture	80.94	n/a	2	4	15	n/a	75	68	2	n/a	n/a	n/a	n/a	167.01	AM09HAS.jpg
137.457	0.514	Blank	Blank	80.426	n/a	2	4	15	n/a	75	n/a	2	n/a	n/a	n/a	n/a	167.507	n/a
137.988	0.497	angry	Picture	79.913	n/a	2	4	16	n/a	76	54	2	n/a	n/a	n/a	n/a	168.037	AF23HAS.jpg
138.485	0.514	Blank	Blank	79.399	n/a	2	4	16	n/a	76	n/a	2	n/a	n/a	n/a	n/a	168.535	n/a
139.016	0.497	angry	Picture	78.885	n/a	2	4	17	n/a	77	53	2	n/a	n/a	n/a	n/a	169.065	BF22HAS.jpg
139.513	0.514	Blank	Blank	78.371	n/a	2	4	17	n/a	77	n/a	2	n/a	n/a	n/a	n/a	169.563	n/a
140.044	0.497	angry	Picture	77.857	n/a	2	4	18	n/a	78	44	2	n/a	n/a	n/a	n/a	170.093	AF05HAS.jpg
140.541	0.514	Blank	Blank	77.343	n/a	2	4	18	n/a	78	n/a	2	n/a	n/a	n/a	n/a	170.591	n/a
141.071	0.497	angry	Picture	76.829	n/a	2	4	19	n/a	79	52	2	n/a	n/a	n/a	n/a	171.121	AF21HAS.jpg
141.569	0.514	Blank	Blank	76.315	n/a	2	4	19	n/a	79	n/a	2	n/a	n/a	n/a	n/a	171.619	n/a
142.099	0.497	angry	Picture	75.801	n/a	2	4	20	n/a	80	62	2	n/a	n/a	n/a	n/a	172.149	BM03HAS.jpg
142.597	0.514	Blank	Blank	75.287	n/a	2	4	20	n/a	80	n/a	2	n/a	n/a	n/a	n/a	172.646	n/a
143.127	10.014	ITI	Fixation+	65.257	n/a	2	n/a	n/a	n/a	n/a	n/a	n/a	n/a	n/a	n/a	n/a	173.177	n/a
153.157	0.497	neutral	Picture	64.743	n/a	2	5	1	n/a	81	23	1	n/a	n/a	n/a	n/a	183.207	AM04NES.jpg
153.655	0.514	Blank	Blank	64.229	n/a	2	5	1	n/a	81	n/a	1	n/a	n/a	n/a	n/a	183.704	n/a
154.185	0.497	neutral	Picture	63.715	n/a	2	5	2	n/a	82	29	1	n/a	n/a	n/a	n/a	184.235	AM10NES.jpg
154.683	0.514	Blank	Blank	63.201	n/a	2	5	2	n/a	82	n/a	1	n/a	n/a	n/a	n/a	184.732	n/a
155.213	0.497	neutral	Picture	62.687	n/a	2	5	3	n/a	83	24	1	n/a	n/a	n/a	n/a	185.263	BM05NES.jpg
155.71	0.514	Blank	Blank	62.173	n/a	2	5	3	n/a	83	n/a	1	n/a	n/a	n/a	n/a	185.76	n/a
156.241	0.497	neutral	Picture	61.659	n/a	2	5	4	n/a	84	12	1	n/a	n/a	n/a	n/a	186.291	AF21NES.jpg
156.738	0.514	Blank	Blank	61.145	n/a	2	5	4	n/a	84	n/a	1	n/a	n/a	n/a	n/a	186.788	n/a
157.269	0.497	neutral	Picture	60.631	n/a	2	5	5	n/a	85	13	1	n/a	n/a	n/a	n/a	187.319	BF22NES.jpg
157.766	0.514	Blank	Blank	60.117	n/a	2	5	5	n/a	85	n/a	1	n/a	n/a	n/a	n/a	187.816	n/a
158.297	0.497	neutral	Picture	59.603	n/a	2	5	6	n/a	86	17	1	n/a	n/a	n/a	n/a	188.346	BF28NES.jpg
158.794	0.514	Blank	Blank	59.09	n/a	2	5	6	n/a	86	n/a	1	n/a	n/a	n/a	n/a	188.844	n/a
159.325	0.497	neutral	Picture	58.576	n/a	2	5	7	n/a	87	4	1	n/a	n/a	n/a	n/a	189.374	AF05NES.jpg
159.822	0.514	Blank	Blank	58.062	n/a	2	5	7	n/a	87	n/a	1	n/a	n/a	n/a	n/a	189.872	n/a
160.353	0.497	neutral	Picture	57.548	n/a	2	5	8	n/a	88	11	1	n/a	n/a	n/a	n/a	190.402	AF20NES.jpg
160.85	0.514	Blank	Blank	57.034	n/a	2	5	8	n/a	88	n/a	1	n/a	n/a	n/a	n/a	190.9	n/a
161.381	0.497	neutral	Picture	56.52	n/a	2	5	9	n/a	89	22	1	n/a	n/a	n/a	n/a	191.43	BM03NES.jpg
161.878	0.514	Blank	Blank	56.006	n/a	2	5	9	n/a	89	n/a	1	n/a	n/a	n/a	n/a	191.928	n/a
162.408	0.497	neutral	Picture	55.492	n/a	2	5	10	n/a	90	15	1	n/a	n/a	n/a	n/a	192.458	AF25NES.jpg
162.906	0.514	Blank	Blank	54.978	n/a	2	5	10	n/a	90	n/a	1	n/a	n/a	n/a	n/a	192.955	n/a
163.436	0.497	neutral	Picture	54.464	n/a	2	5	11	n/a	91	19	1	n/a	n/a	n/a	n/a	193.486	AF31NES.jpg
163.934	0.514	Blank	Blank	53.95	n/a	2	5	11	n/a	91	n/a	1	n/a	n/a	n/a	n/a	193.983	n/a
164.464	0.497	neutral	Picture	53.436	n/a	2	5	12	n/a	92	9	1	n/a	n/a	n/a	n/a	194.514	AF17NES.jpg
164.962	0.514	Blank	Blank	52.922	n/a	2	5	12	n/a	92	n/a	1	n/a	n/a	n/a	n/a	195.011	n/a
165.492	0.497	neutral	Picture	52.408	n/a	2	5	13	n/a	93	14	1	n/a	n/a	n/a	n/a	195.542	AF23NES.jpg
165.989	0.514	Blank	Blank	51.894	n/a	2	5	13	n/a	93	n/a	1	n/a	n/a	n/a	n/a	196.039	n/a
166.52	0.497	neutral	Picture	51.38	n/a	2	5	14	n/a	94	36	1	n/a	n/a	n/a	n/a	196.57	BM24NES.jpg
167.017	0.514	Blank	Blank	50.866	n/a	2	5	14	n/a	94	n/a	1	n/a	n/a	n/a	n/a	197.067	n/a
167.548	0.497	neutral	Picture	50.352	n/a	2	5	15	n/a	95	34	1	n/a	n/a	n/a	n/a	197.597	AM22NES.jpg
168.045	0.514	Blank	Blank	49.839	n/a	2	5	15	n/a	95	n/a	1	n/a	n/a	n/a	n/a	198.095	n/a
168.576	0.497	neutral	Picture	49.325	n/a	2	5	16	n/a	96	10	1	n/a	n/a	n/a	n/a	198.625	AF18NES.jpg
169.073	0.514	Blank	Blank	48.811	n/a	2	5	16	n/a	96	n/a	1	n/a	n/a	n/a	n/a	199.123	n/a
169.604	0.497	neutral	Picture	48.297	n/a	2	5	17	n/a	97	5	1	n/a	n/a	n/a	n/a	199.653	BF07NES.jpg
170.101	0.514	Blank	Blank	47.783	n/a	2	5	17	n/a	97	n/a	1	n/a	n/a	n/a	n/a	200.151	n/a
170.631	0.497	neutral	Picture	47.269	n/a	2	5	18	n/a	98	25	1	n/a	n/a	n/a	n/a	200.681	BM06NES.jpg
171.129	0.514	Blank	Blank	46.755	n/a	2	5	18	n/a	98	n/a	1	n/a	n/a	n/a	n/a	201.179	n/a
171.659	0.497	neutral	Picture	46.241	n/a	2	5	19	n/a	99	39	1	n/a	n/a	n/a	n/a	201.709	AM28NES.jpg
172.157	0.514	Blank	Blank	45.727	n/a	2	5	19	n/a	99	n/a	1	n/a	n/a	n/a	n/a	202.206	n/a
172.687	0.497	neutral	Picture	45.213	n/a	2	5	20	n/a	100	33	1	n/a	n/a	n/a	n/a	202.737	AM21NES.jpg
173.185	0.514	Blank	Blank	44.699	n/a	2	5	20	n/a	100	n/a	1	n/a	n/a	n/a	n/a	203.234	n/a
173.715	10.014	ITI	Fixation+	34.669	n/a	2	n/a	n/a	n/a	n/a	n/a	n/a	n/a	n/a	n/a	n/a	203.765	n/a
183.745	0.497	angry	Picture	34.155	n/a	2	6	1	n/a	101	74	2	n/a	n/a	n/a	n/a	213.795	AM22HAS.jpg
184.243	0.514	Blank	Blank	33.641	n/a	2	6	1	n/a	101	n/a	2	n/a	n/a	n/a	n/a	214.292	n/a
184.773	0.497	angry	Picture	33.127	n/a	2	6	2	n/a	102	76	2	n/a	n/a	n/a	n/a	214.823	BM24HAS.jpg
185.27	0.514	Blank	Blank	32.613	n/a	2	6	2	n/a	102	n/a	2	n/a	n/a	n/a	n/a	215.32	n/a
185.801	0.497	angry	Picture	32.099	n/a	2	6	3	n/a	103	80	2	n/a	n/a	n/a	n/a	215.851	BM35HAS.jpg
186.298	0.514	Blank	Blank	31.585	n/a	2	6	3	n/a	103	n/a	2	n/a	n/a	n/a	n/a	216.348	n/a
186.829	0.497	angry	Picture	31.071	n/a	2	6	4	n/a	104	75	2	n/a	n/a	n/a	n/a	216.879	AM23HAS.jpg
187.326	0.514	Blank	Blank	30.557	n/a	2	6	4	n/a	104	n/a	2	n/a	n/a	n/a	n/a	217.376	n/a
187.857	0.497	angry	Picture	30.043	n/a	2	6	5	n/a	105	49	2	n/a	n/a	n/a	n/a	217.906	AF17HAS.jpg
188.354	0.514	Blank	Blank	29.529	n/a	2	6	5	n/a	105	n/a	2	n/a	n/a	n/a	n/a	218.404	n/a
188.885	0.497	angry	Picture	29.016	n/a	2	6	6	n/a	106	43	2	n/a	n/a	n/a	n/a	218.934	BF04HAS.jpg
189.382	0.514	Blank	Blank	28.502	n/a	2	6	6	n/a	106	n/a	2	n/a	n/a	n/a	n/a	219.432	n/a
189.913	0.497	angry	Picture	27.988	n/a	2	6	7	n/a	107	70	2	n/a	n/a	n/a	n/a	219.962	BM11HAS.jpg
190.41	0.514	Blank	Blank	27.474	n/a	2	6	7	n/a	107	n/a	2	n/a	n/a	n/a	n/a	220.46	n/a
190.94	0.497	angry	Picture	26.96	n/a	2	6	8	n/a	108	66	2	n/a	n/a	n/a	n/a	220.99	BM07HAS.jpg
191.438	0.514	Blank	Blank	26.446	n/a	2	6	8	n/a	108	n/a	2	n/a	n/a	n/a	n/a	221.488	n/a
191.968	0.497	angry	Picture	25.932	n/a	2	6	9	n/a	109	48	2	n/a	n/a	n/a	n/a	222.018	AF14HAS.jpg
192.466	0.514	Blank	Blank	25.418	n/a	2	6	9	n/a	109	n/a	2	n/a	n/a	n/a	n/a	222.516	n/a
192.996	0.497	angry	Picture	24.904	n/a	2	6	10	n/a	110	58	2	n/a	n/a	n/a	n/a	223.046	BF29HAS.jpg
193.494	0.514	Blank	Blank	24.39	n/a	2	6	10	n/a	110	n/a	2	n/a	n/a	n/a	n/a	223.543	n/a
194.024	0.497	angry	Picture	23.876	n/a	2	6	11	n/a	111	63	2	n/a	n/a	n/a	n/a	224.074	AM04HAS.jpg
194.522	0.514	Blank	Blank	23.362	n/a	2	6	11	n/a	111	n/a	2	n/a	n/a	n/a	n/a	224.571	n/a
195.052	0.497	angry	Picture	22.848	n/a	2	6	12	n/a	112	72	2	n/a	n/a	n/a	n/a	225.102	AM14HAS.jpg
195.549	0.514	Blank	Blank	22.334	n/a	2	6	12	n/a	112	n/a	2	n/a	n/a	n/a	n/a	225.599	n/a
196.08	0.497	angry	Picture	21.82	n/a	2	6	13	n/a	113	55	2	n/a	n/a	n/a	n/a	226.13	AF25HAS.jpg
196.577	0.514	Blank	Blank	21.306	n/a	2	6	13	n/a	113	n/a	2	n/a	n/a	n/a	n/a	226.627	n/a
197.108	0.497	angry	Picture	20.792	n/a	2	6	14	n/a	114	42	2	n/a	n/a	n/a	n/a	227.157	AF03HAS.jpg
197.605	0.514	Blank	Blank	20.279	n/a	2	6	14	n/a	114	n/a	2	n/a	n/a	n/a	n/a	227.655	n/a
198.136	0.497	angry	Picture	19.765	n/a	2	6	15	n/a	115	60	2	n/a	n/a	n/a	n/a	228.185	AF32HAS.jpg
198.633	0.514	Blank	Blank	19.251	n/a	2	6	15	n/a	115	n/a	2	n/a	n/a	n/a	n/a	228.683	n/a
199.164	0.497	angry	Picture	18.737	n/a	2	6	16	n/a	116	67	2	n/a	n/a	n/a	n/a	229.213	BM08HAS.jpg
199.661	0.514	Blank	Blank	18.223	n/a	2	6	16	n/a	116	n/a	2	n/a	n/a	n/a	n/a	229.711	n/a
200.191	0.497	angry	Picture	17.709	n/a	2	6	17	n/a	117	51	2	n/a	n/a	n/a	n/a	230.241	AF20HAS.jpg
200.689	0.514	Blank	Blank	17.195	n/a	2	6	17	n/a	117	n/a	2	n/a	n/a	n/a	n/a	230.738	n/a
201.219	0.497	angry	Picture	16.681	n/a	2	6	18	n/a	118	71	2	n/a	n/a	n/a	n/a	231.269	BM12HAS.jpg
201.717	0.514	Blank	Blank	16.167	n/a	2	6	18	n/a	118	n/a	2	n/a	n/a	n/a	n/a	231.766	n/a
202.247	0.497	angry	Picture	15.653	n/a	2	6	19	n/a	119	69	2	n/a	n/a	n/a	n/a	232.297	AM10HAS.jpg
202.745	0.514	Blank	Blank	15.139	n/a	2	6	19	n/a	119	n/a	2	n/a	n/a	n/a	n/a	232.794	n/a
203.275	0.497	angry	Picture	14.625	n/a	2	6	20	n/a	120	46	2	n/a	n/a	n/a	n/a	233.325	AF09HAS.jpg
203.773	0.514	Blank	Blank	14.111	n/a	2	6	20	n/a	120	n/a	2	n/a	n/a	n/a	n/a	233.822	n/a
204.303	10.014	ITI	Fixation+	4.081	n/a	2	n/a	n/a	n/a	n/a	n/a	n/a	n/a	n/a	n/a	n/a	234.353	n/a
218.398	n/a	ConfirmRating	Rate	n/a	4.079	2	n/a	n/a	0	n/a	n/a	n/a	2	Angry	50	50	248.447	n/a
223.133	n/a	ConfirmRating	Rate	n/a	4.709	2	n/a	n/a	1	n/a	n/a	n/a	3	Angry	0	44	253.182	n/a
223.153	15.004	Rest	Picture	n/a	n/a	n/a	n/a	n/a	n/a	n/a	n/a	n/a	0	n/a	0	0	253.203	n/a
238.174	10.014	ITI	Fixation+	94.14	n/a	3	n/a	n/a	n/a	n/a	n/a	n/a	n/a	n/a	n/a	n/a	268.223	n/a
248.204	0.497	happy	Picture	93.626	n/a	3	7	1	n/a	1	108	3	n/a	n/a	n/a	n/a	278.253	AM09ANS.jpg
248.701	0.514	Blank	Blank	93.112	n/a	3	7	1	n/a	1	n/a	3	n/a	n/a	n/a	n/a	278.751	n/a
249.232	0.497	happy	Picture	92.598	n/a	3	7	2	n/a	2	99	3	n/a	n/a	n/a	n/a	279.281	AF31ANS.jpg
249.729	0.514	Blank	Blank	92.084	n/a	3	7	2	n/a	2	n/a	3	n/a	n/a	n/a	n/a	279.779	n/a
250.259	0.497	happy	Picture	91.57	n/a	3	7	3	n/a	3	98	3	n/a	n/a	n/a	n/a	280.309	BF29ANS.jpg
250.757	0.514	Blank	Blank	91.056	n/a	3	7	3	n/a	3	n/a	3	n/a	n/a	n/a	n/a	280.807	n/a
251.287	0.497	happy	Picture	90.542	n/a	3	7	4	n/a	4	107	3	n/a	n/a	n/a	n/a	281.337	BM08ANS.jpg
251.785	0.514	Blank	Blank	90.028	n/a	3	7	4	n/a	4	n/a	3	n/a	n/a	n/a	n/a	281.834	n/a
252.315	0.497	happy	Picture	89.514	n/a	3	7	5	n/a	5	104	3	n/a	n/a	n/a	n/a	282.365	BM05ANS.jpg
252.813	0.514	Blank	Blank	89.0	n/a	3	7	5	n/a	5	n/a	3	n/a	n/a	n/a	n/a	282.862	n/a
253.343	0.497	happy	Picture	88.486	n/a	3	7	6	n/a	6	101	3	n/a	n/a	n/a	n/a	283.393	AM01ANS.jpg
253.84	0.514	Blank	Blank	87.973	n/a	3	7	6	n/a	6	n/a	3	n/a	n/a	n/a	n/a	283.89	n/a
254.371	0.497	happy	Picture	87.459	n/a	3	7	7	n/a	7	103	3	n/a	n/a	n/a	n/a	284.421	AM04ANS.jpg
254.868	0.514	Blank	Blank	86.945	n/a	3	7	7	n/a	7	n/a	3	n/a	n/a	n/a	n/a	284.918	n/a
255.399	0.497	happy	Picture	86.431	n/a	3	7	8	n/a	8	111	3	n/a	n/a	n/a	n/a	285.449	BM12ANS.jpg
255.896	0.514	Blank	Blank	85.917	n/a	3	7	8	n/a	8	n/a	3	n/a	n/a	n/a	n/a	285.946	n/a
256.427	0.497	happy	Picture	85.403	n/a	3	7	9	n/a	9	110	3	n/a	n/a	n/a	n/a	286.476	AM11ANS.jpg
256.924	0.514	Blank	Blank	84.889	n/a	3	7	9	n/a	9	n/a	3	n/a	n/a	n/a	n/a	286.974	n/a
257.455	0.497	happy	Picture	84.375	n/a	3	7	10	n/a	10	85	3	n/a	n/a	n/a	n/a	287.504	BF07ANS.jpg
257.952	0.514	Blank	Blank	83.861	n/a	3	7	10	n/a	10	n/a	3	n/a	n/a	n/a	n/a	288.002	n/a
258.483	0.497	happy	Picture	83.347	n/a	3	7	11	n/a	11	87	3	n/a	n/a	n/a	n/a	288.532	BF11ANS.jpg
258.98	0.514	Blank	Blank	82.833	n/a	3	7	11	n/a	11	n/a	3	n/a	n/a	n/a	n/a	289.03	n/a
259.51	0.497	happy	Picture	82.319	n/a	3	7	12	n/a	12	91	3	n/a	n/a	n/a	n/a	289.56	AF20ANS.jpg
260.008	0.514	Blank	Blank	81.805	n/a	3	7	12	n/a	12	n/a	3	n/a	n/a	n/a	n/a	290.058	n/a
260.538	0.497	happy	Picture	81.291	n/a	3	7	13	n/a	13	115	3	n/a	n/a	n/a	n/a	290.588	AM23ANS.jpg
261.036	0.514	Blank	Blank	80.777	n/a	3	7	13	n/a	13	n/a	3	n/a	n/a	n/a	n/a	291.085	n/a
261.566	0.497	happy	Picture	80.263	n/a	3	7	14	n/a	14	97	3	n/a	n/a	n/a	n/a	291.616	BF28ANS.jpg
262.064	0.514	Blank	Blank	79.749	n/a	3	7	14	n/a	14	n/a	3	n/a	n/a	n/a	n/a	292.113	n/a
262.594	0.497	happy	Picture	79.235	n/a	3	7	15	n/a	15	82	3	n/a	n/a	n/a	n/a	292.644	AF03ANS.jpg
263.091	0.514	Blank	Blank	78.722	n/a	3	7	15	n/a	15	n/a	3	n/a	n/a	n/a	n/a	293.141	n/a
263.622	0.497	happy	Picture	78.208	n/a	3	7	16	n/a	16	96	3	n/a	n/a	n/a	n/a	293.672	AF26ANS.jpg
264.119	0.514	Blank	Blank	77.694	n/a	3	7	16	n/a	16	n/a	3	n/a	n/a	n/a	n/a	294.169	n/a
264.65	0.497	happy	Picture	77.18	n/a	3	7	17	n/a	17	109	3	n/a	n/a	n/a	n/a	294.7	AM10ANS.jpg
265.147	0.514	Blank	Blank	76.666	n/a	3	7	17	n/a	17	n/a	3	n/a	n/a	n/a	n/a	295.197	n/a
265.678	0.497	happy	Picture	76.152	n/a	3	7	18	n/a	18	114	3	n/a	n/a	n/a	n/a	295.728	AM22ANS.jpg
266.175	0.514	Blank	Blank	75.638	n/a	3	7	18	n/a	18	n/a	3	n/a	n/a	n/a	n/a	296.225	n/a
266.706	0.497	happy	Picture	75.124	n/a	3	7	19	n/a	19	120	3	n/a	n/a	n/a	n/a	296.755	AM35ANS.jpg
267.203	0.514	Blank	Blank	74.61	n/a	3	7	19	n/a	19	n/a	3	n/a	n/a	n/a	n/a	297.253	n/a
267.734	0.497	happy	Picture	74.096	n/a	3	7	20	n/a	20	81	3	n/a	n/a	n/a	n/a	297.783	AF01ANS.jpg
268.231	0.514	Blank	Blank	73.582	n/a	3	7	20	n/a	20	n/a	3	n/a	n/a	n/a	n/a	298.281	n/a
268.761	10.014	ITI	Fixation+	63.552	n/a	3	n/a	n/a	n/a	n/a	n/a	n/a	n/a	n/a	n/a	n/a	298.811	n/a
278.792	0.497	neutral	Picture	63.038	n/a	3	8	1	n/a	21	28	1	n/a	n/a	n/a	n/a	308.841	AM09NES.jpg
279.289	0.514	Blank	Blank	62.524	n/a	3	8	1	n/a	21	n/a	1	n/a	n/a	n/a	n/a	309.339	n/a
279.819	0.497	neutral	Picture	62.01	n/a	3	8	2	n/a	22	27	1	n/a	n/a	n/a	n/a	309.869	BM08NES.jpg
280.317	0.514	Blank	Blank	61.496	n/a	3	8	2	n/a	22	n/a	1	n/a	n/a	n/a	n/a	310.367	n/a
280.847	0.497	neutral	Picture	60.982	n/a	3	8	3	n/a	23	16	1	n/a	n/a	n/a	n/a	310.897	AF26NES.jpg
281.345	0.514	Blank	Blank	60.468	n/a	3	8	3	n/a	23	n/a	1	n/a	n/a	n/a	n/a	311.394	n/a
281.875	0.497	neutral	Picture	59.954	n/a	3	8	4	n/a	24	3	1	n/a	n/a	n/a	n/a	311.925	BF04NES.jpg
282.373	0.514	Blank	Blank	59.44	n/a	3	8	4	n/a	24	n/a	1	n/a	n/a	n/a	n/a	312.422	n/a
282.903	0.497	neutral	Picture	58.926	n/a	3	8	5	n/a	25	32	1	n/a	n/a	n/a	n/a	312.953	AM14NES.jpg
283.4	0.514	Blank	Blank	58.412	n/a	3	8	5	n/a	25	n/a	1	n/a	n/a	n/a	n/a	313.45	n/a
283.931	0.497	neutral	Picture	57.898	n/a	3	8	6	n/a	26	37	1	n/a	n/a	n/a	n/a	313.981	BM25NES.jpg
284.428	0.514	Blank	Blank	57.385	n/a	3	8	6	n/a	26	n/a	1	n/a	n/a	n/a	n/a	314.478	n/a
284.959	0.497	neutral	Picture	56.871	n/a	3	8	7	n/a	27	15	1	n/a	n/a	n/a	n/a	315.009	AF25NES.jpg
285.456	0.514	Blank	Blank	56.357	n/a	3	8	7	n/a	27	n/a	1	n/a	n/a	n/a	n/a	315.506	n/a
285.987	0.497	neutral	Picture	55.843	n/a	3	8	8	n/a	28	23	1	n/a	n/a	n/a	n/a	316.036	AM04NES.jpg
286.484	0.514	Blank	Blank	55.329	n/a	3	8	8	n/a	28	n/a	1	n/a	n/a	n/a	n/a	316.534	n/a
287.015	0.497	neutral	Picture	54.815	n/a	3	8	9	n/a	29	34	1	n/a	n/a	n/a	n/a	317.064	AM22NES.jpg
287.512	0.514	Blank	Blank	54.301	n/a	3	8	9	n/a	29	n/a	1	n/a	n/a	n/a	n/a	317.562	n/a
288.043	0.497	neutral	Picture	53.787	n/a	3	8	10	n/a	30	24	1	n/a	n/a	n/a	n/a	318.092	BM05NES.jpg
288.54	0.514	Blank	Blank	53.273	n/a	3	8	10	n/a	30	n/a	1	n/a	n/a	n/a	n/a	318.59	n/a
289.071	0.497	neutral	Picture	52.759	n/a	3	8	11	n/a	31	12	1	n/a	n/a	n/a	n/a	319.12	AF21NES.jpg
289.568	0.514	Blank	Blank	52.245	n/a	3	8	11	n/a	31	n/a	1	n/a	n/a	n/a	n/a	319.618	n/a
290.098	0.497	neutral	Picture	51.731	n/a	3	8	12	n/a	32	6	1	n/a	n/a	n/a	n/a	320.148	AF09NES.jpg
290.596	0.514	Blank	Blank	51.217	n/a	3	8	12	n/a	32	n/a	1	n/a	n/a	n/a	n/a	320.645	n/a
291.126	0.497	neutral	Picture	50.703	n/a	3	8	13	n/a	33	17	1	n/a	n/a	n/a	n/a	321.176	BF28NES.jpg
291.624	0.514	Blank	Blank	50.189	n/a	3	8	13	n/a	33	n/a	1	n/a	n/a	n/a	n/a	321.673	n/a
292.154	0.497	neutral	Picture	49.675	n/a	3	8	14	n/a	34	2	1	n/a	n/a	n/a	n/a	322.204	AF03NES.jpg
292.651	0.514	Blank	Blank	49.162	n/a	3	8	14	n/a	34	n/a	1	n/a	n/a	n/a	n/a	322.701	n/a
293.182	0.497	neutral	Picture	48.647	n/a	3	8	15	n/a	35	9	1	n/a	n/a	n/a	n/a	323.232	AF17NES.jpg
293.679	0.514	Blank	Blank	48.134	n/a	3	8	15	n/a	35	n/a	1	n/a	n/a	n/a	n/a	323.729	n/a
294.21	0.497	neutral	Picture	47.62	n/a	3	8	16	n/a	36	25	1	n/a	n/a	n/a	n/a	324.26	BM06NES.jpg
294.707	0.514	Blank	Blank	47.106	n/a	3	8	16	n/a	36	n/a	1	n/a	n/a	n/a	n/a	324.757	n/a
295.238	0.497	neutral	Picture	46.592	n/a	3	8	17	n/a	37	8	1	n/a	n/a	n/a	n/a	325.288	AF14NES.jpg
295.735	0.514	Blank	Blank	46.078	n/a	3	8	17	n/a	37	n/a	1	n/a	n/a	n/a	n/a	325.785	n/a
296.266	0.497	neutral	Picture	45.564	n/a	3	8	18	n/a	38	19	1	n/a	n/a	n/a	n/a	326.315	AF31NES.jpg
296.763	0.514	Blank	Blank	45.05	n/a	3	8	18	n/a	38	n/a	1	n/a	n/a	n/a	n/a	326.813	n/a
297.294	0.497	neutral	Picture	44.536	n/a	3	8	19	n/a	39	14	1	n/a	n/a	n/a	n/a	327.343	AF23NES.jpg
297.791	0.514	Blank	Blank	44.022	n/a	3	8	19	n/a	39	n/a	1	n/a	n/a	n/a	n/a	327.841	n/a
298.322	0.497	neutral	Picture	43.508	n/a	3	8	20	n/a	40	4	1	n/a	n/a	n/a	n/a	328.371	AF05NES.jpg
298.819	0.514	Blank	Blank	42.994	n/a	3	8	20	n/a	40	n/a	1	n/a	n/a	n/a	n/a	328.868	n/a
299.349	10.014	ITI	Fixation+	32.964	n/a	3	n/a	n/a	n/a	n/a	n/a	n/a	n/a	n/a	n/a	n/a	329.399	n/a
309.38	0.497	happy	Picture	32.45	n/a	3	9	1	n/a	41	84	3	n/a	n/a	n/a	n/a	339.429	AF05ANS.jpg
309.877	0.514	Blank	Blank	31.936	n/a	3	9	1	n/a	41	n/a	3	n/a	n/a	n/a	n/a	339.927	n/a
310.407	0.497	happy	Picture	31.422	n/a	3	9	2	n/a	42	92	3	n/a	n/a	n/a	n/a	340.457	AF21ANS.jpg
310.905	0.514	Blank	Blank	30.908	n/a	3	9	2	n/a	42	n/a	3	n/a	n/a	n/a	n/a	340.954	n/a
311.435	0.497	happy	Picture	30.394	n/a	3	9	3	n/a	43	86	3	n/a	n/a	n/a	n/a	341.485	AF09ANS.jpg
311.933	0.514	Blank	Blank	29.88	n/a	3	9	3	n/a	43	n/a	3	n/a	n/a	n/a	n/a	341.982	n/a
312.463	0.497	happy	Picture	29.366	n/a	3	9	4	n/a	44	93	3	n/a	n/a	n/a	n/a	342.513	BF22ANS.jpg
312.961	0.514	Blank	Blank	28.852	n/a	3	9	4	n/a	44	n/a	3	n/a	n/a	n/a	n/a	343.01	n/a
313.491	0.497	happy	Picture	28.339	n/a	3	9	5	n/a	45	88	3	n/a	n/a	n/a	n/a	343.541	AF14ANS.jpg
313.988	0.514	Blank	Blank	27.825	n/a	3	9	5	n/a	45	n/a	3	n/a	n/a	n/a	n/a	344.038	n/a
314.519	0.497	happy	Picture	27.311	n/a	3	9	6	n/a	46	113	3	n/a	n/a	n/a	n/a	344.569	AM21ANS.jpg
315.016	0.514	Blank	Blank	26.797	n/a	3	9	6	n/a	46	n/a	3	n/a	n/a	n/a	n/a	345.066	n/a
315.547	0.497	happy	Picture	26.283	n/a	3	9	7	n/a	47	95	3	n/a	n/a	n/a	n/a	345.596	AF25ANS.jpg
316.044	0.514	Blank	Blank	25.769	n/a	3	9	7	n/a	47	n/a	3	n/a	n/a	n/a	n/a	346.094	n/a
316.575	0.497	happy	Picture	25.255	n/a	3	9	8	n/a	48	102	3	n/a	n/a	n/a	n/a	346.624	BM03ANS.jpg
317.072	0.514	Blank	Blank	24.741	n/a	3	9	8	n/a	48	n/a	3	n/a	n/a	n/a	n/a	347.122	n/a
317.603	0.497	happy	Picture	24.227	n/a	3	9	9	n/a	49	112	3	n/a	n/a	n/a	n/a	347.652	AM14ANS.jpg
318.1	0.514	Blank	Blank	23.713	n/a	3	9	9	n/a	49	n/a	3	n/a	n/a	n/a	n/a	348.15	n/a
318.63	0.497	happy	Picture	23.199	n/a	3	9	10	n/a	50	83	3	n/a	n/a	n/a	n/a	348.68	BF04ANS.jpg
319.128	0.514	Blank	Blank	22.685	n/a	3	9	10	n/a	50	n/a	3	n/a	n/a	n/a	n/a	349.178	n/a
319.658	0.497	happy	Picture	22.171	n/a	3	9	11	n/a	51	90	3	n/a	n/a	n/a	n/a	349.708	AF18ANS.jpg
320.156	0.514	Blank	Blank	21.657	n/a	3	9	11	n/a	51	n/a	3	n/a	n/a	n/a	n/a	350.205	n/a
320.686	0.497	happy	Picture	21.143	n/a	3	9	12	n/a	52	117	3	n/a	n/a	n/a	n/a	350.736	BM25ANS.jpg
321.184	0.514	Blank	Blank	20.629	n/a	3	9	12	n/a	52	n/a	3	n/a	n/a	n/a	n/a	351.233	n/a
321.714	0.497	happy	Picture	20.115	n/a	3	9	13	n/a	53	94	3	n/a	n/a	n/a	n/a	351.764	AF23ANS.jpg
322.212	0.514	Blank	Blank	19.601	n/a	3	9	13	n/a	53	n/a	3	n/a	n/a	n/a	n/a	352.261	n/a
322.742	0.497	happy	Picture	19.088	n/a	3	9	14	n/a	54	106	3	n/a	n/a	n/a	n/a	352.792	AM07ANS.jpg
323.239	0.514	Blank	Blank	18.573	n/a	3	9	14	n/a	54	n/a	3	n/a	n/a	n/a	n/a	353.289	n/a
323.77	0.497	happy	Picture	18.06	n/a	3	9	15	n/a	55	105	3	n/a	n/a	n/a	n/a	353.82	BM06ANS.jpg
324.267	0.514	Blank	Blank	17.546	n/a	3	9	15	n/a	55	n/a	3	n/a	n/a	n/a	n/a	354.317	n/a
324.798	0.497	happy	Picture	17.032	n/a	3	9	16	n/a	56	116	3	n/a	n/a	n/a	n/a	354.848	BM24ANS.jpg
325.295	0.514	Blank	Blank	16.518	n/a	3	9	16	n/a	56	n/a	3	n/a	n/a	n/a	n/a	355.345	n/a
325.826	0.497	happy	Picture	16.004	n/a	3	9	17	n/a	57	89	3	n/a	n/a	n/a	n/a	355.875	AF17ANS.jpg
326.323	0.514	Blank	Blank	15.49	n/a	3	9	17	n/a	57	n/a	3	n/a	n/a	n/a	n/a	356.373	n/a
326.854	0.497	happy	Picture	14.976	n/a	3	9	18	n/a	58	118	3	n/a	n/a	n/a	n/a	356.903	BM26ANS.jpg
327.351	0.514	Blank	Blank	14.462	n/a	3	9	18	n/a	58	n/a	3	n/a	n/a	n/a	n/a	357.401	n/a
327.881	0.497	happy	Picture	13.948	n/a	3	9	19	n/a	59	100	3	n/a	n/a	n/a	n/a	357.931	AF32ANS.jpg
328.379	0.514	Blank	Blank	13.434	n/a	3	9	19	n/a	59	n/a	3	n/a	n/a	n/a	n/a	358.428	n/a
328.909	0.497	happy	Picture	12.92	n/a	3	9	20	n/a	60	119	3	n/a	n/a	n/a	n/a	358.959	BM28ANS.jpg
329.407	0.514	Blank	Blank	12.406	n/a	3	9	20	n/a	60	n/a	3	n/a	n/a	n/a	n/a	359.456	n/a
329.937	10.014	ITI	Fixation+	2.376	n/a	3	n/a	n/a	n/a	n/a	n/a	n/a	n/a	n/a	n/a	n/a	359.987	n/a
342.327	n/a	ConfirmRating	Rate	n/a	2.37	3	n/a	n/a	0	n/a	n/a	n/a	2	Happy	50	50	372.377	n/a
347.102	n/a	ConfirmRating	Rate	n/a	4.758	3	n/a	n/a	1	n/a	n/a	n/a	3	Happy	0	42	377.151	n/a
347.13	10.014	ITI	Fixation+	96.661	n/a	4	n/a	n/a	n/a	n/a	n/a	n/a	n/a	n/a	n/a	n/a	377.179	n/a
357.16	0.497	angry	Picture	96.147	n/a	4	10	1	n/a	61	79	2	n/a	n/a	n/a	n/a	387.209	BM28HAS.jpg
357.657	0.514	Blank	Blank	95.633	n/a	4	10	1	n/a	61	n/a	2	n/a	n/a	n/a	n/a	387.707	n/a
358.188	0.497	angry	Picture	95.119	n/a	4	10	2	n/a	62	61	2	n/a	n/a	n/a	n/a	388.237	AM01HAS.jpg
358.685	0.514	Blank	Blank	94.605	n/a	4	10	2	n/a	62	n/a	2	n/a	n/a	n/a	n/a	388.735	n/a
359.215	0.497	angry	Picture	94.091	n/a	4	10	3	n/a	63	57	2	n/a	n/a	n/a	n/a	389.265	BF28HAS.jpg
359.713	0.514	Blank	Blank	93.578	n/a	4	10	3	n/a	63	n/a	2	n/a	n/a	n/a	n/a	389.762	n/a
360.243	0.497	angry	Picture	93.064	n/a	4	10	4	n/a	64	77	2	n/a	n/a	n/a	n/a	390.293	BM25HAS.jpg
360.741	0.514	Blank	Blank	92.55	n/a	4	10	4	n/a	64	n/a	2	n/a	n/a	n/a	n/a	390.79	n/a
361.271	0.497	angry	Picture	92.036	n/a	4	10	5	n/a	65	47	2	n/a	n/a	n/a	n/a	391.321	BF11HAS.jpg
361.769	0.514	Blank	Blank	91.522	n/a	4	10	5	n/a	65	n/a	2	n/a	n/a	n/a	n/a	391.818	n/a
362.299	0.497	angry	Picture	91.008	n/a	4	10	6	n/a	66	50	2	n/a	n/a	n/a	n/a	392.349	AF18HAS.jpg
362.796	0.514	Blank	Blank	90.494	n/a	4	10	6	n/a	66	n/a	2	n/a	n/a	n/a	n/a	392.846	n/a
363.327	0.497	angry	Picture	89.98	n/a	4	10	7	n/a	67	78	2	n/a	n/a	n/a	n/a	393.377	BM26HAS.jpg
363.824	0.514	Blank	Blank	89.466	n/a	4	10	7	n/a	67	n/a	2	n/a	n/a	n/a	n/a	393.874	n/a
364.355	0.497	angry	Picture	88.952	n/a	4	10	8	n/a	68	45	2	n/a	n/a	n/a	n/a	394.405	BF07HAS.jpg
364.852	0.514	Blank	Blank	88.438	n/a	4	10	8	n/a	68	n/a	2	n/a	n/a	n/a	n/a	394.902	n/a
365.383	0.497	angry	Picture	87.924	n/a	4	10	9	n/a	69	56	2	n/a	n/a	n/a	n/a	395.432	AF26HAS.jpg
365.88	0.514	Blank	Blank	87.41	n/a	4	10	9	n/a	69	n/a	2	n/a	n/a	n/a	n/a	395.93	n/a
366.411	0.497	angry	Picture	86.896	n/a	4	10	10	n/a	70	65	2	n/a	n/a	n/a	n/a	396.46	BM06HAS.jpg
366.908	0.514	Blank	Blank	86.382	n/a	4	10	10	n/a	70	n/a	2	n/a	n/a	n/a	n/a	396.958	n/a
367.438	0.497	angry	Picture	85.868	n/a	4	10	11	n/a	71	73	2	n/a	n/a	n/a	n/a	397.488	AM21HAS.jpg
367.936	0.514	Blank	Blank	85.354	n/a	4	10	11	n/a	71	n/a	2	n/a	n/a	n/a	n/a	397.986	n/a
368.466	0.497	angry	Picture	84.84	n/a	4	10	12	n/a	72	41	2	n/a	n/a	n/a	n/a	398.516	AF01HAS.jpg
368.964	0.514	Blank	Blank	84.327	n/a	4	10	12	n/a	72	n/a	2	n/a	n/a	n/a	n/a	399.014	n/a
369.494	0.497	angry	Picture	83.813	n/a	4	10	13	n/a	73	59	2	n/a	n/a	n/a	n/a	399.544	AF31HAS.jpg
369.992	0.514	Blank	Blank	83.299	n/a	4	10	13	n/a	73	n/a	2	n/a	n/a	n/a	n/a	400.041	n/a
370.522	0.497	angry	Picture	82.785	n/a	4	10	14	n/a	74	64	2	n/a	n/a	n/a	n/a	400.572	BM05HAS.jpg
371.019	0.514	Blank	Blank	82.271	n/a	4	10	14	n/a	74	n/a	2	n/a	n/a	n/a	n/a	401.069	n/a
371.55	0.497	angry	Picture	81.757	n/a	4	10	15	n/a	75	68	2	n/a	n/a	n/a	n/a	401.6	AM09HAS.jpg
372.047	0.514	Blank	Blank	81.243	n/a	4	10	15	n/a	75	n/a	2	n/a	n/a	n/a	n/a	402.097	n/a
372.578	0.497	angry	Picture	80.729	n/a	4	10	16	n/a	76	54	2	n/a	n/a	n/a	n/a	402.628	AF23HAS.jpg
373.075	0.514	Blank	Blank	80.215	n/a	4	10	16	n/a	76	n/a	2	n/a	n/a	n/a	n/a	403.125	n/a
373.606	0.497	angry	Picture	79.701	n/a	4	10	17	n/a	77	53	2	n/a	n/a	n/a	n/a	403.656	BF22HAS.jpg
374.103	0.514	Blank	Blank	79.187	n/a	4	10	17	n/a	77	n/a	2	n/a	n/a	n/a	n/a	404.153	n/a
374.634	0.497	angry	Picture	78.673	n/a	4	10	18	n/a	78	44	2	n/a	n/a	n/a	n/a	404.683	AF05HAS.jpg
375.131	0.514	Blank	Blank	78.159	n/a	4	10	18	n/a	78	n/a	2	n/a	n/a	n/a	n/a	405.181	n/a
375.662	0.497	angry	Picture	77.645	n/a	4	10	19	n/a	79	52	2	n/a	n/a	n/a	n/a	405.711	AF21HAS.jpg
376.159	0.514	Blank	Blank	77.131	n/a	4	10	19	n/a	79	n/a	2	n/a	n/a	n/a	n/a	406.209	n/a
376.689	0.497	angry	Picture	76.617	n/a	4	10	20	n/a	80	62	2	n/a	n/a	n/a	n/a	406.739	BM03HAS.jpg
377.187	0.514	Blank	Blank	76.103	n/a	4	10	20	n/a	80	n/a	2	n/a	n/a	n/a	n/a	407.237	n/a
377.717	10.014	ITI	Fixation+	66.073	n/a	4	n/a	n/a	n/a	n/a	n/a	n/a	n/a	n/a	n/a	n/a	407.767	n/a
387.748	0.497	neutral	Picture	65.559	n/a	4	11	1	n/a	81	23	1	n/a	n/a	n/a	n/a	417.797	AM04NES.jpg
388.245	0.514	Blank	Blank	65.045	n/a	4	11	1	n/a	81	n/a	1	n/a	n/a	n/a	n/a	418.295	n/a
388.775	0.497	neutral	Picture	64.531	n/a	4	11	2	n/a	82	29	1	n/a	n/a	n/a	n/a	418.825	AM10NES.jpg
389.273	0.514	Blank	Blank	64.018	n/a	4	11	2	n/a	82	n/a	1	n/a	n/a	n/a	n/a	419.322	n/a
389.803	0.497	neutral	Picture	63.503	n/a	4	11	3	n/a	83	24	1	n/a	n/a	n/a	n/a	419.853	BM05NES.jpg
390.301	0.514	Blank	Blank	62.99	n/a	4	11	3	n/a	83	n/a	1	n/a	n/a	n/a	n/a	420.35	n/a
390.831	0.497	neutral	Picture	62.476	n/a	4	11	4	n/a	84	12	1	n/a	n/a	n/a	n/a	420.881	AF21NES.jpg
391.329	0.514	Blank	Blank	61.962	n/a	4	11	4	n/a	84	n/a	1	n/a	n/a	n/a	n/a	421.378	n/a
391.859	0.497	neutral	Picture	61.448	n/a	4	11	5	n/a	85	13	1	n/a	n/a	n/a	n/a	421.909	BF22NES.jpg
392.356	0.514	Blank	Blank	60.934	n/a	4	11	5	n/a	85	n/a	1	n/a	n/a	n/a	n/a	422.406	n/a
392.887	0.497	neutral	Picture	60.42	n/a	4	11	6	n/a	86	17	1	n/a	n/a	n/a	n/a	422.937	BF28NES.jpg
393.384	0.514	Blank	Blank	59.906	n/a	4	11	6	n/a	86	n/a	1	n/a	n/a	n/a	n/a	423.434	n/a
393.915	0.497	neutral	Picture	59.392	n/a	4	11	7	n/a	87	4	1	n/a	n/a	n/a	n/a	423.965	AF05NES.jpg
394.412	0.514	Blank	Blank	58.878	n/a	4	11	7	n/a	87	n/a	1	n/a	n/a	n/a	n/a	424.462	n/a
394.943	0.497	neutral	Picture	58.364	n/a	4	11	8	n/a	88	11	1	n/a	n/a	n/a	n/a	424.993	AF20NES.jpg
395.44	0.514	Blank	Blank	57.85	n/a	4	11	8	n/a	88	n/a	1	n/a	n/a	n/a	n/a	425.49	n/a
395.971	0.497	neutral	Picture	57.336	n/a	4	11	9	n/a	89	22	1	n/a	n/a	n/a	n/a	426.02	BM03NES.jpg
396.468	0.514	Blank	Blank	56.822	n/a	4	11	9	n/a	89	n/a	1	n/a	n/a	n/a	n/a	426.518	n/a
396.999	0.497	neutral	Picture	56.308	n/a	4	11	10	n/a	90	15	1	n/a	n/a	n/a	n/a	427.048	AF25NES.jpg
397.496	0.514	Blank	Blank	55.794	n/a	4	11	10	n/a	90	n/a	1	n/a	n/a	n/a	n/a	427.546	n/a
398.026	0.497	neutral	Picture	55.28	n/a	4	11	11	n/a	91	19	1	n/a	n/a	n/a	n/a	428.076	AF31NES.jpg
398.524	0.514	Blank	Blank	54.767	n/a	4	11	11	n/a	91	n/a	1	n/a	n/a	n/a	n/a	428.574	n/a
399.054	0.497	neutral	Picture	54.252	n/a	4	11	12	n/a	92	9	1	n/a	n/a	n/a	n/a	429.104	AF17NES.jpg
399.552	0.514	Blank	Blank	53.739	n/a	4	11	12	n/a	92	n/a	1	n/a	n/a	n/a	n/a	429.601	n/a
400.082	0.497	neutral	Picture	53.225	n/a	4	11	13	n/a	93	14	1	n/a	n/a	n/a	n/a	430.132	AF23NES.jpg
400.58	0.514	Blank	Blank	52.711	n/a	4	11	13	n/a	93	n/a	1	n/a	n/a	n/a	n/a	430.629	n/a
401.11	0.497	neutral	Picture	52.197	n/a	4	11	14	n/a	94	36	1	n/a	n/a	n/a	n/a	431.16	BM24NES.jpg
401.607	0.514	Blank	Blank	51.683	n/a	4	11	14	n/a	94	n/a	1	n/a	n/a	n/a	n/a	431.657	n/a
402.138	0.497	neutral	Picture	51.169	n/a	4	11	15	n/a	95	34	1	n/a	n/a	n/a	n/a	432.188	AM22NES.jpg
402.635	0.514	Blank	Blank	50.655	n/a	4	11	15	n/a	95	n/a	1	n/a	n/a	n/a	n/a	432.685	n/a
403.166	0.497	neutral	Picture	50.141	n/a	4	11	16	n/a	96	10	1	n/a	n/a	n/a	n/a	433.216	AF18NES.jpg
403.663	0.514	Blank	Blank	49.627	n/a	4	11	16	n/a	96	n/a	1	n/a	n/a	n/a	n/a	433.713	n/a
404.194	0.497	neutral	Picture	49.113	n/a	4	11	17	n/a	97	5	1	n/a	n/a	n/a	n/a	434.243	BF07NES.jpg
404.691	0.514	Blank	Blank	48.599	n/a	4	11	17	n/a	97	n/a	1	n/a	n/a	n/a	n/a	434.741	n/a
405.222	0.497	neutral	Picture	48.085	n/a	4	11	18	n/a	98	25	1	n/a	n/a	n/a	n/a	435.271	BM06NES.jpg
405.719	0.514	Blank	Blank	47.571	n/a	4	11	18	n/a	98	n/a	1	n/a	n/a	n/a	n/a	435.769	n/a
406.25	0.497	neutral	Picture	47.057	n/a	4	11	19	n/a	99	39	1	n/a	n/a	n/a	n/a	436.299	AM28NES.jpg
406.747	0.514	Blank	Blank	46.543	n/a	4	11	19	n/a	99	n/a	1	n/a	n/a	n/a	n/a	436.797	n/a
407.277	0.497	neutral	Picture	46.029	n/a	4	11	20	n/a	100	33	1	n/a	n/a	n/a	n/a	437.327	AM21NES.jpg
407.775	0.514	Blank	Blank	45.516	n/a	4	11	20	n/a	100	n/a	1	n/a	n/a	n/a	n/a	437.825	n/a
408.305	10.014	ITI	Fixation+	35.485	n/a	4	n/a	n/a	n/a	n/a	n/a	n/a	n/a	n/a	n/a	n/a	438.355	n/a
418.336	0.497	angry	Picture	34.971	n/a	4	12	1	n/a	101	74	2	n/a	n/a	n/a	n/a	448.385	AM22HAS.jpg
418.833	0.514	Blank	Blank	34.457	n/a	4	12	1	n/a	101	n/a	2	n/a	n/a	n/a	n/a	448.882	n/a
419.363	0.497	angry	Picture	33.944	n/a	4	12	2	n/a	102	76	2	n/a	n/a	n/a	n/a	449.413	BM24HAS.jpg
419.861	0.514	Blank	Blank	33.43	n/a	4	12	2	n/a	102	n/a	2	n/a	n/a	n/a	n/a	449.91	n/a
420.391	0.497	angry	Picture	32.916	n/a	4	12	3	n/a	103	80	2	n/a	n/a	n/a	n/a	450.441	BM35HAS.jpg
420.889	0.514	Blank	Blank	32.402	n/a	4	12	3	n/a	103	n/a	2	n/a	n/a	n/a	n/a	450.938	n/a
421.419	0.497	angry	Picture	31.888	n/a	4	12	4	n/a	104	75	2	n/a	n/a	n/a	n/a	451.469	AM23HAS.jpg
421.917	0.514	Blank	Blank	31.374	n/a	4	12	4	n/a	104	n/a	2	n/a	n/a	n/a	n/a	451.966	n/a
422.447	0.497	angry	Picture	30.86	n/a	4	12	5	n/a	105	49	2	n/a	n/a	n/a	n/a	452.497	AF17HAS.jpg
422.944	0.514	Blank	Blank	30.346	n/a	4	12	5	n/a	105	n/a	2	n/a	n/a	n/a	n/a	452.994	n/a
423.475	0.497	angry	Picture	29.832	n/a	4	12	6	n/a	106	43	2	n/a	n/a	n/a	n/a	453.525	BF04HAS.jpg
423.972	0.514	Blank	Blank	29.318	n/a	4	12	6	n/a	106	n/a	2	n/a	n/a	n/a	n/a	454.022	n/a
424.503	0.497	angry	Picture	28.804	n/a	4	12	7	n/a	107	70	2	n/a	n/a	n/a	n/a	454.553	BM11HAS.jpg
425.0	0.514	Blank	Blank	28.29	n/a	4	12	7	n/a	107	n/a	2	n/a	n/a	n/a	n/a	455.05	n/a
425.531	0.497	angry	Picture	27.776	n/a	4	12	8	n/a	108	66	2	n/a	n/a	n/a	n/a	455.58	BM07HAS.jpg
426.028	0.514	Blank	Blank	27.262	n/a	4	12	8	n/a	108	n/a	2	n/a	n/a	n/a	n/a	456.078	n/a
426.558	0.497	angry	Picture	26.748	n/a	4	12	9	n/a	109	48	2	n/a	n/a	n/a	n/a	456.608	AF14HAS.jpg
427.056	0.514	Blank	Blank	26.234	n/a	4	12	9	n/a	109	n/a	2	n/a	n/a	n/a	n/a	457.106	n/a
427.586	0.497	angry	Picture	25.72	n/a	4	12	10	n/a	110	58	2	n/a	n/a	n/a	n/a	457.636	BF29HAS.jpg
428.084	0.514	Blank	Blank	25.207	n/a	4	12	10	n/a	110	n/a	2	n/a	n/a	n/a	n/a	458.134	n/a
428.614	0.497	angry	Picture	24.693	n/a	4	12	11	n/a	111	63	2	n/a	n/a	n/a	n/a	458.664	AM04HAS.jpg
429.112	0.514	Blank	Blank	24.179	n/a	4	12	11	n/a	111	n/a	2	n/a	n/a	n/a	n/a	459.161	n/a
429.642	0.497	angry	Picture	23.665	n/a	4	12	12	n/a	112	72	2	n/a	n/a	n/a	n/a	459.692	AM14HAS.jpg
430.14	0.514	Blank	Blank	23.151	n/a	4	12	12	n/a	112	n/a	2	n/a	n/a	n/a	n/a	460.189	n/a
430.67	0.497	angry	Picture	22.637	n/a	4	12	13	n/a	113	55	2	n/a	n/a	n/a	n/a	460.72	AF25HAS.jpg
431.168	0.514	Blank	Blank	22.123	n/a	4	12	13	n/a	113	n/a	2	n/a	n/a	n/a	n/a	461.217	n/a
431.698	0.497	angry	Picture	21.609	n/a	4	12	14	n/a	114	42	2	n/a	n/a	n/a	n/a	461.748	AF03HAS.jpg
432.195	0.514	Blank	Blank	21.095	n/a	4	12	14	n/a	114	n/a	2	n/a	n/a	n/a	n/a	462.245	n/a
432.726	0.497	angry	Picture	20.581	n/a	4	12	15	n/a	115	60	2	n/a	n/a	n/a	n/a	462.776	AF32HAS.jpg
433.223	0.514	Blank	Blank	20.067	n/a	4	12	15	n/a	115	n/a	2	n/a	n/a	n/a	n/a	463.273	n/a
433.754	0.497	angry	Picture	19.553	n/a	4	12	16	n/a	116	67	2	n/a	n/a	n/a	n/a	463.803	BM08HAS.jpg
434.251	0.514	Blank	Blank	19.039	n/a	4	12	16	n/a	116	n/a	2	n/a	n/a	n/a	n/a	464.301	n/a
434.782	0.497	angry	Picture	18.525	n/a	4	12	17	n/a	117	51	2	n/a	n/a	n/a	n/a	464.831	AF20HAS.jpg
435.279	0.514	Blank	Blank	18.011	n/a	4	12	17	n/a	117	n/a	2	n/a	n/a	n/a	n/a	465.329	n/a
435.809	0.497	angry	Picture	17.497	n/a	4	12	18	n/a	118	71	2	n/a	n/a	n/a	n/a	465.859	BM12HAS.jpg
436.307	0.514	Blank	Blank	16.983	n/a	4	12	18	n/a	118	n/a	2	n/a	n/a	n/a	n/a	466.357	n/a
436.837	0.497	angry	Picture	16.469	n/a	4	12	19	n/a	119	69	2	n/a	n/a	n/a	n/a	466.887	AM10HAS.jpg
437.335	0.514	Blank	Blank	15.956	n/a	4	12	19	n/a	119	n/a	2	n/a	n/a	n/a	n/a	467.385	n/a
437.865	0.497	angry	Picture	15.441	n/a	4	12	20	n/a	120	46	2	n/a	n/a	n/a	n/a	467.915	AF09HAS.jpg
438.363	0.514	Blank	Blank	14.928	n/a	4	12	20	n/a	120	n/a	2	n/a	n/a	n/a	n/a	468.412	n/a
438.893	10.014	ITI	Fixation+	4.897	n/a	4	n/a	n/a	n/a	n/a	n/a	n/a	n/a	n/a	n/a	n/a	468.943	n/a
453.804	n/a	ConfirmRating	Rate	n/a	4.89	4	n/a	n/a	0	n/a	n/a	n/a	2	Angry	0	43	483.854	n/a
457.686	n/a	ConfirmRating	Rate	n/a	3.863	4	n/a	n/a	1	n/a	n/a	n/a	3	Angry	0	44	487.736	n/a
