onset	duration	trial_type	trial_number	event_type	cue_to_participant	stimulus_type	time_until_response	rated_success_of_regulation	onset_uncorrected
0.017	10.014	Instruction	-1	Picture	Instruction	n/a	n/a	n/a	28.941
10.047	5.007	ITI	0	Picture	Fixation+	1	13.896	n/a	38.971
15.07	2.006	Cue	0	Picture	Maintain	1	11.873	n/a	43.995
17.076	4.99	Pic	0	Picture	IAPS_01	1	6.883	n/a	46.001
22.067	2.006	Blank	0	Picture	BLANK	1	4.877	n/a	50.991
28.95	n/a	ConfirmRating	0	Response	n/a	1	n/a	7	57.874
28.98	6.002	ITI	1	Picture	Fixation+	2	11.83	n/a	57.904
34.998	2.006	Cue	1	Picture	Enhance	2	9.807	n/a	63.922
37.004	4.99	Pic	1	Picture	IAPS_26	2	4.817	n/a	65.928
41.994	2.006	Blank	1	Picture	BLANK	2	2.811	n/a	70.918
46.811	n/a	ConfirmRating	1	Response	n/a	2	n/a	7	75.735
46.835	4.012	ITI	2	Picture	Fixation+	3	12.411	n/a	75.759
50.864	2.006	Cue	2	Picture	Suppress	3	10.388	n/a	79.788
52.87	4.99	Pic	2	Picture	IAPS_36	3	5.398	n/a	81.794
57.86	2.006	Blank	2	Picture	BLANK	3	3.392	n/a	86.784
63.258	n/a	ConfirmRating	2	Response	n/a	3	n/a	2	92.182
63.281	5.007	ITI	3	Picture	Fixation+	4	12.847	n/a	92.205
68.305	2.006	Cue	3	Picture	Maintain	4	10.824	n/a	97.229
70.311	4.99	Pic	3	Picture	IAPS_46	4	5.834	n/a	99.235
75.301	2.006	Blank	3	Picture	BLANK	4	3.828	n/a	104.225
81.135	n/a	ConfirmRating	3	Response	n/a	4	n/a	6	110.059
81.153	5.007	ITI	4	Picture	Fixation+	4	11.141	n/a	110.077
86.176	2.006	Cue	4	Picture	Maintain	4	9.118	n/a	115.1
88.183	4.99	Pic	4	Picture	IAPS_49	4	4.128	n/a	117.107
93.173	2.006	Blank	4	Picture	BLANK	4	2.122	n/a	122.097
97.3	n/a	ConfirmRating	4	Response	n/a	4	n/a	7	126.224
97.317	6.002	ITI	5	Picture	Fixation+	2	10.392	n/a	126.241
103.335	2.006	Cue	5	Picture	Enhance	2	8.37	n/a	132.26
105.341	4.99	Pic	5	Picture	IAPS_27	2	3.379	n/a	134.266
110.332	2.006	Blank	5	Picture	BLANK	2	1.373	n/a	139.256
113.711	n/a	ConfirmRating	5	Response	n/a	2	n/a	3	142.635
113.73	4.012	ITI	6	Picture	Fixation+	1	14.568	n/a	142.654
117.759	2.006	Cue	6	Picture	Maintain	1	12.546	n/a	146.683
119.765	4.99	Pic	6	Picture	IAPS_02	1	7.555	n/a	148.689
124.755	2.006	Blank	6	Picture	BLANK	1	5.549	n/a	153.679
132.311	n/a	ConfirmRating	6	Response	n/a	1	n/a	6	161.235
132.331	6.002	ITI	7	Picture	Fixation+	3	10.905	n/a	161.256
138.35	2.006	Cue	7	Picture	Suppress	3	8.883	n/a	167.274
140.356	4.99	Pic	7	Picture	IAPS_37	3	3.893	n/a	169.28
145.346	2.006	Blank	7	Picture	BLANK	3	1.886	n/a	174.27
149.238	n/a	ConfirmRating	7	Response	n/a	3	n/a	2	178.162
149.258	5.007	ITI	8	Picture	Fixation+	4	11.421	n/a	178.183
154.282	2.006	Cue	8	Picture	Maintain	4	9.398	n/a	183.206
156.288	4.99	Pic	8	Picture	IAPS_52	4	4.408	n/a	185.212
161.278	2.006	Blank	8	Picture	BLANK	4	2.402	n/a	190.202
165.686	n/a	ConfirmRating	8	Response	n/a	4	n/a	7	194.61
165.704	6.002	ITI	9	Picture	Fixation+	1	11.474	n/a	194.629
171.722	2.006	Cue	9	Picture	Maintain	1	9.451	n/a	200.647
173.728	4.99	Pic	9	Picture	IAPS_03	1	4.461	n/a	202.653
178.719	2.006	Blank	9	Picture	BLANK	1	2.455	n/a	207.643
183.18	n/a	ConfirmRating	9	Response	n/a	1	n/a	7	212.104
183.212	5.007	ITI	10	Picture	Fixation+	2	11.456	n/a	212.136
188.235	2.006	Cue	10	Picture	Enhance	2	9.434	n/a	217.159
190.241	4.99	Pic	10	Picture	IAPS_28	2	4.443	n/a	219.165
195.231	2.006	Blank	10	Picture	BLANK	2	2.437	n/a	224.155
199.674	n/a	ConfirmRating	10	Response	n/a	2	n/a	7	228.599
199.707	4.012	ITI	11	Picture	Fixation+	3	11.717	n/a	228.631
203.736	2.006	Cue	11	Picture	Suppress	3	9.694	n/a	232.66
205.742	4.99	Pic	11	Picture	IAPS_38	3	4.704	n/a	234.666
210.732	2.006	Blank	11	Picture	BLANK	3	2.698	n/a	239.656
215.436	n/a	ConfirmRating	11	Response	n/a	3	n/a	3	244.36
215.457	6.002	ITI	12	Picture	Fixation+	2	11.41	n/a	244.381
221.475	2.006	Cue	12	Picture	Enhance	2	9.388	n/a	250.399
223.481	4.99	Pic	12	Picture	IAPS_29	2	4.397	n/a	252.405
228.471	2.006	Blank	12	Picture	BLANK	2	2.391	n/a	257.396
232.869	n/a	ConfirmRating	12	Response	n/a	2	n/a	1	261.793
232.898	5.007	ITI	13	Picture	Fixation+	1	11.056	n/a	261.822
237.921	2.006	Cue	13	Picture	Maintain	1	9.033	n/a	266.845
239.927	4.99	Pic	13	Picture	IAPS_04	1	4.043	n/a	268.851
244.917	2.006	Blank	13	Picture	BLANK	1	2.037	n/a	273.841
248.96	n/a	ConfirmRating	13	Response	n/a	1	n/a	5	277.885
248.979	4.012	ITI	14	Picture	Fixation+	4	11.062	n/a	277.903
253.008	2.006	Cue	14	Picture	Maintain	4	9.039	n/a	281.932
255.014	4.99	Pic	14	Picture	IAPS_55	4	4.049	n/a	283.938
260.004	2.006	Blank	14	Picture	BLANK	4	2.043	n/a	288.928
264.053	n/a	ConfirmRating	14	Response	n/a	4	n/a	7	292.977
264.082	5.007	ITI	15	Picture	Fixation+	3	10.527	n/a	293.007
269.106	2.006	Cue	15	Picture	Suppress	3	8.504	n/a	298.03
271.112	4.99	Pic	15	Picture	IAPS_39	3	3.514	n/a	300.036
276.102	2.006	Blank	15	Picture	BLANK	3	1.508	n/a	305.026
279.616	n/a	ConfirmRating	15	Response	n/a	3	n/a	2	308.54
279.633	6.002	ITI	16	Picture	Fixation+	2	10.918	n/a	308.557
285.651	2.006	Cue	16	Picture	Enhance	2	8.895	n/a	314.575
287.657	4.99	Pic	16	Picture	IAPS_30	2	3.905	n/a	316.581
292.647	2.006	Blank	16	Picture	BLANK	2	1.899	n/a	321.572
296.553	n/a	ConfirmRating	16	Response	n/a	2	n/a	7	325.477
296.577	6.002	ITI	17	Picture	Fixation+	1	10.614	n/a	325.501
302.595	2.006	Cue	17	Picture	Maintain	1	8.592	n/a	331.519
304.601	4.99	Pic	17	Picture	IAPS_05	1	3.601	n/a	333.525
309.591	2.006	Blank	17	Picture	BLANK	1	1.595	n/a	338.515
313.192	n/a	ConfirmRating	17	Response	n/a	1	n/a	1	342.116
313.222	4.012	ITI	18	Picture	Fixation+	3	10.798	n/a	342.146
317.25	2.006	Cue	18	Picture	Suppress	3	8.776	n/a	346.174
319.256	4.99	Pic	18	Picture	IAPS_40	3	3.785	n/a	348.18
324.246	2.006	Blank	18	Picture	BLANK	3	1.78	n/a	353.171
328.032	n/a	ConfirmRating	18	Response	n/a	3	n/a	1	356.956
328.06	5.007	ITI	19	Picture	Fixation+	4	9.934	n/a	356.984
333.083	2.006	Cue	19	Picture	Maintain	4	7.912	n/a	362.007
335.089	4.99	Pic	19	Picture	IAPS_58	4	2.922	n/a	364.013
340.079	2.006	Blank	19	Picture	BLANK	4	0.916	n/a	369.003
343.001	n/a	ConfirmRating	19	Response	n/a	4	n/a	0	371.925
343.03	6.002	ITI	20	Picture	Fixation+	4	10.049	n/a	371.954
349.048	2.006	Cue	20	Picture	Maintain	4	8.026	n/a	377.972
351.054	4.99	Pic	20	Picture	IAPS_47	4	3.036	n/a	379.978
356.044	2.006	Blank	20	Picture	BLANK	4	1.03	n/a	384.969
359.08	n/a	ConfirmRating	20	Response	n/a	4	n/a	0	388.005
359.111	5.007	ITI	21	Picture	Fixation+	3	10.832	n/a	388.036
364.135	2.006	Cue	21	Picture	Suppress	3	8.809	n/a	393.059
366.141	4.99	Pic	21	Picture	IAPS_41	3	3.819	n/a	395.065
371.131	2.006	Blank	21	Picture	BLANK	3	1.813	n/a	400.055
374.95	n/a	ConfirmRating	21	Response	n/a	3	n/a	2	403.874
374.977	4.012	ITI	22	Picture	Fixation+	1	9.968	n/a	403.901
379.006	2.006	Cue	22	Picture	Maintain	1	7.945	n/a	407.93
381.012	4.99	Pic	22	Picture	IAPS_06	1	2.955	n/a	409.936
386.002	2.006	Blank	22	Picture	BLANK	1	0.949	n/a	414.926
388.957	n/a	ConfirmRating	22	Response	n/a	1	n/a	3	417.881
388.986	4.012	ITI	23	Picture	Fixation+	2	10.729	n/a	417.91
393.015	2.006	Cue	23	Picture	Enhance	2	8.707	n/a	421.939
395.021	4.99	Pic	23	Picture	IAPS_16	2	3.717	n/a	423.945
400.011	2.006	Blank	23	Picture	BLANK	2	1.711	n/a	428.935
403.728	n/a	ConfirmRating	23	Response	n/a	2	n/a	0	432.652
403.758	5.007	ITI	24	Picture	Fixation+	1	10.737	n/a	432.682
408.781	2.006	Cue	24	Picture	Maintain	1	8.714	n/a	437.705
410.787	4.99	Pic	24	Picture	IAPS_07	1	3.724	n/a	439.711
415.777	2.006	Blank	24	Picture	BLANK	1	1.718	n/a	444.702
419.501	n/a	ConfirmRating	24	Response	n/a	1	n/a	1	448.425
419.524	4.012	ITI	25	Picture	Fixation+	2	9.679	n/a	448.448
423.553	2.006	Cue	25	Picture	Enhance	2	7.656	n/a	452.477
425.559	4.99	Pic	25	Picture	IAPS_17	2	2.666	n/a	454.483
430.549	2.006	Blank	25	Picture	BLANK	2	0.66	n/a	459.473
433.215	n/a	ConfirmRating	25	Response	n/a	2	n/a	0	462.139
433.235	6.002	ITI	26	Picture	Fixation+	4	12.553	n/a	462.159
439.253	2.006	Cue	26	Picture	Maintain	4	10.531	n/a	468.177
441.259	4.99	Pic	26	Picture	IAPS_50	4	5.541	n/a	470.183
446.249	2.006	Blank	26	Picture	BLANK	4	3.535	n/a	475.173
451.79	n/a	ConfirmRating	26	Response	n/a	4	n/a	7	480.714
451.82	5.007	ITI	27	Picture	Fixation+	3	10.818	n/a	480.744
456.843	2.006	Cue	27	Picture	Suppress	3	8.796	n/a	485.767
458.849	4.99	Pic	27	Picture	IAPS_42	3	3.805	n/a	487.773
463.839	2.006	Blank	27	Picture	BLANK	3	1.799	n/a	492.763
467.644	n/a	ConfirmRating	27	Response	n/a	3	n/a	1	496.569
467.669	5.007	ITI	28	Picture	Fixation+	2	10.567	n/a	496.593
472.692	2.006	Cue	28	Picture	Enhance	2	8.544	n/a	501.616
474.698	4.99	Pic	28	Picture	IAPS_18	2	3.554	n/a	503.622
479.688	2.006	Blank	28	Picture	BLANK	2	1.548	n/a	508.612
483.242	n/a	ConfirmRating	28	Response	n/a	2	n/a	1	512.166
483.269	4.012	ITI	29	Picture	Fixation+	3	11.017	n/a	512.193
487.298	2.006	Cue	29	Picture	Suppress	3	8.994	n/a	516.222
489.304	4.99	Pic	29	Picture	IAPS_43	3	4.004	n/a	518.228
494.294	2.006	Blank	29	Picture	BLANK	3	1.998	n/a	523.218
498.298	n/a	ConfirmRating	29	Response	n/a	3	n/a	1	527.222
498.323	15.004	Rest	29	Picture	Rest	n/a	-15.029	n/a	527.247
513.343	5.007	ITI	30	Picture	Fixation+	4	10.663	n/a	542.267
518.366	2.006	Cue	30	Picture	Maintain	4	8.641	n/a	547.29
520.372	4.99	Pic	30	Picture	IAPS_53	4	3.651	n/a	549.297
525.363	2.006	Blank	30	Picture	BLANK	4	1.645	n/a	554.287
529.013	n/a	ConfirmRating	30	Response	n/a	4	n/a	7	557.937
529.043	6.002	ITI	31	Picture	Fixation+	1	10.141	n/a	557.967
535.061	2.006	Cue	31	Picture	Maintain	1	8.119	n/a	563.985
537.067	4.99	Pic	31	Picture	IAPS_08	1	3.129	n/a	565.991
542.057	2.006	Blank	31	Picture	BLANK	1	1.123	n/a	570.981
545.186	n/a	ConfirmRating	31	Response	n/a	1	n/a	0	574.11
545.207	4.012	ITI	32	Picture	Fixation+	3	11.545	n/a	574.131
549.236	2.006	Cue	32	Picture	Suppress	3	9.523	n/a	578.16
551.242	4.99	Pic	32	Picture	IAPS_44	3	4.533	n/a	580.166
556.232	2.006	Blank	32	Picture	BLANK	3	2.527	n/a	585.156
560.765	n/a	ConfirmRating	32	Response	n/a	3	n/a	0	589.689
560.791	5.007	ITI	33	Picture	Fixation+	1	11.067	n/a	589.715
565.815	2.006	Cue	33	Picture	Maintain	1	9.045	n/a	594.739
567.821	4.99	Pic	33	Picture	IAPS_09	1	4.055	n/a	596.745
572.811	2.006	Blank	33	Picture	BLANK	1	2.048	n/a	601.735
576.865	n/a	ConfirmRating	33	Response	n/a	1	n/a	1	605.789
576.889	4.012	ITI	34	Picture	Fixation+	2	11.173	n/a	605.813
580.918	2.006	Cue	34	Picture	Enhance	2	9.15	n/a	609.842
582.924	4.99	Pic	34	Picture	IAPS_19	2	4.16	n/a	611.848
587.914	2.006	Blank	34	Picture	BLANK	2	2.154	n/a	616.838
592.074	n/a	ConfirmRating	34	Response	n/a	2	n/a	7	620.998
592.092	6.002	ITI	35	Picture	Fixation+	4	9.531	n/a	621.016
598.11	2.006	Cue	35	Picture	Maintain	4	7.508	n/a	627.034
600.116	4.99	Pic	35	Picture	IAPS_56	4	2.518	n/a	629.04
605.106	2.006	Blank	35	Picture	BLANK	4	0.512	n/a	634.03
607.624	n/a	ConfirmRating	35	Response	n/a	4	n/a	0	636.548
607.643	5.007	ITI	36	Picture	Fixation+	3	9.847	n/a	636.567
612.666	2.006	Cue	36	Picture	Suppress	3	7.825	n/a	641.59
614.672	4.99	Pic	36	Picture	IAPS_45	3	2.834	n/a	643.596
619.662	2.006	Blank	36	Picture	BLANK	3	0.828	n/a	648.586
622.497	n/a	ConfirmRating	36	Response	n/a	3	n/a	3	651.421
622.514	6.002	ITI	37	Picture	Fixation+	4	10.565	n/a	651.438
628.532	2.006	Cue	37	Picture	Maintain	4	8.542	n/a	657.456
630.538	4.99	Pic	37	Picture	IAPS_59	4	3.552	n/a	659.462
635.528	2.006	Blank	37	Picture	BLANK	4	1.546	n/a	664.452
639.08	n/a	ConfirmRating	37	Response	n/a	4	n/a	7	668.004
639.109	5.007	ITI	38	Picture	Fixation+	2	10.128	n/a	668.033
644.132	2.006	Cue	38	Picture	Enhance	2	8.106	n/a	673.057
646.138	4.99	Pic	38	Picture	IAPS_20	2	3.115	n/a	675.063
651.129	2.006	Blank	38	Picture	BLANK	2	1.109	n/a	680.053
654.244	n/a	ConfirmRating	38	Response	n/a	2	n/a	5	683.168
654.262	4.012	ITI	39	Picture	Fixation+	1	11.019	n/a	683.186
658.291	2.006	Cue	39	Picture	Maintain	1	8.996	n/a	687.215
660.297	4.99	Pic	39	Picture	IAPS_10	1	4.006	n/a	689.221
665.287	2.006	Blank	39	Picture	BLANK	1	2.0	n/a	694.211
669.293	n/a	ConfirmRating	39	Response	n/a	1	n/a	1	698.217
669.315	6.002	ITI	40	Picture	Fixation+	4	10.044	n/a	698.24
675.334	2.006	Cue	40	Picture	Maintain	4	8.021	n/a	704.258
677.34	4.99	Pic	40	Picture	IAPS_48	4	3.031	n/a	706.264
682.33	2.006	Blank	40	Picture	BLANK	4	1.025	n/a	711.254
685.361	n/a	ConfirmRating	40	Response	n/a	4	n/a	0	714.285
685.38	5.007	ITI	41	Picture	Fixation+	3	10.845	n/a	714.304
690.404	2.006	Cue	41	Picture	Suppress	3	8.823	n/a	719.328
692.41	4.99	Pic	41	Picture	IAPS_31	3	3.832	n/a	721.334
697.4	2.006	Blank	41	Picture	BLANK	3	1.826	n/a	726.324
701.232	n/a	ConfirmRating	41	Response	n/a	3	n/a	1	730.156
701.263	6.002	ITI	42	Picture	Fixation+	2	10.684	n/a	730.187
707.281	2.006	Cue	42	Picture	Enhance	2	8.661	n/a	736.205
709.287	4.99	Pic	42	Picture	IAPS_21	2	3.671	n/a	738.211
714.277	2.006	Blank	42	Picture	BLANK	2	1.665	n/a	743.201
717.948	n/a	ConfirmRating	42	Response	n/a	2	n/a	7	746.872
717.974	4.012	ITI	43	Picture	Fixation+	1	10.707	n/a	746.898
722.003	2.006	Cue	43	Picture	Maintain	1	8.684	n/a	750.927
724.009	4.99	Pic	43	Picture	IAPS_11	1	3.694	n/a	752.933
728.999	2.006	Blank	43	Picture	BLANK	1	1.688	n/a	757.923
732.693	n/a	ConfirmRating	43	Response	n/a	1	n/a	3	761.617
732.712	5.007	ITI	44	Picture	Fixation+	2	9.808	n/a	761.636
737.736	2.006	Cue	44	Picture	Enhance	2	7.786	n/a	766.66
739.742	4.99	Pic	44	Picture	IAPS_22	2	2.795	n/a	768.666
744.732	2.006	Blank	44	Picture	BLANK	2	0.789	n/a	773.656
747.527	n/a	ConfirmRating	44	Response	n/a	2	n/a	0	776.451
747.55	5.007	ITI	45	Picture	Fixation+	4	10.59	n/a	776.474
752.574	2.006	Cue	45	Picture	Maintain	4	8.567	n/a	781.498
754.58	4.99	Pic	45	Picture	IAPS_51	4	3.577	n/a	783.504
759.57	2.006	Blank	45	Picture	BLANK	4	1.571	n/a	788.494
763.147	n/a	ConfirmRating	45	Response	n/a	4	n/a	6	792.071
763.167	4.012	ITI	46	Picture	Fixation+	3	10.084	n/a	792.091
767.196	2.006	Cue	46	Picture	Suppress	3	8.062	n/a	796.12
769.202	4.99	Pic	46	Picture	IAPS_32	3	3.072	n/a	798.126
774.192	2.006	Blank	46	Picture	BLANK	3	1.066	n/a	803.116
777.264	n/a	ConfirmRating	46	Response	n/a	3	n/a	0	806.188
777.293	5.007	ITI	47	Picture	Fixation+	1	10.499	n/a	806.217
782.316	2.006	Cue	47	Picture	Maintain	1	8.477	n/a	811.24
784.322	4.99	Pic	47	Picture	IAPS_12	1	3.487	n/a	813.246
789.312	2.006	Blank	47	Picture	BLANK	1	1.481	n/a	818.236
792.799	n/a	ConfirmRating	47	Response	n/a	1	n/a	2	821.723
792.827	4.012	ITI	48	Picture	Fixation+	3	10.8	n/a	821.751
796.855	2.006	Cue	48	Picture	Suppress	3	8.777	n/a	825.779
798.861	4.99	Pic	48	Picture	IAPS_33	3	3.787	n/a	827.785
803.852	2.006	Blank	48	Picture	BLANK	3	1.781	n/a	832.776
807.638	n/a	ConfirmRating	48	Response	n/a	3	n/a	1	836.562
807.665	5.007	ITI	49	Picture	Fixation+	4	11.923	n/a	836.589
812.688	2.006	Cue	49	Picture	Maintain	4	9.901	n/a	841.612
814.694	4.99	Pic	49	Picture	IAPS_54	4	4.911	n/a	843.618
819.684	2.006	Blank	49	Picture	BLANK	4	2.905	n/a	848.608
824.595	n/a	ConfirmRating	49	Response	n/a	4	n/a	7	853.519
824.625	5.007	ITI	50	Picture	Fixation+	1	9.482	n/a	853.549
829.648	2.006	Cue	50	Picture	Maintain	1	7.46	n/a	858.572
831.654	4.99	Pic	50	Picture	IAPS_13	1	2.47	n/a	860.578
836.644	2.006	Blank	50	Picture	BLANK	1	0.463	n/a	865.568
839.114	n/a	ConfirmRating	50	Response	n/a	1	n/a	0	868.038
839.131	4.012	ITI	51	Picture	Fixation+	2	10.623	n/a	868.055
843.16	2.006	Cue	51	Picture	Enhance	2	8.601	n/a	872.084
845.166	4.99	Pic	51	Picture	IAPS_23	2	3.611	n/a	874.09
850.156	2.006	Blank	51	Picture	BLANK	2	1.605	n/a	879.08
853.766	n/a	ConfirmRating	51	Response	n/a	2	n/a	7	882.691
853.786	5.008	ITI	52	Picture	Fixation+	1	10.493	n/a	882.71
858.81	2.006	Cue	52	Picture	Maintain	1	8.47	n/a	887.734
860.816	4.99	Pic	52	Picture	IAPS_14	1	3.48	n/a	889.74
865.806	2.006	Blank	52	Picture	BLANK	1	1.474	n/a	894.73
869.286	n/a	ConfirmRating	52	Response	n/a	1	n/a	3	898.21
869.304	5.007	ITI	53	Picture	Fixation+	4	11.427	n/a	898.228
874.328	2.006	Cue	53	Picture	Maintain	4	9.404	n/a	903.252
876.334	4.99	Pic	53	Picture	IAPS_57	4	4.414	n/a	905.258
881.324	2.006	Blank	53	Picture	BLANK	4	2.408	n/a	910.248
885.738	n/a	ConfirmRating	53	Response	n/a	4	n/a	1	914.662
885.767	6.001	ITI	54	Picture	Fixation+	3	10.626	n/a	914.691
891.785	2.006	Cue	54	Picture	Suppress	3	8.604	n/a	920.709
893.791	4.99	Pic	54	Picture	IAPS_34	3	3.613	n/a	922.715
898.781	2.006	Blank	54	Picture	BLANK	3	1.607	n/a	927.705
902.394	n/a	ConfirmRating	54	Response	n/a	3	n/a	2	931.319
902.412	5.007	ITI	55	Picture	Fixation+	2	11.193	n/a	931.336
907.435	2.006	Cue	55	Picture	Enhance	2	9.17	n/a	936.359
909.441	4.99	Pic	55	Picture	IAPS_24	2	4.18	n/a	938.365
914.431	2.006	Blank	55	Picture	BLANK	2	2.174	n/a	943.356
918.611	n/a	ConfirmRating	55	Response	n/a	2	n/a	7	947.535
918.642	5.007	ITI	56	Picture	Fixation+	1	10.952	n/a	947.567
923.666	2.006	Cue	56	Picture	Maintain	1	8.929	n/a	952.59
925.672	4.99	Pic	56	Picture	IAPS_15	1	3.939	n/a	954.596
930.662	2.006	Blank	56	Picture	BLANK	1	1.933	n/a	959.586
934.601	n/a	ConfirmRating	56	Response	n/a	1	n/a	1	963.525
934.624	6.002	ITI	57	Picture	Fixation+	3	10.611	n/a	963.548
940.642	2.006	Cue	57	Picture	Suppress	3	8.588	n/a	969.566
942.648	4.99	Pic	57	Picture	IAPS_35	3	3.598	n/a	971.572
947.639	2.006	Blank	57	Picture	BLANK	3	1.592	n/a	976.563
951.237	n/a	ConfirmRating	57	Response	n/a	3	n/a	2	980.161
951.269	4.012	ITI	58	Picture	Fixation+	4	11.492	n/a	980.193
955.298	2.006	Cue	58	Picture	Maintain	4	9.469	n/a	984.222
957.304	4.99	Pic	58	Picture	IAPS_60	4	4.479	n/a	986.228
962.294	2.006	Blank	58	Picture	BLANK	4	2.473	n/a	991.218
966.773	n/a	ConfirmRating	58	Response	n/a	4	n/a	3	995.697
966.804	6.002	ITI	59	Picture	Fixation+	2	10.831	n/a	995.728
972.822	2.006	Cue	59	Picture	Enhance	2	8.808	n/a	1001.746
974.828	4.99	Pic	59	Picture	IAPS_25	2	3.818	n/a	1003.752
979.818	2.006	Blank	59	Picture	BLANK	2	1.812	n/a	1008.742
983.636	n/a	ConfirmRating	59	Response	n/a	2	n/a	7	1012.56
