onset	duration	trial_type	event_type	time_until_response	response_time	trial_number	block_num_within_trial	image_seq_num_within_block	question_seq_num_within_block	image_seq_num	picture_number	condition	question_type	block_type	rating	rating_computed	onset_uncorrected	KDEV_imagefile
0.016	10.014	ITI	Fixation+	102.605	n/a	1	n/a	n/a	n/a	n/a	n/a	n/a	n/a	n/a	n/a	n/a	30.632	n/a
10.047	0.497	angry	Picture	102.091	n/a	1	1	1	n/a	1	46	2	n/a	n/a	n/a	n/a	40.663	AF09HAS.jpg
10.544	0.514	Blank	Blank	101.577	n/a	1	1	1	n/a	1	n/a	2	n/a	n/a	n/a	n/a	41.16	n/a
11.074	0.497	angry	Picture	101.063	n/a	1	1	2	n/a	2	69	2	n/a	n/a	n/a	n/a	41.69	AM10HAS.jpg
11.572	0.514	Blank	Blank	100.549	n/a	1	1	2	n/a	2	n/a	2	n/a	n/a	n/a	n/a	42.188	n/a
12.102	0.497	angry	Picture	100.035	n/a	1	1	3	n/a	3	71	2	n/a	n/a	n/a	n/a	42.718	BM12HAS.jpg
12.6	0.514	Blank	Blank	99.522	n/a	1	1	3	n/a	3	n/a	2	n/a	n/a	n/a	n/a	43.216	n/a
13.13	0.497	angry	Picture	99.008	n/a	1	1	4	n/a	4	51	2	n/a	n/a	n/a	n/a	43.746	AF20HAS.jpg
13.627	0.514	Blank	Blank	98.494	n/a	1	1	4	n/a	4	n/a	2	n/a	n/a	n/a	n/a	44.243	n/a
14.158	0.497	angry	Picture	97.98	n/a	1	1	5	n/a	5	67	2	n/a	n/a	n/a	n/a	44.774	BM08HAS.jpg
14.655	0.514	Blank	Blank	97.466	n/a	1	1	5	n/a	5	n/a	2	n/a	n/a	n/a	n/a	45.271	n/a
15.186	0.497	angry	Picture	96.952	n/a	1	1	6	n/a	6	60	2	n/a	n/a	n/a	n/a	45.802	AF32HAS.jpg
15.683	0.514	Blank	Blank	96.438	n/a	1	1	6	n/a	6	n/a	2	n/a	n/a	n/a	n/a	46.299	n/a
16.214	0.497	angry	Picture	95.924	n/a	1	1	7	n/a	7	42	2	n/a	n/a	n/a	n/a	46.83	AF03HAS.jpg
16.711	0.514	Blank	Blank	95.41	n/a	1	1	7	n/a	7	n/a	2	n/a	n/a	n/a	n/a	47.327	n/a
17.242	0.497	angry	Picture	94.896	n/a	1	1	8	n/a	8	55	2	n/a	n/a	n/a	n/a	47.858	AF25HAS.jpg
17.739	0.514	Blank	Blank	94.382	n/a	1	1	8	n/a	8	n/a	2	n/a	n/a	n/a	n/a	48.355	n/a
18.27	0.497	angry	Picture	93.868	n/a	1	1	9	n/a	9	72	2	n/a	n/a	n/a	n/a	48.886	AM14HAS.jpg
18.767	0.514	Blank	Blank	93.354	n/a	1	1	9	n/a	9	n/a	2	n/a	n/a	n/a	n/a	49.383	n/a
19.297	0.497	angry	Picture	92.84	n/a	1	1	10	n/a	10	63	2	n/a	n/a	n/a	n/a	49.913	AM04HAS.jpg
19.795	0.514	Blank	Blank	92.326	n/a	1	1	10	n/a	10	n/a	2	n/a	n/a	n/a	n/a	50.411	n/a
20.325	0.497	angry	Picture	91.812	n/a	1	1	11	n/a	11	58	2	n/a	n/a	n/a	n/a	50.941	BF29HAS.jpg
20.823	0.514	Blank	Blank	91.298	n/a	1	1	11	n/a	11	n/a	2	n/a	n/a	n/a	n/a	51.439	n/a
21.353	0.497	angry	Picture	90.785	n/a	1	1	12	n/a	12	48	2	n/a	n/a	n/a	n/a	51.969	AF14HAS.jpg
21.851	0.514	Blank	Blank	90.271	n/a	1	1	12	n/a	12	n/a	2	n/a	n/a	n/a	n/a	52.467	n/a
22.381	0.497	angry	Picture	89.757	n/a	1	1	13	n/a	13	66	2	n/a	n/a	n/a	n/a	52.997	BM07HAS.jpg
22.879	0.514	Blank	Blank	89.243	n/a	1	1	13	n/a	13	n/a	2	n/a	n/a	n/a	n/a	53.495	n/a
23.409	0.497	angry	Picture	88.729	n/a	1	1	14	n/a	14	70	2	n/a	n/a	n/a	n/a	54.025	BM11HAS.jpg
23.906	0.514	Blank	Blank	88.215	n/a	1	1	14	n/a	14	n/a	2	n/a	n/a	n/a	n/a	54.522	n/a
24.437	0.497	angry	Picture	87.701	n/a	1	1	15	n/a	15	43	2	n/a	n/a	n/a	n/a	55.053	BF04HAS.jpg
24.934	0.514	Blank	Blank	87.187	n/a	1	1	15	n/a	15	n/a	2	n/a	n/a	n/a	n/a	55.55	n/a
25.465	0.497	angry	Picture	86.673	n/a	1	1	16	n/a	16	49	2	n/a	n/a	n/a	n/a	56.081	AF17HAS.jpg
25.962	0.514	Blank	Blank	86.159	n/a	1	1	16	n/a	16	n/a	2	n/a	n/a	n/a	n/a	56.578	n/a
26.493	0.497	angry	Picture	85.645	n/a	1	1	17	n/a	17	75	2	n/a	n/a	n/a	n/a	57.109	AM23HAS.jpg
26.99	0.514	Blank	Blank	85.131	n/a	1	1	17	n/a	17	n/a	2	n/a	n/a	n/a	n/a	57.606	n/a
27.521	0.497	angry	Picture	84.617	n/a	1	1	18	n/a	18	80	2	n/a	n/a	n/a	n/a	58.137	BM35HAS.jpg
28.018	0.514	Blank	Blank	84.103	n/a	1	1	18	n/a	18	n/a	2	n/a	n/a	n/a	n/a	58.634	n/a
28.548	0.497	angry	Picture	83.589	n/a	1	1	19	n/a	19	76	2	n/a	n/a	n/a	n/a	59.164	BM24HAS.jpg
29.046	0.514	Blank	Blank	83.075	n/a	1	1	19	n/a	19	n/a	2	n/a	n/a	n/a	n/a	59.662	n/a
29.576	0.497	angry	Picture	82.561	n/a	1	1	20	n/a	20	74	2	n/a	n/a	n/a	n/a	60.192	AM22HAS.jpg
30.074	0.514	Blank	Blank	82.047	n/a	1	1	20	n/a	20	n/a	2	n/a	n/a	n/a	n/a	60.69	n/a
30.604	10.014	ITI	Fixation+	72.017	n/a	1	n/a	n/a	n/a	n/a	n/a	n/a	n/a	n/a	n/a	n/a	61.22	n/a
40.634	0.497	neutral	Picture	71.503	n/a	1	2	1	n/a	21	33	1	n/a	n/a	n/a	n/a	71.25	AM21NES.jpg
41.132	0.514	Blank	Blank	70.989	n/a	1	2	1	n/a	21	n/a	1	n/a	n/a	n/a	n/a	71.748	n/a
41.662	0.497	neutral	Picture	70.475	n/a	1	2	2	n/a	22	39	1	n/a	n/a	n/a	n/a	72.278	AM28NES.jpg
42.16	0.514	Blank	Blank	69.962	n/a	1	2	2	n/a	22	n/a	1	n/a	n/a	n/a	n/a	72.776	n/a
42.69	0.497	neutral	Picture	69.448	n/a	1	2	3	n/a	23	25	1	n/a	n/a	n/a	n/a	73.306	BM06NES.jpg
43.188	0.514	Blank	Blank	68.934	n/a	1	2	3	n/a	23	n/a	1	n/a	n/a	n/a	n/a	73.804	n/a
43.718	0.497	neutral	Picture	68.42	n/a	1	2	4	n/a	24	5	1	n/a	n/a	n/a	n/a	74.334	BF07NES.jpg
44.216	0.514	Blank	Blank	67.906	n/a	1	2	4	n/a	24	n/a	1	n/a	n/a	n/a	n/a	74.832	n/a
44.746	0.497	neutral	Picture	67.392	n/a	1	2	5	n/a	25	10	1	n/a	n/a	n/a	n/a	75.362	AF18NES.jpg
45.243	0.514	Blank	Blank	66.878	n/a	1	2	5	n/a	25	n/a	1	n/a	n/a	n/a	n/a	75.859	n/a
45.774	0.497	neutral	Picture	66.364	n/a	1	2	6	n/a	26	34	1	n/a	n/a	n/a	n/a	76.39	AM22NES.jpg
46.271	0.514	Blank	Blank	65.85	n/a	1	2	6	n/a	26	n/a	1	n/a	n/a	n/a	n/a	76.887	n/a
46.802	0.497	neutral	Picture	65.336	n/a	1	2	7	n/a	27	36	1	n/a	n/a	n/a	n/a	77.418	BM24NES.jpg
47.299	0.514	Blank	Blank	64.822	n/a	1	2	7	n/a	27	n/a	1	n/a	n/a	n/a	n/a	77.915	n/a
47.83	0.497	neutral	Picture	64.308	n/a	1	2	8	n/a	28	14	1	n/a	n/a	n/a	n/a	78.446	AF23NES.jpg
48.327	0.514	Blank	Blank	63.794	n/a	1	2	8	n/a	28	n/a	1	n/a	n/a	n/a	n/a	78.943	n/a
48.858	0.497	neutral	Picture	63.28	n/a	1	2	9	n/a	29	9	1	n/a	n/a	n/a	n/a	79.474	AF17NES.jpg
49.355	0.514	Blank	Blank	62.766	n/a	1	2	9	n/a	29	n/a	1	n/a	n/a	n/a	n/a	79.971	n/a
49.885	0.497	neutral	Picture	62.252	n/a	1	2	10	n/a	30	19	1	n/a	n/a	n/a	n/a	80.501	AF31NES.jpg
50.383	0.514	Blank	Blank	61.738	n/a	1	2	10	n/a	30	n/a	1	n/a	n/a	n/a	n/a	80.999	n/a
50.913	0.497	neutral	Picture	61.224	n/a	1	2	11	n/a	31	15	1	n/a	n/a	n/a	n/a	81.529	AF25NES.jpg
51.411	0.514	Blank	Blank	60.711	n/a	1	2	11	n/a	31	n/a	1	n/a	n/a	n/a	n/a	82.027	n/a
51.941	0.497	neutral	Picture	60.197	n/a	1	2	12	n/a	32	22	1	n/a	n/a	n/a	n/a	82.557	BM03NES.jpg
52.439	0.514	Blank	Blank	59.683	n/a	1	2	12	n/a	32	n/a	1	n/a	n/a	n/a	n/a	83.055	n/a
52.969	0.497	neutral	Picture	59.169	n/a	1	2	13	n/a	33	11	1	n/a	n/a	n/a	n/a	83.585	AF20NES.jpg
53.466	0.514	Blank	Blank	58.655	n/a	1	2	13	n/a	33	n/a	1	n/a	n/a	n/a	n/a	84.082	n/a
53.997	0.497	neutral	Picture	58.141	n/a	1	2	14	n/a	34	4	1	n/a	n/a	n/a	n/a	84.613	AF05NES.jpg
54.494	0.514	Blank	Blank	57.627	n/a	1	2	14	n/a	34	n/a	1	n/a	n/a	n/a	n/a	85.11	n/a
55.025	0.497	neutral	Picture	57.113	n/a	1	2	15	n/a	35	17	1	n/a	n/a	n/a	n/a	85.641	BF28NES.jpg
55.522	0.514	Blank	Blank	56.599	n/a	1	2	15	n/a	35	n/a	1	n/a	n/a	n/a	n/a	86.138	n/a
56.053	0.497	neutral	Picture	56.085	n/a	1	2	16	n/a	36	13	1	n/a	n/a	n/a	n/a	86.669	BF22NES.jpg
56.55	0.514	Blank	Blank	55.571	n/a	1	2	16	n/a	36	n/a	1	n/a	n/a	n/a	n/a	87.166	n/a
57.081	0.497	neutral	Picture	55.057	n/a	1	2	17	n/a	37	12	1	n/a	n/a	n/a	n/a	87.697	AF21NES.jpg
57.578	0.514	Blank	Blank	54.543	n/a	1	2	17	n/a	37	n/a	1	n/a	n/a	n/a	n/a	88.194	n/a
58.109	0.497	neutral	Picture	54.029	n/a	1	2	18	n/a	38	24	1	n/a	n/a	n/a	n/a	88.725	BM05NES.jpg
58.606	0.514	Blank	Blank	53.515	n/a	1	2	18	n/a	38	n/a	1	n/a	n/a	n/a	n/a	89.222	n/a
59.136	0.497	neutral	Picture	53.001	n/a	1	2	19	n/a	39	29	1	n/a	n/a	n/a	n/a	89.752	AM10NES.jpg
59.634	0.514	Blank	Blank	52.487	n/a	1	2	19	n/a	39	n/a	1	n/a	n/a	n/a	n/a	90.25	n/a
60.164	0.497	neutral	Picture	51.974	n/a	1	2	20	n/a	40	23	1	n/a	n/a	n/a	n/a	90.78	AM04NES.jpg
60.662	0.514	Blank	Blank	51.459	n/a	1	2	20	n/a	40	n/a	1	n/a	n/a	n/a	n/a	91.278	n/a
61.192	10.014	ITI	Fixation+	41.429	n/a	1	n/a	n/a	n/a	n/a	n/a	n/a	n/a	n/a	n/a	n/a	91.808	n/a
71.222	0.497	angry	Picture	40.915	n/a	1	3	1	n/a	41	62	2	n/a	n/a	n/a	n/a	101.838	BM03HAS.jpg
71.72	0.514	Blank	Blank	40.401	n/a	1	3	1	n/a	41	n/a	2	n/a	n/a	n/a	n/a	102.336	n/a
72.25	0.497	angry	Picture	39.888	n/a	1	3	2	n/a	42	52	2	n/a	n/a	n/a	n/a	102.866	AF21HAS.jpg
72.748	0.514	Blank	Blank	39.374	n/a	1	3	2	n/a	42	n/a	2	n/a	n/a	n/a	n/a	103.364	n/a
73.278	0.497	angry	Picture	38.86	n/a	1	3	3	n/a	43	44	2	n/a	n/a	n/a	n/a	103.894	AF05HAS.jpg
73.775	0.514	Blank	Blank	38.346	n/a	1	3	3	n/a	43	n/a	2	n/a	n/a	n/a	n/a	104.391	n/a
74.306	0.497	angry	Picture	37.832	n/a	1	3	4	n/a	44	53	2	n/a	n/a	n/a	n/a	104.922	BF22HAS.jpg
74.803	0.514	Blank	Blank	37.318	n/a	1	3	4	n/a	44	n/a	2	n/a	n/a	n/a	n/a	105.419	n/a
75.334	0.497	angry	Picture	36.804	n/a	1	3	5	n/a	45	54	2	n/a	n/a	n/a	n/a	105.95	AF23HAS.jpg
75.831	0.514	Blank	Blank	36.29	n/a	1	3	5	n/a	45	n/a	2	n/a	n/a	n/a	n/a	106.447	n/a
76.362	0.497	angry	Picture	35.776	n/a	1	3	6	n/a	46	68	2	n/a	n/a	n/a	n/a	106.978	AM09HAS.jpg
76.859	0.514	Blank	Blank	35.262	n/a	1	3	6	n/a	46	n/a	2	n/a	n/a	n/a	n/a	107.475	n/a
77.39	0.497	angry	Picture	34.748	n/a	1	3	7	n/a	47	64	2	n/a	n/a	n/a	n/a	108.006	BM05HAS.jpg
77.887	0.514	Blank	Blank	34.234	n/a	1	3	7	n/a	47	n/a	2	n/a	n/a	n/a	n/a	108.503	n/a
78.418	0.497	angry	Picture	33.72	n/a	1	3	8	n/a	48	59	2	n/a	n/a	n/a	n/a	109.034	AF31HAS.jpg
78.915	0.514	Blank	Blank	33.206	n/a	1	3	8	n/a	48	n/a	2	n/a	n/a	n/a	n/a	109.531	n/a
79.445	0.497	angry	Picture	32.692	n/a	1	3	9	n/a	49	41	2	n/a	n/a	n/a	n/a	110.061	AF01HAS.jpg
79.943	0.514	Blank	Blank	32.178	n/a	1	3	9	n/a	49	n/a	2	n/a	n/a	n/a	n/a	110.559	n/a
80.473	0.497	angry	Picture	31.664	n/a	1	3	10	n/a	50	73	2	n/a	n/a	n/a	n/a	111.089	AM21HAS.jpg
80.971	0.514	Blank	Blank	31.15	n/a	1	3	10	n/a	50	n/a	2	n/a	n/a	n/a	n/a	111.587	n/a
81.501	0.497	angry	Picture	30.637	n/a	1	3	11	n/a	51	65	2	n/a	n/a	n/a	n/a	112.117	BM06HAS.jpg
81.999	0.514	Blank	Blank	30.123	n/a	1	3	11	n/a	51	n/a	2	n/a	n/a	n/a	n/a	112.615	n/a
82.529	0.497	angry	Picture	29.609	n/a	1	3	12	n/a	52	56	2	n/a	n/a	n/a	n/a	113.145	AF26HAS.jpg
83.026	0.514	Blank	Blank	29.095	n/a	1	3	12	n/a	52	n/a	2	n/a	n/a	n/a	n/a	113.642	n/a
83.557	0.497	angry	Picture	28.581	n/a	1	3	13	n/a	53	45	2	n/a	n/a	n/a	n/a	114.173	BF07HAS.jpg
84.054	0.514	Blank	Blank	28.067	n/a	1	3	13	n/a	53	n/a	2	n/a	n/a	n/a	n/a	114.67	n/a
84.585	0.497	angry	Picture	27.553	n/a	1	3	14	n/a	54	78	2	n/a	n/a	n/a	n/a	115.201	BM26HAS.jpg
85.082	0.514	Blank	Blank	27.039	n/a	1	3	14	n/a	54	n/a	2	n/a	n/a	n/a	n/a	115.698	n/a
85.613	0.497	angry	Picture	26.525	n/a	1	3	15	n/a	55	50	2	n/a	n/a	n/a	n/a	116.229	AF18HAS.jpg
86.11	0.514	Blank	Blank	26.011	n/a	1	3	15	n/a	55	n/a	2	n/a	n/a	n/a	n/a	116.726	n/a
86.641	0.497	angry	Picture	25.497	n/a	1	3	16	n/a	56	47	2	n/a	n/a	n/a	n/a	117.257	BF11HAS.jpg
87.138	0.514	Blank	Blank	24.983	n/a	1	3	16	n/a	56	n/a	2	n/a	n/a	n/a	n/a	117.754	n/a
87.669	0.497	angry	Picture	24.469	n/a	1	3	17	n/a	57	77	2	n/a	n/a	n/a	n/a	118.285	BM25HAS.jpg
88.166	0.514	Blank	Blank	23.955	n/a	1	3	17	n/a	57	n/a	2	n/a	n/a	n/a	n/a	118.782	n/a
88.696	0.497	angry	Picture	23.441	n/a	1	3	18	n/a	58	57	2	n/a	n/a	n/a	n/a	119.312	BF28HAS.jpg
89.194	0.514	Blank	Blank	22.927	n/a	1	3	18	n/a	58	n/a	2	n/a	n/a	n/a	n/a	119.81	n/a
89.724	0.497	angry	Picture	22.413	n/a	1	3	19	n/a	59	61	2	n/a	n/a	n/a	n/a	120.34	AM01HAS.jpg
90.222	0.514	Blank	Blank	21.9	n/a	1	3	19	n/a	59	n/a	2	n/a	n/a	n/a	n/a	120.838	n/a
90.752	0.497	angry	Picture	21.386	n/a	1	3	20	n/a	60	79	2	n/a	n/a	n/a	n/a	121.368	BM28HAS.jpg
91.25	0.514	Blank	Blank	20.872	n/a	1	3	20	n/a	60	n/a	2	n/a	n/a	n/a	n/a	121.866	n/a
91.78	10.014	ITI	Fixation+	10.841	n/a	1	n/a	n/a	n/a	n/a	n/a	n/a	n/a	n/a	n/a	n/a	122.396	n/a
112.635	n/a	ConfirmRating	Rate	n/a	10.793	1	n/a	n/a	0	n/a	n/a	n/a	2	Angry	62	51	143.251	n/a
119.036	n/a	ConfirmRating	Rate	n/a	6.4	1	n/a	n/a	1	n/a	n/a	n/a	3	Angry	0	48	149.652	n/a
119.069	10.014	ITI	Fixation+	96.01	n/a	2	n/a	n/a	n/a	n/a	n/a	n/a	n/a	n/a	n/a	n/a	149.685	n/a
129.099	0.497	happy	Picture	95.496	n/a	2	4	1	n/a	61	119	3	n/a	n/a	n/a	n/a	159.715	BM28ANS.jpg
129.596	0.514	Blank	Blank	94.982	n/a	2	4	1	n/a	61	n/a	3	n/a	n/a	n/a	n/a	160.212	n/a
130.127	0.497	happy	Picture	94.468	n/a	2	4	2	n/a	62	100	3	n/a	n/a	n/a	n/a	160.743	AF32ANS.jpg
130.624	0.514	Blank	Blank	93.954	n/a	2	4	2	n/a	62	n/a	3	n/a	n/a	n/a	n/a	161.24	n/a
131.155	0.497	happy	Picture	93.44	n/a	2	4	3	n/a	63	118	3	n/a	n/a	n/a	n/a	161.771	BM26ANS.jpg
131.652	0.514	Blank	Blank	92.926	n/a	2	4	3	n/a	63	n/a	3	n/a	n/a	n/a	n/a	162.268	n/a
132.183	0.497	happy	Picture	92.412	n/a	2	4	4	n/a	64	89	3	n/a	n/a	n/a	n/a	162.799	AF17ANS.jpg
132.68	0.514	Blank	Blank	91.898	n/a	2	4	4	n/a	64	n/a	3	n/a	n/a	n/a	n/a	163.296	n/a
133.211	0.497	happy	Picture	91.384	n/a	2	4	5	n/a	65	116	3	n/a	n/a	n/a	n/a	163.827	BM24ANS.jpg
133.708	0.514	Blank	Blank	90.87	n/a	2	4	5	n/a	65	n/a	3	n/a	n/a	n/a	n/a	164.324	n/a
134.238	0.497	happy	Picture	90.356	n/a	2	4	6	n/a	66	105	3	n/a	n/a	n/a	n/a	164.855	BM06ANS.jpg
134.736	0.514	Blank	Blank	89.842	n/a	2	4	6	n/a	66	n/a	3	n/a	n/a	n/a	n/a	165.352	n/a
135.266	0.497	happy	Picture	89.328	n/a	2	4	7	n/a	67	106	3	n/a	n/a	n/a	n/a	165.882	AM07ANS.jpg
135.764	0.514	Blank	Blank	88.814	n/a	2	4	7	n/a	67	n/a	3	n/a	n/a	n/a	n/a	166.38	n/a
136.294	0.497	happy	Picture	88.3	n/a	2	4	8	n/a	68	94	3	n/a	n/a	n/a	n/a	166.91	AF23ANS.jpg
136.792	0.514	Blank	Blank	87.786	n/a	2	4	8	n/a	68	n/a	3	n/a	n/a	n/a	n/a	167.408	n/a
137.322	0.497	happy	Picture	87.273	n/a	2	4	9	n/a	69	117	3	n/a	n/a	n/a	n/a	167.938	BM25ANS.jpg
137.82	0.514	Blank	Blank	86.759	n/a	2	4	9	n/a	69	n/a	3	n/a	n/a	n/a	n/a	168.435	n/a
138.35	0.497	happy	Picture	86.245	n/a	2	4	10	n/a	70	90	3	n/a	n/a	n/a	n/a	168.966	AF18ANS.jpg
138.847	0.514	Blank	Blank	85.731	n/a	2	4	10	n/a	70	n/a	3	n/a	n/a	n/a	n/a	169.463	n/a
139.378	0.497	happy	Picture	85.217	n/a	2	4	11	n/a	71	83	3	n/a	n/a	n/a	n/a	169.994	BF04ANS.jpg
139.875	0.514	Blank	Blank	84.703	n/a	2	4	11	n/a	71	n/a	3	n/a	n/a	n/a	n/a	170.491	n/a
140.406	0.497	happy	Picture	84.19	n/a	2	4	12	n/a	72	112	3	n/a	n/a	n/a	n/a	171.022	AM14ANS.jpg
140.902	0.515	Blank	Blank	83.675	n/a	2	4	12	n/a	72	n/a	3	n/a	n/a	n/a	n/a	171.518	n/a
141.434	0.497	happy	Picture	83.161	n/a	2	4	13	n/a	73	102	3	n/a	n/a	n/a	n/a	172.05	BM03ANS.jpg
141.931	0.514	Blank	Blank	82.647	n/a	2	4	13	n/a	73	n/a	3	n/a	n/a	n/a	n/a	172.547	n/a
142.462	0.497	happy	Picture	82.133	n/a	2	4	14	n/a	74	95	3	n/a	n/a	n/a	n/a	173.078	AF25ANS.jpg
142.959	0.514	Blank	Blank	81.619	n/a	2	4	14	n/a	74	n/a	3	n/a	n/a	n/a	n/a	173.575	n/a
143.49	0.497	happy	Picture	81.105	n/a	2	4	15	n/a	75	113	3	n/a	n/a	n/a	n/a	174.106	AM21ANS.jpg
143.987	0.514	Blank	Blank	80.591	n/a	2	4	15	n/a	75	n/a	3	n/a	n/a	n/a	n/a	174.603	n/a
144.517	0.497	happy	Picture	80.077	n/a	2	4	16	n/a	76	88	3	n/a	n/a	n/a	n/a	175.133	AF14ANS.jpg
145.015	0.514	Blank	Blank	79.563	n/a	2	4	16	n/a	76	n/a	3	n/a	n/a	n/a	n/a	175.631	n/a
145.545	0.497	happy	Picture	79.049	n/a	2	4	17	n/a	77	93	3	n/a	n/a	n/a	n/a	176.161	BF22ANS.jpg
146.043	0.514	Blank	Blank	78.535	n/a	2	4	17	n/a	77	n/a	3	n/a	n/a	n/a	n/a	176.659	n/a
146.573	0.497	happy	Picture	78.021	n/a	2	4	18	n/a	78	86	3	n/a	n/a	n/a	n/a	177.189	AF09ANS.jpg
147.07	0.514	Blank	Blank	77.508	n/a	2	4	18	n/a	78	n/a	3	n/a	n/a	n/a	n/a	177.686	n/a
147.601	0.497	happy	Picture	76.994	n/a	2	4	19	n/a	79	92	3	n/a	n/a	n/a	n/a	178.217	AF21ANS.jpg
148.098	0.514	Blank	Blank	76.48	n/a	2	4	19	n/a	79	n/a	3	n/a	n/a	n/a	n/a	178.714	n/a
148.629	0.497	happy	Picture	75.966	n/a	2	4	20	n/a	80	84	3	n/a	n/a	n/a	n/a	179.245	AF05ANS.jpg
149.126	0.514	Blank	Blank	75.452	n/a	2	4	20	n/a	80	n/a	3	n/a	n/a	n/a	n/a	179.742	n/a
149.657	10.014	ITI	Fixation+	65.422	n/a	2	n/a	n/a	n/a	n/a	n/a	n/a	n/a	n/a	n/a	n/a	180.273	n/a
159.687	0.497	neutral	Picture	64.908	n/a	2	5	1	n/a	81	4	1	n/a	n/a	n/a	n/a	190.303	AF05NES.jpg
160.184	0.514	Blank	Blank	64.394	n/a	2	5	1	n/a	81	n/a	1	n/a	n/a	n/a	n/a	190.8	n/a
160.715	0.497	neutral	Picture	63.88	n/a	2	5	2	n/a	82	14	1	n/a	n/a	n/a	n/a	191.331	AF23NES.jpg
161.212	0.514	Blank	Blank	63.366	n/a	2	5	2	n/a	82	n/a	1	n/a	n/a	n/a	n/a	191.828	n/a
161.743	0.497	neutral	Picture	62.852	n/a	2	5	3	n/a	83	19	1	n/a	n/a	n/a	n/a	192.359	AF31NES.jpg
162.24	0.514	Blank	Blank	62.338	n/a	2	5	3	n/a	83	n/a	1	n/a	n/a	n/a	n/a	192.856	n/a
162.771	0.497	neutral	Picture	61.824	n/a	2	5	4	n/a	84	8	1	n/a	n/a	n/a	n/a	193.387	AF14NES.jpg
163.268	0.514	Blank	Blank	61.31	n/a	2	5	4	n/a	84	n/a	1	n/a	n/a	n/a	n/a	193.884	n/a
163.798	0.497	neutral	Picture	60.796	n/a	2	5	5	n/a	85	25	1	n/a	n/a	n/a	n/a	194.415	BM06NES.jpg
164.296	0.514	Blank	Blank	60.282	n/a	2	5	5	n/a	85	n/a	1	n/a	n/a	n/a	n/a	194.912	n/a
164.826	0.497	neutral	Picture	59.768	n/a	2	5	6	n/a	86	9	1	n/a	n/a	n/a	n/a	195.442	AF17NES.jpg
165.324	0.514	Blank	Blank	59.254	n/a	2	5	6	n/a	86	n/a	1	n/a	n/a	n/a	n/a	195.94	n/a
165.854	0.497	neutral	Picture	58.74	n/a	2	5	7	n/a	87	2	1	n/a	n/a	n/a	n/a	196.47	AF03NES.jpg
166.352	0.514	Blank	Blank	58.226	n/a	2	5	7	n/a	87	n/a	1	n/a	n/a	n/a	n/a	196.968	n/a
166.882	0.497	neutral	Picture	57.712	n/a	2	5	8	n/a	88	17	1	n/a	n/a	n/a	n/a	197.498	BF28NES.jpg
167.38	0.514	Blank	Blank	57.198	n/a	2	5	8	n/a	88	n/a	1	n/a	n/a	n/a	n/a	197.995	n/a
167.91	0.497	neutral	Picture	56.685	n/a	2	5	9	n/a	89	6	1	n/a	n/a	n/a	n/a	198.526	AF09NES.jpg
168.407	0.514	Blank	Blank	56.171	n/a	2	5	9	n/a	89	n/a	1	n/a	n/a	n/a	n/a	199.023	n/a
168.938	0.497	neutral	Picture	55.657	n/a	2	5	10	n/a	90	12	1	n/a	n/a	n/a	n/a	199.554	AF21NES.jpg
169.435	0.514	Blank	Blank	55.143	n/a	2	5	10	n/a	90	n/a	1	n/a	n/a	n/a	n/a	200.051	n/a
169.966	0.497	neutral	Picture	54.629	n/a	2	5	11	n/a	91	24	1	n/a	n/a	n/a	n/a	200.582	BM05NES.jpg
170.463	0.514	Blank	Blank	54.115	n/a	2	5	11	n/a	91	n/a	1	n/a	n/a	n/a	n/a	201.079	n/a
170.994	0.497	neutral	Picture	53.601	n/a	2	5	12	n/a	92	34	1	n/a	n/a	n/a	n/a	201.61	AM22NES.jpg
171.491	0.514	Blank	Blank	53.087	n/a	2	5	12	n/a	92	n/a	1	n/a	n/a	n/a	n/a	202.107	n/a
172.022	0.497	neutral	Picture	52.573	n/a	2	5	13	n/a	93	23	1	n/a	n/a	n/a	n/a	202.638	AM04NES.jpg
172.519	0.514	Blank	Blank	52.059	n/a	2	5	13	n/a	93	n/a	1	n/a	n/a	n/a	n/a	203.135	n/a
173.05	0.497	neutral	Picture	51.545	n/a	2	5	14	n/a	94	15	1	n/a	n/a	n/a	n/a	203.666	AF25NES.jpg
173.547	0.514	Blank	Blank	51.031	n/a	2	5	14	n/a	94	n/a	1	n/a	n/a	n/a	n/a	204.163	n/a
174.077	0.497	neutral	Picture	50.517	n/a	2	5	15	n/a	95	37	1	n/a	n/a	n/a	n/a	204.693	BM25NES.jpg
174.575	0.514	Blank	Blank	50.003	n/a	2	5	15	n/a	95	n/a	1	n/a	n/a	n/a	n/a	205.191	n/a
175.105	0.497	neutral	Picture	49.489	n/a	2	5	16	n/a	96	32	1	n/a	n/a	n/a	n/a	205.721	AM14NES.jpg
175.603	0.514	Blank	Blank	48.975	n/a	2	5	16	n/a	96	n/a	1	n/a	n/a	n/a	n/a	206.219	n/a
176.133	0.497	neutral	Picture	48.462	n/a	2	5	17	n/a	97	3	1	n/a	n/a	n/a	n/a	206.749	BF04NES.jpg
176.63	0.514	Blank	Blank	47.947	n/a	2	5	17	n/a	97	n/a	1	n/a	n/a	n/a	n/a	207.246	n/a
177.161	0.497	neutral	Picture	47.434	n/a	2	5	18	n/a	98	16	1	n/a	n/a	n/a	n/a	207.777	AF26NES.jpg
177.658	0.514	Blank	Blank	46.92	n/a	2	5	18	n/a	98	n/a	1	n/a	n/a	n/a	n/a	208.274	n/a
178.189	0.497	neutral	Picture	46.406	n/a	2	5	19	n/a	99	27	1	n/a	n/a	n/a	n/a	208.805	BM08NES.jpg
178.686	0.514	Blank	Blank	45.892	n/a	2	5	19	n/a	99	n/a	1	n/a	n/a	n/a	n/a	209.302	n/a
179.217	0.497	neutral	Picture	45.378	n/a	2	5	20	n/a	100	28	1	n/a	n/a	n/a	n/a	209.833	AM09NES.jpg
179.714	0.514	Blank	Blank	44.864	n/a	2	5	20	n/a	100	n/a	1	n/a	n/a	n/a	n/a	210.33	n/a
180.245	10.014	ITI	Fixation+	34.834	n/a	2	n/a	n/a	n/a	n/a	n/a	n/a	n/a	n/a	n/a	n/a	210.861	n/a
190.275	0.497	happy	Picture	34.32	n/a	2	6	1	n/a	101	81	3	n/a	n/a	n/a	n/a	220.891	AF01ANS.jpg
190.772	0.514	Blank	Blank	33.806	n/a	2	6	1	n/a	101	n/a	3	n/a	n/a	n/a	n/a	221.388	n/a
191.303	0.497	happy	Picture	33.292	n/a	2	6	2	n/a	102	120	3	n/a	n/a	n/a	n/a	221.919	AM35ANS.jpg
191.8	0.514	Blank	Blank	32.778	n/a	2	6	2	n/a	102	n/a	3	n/a	n/a	n/a	n/a	222.416	n/a
192.331	0.497	happy	Picture	32.264	n/a	2	6	3	n/a	103	114	3	n/a	n/a	n/a	n/a	222.947	AM22ANS.jpg
192.828	0.514	Blank	Blank	31.75	n/a	2	6	3	n/a	103	n/a	3	n/a	n/a	n/a	n/a	223.444	n/a
193.359	0.497	happy	Picture	31.236	n/a	2	6	4	n/a	104	109	3	n/a	n/a	n/a	n/a	223.975	AM10ANS.jpg
193.856	0.514	Blank	Blank	30.722	n/a	2	6	4	n/a	104	n/a	3	n/a	n/a	n/a	n/a	224.472	n/a
194.386	0.497	happy	Picture	30.208	n/a	2	6	5	n/a	105	96	3	n/a	n/a	n/a	n/a	225.002	AF26ANS.jpg
194.884	0.514	Blank	Blank	29.694	n/a	2	6	5	n/a	105	n/a	3	n/a	n/a	n/a	n/a	225.5	n/a
195.414	0.497	happy	Picture	29.18	n/a	2	6	6	n/a	106	82	3	n/a	n/a	n/a	n/a	226.03	AF03ANS.jpg
195.912	0.514	Blank	Blank	28.666	n/a	2	6	6	n/a	106	n/a	3	n/a	n/a	n/a	n/a	226.528	n/a
196.442	0.497	happy	Picture	28.152	n/a	2	6	7	n/a	107	97	3	n/a	n/a	n/a	n/a	227.058	BF28ANS.jpg
196.94	0.514	Blank	Blank	27.638	n/a	2	6	7	n/a	107	n/a	3	n/a	n/a	n/a	n/a	227.556	n/a
197.47	0.497	happy	Picture	27.124	n/a	2	6	8	n/a	108	115	3	n/a	n/a	n/a	n/a	228.086	AM23ANS.jpg
197.967	0.514	Blank	Blank	26.611	n/a	2	6	8	n/a	108	n/a	3	n/a	n/a	n/a	n/a	228.583	n/a
198.498	0.497	happy	Picture	26.097	n/a	2	6	9	n/a	109	91	3	n/a	n/a	n/a	n/a	229.114	AF20ANS.jpg
198.995	0.514	Blank	Blank	25.583	n/a	2	6	9	n/a	109	n/a	3	n/a	n/a	n/a	n/a	229.611	n/a
199.526	0.497	happy	Picture	25.069	n/a	2	6	10	n/a	110	87	3	n/a	n/a	n/a	n/a	230.142	BF11ANS.jpg
200.023	0.514	Blank	Blank	24.555	n/a	2	6	10	n/a	110	n/a	3	n/a	n/a	n/a	n/a	230.639	n/a
200.554	0.497	happy	Picture	24.041	n/a	2	6	11	n/a	111	85	3	n/a	n/a	n/a	n/a	231.17	BF07ANS.jpg
201.051	0.514	Blank	Blank	23.527	n/a	2	6	11	n/a	111	n/a	3	n/a	n/a	n/a	n/a	231.667	n/a
201.582	0.497	happy	Picture	23.013	n/a	2	6	12	n/a	112	110	3	n/a	n/a	n/a	n/a	232.198	AM11ANS.jpg
202.079	0.514	Blank	Blank	22.499	n/a	2	6	12	n/a	112	n/a	3	n/a	n/a	n/a	n/a	232.695	n/a
202.61	0.497	happy	Picture	21.985	n/a	2	6	13	n/a	113	111	3	n/a	n/a	n/a	n/a	233.226	BM12ANS.jpg
203.107	0.514	Blank	Blank	21.471	n/a	2	6	13	n/a	113	n/a	3	n/a	n/a	n/a	n/a	233.723	n/a
203.637	0.497	happy	Picture	20.957	n/a	2	6	14	n/a	114	103	3	n/a	n/a	n/a	n/a	234.253	AM04ANS.jpg
204.135	0.514	Blank	Blank	20.443	n/a	2	6	14	n/a	114	n/a	3	n/a	n/a	n/a	n/a	234.751	n/a
204.665	0.497	happy	Picture	19.929	n/a	2	6	15	n/a	115	101	3	n/a	n/a	n/a	n/a	235.281	AM01ANS.jpg
205.163	0.514	Blank	Blank	19.415	n/a	2	6	15	n/a	115	n/a	3	n/a	n/a	n/a	n/a	235.779	n/a
205.693	0.497	happy	Picture	18.901	n/a	2	6	16	n/a	116	104	3	n/a	n/a	n/a	n/a	236.309	BM05ANS.jpg
206.191	0.514	Blank	Blank	18.387	n/a	2	6	16	n/a	116	n/a	3	n/a	n/a	n/a	n/a	236.807	n/a
206.721	0.497	happy	Picture	17.874	n/a	2	6	17	n/a	117	107	3	n/a	n/a	n/a	n/a	237.337	BM08ANS.jpg
207.219	0.514	Blank	Blank	17.36	n/a	2	6	17	n/a	117	n/a	3	n/a	n/a	n/a	n/a	237.834	n/a
207.749	0.497	happy	Picture	16.846	n/a	2	6	18	n/a	118	98	3	n/a	n/a	n/a	n/a	238.365	BF29ANS.jpg
208.246	0.514	Blank	Blank	16.332	n/a	2	6	18	n/a	118	n/a	3	n/a	n/a	n/a	n/a	238.862	n/a
208.777	0.497	happy	Picture	15.818	n/a	2	6	19	n/a	119	99	3	n/a	n/a	n/a	n/a	239.393	AF31ANS.jpg
209.274	0.514	Blank	Blank	15.304	n/a	2	6	19	n/a	119	n/a	3	n/a	n/a	n/a	n/a	239.89	n/a
209.805	0.497	happy	Picture	14.79	n/a	2	6	20	n/a	120	108	3	n/a	n/a	n/a	n/a	240.421	AM09ANS.jpg
210.302	0.514	Blank	Blank	14.276	n/a	2	6	20	n/a	120	n/a	3	n/a	n/a	n/a	n/a	240.918	n/a
210.833	10.014	ITI	Fixation+	4.246	n/a	2	n/a	n/a	n/a	n/a	n/a	n/a	n/a	n/a	n/a	n/a	241.449	n/a
225.092	n/a	ConfirmRating	Rate	n/a	4.245	2	n/a	n/a	0	n/a	n/a	n/a	2	Happy	73	52	255.708	n/a
227.68	n/a	ConfirmRating	Rate	n/a	2.57	2	n/a	n/a	1	n/a	n/a	n/a	3	Happy	0	49	258.296	n/a
227.71	15.004	Rest	Picture	n/a	n/a	n/a	n/a	n/a	n/a	n/a	n/a	n/a	0	n/a	0	0	258.326	n/a
242.73	10.014	ITI	Fixation+	95.837	n/a	3	n/a	n/a	n/a	n/a	n/a	n/a	n/a	n/a	n/a	n/a	273.346	n/a
252.761	0.497	angry	Picture	95.323	n/a	3	7	1	n/a	1	46	2	n/a	n/a	n/a	n/a	283.377	AF09HAS.jpg
253.258	0.514	Blank	Blank	94.809	n/a	3	7	1	n/a	1	n/a	2	n/a	n/a	n/a	n/a	283.874	n/a
253.788	0.497	angry	Picture	94.295	n/a	3	7	2	n/a	2	69	2	n/a	n/a	n/a	n/a	284.404	AM10HAS.jpg
254.286	0.514	Blank	Blank	93.781	n/a	3	7	2	n/a	2	n/a	2	n/a	n/a	n/a	n/a	284.902	n/a
254.816	0.497	angry	Picture	93.267	n/a	3	7	3	n/a	3	71	2	n/a	n/a	n/a	n/a	285.432	BM12HAS.jpg
255.314	0.514	Blank	Blank	92.753	n/a	3	7	3	n/a	3	n/a	2	n/a	n/a	n/a	n/a	285.93	n/a
255.844	0.497	angry	Picture	92.239	n/a	3	7	4	n/a	4	51	2	n/a	n/a	n/a	n/a	286.46	AF20HAS.jpg
256.341	0.514	Blank	Blank	91.725	n/a	3	7	4	n/a	4	n/a	2	n/a	n/a	n/a	n/a	286.957	n/a
256.872	0.497	angry	Picture	91.211	n/a	3	7	5	n/a	5	67	2	n/a	n/a	n/a	n/a	287.488	BM08HAS.jpg
257.369	0.514	Blank	Blank	90.697	n/a	3	7	5	n/a	5	n/a	2	n/a	n/a	n/a	n/a	287.985	n/a
257.899	0.498	angry	Picture	90.183	n/a	3	7	6	n/a	6	60	2	n/a	n/a	n/a	n/a	288.515	AF32HAS.jpg
258.397	0.514	Blank	Blank	89.669	n/a	3	7	6	n/a	6	n/a	2	n/a	n/a	n/a	n/a	289.013	n/a
258.928	0.497	angry	Picture	89.155	n/a	3	7	7	n/a	7	42	2	n/a	n/a	n/a	n/a	289.544	AF03HAS.jpg
259.425	0.514	Blank	Blank	88.642	n/a	3	7	7	n/a	7	n/a	2	n/a	n/a	n/a	n/a	290.041	n/a
259.956	0.497	angry	Picture	88.127	n/a	3	7	8	n/a	8	55	2	n/a	n/a	n/a	n/a	290.572	AF25HAS.jpg
260.453	0.514	Blank	Blank	87.614	n/a	3	7	8	n/a	8	n/a	2	n/a	n/a	n/a	n/a	291.069	n/a
260.983	0.497	angry	Picture	87.1	n/a	3	7	9	n/a	9	72	2	n/a	n/a	n/a	n/a	291.599	AM14HAS.jpg
261.481	0.514	Blank	Blank	86.586	n/a	3	7	9	n/a	9	n/a	2	n/a	n/a	n/a	n/a	292.097	n/a
262.012	0.497	angry	Picture	86.072	n/a	3	7	10	n/a	10	63	2	n/a	n/a	n/a	n/a	292.627	AM04HAS.jpg
262.509	0.514	Blank	Blank	85.558	n/a	3	7	10	n/a	10	n/a	2	n/a	n/a	n/a	n/a	293.125	n/a
263.039	0.497	angry	Picture	85.044	n/a	3	7	11	n/a	11	58	2	n/a	n/a	n/a	n/a	293.655	BF29HAS.jpg
263.537	0.514	Blank	Blank	84.53	n/a	3	7	11	n/a	11	n/a	2	n/a	n/a	n/a	n/a	294.153	n/a
264.067	0.497	angry	Picture	84.016	n/a	3	7	12	n/a	12	48	2	n/a	n/a	n/a	n/a	294.683	AF14HAS.jpg
264.565	0.514	Blank	Blank	83.502	n/a	3	7	12	n/a	12	n/a	2	n/a	n/a	n/a	n/a	295.181	n/a
265.095	0.497	angry	Picture	82.988	n/a	3	7	13	n/a	13	66	2	n/a	n/a	n/a	n/a	295.711	BM07HAS.jpg
265.593	0.514	Blank	Blank	82.474	n/a	3	7	13	n/a	13	n/a	2	n/a	n/a	n/a	n/a	296.209	n/a
266.123	0.497	angry	Picture	81.96	n/a	3	7	14	n/a	14	70	2	n/a	n/a	n/a	n/a	296.739	BM11HAS.jpg
266.62	0.514	Blank	Blank	81.446	n/a	3	7	14	n/a	14	n/a	2	n/a	n/a	n/a	n/a	297.236	n/a
267.151	0.497	angry	Picture	80.932	n/a	3	7	15	n/a	15	43	2	n/a	n/a	n/a	n/a	297.767	BF04HAS.jpg
267.648	0.514	Blank	Blank	80.418	n/a	3	7	15	n/a	15	n/a	2	n/a	n/a	n/a	n/a	298.264	n/a
268.179	0.497	angry	Picture	79.904	n/a	3	7	16	n/a	16	49	2	n/a	n/a	n/a	n/a	298.795	AF17HAS.jpg
268.676	0.514	Blank	Blank	79.391	n/a	3	7	16	n/a	16	n/a	2	n/a	n/a	n/a	n/a	299.292	n/a
269.207	0.497	angry	Picture	78.877	n/a	3	7	17	n/a	17	75	2	n/a	n/a	n/a	n/a	299.823	AM23HAS.jpg
269.704	0.514	Blank	Blank	78.363	n/a	3	7	17	n/a	17	n/a	2	n/a	n/a	n/a	n/a	300.32	n/a
270.235	0.497	angry	Picture	77.849	n/a	3	7	18	n/a	18	80	2	n/a	n/a	n/a	n/a	300.851	BM35HAS.jpg
270.732	0.514	Blank	Blank	77.335	n/a	3	7	18	n/a	18	n/a	2	n/a	n/a	n/a	n/a	301.348	n/a
271.262	0.497	angry	Picture	76.821	n/a	3	7	19	n/a	19	76	2	n/a	n/a	n/a	n/a	301.878	BM24HAS.jpg
271.76	0.514	Blank	Blank	76.307	n/a	3	7	19	n/a	19	n/a	2	n/a	n/a	n/a	n/a	302.376	n/a
272.29	0.497	angry	Picture	75.793	n/a	3	7	20	n/a	20	74	2	n/a	n/a	n/a	n/a	302.906	AM22HAS.jpg
272.788	0.514	Blank	Blank	75.279	n/a	3	7	20	n/a	20	n/a	2	n/a	n/a	n/a	n/a	303.404	n/a
273.318	10.014	ITI	Fixation+	65.249	n/a	3	n/a	n/a	n/a	n/a	n/a	n/a	n/a	n/a	n/a	n/a	303.934	n/a
283.348	0.497	neutral	Picture	64.735	n/a	3	8	1	n/a	21	33	1	n/a	n/a	n/a	n/a	313.964	AM21NES.jpg
283.846	0.514	Blank	Blank	64.221	n/a	3	8	1	n/a	21	n/a	1	n/a	n/a	n/a	n/a	314.462	n/a
284.376	0.497	neutral	Picture	63.707	n/a	3	8	2	n/a	22	39	1	n/a	n/a	n/a	n/a	314.992	AM28NES.jpg
284.874	0.514	Blank	Blank	63.193	n/a	3	8	2	n/a	22	n/a	1	n/a	n/a	n/a	n/a	315.49	n/a
285.404	0.497	neutral	Picture	62.679	n/a	3	8	3	n/a	23	25	1	n/a	n/a	n/a	n/a	316.02	BM06NES.jpg
285.901	0.514	Blank	Blank	62.165	n/a	3	8	3	n/a	23	n/a	1	n/a	n/a	n/a	n/a	316.517	n/a
286.432	0.497	neutral	Picture	61.651	n/a	3	8	4	n/a	24	5	1	n/a	n/a	n/a	n/a	317.048	BF07NES.jpg
286.929	0.514	Blank	Blank	61.137	n/a	3	8	4	n/a	24	n/a	1	n/a	n/a	n/a	n/a	317.545	n/a
287.46	0.497	neutral	Picture	60.623	n/a	3	8	5	n/a	25	10	1	n/a	n/a	n/a	n/a	318.076	AF18NES.jpg
287.957	0.514	Blank	Blank	60.109	n/a	3	8	5	n/a	25	n/a	1	n/a	n/a	n/a	n/a	318.573	n/a
288.488	0.497	neutral	Picture	59.595	n/a	3	8	6	n/a	26	34	1	n/a	n/a	n/a	n/a	319.104	AM22NES.jpg
288.985	0.514	Blank	Blank	59.081	n/a	3	8	6	n/a	26	n/a	1	n/a	n/a	n/a	n/a	319.601	n/a
289.516	0.497	neutral	Picture	58.567	n/a	3	8	7	n/a	27	36	1	n/a	n/a	n/a	n/a	320.132	BM24NES.jpg
290.013	0.514	Blank	Blank	58.054	n/a	3	8	7	n/a	27	n/a	1	n/a	n/a	n/a	n/a	320.629	n/a
290.544	0.497	neutral	Picture	57.54	n/a	3	8	8	n/a	28	14	1	n/a	n/a	n/a	n/a	321.16	AF23NES.jpg
291.041	0.514	Blank	Blank	57.026	n/a	3	8	8	n/a	28	n/a	1	n/a	n/a	n/a	n/a	321.657	n/a
291.572	0.497	neutral	Picture	56.512	n/a	3	8	9	n/a	29	9	1	n/a	n/a	n/a	n/a	322.188	AF17NES.jpg
292.069	0.514	Blank	Blank	55.998	n/a	3	8	9	n/a	29	n/a	1	n/a	n/a	n/a	n/a	322.685	n/a
292.599	0.497	neutral	Picture	55.484	n/a	3	8	10	n/a	30	19	1	n/a	n/a	n/a	n/a	323.215	AF31NES.jpg
293.097	0.514	Blank	Blank	54.97	n/a	3	8	10	n/a	30	n/a	1	n/a	n/a	n/a	n/a	323.713	n/a
293.627	0.497	neutral	Picture	54.456	n/a	3	8	11	n/a	31	15	1	n/a	n/a	n/a	n/a	324.243	AF25NES.jpg
294.125	0.514	Blank	Blank	53.942	n/a	3	8	11	n/a	31	n/a	1	n/a	n/a	n/a	n/a	324.741	n/a
294.655	0.497	neutral	Picture	53.428	n/a	3	8	12	n/a	32	22	1	n/a	n/a	n/a	n/a	325.271	BM03NES.jpg
295.153	0.514	Blank	Blank	52.914	n/a	3	8	12	n/a	32	n/a	1	n/a	n/a	n/a	n/a	325.769	n/a
295.683	0.497	neutral	Picture	52.4	n/a	3	8	13	n/a	33	11	1	n/a	n/a	n/a	n/a	326.299	AF20NES.jpg
296.18	0.514	Blank	Blank	51.886	n/a	3	8	13	n/a	33	n/a	1	n/a	n/a	n/a	n/a	326.796	n/a
296.711	0.497	neutral	Picture	51.372	n/a	3	8	14	n/a	34	4	1	n/a	n/a	n/a	n/a	327.327	AF05NES.jpg
297.208	0.514	Blank	Blank	50.858	n/a	3	8	14	n/a	34	n/a	1	n/a	n/a	n/a	n/a	327.824	n/a
297.739	0.497	neutral	Picture	50.344	n/a	3	8	15	n/a	35	17	1	n/a	n/a	n/a	n/a	328.355	BF28NES.jpg
298.236	0.514	Blank	Blank	49.83	n/a	3	8	15	n/a	35	n/a	1	n/a	n/a	n/a	n/a	328.852	n/a
298.767	0.497	neutral	Picture	49.316	n/a	3	8	16	n/a	36	13	1	n/a	n/a	n/a	n/a	329.383	BF22NES.jpg
299.264	0.514	Blank	Blank	48.803	n/a	3	8	16	n/a	36	n/a	1	n/a	n/a	n/a	n/a	329.88	n/a
299.795	0.497	neutral	Picture	48.289	n/a	3	8	17	n/a	37	12	1	n/a	n/a	n/a	n/a	330.411	AF21NES.jpg
300.292	0.514	Blank	Blank	47.775	n/a	3	8	17	n/a	37	n/a	1	n/a	n/a	n/a	n/a	330.908	n/a
300.822	0.497	neutral	Picture	47.261	n/a	3	8	18	n/a	38	24	1	n/a	n/a	n/a	n/a	331.438	BM05NES.jpg
301.32	0.514	Blank	Blank	46.747	n/a	3	8	18	n/a	38	n/a	1	n/a	n/a	n/a	n/a	331.936	n/a
301.85	0.497	neutral	Picture	46.233	n/a	3	8	19	n/a	39	29	1	n/a	n/a	n/a	n/a	332.466	AM10NES.jpg
302.348	0.514	Blank	Blank	45.719	n/a	3	8	19	n/a	39	n/a	1	n/a	n/a	n/a	n/a	332.964	n/a
302.878	0.497	neutral	Picture	45.205	n/a	3	8	20	n/a	40	23	1	n/a	n/a	n/a	n/a	333.494	AM04NES.jpg
303.376	0.514	Blank	Blank	44.691	n/a	3	8	20	n/a	40	n/a	1	n/a	n/a	n/a	n/a	333.992	n/a
303.906	10.014	ITI	Fixation+	34.661	n/a	3	n/a	n/a	n/a	n/a	n/a	n/a	n/a	n/a	n/a	n/a	334.522	n/a
313.936	0.497	angry	Picture	34.147	n/a	3	9	1	n/a	41	62	2	n/a	n/a	n/a	n/a	344.552	BM03HAS.jpg
314.434	0.514	Blank	Blank	33.633	n/a	3	9	1	n/a	41	n/a	2	n/a	n/a	n/a	n/a	345.05	n/a
314.964	0.497	angry	Picture	33.119	n/a	3	9	2	n/a	42	52	2	n/a	n/a	n/a	n/a	345.58	AF21HAS.jpg
315.462	0.514	Blank	Blank	32.605	n/a	3	9	2	n/a	42	n/a	2	n/a	n/a	n/a	n/a	346.078	n/a
315.992	0.497	angry	Picture	32.091	n/a	3	9	3	n/a	43	44	2	n/a	n/a	n/a	n/a	346.608	AF05HAS.jpg
316.49	0.514	Blank	Blank	31.577	n/a	3	9	3	n/a	43	n/a	2	n/a	n/a	n/a	n/a	347.106	n/a
317.02	0.497	angry	Picture	31.063	n/a	3	9	4	n/a	44	53	2	n/a	n/a	n/a	n/a	347.636	BF22HAS.jpg
317.517	0.514	Blank	Blank	30.549	n/a	3	9	4	n/a	44	n/a	2	n/a	n/a	n/a	n/a	348.133	n/a
318.048	0.497	angry	Picture	30.035	n/a	3	9	5	n/a	45	54	2	n/a	n/a	n/a	n/a	348.664	AF23HAS.jpg
318.545	0.514	Blank	Blank	29.521	n/a	3	9	5	n/a	45	n/a	2	n/a	n/a	n/a	n/a	349.161	n/a
319.076	0.497	angry	Picture	29.007	n/a	3	9	6	n/a	46	68	2	n/a	n/a	n/a	n/a	349.692	AM09HAS.jpg
319.573	0.514	Blank	Blank	28.493	n/a	3	9	6	n/a	46	n/a	2	n/a	n/a	n/a	n/a	350.189	n/a
320.104	0.497	angry	Picture	27.98	n/a	3	9	7	n/a	47	64	2	n/a	n/a	n/a	n/a	350.72	BM05HAS.jpg
320.601	0.514	Blank	Blank	27.466	n/a	3	9	7	n/a	47	n/a	2	n/a	n/a	n/a	n/a	351.217	n/a
321.132	0.497	angry	Picture	26.952	n/a	3	9	8	n/a	48	59	2	n/a	n/a	n/a	n/a	351.748	AF31HAS.jpg
321.629	0.514	Blank	Blank	26.438	n/a	3	9	8	n/a	48	n/a	2	n/a	n/a	n/a	n/a	352.245	n/a
322.159	0.497	angry	Picture	25.924	n/a	3	9	9	n/a	49	41	2	n/a	n/a	n/a	n/a	352.775	AF01HAS.jpg
322.657	0.514	Blank	Blank	25.41	n/a	3	9	9	n/a	49	n/a	2	n/a	n/a	n/a	n/a	353.273	n/a
323.187	0.497	angry	Picture	24.896	n/a	3	9	10	n/a	50	73	2	n/a	n/a	n/a	n/a	353.803	AM21HAS.jpg
323.685	0.514	Blank	Blank	24.382	n/a	3	9	10	n/a	50	n/a	2	n/a	n/a	n/a	n/a	354.301	n/a
324.215	0.497	angry	Picture	23.868	n/a	3	9	11	n/a	51	65	2	n/a	n/a	n/a	n/a	354.831	BM06HAS.jpg
324.713	0.514	Blank	Blank	23.354	n/a	3	9	11	n/a	51	n/a	2	n/a	n/a	n/a	n/a	355.329	n/a
325.243	0.497	angry	Picture	22.84	n/a	3	9	12	n/a	52	56	2	n/a	n/a	n/a	n/a	355.859	AF26HAS.jpg
325.74	0.514	Blank	Blank	22.326	n/a	3	9	12	n/a	52	n/a	2	n/a	n/a	n/a	n/a	356.356	n/a
326.271	0.497	angry	Picture	21.812	n/a	3	9	13	n/a	53	45	2	n/a	n/a	n/a	n/a	356.887	BF07HAS.jpg
326.768	0.514	Blank	Blank	21.298	n/a	3	9	13	n/a	53	n/a	2	n/a	n/a	n/a	n/a	357.384	n/a
327.299	0.497	angry	Picture	20.784	n/a	3	9	14	n/a	54	78	2	n/a	n/a	n/a	n/a	357.915	BM26HAS.jpg
327.796	0.514	Blank	Blank	20.27	n/a	3	9	14	n/a	54	n/a	2	n/a	n/a	n/a	n/a	358.412	n/a
328.327	0.497	angry	Picture	19.757	n/a	3	9	15	n/a	55	50	2	n/a	n/a	n/a	n/a	358.943	AF18HAS.jpg
328.824	0.514	Blank	Blank	19.243	n/a	3	9	15	n/a	55	n/a	2	n/a	n/a	n/a	n/a	359.44	n/a
329.355	0.497	angry	Picture	18.729	n/a	3	9	16	n/a	56	47	2	n/a	n/a	n/a	n/a	359.971	BF11HAS.jpg
329.852	0.514	Blank	Blank	18.215	n/a	3	9	16	n/a	56	n/a	2	n/a	n/a	n/a	n/a	360.468	n/a
330.382	0.497	angry	Picture	17.701	n/a	3	9	17	n/a	57	77	2	n/a	n/a	n/a	n/a	360.998	BM25HAS.jpg
330.88	0.514	Blank	Blank	17.187	n/a	3	9	17	n/a	57	n/a	2	n/a	n/a	n/a	n/a	361.496	n/a
331.41	0.497	angry	Picture	16.673	n/a	3	9	18	n/a	58	57	2	n/a	n/a	n/a	n/a	362.026	BF28HAS.jpg
331.908	0.514	Blank	Blank	16.159	n/a	3	9	18	n/a	58	n/a	2	n/a	n/a	n/a	n/a	362.524	n/a
332.438	0.497	angry	Picture	15.645	n/a	3	9	19	n/a	59	61	2	n/a	n/a	n/a	n/a	363.054	AM01HAS.jpg
332.936	0.514	Blank	Blank	15.131	n/a	3	9	19	n/a	59	n/a	2	n/a	n/a	n/a	n/a	363.552	n/a
333.466	0.497	angry	Picture	14.617	n/a	3	9	20	n/a	60	79	2	n/a	n/a	n/a	n/a	364.082	BM28HAS.jpg
333.964	0.514	Blank	Blank	14.103	n/a	3	9	20	n/a	60	n/a	2	n/a	n/a	n/a	n/a	364.579	n/a
334.494	10.014	ITI	Fixation+	4.073	n/a	3	n/a	n/a	n/a	n/a	n/a	n/a	n/a	n/a	n/a	n/a	365.11	n/a
348.581	n/a	ConfirmRating	Rate	n/a	4.062	3	n/a	n/a	0	n/a	n/a	n/a	2	Angry	50	50	379.197	n/a
351.01	n/a	ConfirmRating	Rate	n/a	2.421	3	n/a	n/a	1	n/a	n/a	n/a	3	Angry	0	49	381.626	n/a
351.04	10.014	ITI	Fixation+	96.125	n/a	4	n/a	n/a	n/a	n/a	n/a	n/a	n/a	n/a	n/a	n/a	381.656	n/a
361.07	0.497	happy	Picture	95.611	n/a	4	10	1	n/a	61	119	3	n/a	n/a	n/a	n/a	391.686	BM28ANS.jpg
361.567	0.514	Blank	Blank	95.097	n/a	4	10	1	n/a	61	n/a	3	n/a	n/a	n/a	n/a	392.183	n/a
362.098	0.497	happy	Picture	94.583	n/a	4	10	2	n/a	62	100	3	n/a	n/a	n/a	n/a	392.714	AF32ANS.jpg
362.595	0.514	Blank	Blank	94.07	n/a	4	10	2	n/a	62	n/a	3	n/a	n/a	n/a	n/a	393.211	n/a
363.126	0.497	happy	Picture	93.555	n/a	4	10	3	n/a	63	118	3	n/a	n/a	n/a	n/a	393.742	BM26ANS.jpg
363.623	0.514	Blank	Blank	93.042	n/a	4	10	3	n/a	63	n/a	3	n/a	n/a	n/a	n/a	394.239	n/a
364.154	0.497	happy	Picture	92.528	n/a	4	10	4	n/a	64	89	3	n/a	n/a	n/a	n/a	394.77	AF17ANS.jpg
364.651	0.514	Blank	Blank	92.014	n/a	4	10	4	n/a	64	n/a	3	n/a	n/a	n/a	n/a	395.267	n/a
365.181	0.497	happy	Picture	91.5	n/a	4	10	5	n/a	65	116	3	n/a	n/a	n/a	n/a	395.797	BM24ANS.jpg
365.679	0.514	Blank	Blank	90.986	n/a	4	10	5	n/a	65	n/a	3	n/a	n/a	n/a	n/a	396.295	n/a
366.209	0.497	happy	Picture	90.472	n/a	4	10	6	n/a	66	105	3	n/a	n/a	n/a	n/a	396.825	BM06ANS.jpg
366.707	0.514	Blank	Blank	89.958	n/a	4	10	6	n/a	66	n/a	3	n/a	n/a	n/a	n/a	397.323	n/a
367.237	0.497	happy	Picture	89.444	n/a	4	10	7	n/a	67	106	3	n/a	n/a	n/a	n/a	397.853	AM07ANS.jpg
367.735	0.514	Blank	Blank	88.93	n/a	4	10	7	n/a	67	n/a	3	n/a	n/a	n/a	n/a	398.351	n/a
368.265	0.497	happy	Picture	88.416	n/a	4	10	8	n/a	68	94	3	n/a	n/a	n/a	n/a	398.881	AF23ANS.jpg
368.762	0.514	Blank	Blank	87.902	n/a	4	10	8	n/a	68	n/a	3	n/a	n/a	n/a	n/a	399.378	n/a
369.293	0.497	happy	Picture	87.388	n/a	4	10	9	n/a	69	117	3	n/a	n/a	n/a	n/a	399.909	BM25ANS.jpg
369.79	0.514	Blank	Blank	86.874	n/a	4	10	9	n/a	69	n/a	3	n/a	n/a	n/a	n/a	400.406	n/a
370.321	0.497	happy	Picture	86.36	n/a	4	10	10	n/a	70	90	3	n/a	n/a	n/a	n/a	400.937	AF18ANS.jpg
370.818	0.514	Blank	Blank	85.846	n/a	4	10	10	n/a	70	n/a	3	n/a	n/a	n/a	n/a	401.434	n/a
371.349	0.497	happy	Picture	85.332	n/a	4	10	11	n/a	71	83	3	n/a	n/a	n/a	n/a	401.965	BF04ANS.jpg
371.846	0.514	Blank	Blank	84.819	n/a	4	10	11	n/a	71	n/a	3	n/a	n/a	n/a	n/a	402.462	n/a
372.377	0.497	happy	Picture	84.305	n/a	4	10	12	n/a	72	112	3	n/a	n/a	n/a	n/a	402.993	AM14ANS.jpg
372.874	0.514	Blank	Blank	83.791	n/a	4	10	12	n/a	72	n/a	3	n/a	n/a	n/a	n/a	403.49	n/a
373.405	0.497	happy	Picture	83.277	n/a	4	10	13	n/a	73	102	3	n/a	n/a	n/a	n/a	404.021	BM03ANS.jpg
373.902	0.514	Blank	Blank	82.763	n/a	4	10	13	n/a	73	n/a	3	n/a	n/a	n/a	n/a	404.518	n/a
374.433	0.497	happy	Picture	82.249	n/a	4	10	14	n/a	74	95	3	n/a	n/a	n/a	n/a	405.048	AF25ANS.jpg
374.93	0.514	Blank	Blank	81.735	n/a	4	10	14	n/a	74	n/a	3	n/a	n/a	n/a	n/a	405.546	n/a
375.46	0.497	happy	Picture	81.221	n/a	4	10	15	n/a	75	113	3	n/a	n/a	n/a	n/a	406.076	AM21ANS.jpg
375.958	0.514	Blank	Blank	80.707	n/a	4	10	15	n/a	75	n/a	3	n/a	n/a	n/a	n/a	406.574	n/a
376.488	0.497	happy	Picture	80.193	n/a	4	10	16	n/a	76	88	3	n/a	n/a	n/a	n/a	407.104	AF14ANS.jpg
376.986	0.514	Blank	Blank	79.679	n/a	4	10	16	n/a	76	n/a	3	n/a	n/a	n/a	n/a	407.602	n/a
377.516	0.497	happy	Picture	79.165	n/a	4	10	17	n/a	77	93	3	n/a	n/a	n/a	n/a	408.132	BF22ANS.jpg
378.014	0.514	Blank	Blank	78.651	n/a	4	10	17	n/a	77	n/a	3	n/a	n/a	n/a	n/a	408.63	n/a
378.544	0.497	happy	Picture	78.137	n/a	4	10	18	n/a	78	86	3	n/a	n/a	n/a	n/a	409.16	AF09ANS.jpg
379.041	0.514	Blank	Blank	77.623	n/a	4	10	18	n/a	78	n/a	3	n/a	n/a	n/a	n/a	409.657	n/a
379.572	0.497	happy	Picture	77.109	n/a	4	10	19	n/a	79	92	3	n/a	n/a	n/a	n/a	410.188	AF21ANS.jpg
380.069	0.514	Blank	Blank	76.595	n/a	4	10	19	n/a	79	n/a	3	n/a	n/a	n/a	n/a	410.685	n/a
380.6	0.497	happy	Picture	76.082	n/a	4	10	20	n/a	80	84	3	n/a	n/a	n/a	n/a	411.216	AF05ANS.jpg
381.097	0.514	Blank	Blank	75.567	n/a	4	10	20	n/a	80	n/a	3	n/a	n/a	n/a	n/a	411.713	n/a
381.628	10.014	ITI	Fixation+	65.537	n/a	4	n/a	n/a	n/a	n/a	n/a	n/a	n/a	n/a	n/a	n/a	412.244	n/a
391.658	0.497	neutral	Picture	65.023	n/a	4	11	1	n/a	81	4	1	n/a	n/a	n/a	n/a	422.274	AF05NES.jpg
392.155	0.514	Blank	Blank	64.509	n/a	4	11	1	n/a	81	n/a	1	n/a	n/a	n/a	n/a	422.771	n/a
392.686	0.497	neutral	Picture	63.995	n/a	4	11	2	n/a	82	14	1	n/a	n/a	n/a	n/a	423.302	AF23NES.jpg
393.183	0.514	Blank	Blank	63.482	n/a	4	11	2	n/a	82	n/a	1	n/a	n/a	n/a	n/a	423.799	n/a
393.714	0.497	neutral	Picture	62.968	n/a	4	11	3	n/a	83	19	1	n/a	n/a	n/a	n/a	424.33	AF31NES.jpg
394.211	0.514	Blank	Blank	62.454	n/a	4	11	3	n/a	83	n/a	1	n/a	n/a	n/a	n/a	424.827	n/a
394.742	0.497	neutral	Picture	61.94	n/a	4	11	4	n/a	84	8	1	n/a	n/a	n/a	n/a	425.358	AF14NES.jpg
395.239	0.514	Blank	Blank	61.426	n/a	4	11	4	n/a	84	n/a	1	n/a	n/a	n/a	n/a	425.855	n/a
395.769	0.497	neutral	Picture	60.912	n/a	4	11	5	n/a	85	25	1	n/a	n/a	n/a	n/a	426.385	BM06NES.jpg
396.267	0.514	Blank	Blank	60.398	n/a	4	11	5	n/a	85	n/a	1	n/a	n/a	n/a	n/a	426.883	n/a
396.797	0.497	neutral	Picture	59.884	n/a	4	11	6	n/a	86	9	1	n/a	n/a	n/a	n/a	427.413	AF17NES.jpg
397.295	0.514	Blank	Blank	59.37	n/a	4	11	6	n/a	86	n/a	1	n/a	n/a	n/a	n/a	427.911	n/a
397.825	0.497	neutral	Picture	58.856	n/a	4	11	7	n/a	87	2	1	n/a	n/a	n/a	n/a	428.441	AF03NES.jpg
398.322	0.514	Blank	Blank	58.342	n/a	4	11	7	n/a	87	n/a	1	n/a	n/a	n/a	n/a	428.938	n/a
398.853	0.497	neutral	Picture	57.828	n/a	4	11	8	n/a	88	17	1	n/a	n/a	n/a	n/a	429.469	BF28NES.jpg
399.35	0.514	Blank	Blank	57.314	n/a	4	11	8	n/a	88	n/a	1	n/a	n/a	n/a	n/a	429.966	n/a
399.881	0.497	neutral	Picture	56.8	n/a	4	11	9	n/a	89	6	1	n/a	n/a	n/a	n/a	430.497	AF09NES.jpg
400.378	0.514	Blank	Blank	56.286	n/a	4	11	9	n/a	89	n/a	1	n/a	n/a	n/a	n/a	430.994	n/a
400.909	0.497	neutral	Picture	55.772	n/a	4	11	10	n/a	90	12	1	n/a	n/a	n/a	n/a	431.525	AF21NES.jpg
401.406	0.514	Blank	Blank	55.259	n/a	4	11	10	n/a	90	n/a	1	n/a	n/a	n/a	n/a	432.022	n/a
401.937	0.497	neutral	Picture	54.744	n/a	4	11	11	n/a	91	24	1	n/a	n/a	n/a	n/a	432.553	BM05NES.jpg
402.434	0.514	Blank	Blank	54.231	n/a	4	11	11	n/a	91	n/a	1	n/a	n/a	n/a	n/a	433.05	n/a
402.965	0.497	neutral	Picture	53.717	n/a	4	11	12	n/a	92	34	1	n/a	n/a	n/a	n/a	433.581	AM22NES.jpg
403.462	0.514	Blank	Blank	53.203	n/a	4	11	12	n/a	92	n/a	1	n/a	n/a	n/a	n/a	434.078	n/a
403.993	0.497	neutral	Picture	52.689	n/a	4	11	13	n/a	93	23	1	n/a	n/a	n/a	n/a	434.608	AM04NES.jpg
404.49	0.514	Blank	Blank	52.175	n/a	4	11	13	n/a	93	n/a	1	n/a	n/a	n/a	n/a	435.106	n/a
405.02	0.497	neutral	Picture	51.661	n/a	4	11	14	n/a	94	15	1	n/a	n/a	n/a	n/a	435.636	AF25NES.jpg
405.518	0.514	Blank	Blank	51.147	n/a	4	11	14	n/a	94	n/a	1	n/a	n/a	n/a	n/a	436.134	n/a
406.048	0.497	neutral	Picture	50.633	n/a	4	11	15	n/a	95	37	1	n/a	n/a	n/a	n/a	436.664	BM25NES.jpg
406.546	0.514	Blank	Blank	50.119	n/a	4	11	15	n/a	95	n/a	1	n/a	n/a	n/a	n/a	437.162	n/a
407.076	0.497	neutral	Picture	49.605	n/a	4	11	16	n/a	96	32	1	n/a	n/a	n/a	n/a	437.692	AM14NES.jpg
407.574	0.514	Blank	Blank	49.091	n/a	4	11	16	n/a	96	n/a	1	n/a	n/a	n/a	n/a	438.19	n/a
408.104	0.497	neutral	Picture	48.577	n/a	4	11	17	n/a	97	3	1	n/a	n/a	n/a	n/a	438.72	BF04NES.jpg
408.601	0.514	Blank	Blank	48.063	n/a	4	11	17	n/a	97	n/a	1	n/a	n/a	n/a	n/a	439.217	n/a
409.132	0.497	neutral	Picture	47.549	n/a	4	11	18	n/a	98	16	1	n/a	n/a	n/a	n/a	439.748	AF26NES.jpg
409.629	0.514	Blank	Blank	47.035	n/a	4	11	18	n/a	98	n/a	1	n/a	n/a	n/a	n/a	440.245	n/a
410.16	0.497	neutral	Picture	46.521	n/a	4	11	19	n/a	99	27	1	n/a	n/a	n/a	n/a	440.776	BM08NES.jpg
410.657	0.514	Blank	Blank	46.008	n/a	4	11	19	n/a	99	n/a	1	n/a	n/a	n/a	n/a	441.273	n/a
411.188	0.497	neutral	Picture	45.493	n/a	4	11	20	n/a	100	28	1	n/a	n/a	n/a	n/a	441.804	AM09NES.jpg
411.685	0.514	Blank	Blank	44.98	n/a	4	11	20	n/a	100	n/a	1	n/a	n/a	n/a	n/a	442.301	n/a
412.216	10.014	ITI	Fixation+	34.949	n/a	4	n/a	n/a	n/a	n/a	n/a	n/a	n/a	n/a	n/a	n/a	442.832	n/a
422.246	0.497	happy	Picture	34.435	n/a	4	12	1	n/a	101	81	3	n/a	n/a	n/a	n/a	452.862	AF01ANS.jpg
422.743	0.514	Blank	Blank	33.921	n/a	4	12	1	n/a	101	n/a	3	n/a	n/a	n/a	n/a	453.359	n/a
423.274	0.497	happy	Picture	33.408	n/a	4	12	2	n/a	102	120	3	n/a	n/a	n/a	n/a	453.89	AM35ANS.jpg
423.771	0.514	Blank	Blank	32.894	n/a	4	12	2	n/a	102	n/a	3	n/a	n/a	n/a	n/a	454.387	n/a
424.302	0.497	happy	Picture	32.38	n/a	4	12	3	n/a	103	114	3	n/a	n/a	n/a	n/a	454.918	AM22ANS.jpg
424.799	0.514	Blank	Blank	31.866	n/a	4	12	3	n/a	103	n/a	3	n/a	n/a	n/a	n/a	455.415	n/a
425.329	0.497	happy	Picture	31.352	n/a	4	12	4	n/a	104	109	3	n/a	n/a	n/a	n/a	455.945	AM10ANS.jpg
425.827	0.514	Blank	Blank	30.838	n/a	4	12	4	n/a	104	n/a	3	n/a	n/a	n/a	n/a	456.443	n/a
426.357	0.497	happy	Picture	30.324	n/a	4	12	5	n/a	105	96	3	n/a	n/a	n/a	n/a	456.973	AF26ANS.jpg
426.855	0.514	Blank	Blank	29.81	n/a	4	12	5	n/a	105	n/a	3	n/a	n/a	n/a	n/a	457.471	n/a
427.385	0.497	happy	Picture	29.296	n/a	4	12	6	n/a	106	82	3	n/a	n/a	n/a	n/a	458.001	AF03ANS.jpg
427.883	0.514	Blank	Blank	28.782	n/a	4	12	6	n/a	106	n/a	3	n/a	n/a	n/a	n/a	458.499	n/a
428.413	0.497	happy	Picture	28.268	n/a	4	12	7	n/a	107	97	3	n/a	n/a	n/a	n/a	459.029	BF28ANS.jpg
428.911	0.514	Blank	Blank	27.754	n/a	4	12	7	n/a	107	n/a	3	n/a	n/a	n/a	n/a	459.526	n/a
429.441	0.497	happy	Picture	27.24	n/a	4	12	8	n/a	108	115	3	n/a	n/a	n/a	n/a	460.057	AM23ANS.jpg
429.938	0.514	Blank	Blank	26.726	n/a	4	12	8	n/a	108	n/a	3	n/a	n/a	n/a	n/a	460.554	n/a
430.469	0.497	happy	Picture	26.212	n/a	4	12	9	n/a	109	91	3	n/a	n/a	n/a	n/a	461.085	AF20ANS.jpg
430.966	0.514	Blank	Blank	25.698	n/a	4	12	9	n/a	109	n/a	3	n/a	n/a	n/a	n/a	461.582	n/a
431.497	0.497	happy	Picture	25.184	n/a	4	12	10	n/a	110	87	3	n/a	n/a	n/a	n/a	462.113	BF11ANS.jpg
431.994	0.514	Blank	Blank	24.671	n/a	4	12	10	n/a	110	n/a	3	n/a	n/a	n/a	n/a	462.61	n/a
432.525	0.497	happy	Picture	24.157	n/a	4	12	11	n/a	111	85	3	n/a	n/a	n/a	n/a	463.141	BF07ANS.jpg
433.022	0.514	Blank	Blank	23.643	n/a	4	12	11	n/a	111	n/a	3	n/a	n/a	n/a	n/a	463.638	n/a
433.553	0.497	happy	Picture	23.129	n/a	4	12	12	n/a	112	110	3	n/a	n/a	n/a	n/a	464.168	AM11ANS.jpg
434.05	0.514	Blank	Blank	22.615	n/a	4	12	12	n/a	112	n/a	3	n/a	n/a	n/a	n/a	464.666	n/a
434.58	0.497	happy	Picture	22.101	n/a	4	12	13	n/a	113	111	3	n/a	n/a	n/a	n/a	465.196	BM12ANS.jpg
435.078	0.514	Blank	Blank	21.587	n/a	4	12	13	n/a	113	n/a	3	n/a	n/a	n/a	n/a	465.694	n/a
435.608	0.497	happy	Picture	21.073	n/a	4	12	14	n/a	114	103	3	n/a	n/a	n/a	n/a	466.224	AM04ANS.jpg
436.106	0.514	Blank	Blank	20.559	n/a	4	12	14	n/a	114	n/a	3	n/a	n/a	n/a	n/a	466.722	n/a
436.636	0.497	happy	Picture	20.045	n/a	4	12	15	n/a	115	101	3	n/a	n/a	n/a	n/a	467.252	AM01ANS.jpg
437.134	0.514	Blank	Blank	19.531	n/a	4	12	15	n/a	115	n/a	3	n/a	n/a	n/a	n/a	467.75	n/a
437.664	0.497	happy	Picture	19.017	n/a	4	12	16	n/a	116	104	3	n/a	n/a	n/a	n/a	468.28	BM05ANS.jpg
438.161	0.514	Blank	Blank	18.503	n/a	4	12	16	n/a	116	n/a	3	n/a	n/a	n/a	n/a	468.777	n/a
438.692	0.497	happy	Picture	17.989	n/a	4	12	17	n/a	117	107	3	n/a	n/a	n/a	n/a	469.308	BM08ANS.jpg
439.189	0.514	Blank	Blank	17.475	n/a	4	12	17	n/a	117	n/a	3	n/a	n/a	n/a	n/a	469.805	n/a
439.72	0.497	happy	Picture	16.961	n/a	4	12	18	n/a	118	98	3	n/a	n/a	n/a	n/a	470.336	BF29ANS.jpg
440.217	0.514	Blank	Blank	16.447	n/a	4	12	18	n/a	118	n/a	3	n/a	n/a	n/a	n/a	470.833	n/a
440.748	0.497	happy	Picture	15.933	n/a	4	12	19	n/a	119	99	3	n/a	n/a	n/a	n/a	471.364	AF31ANS.jpg
441.245	0.514	Blank	Blank	15.419	n/a	4	12	19	n/a	119	n/a	3	n/a	n/a	n/a	n/a	471.861	n/a
441.776	0.497	happy	Picture	14.906	n/a	4	12	20	n/a	120	108	3	n/a	n/a	n/a	n/a	472.392	AM09ANS.jpg
442.273	0.514	Blank	Blank	14.392	n/a	4	12	20	n/a	120	n/a	3	n/a	n/a	n/a	n/a	472.889	n/a
442.804	10.014	ITI	Fixation+	4.361	n/a	4	n/a	n/a	n/a	n/a	n/a	n/a	n/a	n/a	n/a	n/a	473.42	n/a
457.179	n/a	ConfirmRating	Rate	n/a	4.36	4	n/a	n/a	0	n/a	n/a	n/a	2	Happy	63	51	487.795	n/a
460.216	n/a	ConfirmRating	Rate	n/a	3.017	4	n/a	n/a	1	n/a	n/a	n/a	3	Happy	0	49	490.832	n/a
