onset	duration	trial_type	event_type	trial_number	condition	picture_number	time_until_response	response_time	unpleasantness_rating	onset_uncorrected
0.012	4.161	ITI	Fixation+	0	Pain	n/a	12.787	n/a	n/a	22.923
4.19	3.498	Pic2	Picture	0	Pain	7	9.272	n/a	n/a	27.101
7.688	2.006	Blank	Blank	0	Pain	n/a	7.266	n/a	n/a	30.599
16.96	n/a	ConfirmRating	Rate	0	Pain	7	n/a	6.749	57	39.871
16.989	5.886	ITI	Fixation+	1	Pain	n/a	10.389	n/a	n/a	39.9
22.891	3.498	Pic2	Picture	1	Pain	15	6.875	n/a	n/a	45.802
26.389	2.006	Blank	Blank	1	Pain	n/a	4.869	n/a	n/a	49.3
33.263	n/a	ConfirmRating	Rate	1	Pain	15	n/a	4.352	60	56.175
33.285	5.338	ITI	Fixation+	2	No_Pain	n/a	11.449	n/a	n/a	56.197
38.64	3.498	Pic2	Picture	2	No_Pain	34	7.934	n/a	n/a	61.551
42.139	2.006	Blank	Blank	2	No_Pain	n/a	5.928	n/a	n/a	65.05
50.073	n/a	ConfirmRating	Rate	2	No_Pain	34	n/a	5.412	0	72.984
50.096	5.57	ITI	Fixation+	3	No_Pain	n/a	8.62	n/a	n/a	73.007
55.683	3.498	Pic2	Picture	3	No_Pain	35	5.105	n/a	n/a	78.594
59.181	2.006	Blank	Blank	3	No_Pain	n/a	3.099	n/a	n/a	82.093
64.287	n/a	ConfirmRating	Rate	3	No_Pain	35	n/a	2.583	1	87.198
64.304	4.758	ITI	Fixation+	4	Pain	n/a	11.106	n/a	n/a	87.215
69.079	3.498	Pic2	Picture	4	Pain	6	7.592	n/a	n/a	91.99
72.577	2.006	Blank	Blank	4	Pain	n/a	5.585	n/a	n/a	95.488
80.169	n/a	ConfirmRating	Rate	4	Pain	6	n/a	5.069	80	103.08
80.187	4.509	ITI	Fixation+	5	No_Pain	n/a	7.966	n/a	n/a	103.098
84.713	3.498	Pic2	Picture	5	No_Pain	29	4.451	n/a	n/a	107.624
88.211	2.006	Blank	Blank	5	No_Pain	n/a	2.445	n/a	n/a	111.122
92.662	n/a	ConfirmRating	Rate	5	No_Pain	29	n/a	1.929	0	115.573
92.687	4.857	ITI	Fixation+	6	No_Pain	n/a	7.031	n/a	n/a	115.598
97.561	3.498	Pic2	Picture	6	No_Pain	39	3.517	n/a	n/a	120.472
101.059	2.006	Blank	Blank	6	No_Pain	n/a	1.511	n/a	n/a	123.971
104.576	n/a	ConfirmRating	Rate	6	No_Pain	39	n/a	0.994	0	127.487
104.607	5.338	ITI	Fixation+	7	Pain	n/a	10.374	n/a	n/a	127.518
109.962	3.498	Pic2	Picture	7	Pain	9	6.859	n/a	n/a	132.873
113.46	2.006	Blank	Blank	7	Pain	n/a	4.853	n/a	n/a	136.371
120.32	n/a	ConfirmRating	Rate	7	Pain	9	n/a	4.336	73	143.231
120.34	5.919	ITI	Fixation+	8	Pain	n/a	9.727	n/a	n/a	143.252
126.276	3.498	Pic2	Picture	8	Pain	14	6.212	n/a	n/a	149.187
129.774	2.006	Blank	Blank	8	Pain	n/a	4.206	n/a	n/a	152.685
135.986	n/a	ConfirmRating	Rate	8	Pain	14	n/a	3.689	62	158.897
136.007	5.09	ITI	Fixation+	9	No_Pain	n/a	7.354	n/a	n/a	158.918
141.114	3.498	Pic2	Picture	9	No_Pain	27	3.84	n/a	n/a	164.025
144.612	2.006	Blank	Blank	9	No_Pain	n/a	1.834	n/a	n/a	167.523
148.451	n/a	ConfirmRating	Rate	9	No_Pain	27	n/a	1.317	0	171.362
148.475	4.145	ITI	Fixation+	10	Pain	n/a	9.615	n/a	n/a	171.386
152.636	3.498	Pic2	Picture	10	Pain	20	6.1	n/a	n/a	175.547
156.134	2.006	Blank	Blank	10	Pain	n/a	4.094	n/a	n/a	179.045
162.234	n/a	ConfirmRating	Rate	10	Pain	20	n/a	3.578	60	185.145
162.252	5.239	ITI	Fixation+	11	No_Pain	n/a	7.959	n/a	n/a	185.163
167.507	3.498	Pic2	Picture	11	No_Pain	40	4.445	n/a	n/a	190.418
171.005	2.006	Blank	Blank	11	No_Pain	n/a	2.439	n/a	n/a	193.916
175.45	n/a	ConfirmRating	Rate	11	No_Pain	40	n/a	1.922	0	198.361
175.481	4.758	ITI	Fixation+	12	No_Pain	n/a	7.031	n/a	n/a	198.393
180.256	3.498	Pic2	Picture	12	No_Pain	33	3.516	n/a	n/a	203.167
183.754	2.006	Blank	Blank	12	No_Pain	n/a	1.51	n/a	n/a	206.665
187.271	n/a	ConfirmRating	Rate	12	No_Pain	33	n/a	0.994	0	210.182
187.302	5.504	ITI	Fixation+	13	Pain	n/a	10.648	n/a	n/a	210.213
192.823	3.498	Pic2	Picture	13	Pain	18	7.133	n/a	n/a	215.734
196.321	2.006	Blank	Blank	13	Pain	n/a	5.127	n/a	n/a	219.232
203.454	n/a	ConfirmRating	Rate	13	Pain	18	n/a	4.611	67	226.365
203.483	4.062	ITI	Fixation+	14	No_Pain	n/a	7.101	n/a	n/a	226.394
207.561	3.498	Pic2	Picture	14	No_Pain	31	3.587	n/a	n/a	230.472
211.059	2.006	Blank	Blank	14	No_Pain	n/a	1.581	n/a	n/a	233.97
214.646	n/a	ConfirmRating	Rate	14	No_Pain	31	n/a	1.064	0	237.557
214.674	4.045	ITI	Fixation+	15	Pain	n/a	10.063	n/a	n/a	237.585
218.735	3.498	Pic2	Picture	15	Pain	17	6.548	n/a	n/a	241.647
222.233	2.006	Blank	Blank	15	Pain	n/a	4.542	n/a	n/a	245.145
228.782	n/a	ConfirmRating	Rate	15	Pain	17	n/a	4.025	94	251.693
228.799	4.244	ITI	Fixation+	16	Pain	n/a	10.243	n/a	n/a	251.71
233.059	3.498	Pic2	Picture	16	Pain	11	6.728	n/a	n/a	255.97
236.557	2.006	Blank	Blank	16	Pain	n/a	4.722	n/a	n/a	259.469
243.286	n/a	ConfirmRating	Rate	16	Pain	11	n/a	4.205	89	266.197
243.305	5.869	ITI	Fixation+	17	No_Pain	n/a	8.186	n/a	n/a	266.216
249.191	3.498	Pic2	Picture	17	No_Pain	36	4.672	n/a	n/a	272.102
252.689	2.006	Blank	Blank	17	No_Pain	n/a	2.666	n/a	n/a	275.6
257.36	n/a	ConfirmRating	Rate	17	No_Pain	36	n/a	2.149	0	280.271
257.38	4.924	ITI	Fixation+	18	Pain	n/a	9.792	n/a	n/a	280.291
262.321	3.498	Pic2	Picture	18	Pain	10	6.277	n/a	n/a	285.232
265.819	2.006	Blank	Blank	18	Pain	n/a	4.271	n/a	n/a	288.73
272.096	n/a	ConfirmRating	Rate	18	Pain	10	n/a	3.755	71	295.007
272.119	5.222	ITI	Fixation+	19	No_Pain	n/a	7.195	n/a	n/a	295.03
277.358	3.498	Pic2	Picture	19	No_Pain	23	3.68	n/a	n/a	300.269
280.856	2.006	Blank	Blank	19	No_Pain	n/a	1.674	n/a	n/a	303.767
284.536	n/a	ConfirmRating	Rate	19	No_Pain	23	n/a	1.157	0	307.447
284.553	15.004	Rest	n/a	19	n/a	n/a	-15.021	n/a	n/a	307.464
299.573	5.488	ITI	Fixation+	20	Pain	n/a	12.327	n/a	n/a	322.484
305.078	3.498	Pic2	Picture	20	Pain	1	8.813	n/a	n/a	327.989
308.576	2.006	Blank	Blank	20	Pain	n/a	6.807	n/a	n/a	331.487
317.388	n/a	ConfirmRating	Rate	20	Pain	1	n/a	6.29	82	340.299
317.412	4.294	ITI	Fixation+	21	Pain	n/a	9.758	n/a	n/a	340.323
321.723	3.498	Pic2	Picture	21	Pain	8	6.243	n/a	n/a	344.634
325.221	2.006	Blank	Blank	21	Pain	n/a	4.237	n/a	n/a	348.132
331.464	n/a	ConfirmRating	Rate	21	Pain	8	n/a	3.721	86	354.375
331.487	4.443	ITI	Fixation+	22	No_Pain	n/a	7.03	n/a	n/a	354.399
335.947	3.498	Pic2	Picture	22	No_Pain	22	3.515	n/a	n/a	358.858
339.445	2.006	Blank	Blank	22	No_Pain	n/a	1.509	n/a	n/a	362.356
342.961	n/a	ConfirmRating	Rate	22	No_Pain	22	n/a	0.993	0	365.872
342.993	5.305	ITI	Fixation+	23	Pain	n/a	8.472	n/a	n/a	365.904
348.315	3.498	Pic2	Picture	23	Pain	16	4.957	n/a	n/a	371.226
351.813	2.006	Blank	Blank	23	Pain	n/a	2.952	n/a	n/a	374.724
356.771	n/a	ConfirmRating	Rate	23	Pain	16	n/a	2.435	74	379.682
356.803	5.952	ITI	Fixation+	24	No_Pain	n/a	7.223	n/a	n/a	379.714
362.772	3.498	Pic2	Picture	24	No_Pain	38	3.709	n/a	n/a	385.683
366.27	2.006	Blank	Blank	24	No_Pain	n/a	1.702	n/a	n/a	389.181
369.978	n/a	ConfirmRating	Rate	24	No_Pain	38	n/a	1.186	0	392.889
370.0	4.675	ITI	Fixation+	25	No_Pain	n/a	8.249	n/a	n/a	392.911
374.692	3.498	Pic2	Picture	25	No_Pain	21	4.734	n/a	n/a	397.603
378.19	2.006	Blank	Blank	25	No_Pain	n/a	2.728	n/a	n/a	401.101
382.924	n/a	ConfirmRating	Rate	25	No_Pain	21	n/a	2.212	0	405.835
382.948	5.471	ITI	Fixation+	26	Pain	n/a	9.732	n/a	n/a	405.859
388.435	3.498	Pic2	Picture	26	Pain	5	6.217	n/a	n/a	411.346
391.934	2.006	Blank	Blank	26	Pain	n/a	4.211	n/a	n/a	414.845
398.151	n/a	ConfirmRating	Rate	26	Pain	5	n/a	3.694	75	421.062
398.184	4.543	ITI	Fixation+	27	No_Pain	n/a	7.688	n/a	n/a	421.095
402.743	3.498	Pic2	Picture	27	No_Pain	32	4.173	n/a	n/a	425.654
406.241	2.006	Blank	Blank	27	No_Pain	n/a	2.168	n/a	n/a	429.152
410.415	n/a	ConfirmRating	Rate	27	No_Pain	32	n/a	1.651	0	433.326
410.435	4.493	ITI	Fixation+	28	Pain	n/a	10.936	n/a	n/a	433.346
414.945	3.498	Pic2	Picture	28	Pain	13	7.421	n/a	n/a	437.856
418.443	2.006	Blank	Blank	28	Pain	n/a	5.415	n/a	n/a	441.354
425.864	n/a	ConfirmRating	Rate	28	Pain	13	n/a	4.899	77	448.775
425.887	4.559	ITI	Fixation+	29	No_Pain	n/a	8.472	n/a	n/a	448.798
430.463	3.498	Pic2	Picture	29	No_Pain	28	4.957	n/a	n/a	453.374
433.961	2.006	Blank	Blank	29	No_Pain	n/a	2.951	n/a	n/a	456.872
438.918	n/a	ConfirmRating	Rate	29	No_Pain	28	n/a	2.435	0	461.829
438.951	4.029	ITI	Fixation+	30	Pain	n/a	8.26	n/a	n/a	461.862
442.996	3.498	Pic2	Picture	30	Pain	4	4.745	n/a	n/a	465.907
446.494	2.006	Blank	Blank	30	Pain	n/a	2.74	n/a	n/a	469.405
451.24	n/a	ConfirmRating	Rate	30	Pain	4	n/a	2.223	90	474.151
451.269	5.736	ITI	Fixation+	31	No_Pain	n/a	7.37	n/a	n/a	474.18
457.022	3.498	Pic2	Picture	31	No_Pain	30	3.856	n/a	n/a	479.933
460.52	2.006	Blank	Blank	31	No_Pain	n/a	1.85	n/a	n/a	483.431
464.376	n/a	ConfirmRating	Rate	31	No_Pain	30	n/a	1.333	0	487.287
464.399	5.255	ITI	Fixation+	32	Pain	n/a	9.078	n/a	n/a	487.31
469.671	3.498	Pic2	Picture	32	Pain	3	5.564	n/a	n/a	492.582
473.169	2.006	Blank	Blank	32	Pain	n/a	3.558	n/a	n/a	496.08
478.733	n/a	ConfirmRating	Rate	32	Pain	3	n/a	3.041	80	501.644
478.756	5.62	ITI	Fixation+	33	Pain	n/a	12.279	n/a	n/a	501.668
484.393	3.498	Pic2	Picture	33	Pain	12	8.765	n/a	n/a	507.304
487.891	2.006	Blank	Blank	33	Pain	n/a	6.759	n/a	n/a	510.802
496.656	n/a	ConfirmRating	Rate	33	Pain	12	n/a	6.242	87	519.567
496.678	4.095	ITI	Fixation+	34	No_Pain	n/a	7.215	n/a	n/a	519.589
500.79	3.498	Pic2	Picture	34	No_Pain	26	3.7	n/a	n/a	523.701
504.288	2.006	Blank	Blank	34	No_Pain	n/a	1.694	n/a	n/a	527.199
507.988	n/a	ConfirmRating	Rate	34	No_Pain	26	n/a	1.177	1	530.899
508.018	5.073	ITI	Fixation+	35	Pain	n/a	8.729	n/a	n/a	530.929
513.108	3.498	Pic2	Picture	35	Pain	2	5.215	n/a	n/a	536.019
516.606	2.006	Blank	Blank	35	Pain	n/a	3.209	n/a	n/a	539.517
521.82	n/a	ConfirmRating	Rate	35	Pain	2	n/a	2.692	90	544.731
521.845	4.476	ITI	Fixation+	36	No_Pain	n/a	9.283	n/a	n/a	544.756
526.337	3.498	Pic2	Picture	36	No_Pain	37	5.769	n/a	n/a	549.249
529.836	2.006	Blank	Blank	36	No_Pain	n/a	3.763	n/a	n/a	552.747
535.604	n/a	ConfirmRating	Rate	36	No_Pain	37	n/a	3.246	0	558.515
535.621	5.819	ITI	Fixation+	37	Pain	n/a	10.699	n/a	n/a	558.533
541.457	3.498	Pic2	Picture	37	Pain	19	7.185	n/a	n/a	564.368
544.955	2.006	Blank	Blank	37	Pain	n/a	5.179	n/a	n/a	567.866
552.14	n/a	ConfirmRating	Rate	37	Pain	19	n/a	4.662	93	575.051
552.167	4.51	ITI	Fixation+	38	No_Pain	n/a	7.729	n/a	n/a	575.078
556.693	3.498	Pic2	Picture	38	No_Pain	25	4.214	n/a	n/a	579.604
560.191	2.006	Blank	Blank	38	No_Pain	n/a	2.208	n/a	n/a	583.102
564.406	n/a	ConfirmRating	Rate	38	No_Pain	25	n/a	1.691	0	587.317
564.435	4.228	ITI	Fixation+	39	No_Pain	n/a	21.944	n/a	n/a	587.346
568.68	3.498	Pic2	Picture	39	No_Pain	24	18.429	n/a	n/a	591.591
572.178	2.006	Blank	Blank	39	No_Pain	n/a	16.423	n/a	n/a	595.089
590.607	n/a	ConfirmRating	Rate	39	No_Pain	24	n/a	15.907	64	613.518
