onset	duration	trial_type	trial_number	event_type	cue_to_participant	stimulus_type	time_until_response	rated_success_of_regulation	onset_uncorrected
0.009	10.014	Instruction	-1	Picture	Instruction	n/a	n/a	n/a	30.682
10.039	5.007	ITI	0	Picture	Fixation+	1	13.567	n/a	40.712
15.063	2.006	Cue	0	Picture	Maintain	1	11.544	n/a	45.736
17.069	4.99	Pic	0	Picture	IAPS_01	1	6.554	n/a	47.742
22.059	2.006	Blank	0	Picture	BLANK	1	4.548	n/a	52.732
28.613	n/a	ConfirmRating	0	Response	n/a	1	n/a	7	59.286
28.641	6.002	ITI	1	Picture	Fixation+	2	11.88	n/a	59.314
34.659	2.006	Cue	1	Picture	Enhance	2	9.857	n/a	65.332
36.665	4.99	Pic	1	Picture	IAPS_26	2	4.867	n/a	67.338
41.655	2.006	Blank	1	Picture	BLANK	2	2.861	n/a	72.328
46.522	n/a	ConfirmRating	1	Response	n/a	2	n/a	6	77.195
46.546	4.012	ITI	2	Picture	Fixation+	3	12.3	n/a	77.219
50.575	2.006	Cue	2	Picture	Suppress	3	10.277	n/a	81.248
52.581	4.99	Pic	2	Picture	IAPS_36	3	5.287	n/a	83.254
57.571	2.006	Blank	2	Picture	BLANK	3	3.281	n/a	88.244
62.858	n/a	ConfirmRating	2	Response	n/a	3	n/a	6	93.531
62.876	5.007	ITI	3	Picture	Fixation+	4	11.334	n/a	93.549
67.9	2.006	Cue	3	Picture	Maintain	4	9.311	n/a	98.572
69.906	4.99	Pic	3	Picture	IAPS_46	4	4.321	n/a	100.578
74.896	2.006	Blank	3	Picture	BLANK	4	2.315	n/a	105.569
79.217	n/a	ConfirmRating	3	Response	n/a	4	n/a	7	109.89
79.239	5.007	ITI	4	Picture	Fixation+	4	10.754	n/a	109.912
84.263	2.006	Cue	4	Picture	Maintain	4	8.732	n/a	114.936
86.269	4.99	Pic	4	Picture	IAPS_49	4	3.742	n/a	116.942
91.259	2.005	Blank	4	Picture	BLANK	4	1.736	n/a	121.932
95.001	n/a	ConfirmRating	4	Response	n/a	4	n/a	6	125.674
95.022	6.002	ITI	5	Picture	Fixation+	2	11.149	n/a	125.695
101.041	2.006	Cue	5	Picture	Enhance	2	9.127	n/a	131.713
103.047	4.99	Pic	5	Picture	IAPS_27	2	4.137	n/a	133.72
108.037	2.006	Blank	5	Picture	BLANK	2	2.131	n/a	138.71
112.173	n/a	ConfirmRating	5	Response	n/a	2	n/a	5	142.846
112.198	4.012	ITI	6	Picture	Fixation+	1	12.055	n/a	142.871
116.227	2.006	Cue	6	Picture	Maintain	1	10.032	n/a	146.9
118.233	4.99	Pic	6	Picture	IAPS_02	1	5.042	n/a	148.906
123.223	2.006	Blank	6	Picture	BLANK	1	3.036	n/a	153.896
128.265	n/a	ConfirmRating	6	Response	n/a	1	n/a	5	158.938
128.296	6.002	ITI	7	Picture	Fixation+	3	11.477	n/a	158.969
134.314	2.006	Cue	7	Picture	Suppress	3	9.455	n/a	164.987
136.32	4.99	Pic	7	Picture	IAPS_37	3	4.465	n/a	166.993
141.31	2.006	Blank	7	Picture	BLANK	3	2.459	n/a	171.983
145.775	n/a	ConfirmRating	7	Response	n/a	3	n/a	7	176.448
145.803	5.007	ITI	8	Picture	Fixation+	4	10.557	n/a	176.476
150.827	2.006	Cue	8	Picture	Maintain	4	8.534	n/a	181.5
152.833	4.99	Pic	8	Picture	IAPS_52	4	3.544	n/a	183.506
157.823	2.006	Blank	8	Picture	BLANK	4	1.538	n/a	188.496
161.367	n/a	ConfirmRating	8	Response	n/a	4	n/a	7	192.04
161.387	6.002	ITI	9	Picture	Fixation+	1	10.764	n/a	192.06
167.406	2.006	Cue	9	Picture	Maintain	1	8.741	n/a	198.078
169.412	4.99	Pic	9	Picture	IAPS_03	1	3.751	n/a	200.084
174.402	2.006	Blank	9	Picture	BLANK	1	1.745	n/a	205.075
178.153	n/a	ConfirmRating	9	Response	n/a	1	n/a	6	208.826
178.182	5.007	ITI	10	Picture	Fixation+	2	12.044	n/a	208.855
183.205	2.006	Cue	10	Picture	Enhance	2	10.021	n/a	213.878
185.211	4.99	Pic	10	Picture	IAPS_28	2	5.031	n/a	215.884
190.202	2.006	Blank	10	Picture	BLANK	2	3.025	n/a	220.874
195.232	n/a	ConfirmRating	10	Response	n/a	2	n/a	5	225.905
195.258	4.012	ITI	11	Picture	Fixation+	3	11.275	n/a	225.931
199.287	2.006	Cue	11	Picture	Suppress	3	9.253	n/a	229.96
201.293	4.99	Pic	11	Picture	IAPS_38	3	4.263	n/a	231.966
206.283	2.006	Blank	11	Picture	BLANK	3	2.256	n/a	236.956
210.545	n/a	ConfirmRating	11	Response	n/a	3	n/a	7	241.218
210.577	6.002	ITI	12	Picture	Fixation+	2	10.583	n/a	241.25
216.595	2.006	Cue	12	Picture	Enhance	2	8.56	n/a	247.268
218.601	4.99	Pic	12	Picture	IAPS_29	2	3.57	n/a	249.274
223.591	2.006	Blank	12	Picture	BLANK	2	1.564	n/a	254.264
227.161	n/a	ConfirmRating	12	Response	n/a	2	n/a	0	257.834
227.189	5.007	ITI	13	Picture	Fixation+	1	11.282	n/a	257.862
232.212	2.006	Cue	13	Picture	Maintain	1	9.26	n/a	262.885
234.218	4.99	Pic	13	Picture	IAPS_04	1	4.269	n/a	264.891
239.208	2.006	Blank	13	Picture	BLANK	1	2.263	n/a	269.881
243.478	n/a	ConfirmRating	13	Response	n/a	1	n/a	5	274.151
243.502	4.012	ITI	14	Picture	Fixation+	4	10.191	n/a	274.175
247.531	2.006	Cue	14	Picture	Maintain	4	8.169	n/a	278.204
249.537	4.99	Pic	14	Picture	IAPS_55	4	3.179	n/a	280.21
254.527	2.006	Blank	14	Picture	BLANK	4	1.173	n/a	285.2
257.706	n/a	ConfirmRating	14	Response	n/a	4	n/a	5	288.379
257.727	5.007	ITI	15	Picture	Fixation+	3	13.369	n/a	288.4
262.75	2.006	Cue	15	Picture	Suppress	3	11.346	n/a	293.423
264.756	4.99	Pic	15	Picture	IAPS_39	3	6.356	n/a	295.429
269.747	2.006	Blank	15	Picture	BLANK	3	4.35	n/a	300.42
276.103	n/a	ConfirmRating	15	Response	n/a	3	n/a	6	306.776
276.13	6.002	ITI	16	Picture	Fixation+	2	11.377	n/a	306.802
282.148	2.006	Cue	16	Picture	Enhance	2	9.355	n/a	312.82
284.154	4.99	Pic	16	Picture	IAPS_30	2	4.365	n/a	314.827
289.144	2.006	Blank	16	Picture	BLANK	2	2.359	n/a	319.817
293.509	n/a	ConfirmRating	16	Response	n/a	2	n/a	6	324.181
293.537	6.002	ITI	17	Picture	Fixation+	1	11.729	n/a	324.21
299.555	2.006	Cue	17	Picture	Maintain	1	9.707	n/a	330.228
301.561	4.99	Pic	17	Picture	IAPS_05	1	4.717	n/a	332.234
306.552	2.006	Blank	17	Picture	BLANK	1	2.711	n/a	337.225
311.268	n/a	ConfirmRating	17	Response	n/a	1	n/a	6	341.941
311.293	4.012	ITI	18	Picture	Fixation+	3	11.362	n/a	341.966
315.322	2.006	Cue	18	Picture	Suppress	3	9.339	n/a	345.995
317.328	4.99	Pic	18	Picture	IAPS_40	3	4.349	n/a	348.001
322.318	2.006	Blank	18	Picture	BLANK	3	2.343	n/a	352.991
326.667	n/a	ConfirmRating	18	Response	n/a	3	n/a	7	357.34
326.695	5.007	ITI	19	Picture	Fixation+	4	10.893	n/a	357.368
331.718	2.006	Cue	19	Picture	Maintain	4	8.871	n/a	362.391
333.724	4.99	Pic	19	Picture	IAPS_58	4	3.88	n/a	364.397
338.715	2.006	Blank	19	Picture	BLANK	4	1.874	n/a	369.387
342.595	n/a	ConfirmRating	19	Response	n/a	4	n/a	7	373.268
342.627	6.002	ITI	20	Picture	Fixation+	4	10.702	n/a	373.3
348.645	2.006	Cue	20	Picture	Maintain	4	8.679	n/a	379.318
350.651	4.99	Pic	20	Picture	IAPS_47	4	3.689	n/a	381.324
355.642	2.006	Blank	20	Picture	BLANK	4	1.683	n/a	386.315
359.331	n/a	ConfirmRating	20	Response	n/a	4	n/a	7	390.004
359.355	5.007	ITI	21	Picture	Fixation+	3	10.507	n/a	390.028
364.379	2.006	Cue	21	Picture	Suppress	3	8.484	n/a	395.051
366.385	4.99	Pic	21	Picture	IAPS_41	3	3.494	n/a	397.058
371.375	2.006	Blank	21	Picture	BLANK	3	1.488	n/a	402.048
374.869	n/a	ConfirmRating	21	Response	n/a	3	n/a	6	405.541
374.89	4.012	ITI	22	Picture	Fixation+	1	11.377	n/a	405.563
378.918	2.006	Cue	22	Picture	Maintain	1	9.354	n/a	409.591
380.924	4.99	Pic	22	Picture	IAPS_06	1	4.364	n/a	411.597
385.914	2.006	Blank	22	Picture	BLANK	1	2.358	n/a	416.587
390.279	n/a	ConfirmRating	22	Response	n/a	1	n/a	7	420.951
390.308	4.012	ITI	23	Picture	Fixation+	2	10.545	n/a	420.981
394.337	2.006	Cue	23	Picture	Enhance	2	8.523	n/a	425.01
396.343	4.99	Pic	23	Picture	IAPS_16	2	3.533	n/a	427.015
401.333	2.006	Blank	23	Picture	BLANK	2	1.526	n/a	432.006
404.865	n/a	ConfirmRating	23	Response	n/a	2	n/a	6	435.538
404.897	5.007	ITI	24	Picture	Fixation+	1	11.042	n/a	435.57
409.921	2.006	Cue	24	Picture	Maintain	1	9.019	n/a	440.594
411.927	4.99	Pic	24	Picture	IAPS_07	1	4.029	n/a	442.6
416.917	2.006	Blank	24	Picture	BLANK	1	2.023	n/a	447.59
420.946	n/a	ConfirmRating	24	Response	n/a	1	n/a	6	451.619
420.979	4.012	ITI	25	Picture	Fixation+	2	13.876	n/a	451.652
425.007	2.006	Cue	25	Picture	Enhance	2	11.854	n/a	455.68
427.013	4.99	Pic	25	Picture	IAPS_17	2	6.863	n/a	457.686
432.004	2.006	Blank	25	Picture	BLANK	2	4.857	n/a	462.677
438.867	n/a	ConfirmRating	25	Response	n/a	2	n/a	7	469.54
438.884	6.002	ITI	26	Picture	Fixation+	4	10.549	n/a	469.557
444.902	2.006	Cue	26	Picture	Maintain	4	8.527	n/a	475.575
446.908	4.99	Pic	26	Picture	IAPS_50	4	3.537	n/a	477.581
451.898	2.006	Blank	26	Picture	BLANK	4	1.531	n/a	482.571
455.435	n/a	ConfirmRating	26	Response	n/a	4	n/a	7	486.108
455.463	5.007	ITI	27	Picture	Fixation+	3	11.37	n/a	486.136
460.486	2.006	Cue	27	Picture	Suppress	3	9.348	n/a	491.159
462.492	4.99	Pic	27	Picture	IAPS_42	3	4.357	n/a	493.165
467.482	2.006	Blank	27	Picture	BLANK	3	2.351	n/a	498.155
471.84	n/a	ConfirmRating	27	Response	n/a	3	n/a	0	502.512
471.859	5.007	ITI	28	Picture	Fixation+	2	10.898	n/a	502.532
476.883	2.006	Cue	28	Picture	Enhance	2	8.875	n/a	507.555
478.889	4.99	Pic	28	Picture	IAPS_18	2	3.885	n/a	509.562
483.879	2.006	Blank	28	Picture	BLANK	2	1.879	n/a	514.552
487.764	n/a	ConfirmRating	28	Response	n/a	2	n/a	0	518.436
487.791	4.012	ITI	29	Picture	Fixation+	3	10.487	n/a	518.464
491.82	2.006	Cue	29	Picture	Suppress	3	8.464	n/a	522.493
493.826	4.99	Pic	29	Picture	IAPS_43	3	3.474	n/a	524.499
498.816	2.006	Blank	29	Picture	BLANK	3	1.468	n/a	529.489
502.29	n/a	ConfirmRating	29	Response	n/a	3	n/a	5	532.963
502.314	15.004	Rest	29	Picture	Rest	n/a	-15.028	n/a	532.987
517.335	5.007	ITI	30	Picture	Fixation+	4	11.266	n/a	548.008
522.358	2.006	Cue	30	Picture	Maintain	4	9.244	n/a	553.031
524.364	4.99	Pic	30	Picture	IAPS_53	4	4.253	n/a	555.037
529.354	2.006	Blank	30	Picture	BLANK	4	2.247	n/a	560.027
533.608	n/a	ConfirmRating	30	Response	n/a	4	n/a	7	564.281
533.632	6.002	ITI	31	Picture	Fixation+	1	10.343	n/a	564.305
539.65	2.006	Cue	31	Picture	Maintain	1	8.321	n/a	570.323
541.656	4.99	Pic	31	Picture	IAPS_08	1	3.331	n/a	572.329
546.646	2.006	Blank	31	Picture	BLANK	1	1.325	n/a	577.319
549.977	n/a	ConfirmRating	31	Response	n/a	1	n/a	5	580.65
549.995	4.012	ITI	32	Picture	Fixation+	3	10.486	n/a	580.668
554.024	2.006	Cue	32	Picture	Suppress	3	8.463	n/a	584.697
556.03	4.99	Pic	32	Picture	IAPS_44	3	3.473	n/a	586.703
561.02	2.006	Blank	32	Picture	BLANK	3	1.467	n/a	591.693
564.493	n/a	ConfirmRating	32	Response	n/a	3	n/a	0	595.166
564.518	5.007	ITI	33	Picture	Fixation+	1	12.588	n/a	595.191
569.542	2.006	Cue	33	Picture	Maintain	1	10.566	n/a	600.215
571.548	4.99	Pic	33	Picture	IAPS_09	1	5.576	n/a	602.221
576.538	2.006	Blank	33	Picture	BLANK	1	3.57	n/a	607.211
582.113	n/a	ConfirmRating	33	Response	n/a	1	n/a	6	612.786
582.141	4.012	ITI	34	Picture	Fixation+	2	10.599	n/a	612.814
586.17	2.006	Cue	34	Picture	Enhance	2	8.576	n/a	616.843
588.176	4.99	Pic	34	Picture	IAPS_19	2	3.586	n/a	618.849
593.166	2.006	Blank	34	Picture	BLANK	2	1.58	n/a	623.839
596.752	n/a	ConfirmRating	34	Response	n/a	2	n/a	0	627.425
596.781	6.002	ITI	35	Picture	Fixation+	4	11.491	n/a	627.453
602.799	2.006	Cue	35	Picture	Maintain	4	9.468	n/a	633.472
604.805	4.99	Pic	35	Picture	IAPS_56	4	4.478	n/a	635.478
609.795	2.006	Blank	35	Picture	BLANK	4	2.472	n/a	640.468
614.273	n/a	ConfirmRating	35	Response	n/a	4	n/a	7	644.946
614.304	5.007	ITI	36	Picture	Fixation+	3	10.832	n/a	644.977
619.328	2.006	Cue	36	Picture	Suppress	3	8.809	n/a	650.001
621.334	4.99	Pic	36	Picture	IAPS_45	3	3.819	n/a	652.007
626.324	2.006	Blank	36	Picture	BLANK	3	1.813	n/a	656.997
630.143	n/a	ConfirmRating	36	Response	n/a	3	n/a	5	660.816
630.17	6.002	ITI	37	Picture	Fixation+	4	12.828	n/a	660.843
636.188	2.006	Cue	37	Picture	Maintain	4	10.805	n/a	666.861
638.194	4.99	Pic	37	Picture	IAPS_59	4	5.815	n/a	668.867
643.185	2.006	Blank	37	Picture	BLANK	4	3.809	n/a	673.858
649.0	n/a	ConfirmRating	37	Response	n/a	4	n/a	6	679.673
649.02	5.007	ITI	38	Picture	Fixation+	2	11.82	n/a	679.693
654.044	2.006	Cue	38	Picture	Enhance	2	9.798	n/a	684.717
656.05	4.99	Pic	38	Picture	IAPS_20	2	4.808	n/a	686.723
661.04	2.006	Blank	38	Picture	BLANK	2	2.801	n/a	691.713
665.848	n/a	ConfirmRating	38	Response	n/a	2	n/a	5	696.52
665.865	4.012	ITI	39	Picture	Fixation+	1	11.053	n/a	696.538
669.893	2.006	Cue	39	Picture	Maintain	1	9.03	n/a	700.566
671.899	4.99	Pic	39	Picture	IAPS_10	1	4.04	n/a	702.572
676.889	2.006	Blank	39	Picture	BLANK	1	2.034	n/a	707.562
680.929	n/a	ConfirmRating	39	Response	n/a	1	n/a	5	711.602
680.951	6.002	ITI	40	Picture	Fixation+	4	12.157	n/a	711.624
686.969	2.006	Cue	40	Picture	Maintain	4	10.135	n/a	717.642
688.976	4.99	Pic	40	Picture	IAPS_48	4	5.144	n/a	719.648
693.966	2.006	Blank	40	Picture	BLANK	4	3.139	n/a	724.639
699.11	n/a	ConfirmRating	40	Response	n/a	4	n/a	7	729.783
699.138	5.007	ITI	41	Picture	Fixation+	3	13.705	n/a	729.811
704.162	2.006	Cue	41	Picture	Suppress	3	11.682	n/a	734.835
706.168	4.99	Pic	41	Picture	IAPS_31	3	6.692	n/a	736.841
711.158	2.006	Blank	41	Picture	BLANK	3	4.686	n/a	741.831
717.85	n/a	ConfirmRating	41	Response	n/a	3	n/a	5	748.523
717.872	6.002	ITI	42	Picture	Fixation+	2	11.399	n/a	748.545
723.89	2.006	Cue	42	Picture	Enhance	2	9.376	n/a	754.563
725.896	4.99	Pic	42	Picture	IAPS_21	2	4.386	n/a	756.569
730.887	2.006	Blank	42	Picture	BLANK	2	2.38	n/a	761.56
735.273	n/a	ConfirmRating	42	Response	n/a	2	n/a	0	765.946
735.297	4.012	ITI	43	Picture	Fixation+	1	12.673	n/a	765.97
739.325	2.006	Cue	43	Picture	Maintain	1	10.65	n/a	769.998
741.331	4.99	Pic	43	Picture	IAPS_11	1	5.66	n/a	772.004
746.322	2.006	Blank	43	Picture	BLANK	1	3.654	n/a	776.995
751.982	n/a	ConfirmRating	43	Response	n/a	1	n/a	6	782.655
752.008	5.007	ITI	44	Picture	Fixation+	2	11.99	n/a	782.681
757.031	2.006	Cue	44	Picture	Enhance	2	9.967	n/a	787.704
759.038	4.99	Pic	44	Picture	IAPS_22	2	4.977	n/a	789.711
764.028	2.006	Blank	44	Picture	BLANK	2	2.971	n/a	794.701
769.005	n/a	ConfirmRating	44	Response	n/a	2	n/a	3	799.677
769.035	5.007	ITI	45	Picture	Fixation+	4	10.622	n/a	799.707
774.058	2.006	Cue	45	Picture	Maintain	4	8.599	n/a	804.731
776.064	4.99	Pic	45	Picture	IAPS_51	4	3.609	n/a	806.737
781.054	2.006	Blank	45	Picture	BLANK	4	1.603	n/a	811.727
784.663	n/a	ConfirmRating	45	Response	n/a	4	n/a	6	815.336
784.685	4.012	ITI	46	Picture	Fixation+	3	10.943	n/a	815.358
788.714	2.006	Cue	46	Picture	Suppress	3	8.92	n/a	819.387
790.72	4.99	Pic	46	Picture	IAPS_32	3	3.93	n/a	821.393
795.71	2.006	Blank	46	Picture	BLANK	3	1.924	n/a	826.383
799.64	n/a	ConfirmRating	46	Response	n/a	3	n/a	5	830.313
799.672	5.007	ITI	47	Picture	Fixation+	1	11.726	n/a	830.345
804.696	2.006	Cue	47	Picture	Maintain	1	9.703	n/a	835.369
806.702	4.99	Pic	47	Picture	IAPS_12	1	4.713	n/a	837.375
811.692	2.006	Blank	47	Picture	BLANK	1	2.707	n/a	842.365
816.405	n/a	ConfirmRating	47	Response	n/a	1	n/a	5	847.078
816.433	4.012	ITI	48	Picture	Fixation+	3	11.848	n/a	847.106
820.462	2.006	Cue	48	Picture	Suppress	3	9.826	n/a	851.135
822.468	4.99	Pic	48	Picture	IAPS_33	3	4.836	n/a	853.141
827.458	2.006	Blank	48	Picture	BLANK	3	2.83	n/a	858.131
832.294	n/a	ConfirmRating	48	Response	n/a	3	n/a	5	862.967
832.316	5.007	ITI	49	Picture	Fixation+	4	11.875	n/a	862.989
837.339	2.006	Cue	49	Picture	Maintain	4	9.852	n/a	868.012
839.345	4.99	Pic	49	Picture	IAPS_54	4	4.862	n/a	870.018
844.336	2.006	Blank	49	Picture	BLANK	4	2.856	n/a	875.009
849.198	n/a	ConfirmRating	49	Response	n/a	4	n/a	6	879.871
849.226	5.007	ITI	50	Picture	Fixation+	1	13.285	n/a	879.899
854.25	2.006	Cue	50	Picture	Maintain	1	11.263	n/a	884.923
856.256	4.99	Pic	50	Picture	IAPS_13	1	6.272	n/a	886.929
861.246	2.006	Blank	50	Picture	BLANK	1	4.266	n/a	891.919
867.518	n/a	ConfirmRating	50	Response	n/a	1	n/a	5	898.191
867.546	4.012	ITI	51	Picture	Fixation+	2	13.538	n/a	898.219
871.575	2.006	Cue	51	Picture	Enhance	2	11.515	n/a	902.248
873.581	4.99	Pic	51	Picture	IAPS_23	2	6.525	n/a	904.254
878.571	2.006	Blank	51	Picture	BLANK	2	4.519	n/a	909.244
885.096	n/a	ConfirmRating	51	Response	n/a	2	n/a	6	915.769
885.12	5.007	ITI	52	Picture	Fixation+	1	11.842	n/a	915.793
890.143	2.006	Cue	52	Picture	Maintain	1	9.819	n/a	920.816
892.149	4.99	Pic	52	Picture	IAPS_14	1	4.829	n/a	922.822
897.139	2.006	Blank	52	Picture	BLANK	1	2.823	n/a	927.812
901.968	n/a	ConfirmRating	52	Response	n/a	1	n/a	3	932.641
901.997	5.007	ITI	53	Picture	Fixation+	4	11.282	n/a	932.67
907.02	2.006	Cue	53	Picture	Maintain	4	9.26	n/a	937.693
909.026	4.99	Pic	53	Picture	IAPS_57	4	4.269	n/a	939.699
914.016	2.006	Blank	53	Picture	BLANK	4	2.263	n/a	944.689
918.286	n/a	ConfirmRating	53	Response	n/a	4	n/a	7	948.959
918.31	6.002	ITI	54	Picture	Fixation+	3	12.233	n/a	948.983
924.328	2.006	Cue	54	Picture	Suppress	3	10.21	n/a	955.001
926.334	4.99	Pic	54	Picture	IAPS_34	3	5.22	n/a	957.007
931.325	2.006	Blank	54	Picture	BLANK	3	3.214	n/a	961.998
936.545	n/a	ConfirmRating	54	Response	n/a	3	n/a	0	967.218
936.564	5.007	ITI	55	Picture	Fixation+	2	12.642	n/a	967.237
941.587	2.006	Cue	55	Picture	Enhance	2	10.619	n/a	972.26
943.593	4.99	Pic	55	Picture	IAPS_24	2	5.629	n/a	974.266
948.583	2.006	Blank	55	Picture	BLANK	2	3.623	n/a	979.256
954.212	n/a	ConfirmRating	55	Response	n/a	2	n/a	5	984.885
954.237	5.007	ITI	56	Picture	Fixation+	1	11.3	n/a	984.91
959.26	2.006	Cue	56	Picture	Maintain	1	9.277	n/a	989.933
961.266	4.99	Pic	56	Picture	IAPS_15	1	4.287	n/a	991.939
966.256	2.006	Blank	56	Picture	BLANK	1	2.281	n/a	996.929
970.543	n/a	ConfirmRating	56	Response	n/a	1	n/a	5	1001.216
970.567	6.002	ITI	57	Picture	Fixation+	3	14.036	n/a	1001.24
976.585	2.006	Cue	57	Picture	Suppress	3	12.013	n/a	1007.258
978.591	4.99	Pic	57	Picture	IAPS_35	3	7.023	n/a	1009.264
983.581	2.006	Blank	57	Picture	BLANK	3	5.017	n/a	1014.254
990.604	n/a	ConfirmRating	57	Response	n/a	3	n/a	6	1021.277
990.627	4.012	ITI	58	Picture	Fixation+	4	11.746	n/a	1021.3
994.656	2.006	Cue	58	Picture	Maintain	4	9.723	n/a	1025.329
996.662	4.99	Pic	58	Picture	IAPS_60	4	4.733	n/a	1027.335
1001.652	2.006	Blank	58	Picture	BLANK	4	2.727	n/a	1032.325
1006.385	n/a	ConfirmRating	58	Response	n/a	4	n/a	7	1037.058
1006.41	6.002	ITI	59	Picture	Fixation+	2	11.438	n/a	1037.083
1012.428	2.006	Cue	59	Picture	Enhance	2	9.415	n/a	1043.101
1014.434	4.99	Pic	59	Picture	IAPS_25	2	4.425	n/a	1045.107
1019.425	2.006	Blank	59	Picture	BLANK	2	2.419	n/a	1050.098
1023.85	n/a	ConfirmRating	59	Response	n/a	2	n/a	6	1054.523
