onset	duration	trial_type	event_type	time_until_response	response_time	trial_number	block_num_within_trial	image_seq_num_within_block	question_seq_num_within_block	image_seq_num	picture_number	condition	question_type	block_type	rating	rating_computed	onset_uncorrected	KDEV_imagefile
0.015	10.014	ITI	Fixation+	96.75	n/a	1	n/a	n/a	n/a	n/a	n/a	n/a	n/a	n/a	n/a	n/a	34.611	n/a
10.045	0.497	angry	Picture	96.236	n/a	1	1	1	n/a	1	46	2	n/a	n/a	n/a	n/a	44.641	AF09HAS.jpg
10.543	0.514	Blank	Blank	95.722	n/a	1	1	1	n/a	1	n/a	2	n/a	n/a	n/a	n/a	45.139	n/a
11.073	0.497	angry	Picture	95.208	n/a	1	1	2	n/a	2	69	2	n/a	n/a	n/a	n/a	45.669	AM10HAS.jpg
11.571	0.514	Blank	Blank	94.694	n/a	1	1	2	n/a	2	n/a	2	n/a	n/a	n/a	n/a	46.167	n/a
12.101	0.497	angry	Picture	94.18	n/a	1	1	3	n/a	3	71	2	n/a	n/a	n/a	n/a	46.697	BM12HAS.jpg
12.599	0.514	Blank	Blank	93.666	n/a	1	1	3	n/a	3	n/a	2	n/a	n/a	n/a	n/a	47.195	n/a
13.129	0.496	angry	Picture	93.154	n/a	1	1	4	n/a	4	51	2	n/a	n/a	n/a	n/a	47.725	AF20HAS.jpg
13.625	0.515	Blank	Blank	92.639	n/a	1	1	4	n/a	4	n/a	2	n/a	n/a	n/a	n/a	48.221	n/a
14.157	0.497	angry	Picture	92.125	n/a	1	1	5	n/a	5	67	2	n/a	n/a	n/a	n/a	48.753	BM08HAS.jpg
14.654	0.514	Blank	Blank	91.611	n/a	1	1	5	n/a	5	n/a	2	n/a	n/a	n/a	n/a	49.25	n/a
15.185	0.497	angry	Picture	91.097	n/a	1	1	6	n/a	6	60	2	n/a	n/a	n/a	n/a	49.781	AF32HAS.jpg
15.682	0.514	Blank	Blank	90.583	n/a	1	1	6	n/a	6	n/a	2	n/a	n/a	n/a	n/a	50.278	n/a
16.213	0.497	angry	Picture	90.069	n/a	1	1	7	n/a	7	42	2	n/a	n/a	n/a	n/a	50.809	AF03HAS.jpg
16.71	0.514	Blank	Blank	89.555	n/a	1	1	7	n/a	7	n/a	2	n/a	n/a	n/a	n/a	51.306	n/a
17.241	0.497	angry	Picture	89.041	n/a	1	1	8	n/a	8	55	2	n/a	n/a	n/a	n/a	51.837	AF25HAS.jpg
17.738	0.514	Blank	Blank	88.527	n/a	1	1	8	n/a	8	n/a	2	n/a	n/a	n/a	n/a	52.334	n/a
18.269	0.497	angry	Picture	88.013	n/a	1	1	9	n/a	9	72	2	n/a	n/a	n/a	n/a	52.864	AM14HAS.jpg
18.766	0.514	Blank	Blank	87.499	n/a	1	1	9	n/a	9	n/a	2	n/a	n/a	n/a	n/a	53.362	n/a
19.296	0.497	angry	Picture	86.985	n/a	1	1	10	n/a	10	63	2	n/a	n/a	n/a	n/a	53.892	AM04HAS.jpg
19.794	0.514	Blank	Blank	86.471	n/a	1	1	10	n/a	10	n/a	2	n/a	n/a	n/a	n/a	54.39	n/a
20.324	0.497	angry	Picture	85.957	n/a	1	1	11	n/a	11	58	2	n/a	n/a	n/a	n/a	54.92	BF29HAS.jpg
20.822	0.514	Blank	Blank	85.443	n/a	1	1	11	n/a	11	n/a	2	n/a	n/a	n/a	n/a	55.418	n/a
21.352	0.497	angry	Picture	84.929	n/a	1	1	12	n/a	12	48	2	n/a	n/a	n/a	n/a	55.948	AF14HAS.jpg
21.85	0.514	Blank	Blank	84.415	n/a	1	1	12	n/a	12	n/a	2	n/a	n/a	n/a	n/a	56.446	n/a
22.38	0.497	angry	Picture	83.901	n/a	1	1	13	n/a	13	66	2	n/a	n/a	n/a	n/a	56.976	BM07HAS.jpg
22.878	0.514	Blank	Blank	83.388	n/a	1	1	13	n/a	13	n/a	2	n/a	n/a	n/a	n/a	57.474	n/a
23.408	0.497	angry	Picture	82.874	n/a	1	1	14	n/a	14	70	2	n/a	n/a	n/a	n/a	58.004	BM11HAS.jpg
23.905	0.514	Blank	Blank	82.36	n/a	1	1	14	n/a	14	n/a	2	n/a	n/a	n/a	n/a	58.501	n/a
24.436	0.497	angry	Picture	81.846	n/a	1	1	15	n/a	15	43	2	n/a	n/a	n/a	n/a	59.032	BF04HAS.jpg
24.933	0.514	Blank	Blank	81.332	n/a	1	1	15	n/a	15	n/a	2	n/a	n/a	n/a	n/a	59.529	n/a
25.464	0.497	angry	Picture	80.818	n/a	1	1	16	n/a	16	49	2	n/a	n/a	n/a	n/a	60.06	AF17HAS.jpg
25.961	0.514	Blank	Blank	80.304	n/a	1	1	16	n/a	16	n/a	2	n/a	n/a	n/a	n/a	60.557	n/a
26.492	0.497	angry	Picture	79.79	n/a	1	1	17	n/a	17	75	2	n/a	n/a	n/a	n/a	61.088	AM23HAS.jpg
26.989	0.514	Blank	Blank	79.276	n/a	1	1	17	n/a	17	n/a	2	n/a	n/a	n/a	n/a	61.585	n/a
27.52	0.497	angry	Picture	78.762	n/a	1	1	18	n/a	18	80	2	n/a	n/a	n/a	n/a	62.115	BM35HAS.jpg
28.017	0.514	Blank	Blank	78.248	n/a	1	1	18	n/a	18	n/a	2	n/a	n/a	n/a	n/a	62.613	n/a
28.547	0.497	angry	Picture	77.734	n/a	1	1	19	n/a	19	76	2	n/a	n/a	n/a	n/a	63.143	BM24HAS.jpg
29.045	0.514	Blank	Blank	77.22	n/a	1	1	19	n/a	19	n/a	2	n/a	n/a	n/a	n/a	63.641	n/a
29.575	0.497	angry	Picture	76.706	n/a	1	1	20	n/a	20	74	2	n/a	n/a	n/a	n/a	64.171	AM22HAS.jpg
30.073	0.514	Blank	Blank	76.192	n/a	1	1	20	n/a	20	n/a	2	n/a	n/a	n/a	n/a	64.669	n/a
30.603	10.014	ITI	Fixation+	66.162	n/a	1	n/a	n/a	n/a	n/a	n/a	n/a	n/a	n/a	n/a	n/a	65.199	n/a
40.633	0.497	neutral	Picture	65.648	n/a	1	2	1	n/a	21	33	1	n/a	n/a	n/a	n/a	75.229	AM21NES.jpg
41.131	0.514	Blank	Blank	65.134	n/a	1	2	1	n/a	21	n/a	1	n/a	n/a	n/a	n/a	75.727	n/a
41.661	0.497	neutral	Picture	64.62	n/a	1	2	2	n/a	22	39	1	n/a	n/a	n/a	n/a	76.257	AM28NES.jpg
42.159	0.514	Blank	Blank	64.106	n/a	1	2	2	n/a	22	n/a	1	n/a	n/a	n/a	n/a	76.755	n/a
42.689	0.497	neutral	Picture	63.592	n/a	1	2	3	n/a	23	25	1	n/a	n/a	n/a	n/a	77.285	BM06NES.jpg
43.187	0.514	Blank	Blank	63.078	n/a	1	2	3	n/a	23	n/a	1	n/a	n/a	n/a	n/a	77.782	n/a
43.717	0.497	neutral	Picture	62.565	n/a	1	2	4	n/a	24	5	1	n/a	n/a	n/a	n/a	78.313	BF07NES.jpg
44.214	0.514	Blank	Blank	62.051	n/a	1	2	4	n/a	24	n/a	1	n/a	n/a	n/a	n/a	78.81	n/a
44.745	0.497	neutral	Picture	61.537	n/a	1	2	5	n/a	25	10	1	n/a	n/a	n/a	n/a	79.341	AF18NES.jpg
45.242	0.514	Blank	Blank	61.023	n/a	1	2	5	n/a	25	n/a	1	n/a	n/a	n/a	n/a	79.838	n/a
45.773	0.497	neutral	Picture	60.509	n/a	1	2	6	n/a	26	34	1	n/a	n/a	n/a	n/a	80.369	AM22NES.jpg
46.27	0.514	Blank	Blank	59.995	n/a	1	2	6	n/a	26	n/a	1	n/a	n/a	n/a	n/a	80.866	n/a
46.801	0.497	neutral	Picture	59.481	n/a	1	2	7	n/a	27	36	1	n/a	n/a	n/a	n/a	81.397	BM24NES.jpg
47.298	0.514	Blank	Blank	58.967	n/a	1	2	7	n/a	27	n/a	1	n/a	n/a	n/a	n/a	81.894	n/a
47.829	0.497	neutral	Picture	58.453	n/a	1	2	8	n/a	28	14	1	n/a	n/a	n/a	n/a	82.425	AF23NES.jpg
48.326	0.514	Blank	Blank	57.939	n/a	1	2	8	n/a	28	n/a	1	n/a	n/a	n/a	n/a	82.922	n/a
48.857	0.497	neutral	Picture	57.425	n/a	1	2	9	n/a	29	9	1	n/a	n/a	n/a	n/a	83.453	AF17NES.jpg
49.354	0.514	Blank	Blank	56.911	n/a	1	2	9	n/a	29	n/a	1	n/a	n/a	n/a	n/a	83.95	n/a
49.884	0.497	neutral	Picture	56.397	n/a	1	2	10	n/a	30	19	1	n/a	n/a	n/a	n/a	84.48	AF31NES.jpg
50.382	0.514	Blank	Blank	55.883	n/a	1	2	10	n/a	30	n/a	1	n/a	n/a	n/a	n/a	84.978	n/a
50.912	0.497	neutral	Picture	55.369	n/a	1	2	11	n/a	31	15	1	n/a	n/a	n/a	n/a	85.508	AF25NES.jpg
51.41	0.514	Blank	Blank	54.855	n/a	1	2	11	n/a	31	n/a	1	n/a	n/a	n/a	n/a	86.006	n/a
51.94	0.497	neutral	Picture	54.341	n/a	1	2	12	n/a	32	22	1	n/a	n/a	n/a	n/a	86.536	BM03NES.jpg
52.438	0.514	Blank	Blank	53.828	n/a	1	2	12	n/a	32	n/a	1	n/a	n/a	n/a	n/a	87.034	n/a
52.968	0.497	neutral	Picture	53.314	n/a	1	2	13	n/a	33	11	1	n/a	n/a	n/a	n/a	87.564	AF20NES.jpg
53.465	0.514	Blank	Blank	52.8	n/a	1	2	13	n/a	33	n/a	1	n/a	n/a	n/a	n/a	88.061	n/a
53.996	0.497	neutral	Picture	52.286	n/a	1	2	14	n/a	34	4	1	n/a	n/a	n/a	n/a	88.592	AF05NES.jpg
54.493	0.514	Blank	Blank	51.772	n/a	1	2	14	n/a	34	n/a	1	n/a	n/a	n/a	n/a	89.089	n/a
55.024	0.497	neutral	Picture	51.258	n/a	1	2	15	n/a	35	17	1	n/a	n/a	n/a	n/a	89.62	BF28NES.jpg
55.521	0.514	Blank	Blank	50.744	n/a	1	2	15	n/a	35	n/a	1	n/a	n/a	n/a	n/a	90.117	n/a
56.052	0.497	neutral	Picture	50.23	n/a	1	2	16	n/a	36	13	1	n/a	n/a	n/a	n/a	90.648	BF22NES.jpg
56.549	0.514	Blank	Blank	49.716	n/a	1	2	16	n/a	36	n/a	1	n/a	n/a	n/a	n/a	91.145	n/a
57.08	0.497	neutral	Picture	49.202	n/a	1	2	17	n/a	37	12	1	n/a	n/a	n/a	n/a	91.676	AF21NES.jpg
57.577	0.514	Blank	Blank	48.688	n/a	1	2	17	n/a	37	n/a	1	n/a	n/a	n/a	n/a	92.173	n/a
58.108	0.497	neutral	Picture	48.174	n/a	1	2	18	n/a	38	24	1	n/a	n/a	n/a	n/a	92.704	BM05NES.jpg
58.605	0.514	Blank	Blank	47.66	n/a	1	2	18	n/a	38	n/a	1	n/a	n/a	n/a	n/a	93.201	n/a
59.135	0.497	neutral	Picture	47.146	n/a	1	2	19	n/a	39	29	1	n/a	n/a	n/a	n/a	93.731	AM10NES.jpg
59.633	0.514	Blank	Blank	46.632	n/a	1	2	19	n/a	39	n/a	1	n/a	n/a	n/a	n/a	94.229	n/a
60.163	0.497	neutral	Picture	46.118	n/a	1	2	20	n/a	40	23	1	n/a	n/a	n/a	n/a	94.759	AM04NES.jpg
60.661	0.514	Blank	Blank	45.604	n/a	1	2	20	n/a	40	n/a	1	n/a	n/a	n/a	n/a	95.257	n/a
61.191	10.014	ITI	Fixation+	35.574	n/a	1	n/a	n/a	n/a	n/a	n/a	n/a	n/a	n/a	n/a	n/a	95.787	n/a
71.221	0.497	angry	Picture	35.06	n/a	1	3	1	n/a	41	62	2	n/a	n/a	n/a	n/a	105.817	BM03HAS.jpg
71.719	0.514	Blank	Blank	34.546	n/a	1	3	1	n/a	41	n/a	2	n/a	n/a	n/a	n/a	106.315	n/a
72.249	0.497	angry	Picture	34.032	n/a	1	3	2	n/a	42	52	2	n/a	n/a	n/a	n/a	106.845	AF21HAS.jpg
72.747	0.514	Blank	Blank	33.518	n/a	1	3	2	n/a	42	n/a	2	n/a	n/a	n/a	n/a	107.343	n/a
73.277	0.497	angry	Picture	33.005	n/a	1	3	3	n/a	43	44	2	n/a	n/a	n/a	n/a	107.873	AF05HAS.jpg
73.775	0.514	Blank	Blank	32.491	n/a	1	3	3	n/a	43	n/a	2	n/a	n/a	n/a	n/a	108.371	n/a
74.305	0.497	angry	Picture	31.977	n/a	1	3	4	n/a	44	53	2	n/a	n/a	n/a	n/a	108.901	BF22HAS.jpg
74.802	0.514	Blank	Blank	31.463	n/a	1	3	4	n/a	44	n/a	2	n/a	n/a	n/a	n/a	109.398	n/a
75.333	0.497	angry	Picture	30.949	n/a	1	3	5	n/a	45	54	2	n/a	n/a	n/a	n/a	109.929	AF23HAS.jpg
75.83	0.514	Blank	Blank	30.435	n/a	1	3	5	n/a	45	n/a	2	n/a	n/a	n/a	n/a	110.426	n/a
76.361	0.497	angry	Picture	29.921	n/a	1	3	6	n/a	46	68	2	n/a	n/a	n/a	n/a	110.957	AM09HAS.jpg
76.858	0.514	Blank	Blank	29.407	n/a	1	3	6	n/a	46	n/a	2	n/a	n/a	n/a	n/a	111.454	n/a
77.389	0.497	angry	Picture	28.893	n/a	1	3	7	n/a	47	64	2	n/a	n/a	n/a	n/a	111.985	BM05HAS.jpg
77.886	0.514	Blank	Blank	28.379	n/a	1	3	7	n/a	47	n/a	2	n/a	n/a	n/a	n/a	112.482	n/a
78.417	0.497	angry	Picture	27.865	n/a	1	3	8	n/a	48	59	2	n/a	n/a	n/a	n/a	113.013	AF31HAS.jpg
78.914	0.514	Blank	Blank	27.351	n/a	1	3	8	n/a	48	n/a	2	n/a	n/a	n/a	n/a	113.51	n/a
79.444	0.497	angry	Picture	26.837	n/a	1	3	9	n/a	49	41	2	n/a	n/a	n/a	n/a	114.04	AF01HAS.jpg
79.942	0.514	Blank	Blank	26.323	n/a	1	3	9	n/a	49	n/a	2	n/a	n/a	n/a	n/a	114.538	n/a
80.472	0.497	angry	Picture	25.809	n/a	1	3	10	n/a	50	73	2	n/a	n/a	n/a	n/a	115.068	AM21HAS.jpg
80.97	0.514	Blank	Blank	25.295	n/a	1	3	10	n/a	50	n/a	2	n/a	n/a	n/a	n/a	115.566	n/a
81.5	0.497	angry	Picture	24.781	n/a	1	3	11	n/a	51	65	2	n/a	n/a	n/a	n/a	116.096	BM06HAS.jpg
81.998	0.514	Blank	Blank	24.267	n/a	1	3	11	n/a	51	n/a	2	n/a	n/a	n/a	n/a	116.594	n/a
82.528	0.497	angry	Picture	23.754	n/a	1	3	12	n/a	52	56	2	n/a	n/a	n/a	n/a	117.124	AF26HAS.jpg
83.025	0.514	Blank	Blank	23.24	n/a	1	3	12	n/a	52	n/a	2	n/a	n/a	n/a	n/a	117.621	n/a
83.556	0.497	angry	Picture	22.726	n/a	1	3	13	n/a	53	45	2	n/a	n/a	n/a	n/a	118.152	BF07HAS.jpg
84.053	0.514	Blank	Blank	22.212	n/a	1	3	13	n/a	53	n/a	2	n/a	n/a	n/a	n/a	118.649	n/a
84.584	0.497	angry	Picture	21.698	n/a	1	3	14	n/a	54	78	2	n/a	n/a	n/a	n/a	119.18	BM26HAS.jpg
85.081	0.514	Blank	Blank	21.184	n/a	1	3	14	n/a	54	n/a	2	n/a	n/a	n/a	n/a	119.677	n/a
85.612	0.497	angry	Picture	20.67	n/a	1	3	15	n/a	55	50	2	n/a	n/a	n/a	n/a	120.208	AF18HAS.jpg
86.109	0.514	Blank	Blank	20.156	n/a	1	3	15	n/a	55	n/a	2	n/a	n/a	n/a	n/a	120.705	n/a
86.64	0.497	angry	Picture	19.642	n/a	1	3	16	n/a	56	47	2	n/a	n/a	n/a	n/a	121.236	BF11HAS.jpg
87.137	0.514	Blank	Blank	19.128	n/a	1	3	16	n/a	56	n/a	2	n/a	n/a	n/a	n/a	121.733	n/a
87.667	0.497	angry	Picture	18.614	n/a	1	3	17	n/a	57	77	2	n/a	n/a	n/a	n/a	122.263	BM25HAS.jpg
88.165	0.514	Blank	Blank	18.1	n/a	1	3	17	n/a	57	n/a	2	n/a	n/a	n/a	n/a	122.761	n/a
88.695	0.497	angry	Picture	17.586	n/a	1	3	18	n/a	58	57	2	n/a	n/a	n/a	n/a	123.291	BF28HAS.jpg
89.193	0.514	Blank	Blank	17.072	n/a	1	3	18	n/a	58	n/a	2	n/a	n/a	n/a	n/a	123.789	n/a
89.723	0.497	angry	Picture	16.558	n/a	1	3	19	n/a	59	61	2	n/a	n/a	n/a	n/a	124.319	AM01HAS.jpg
90.221	0.514	Blank	Blank	16.044	n/a	1	3	19	n/a	59	n/a	2	n/a	n/a	n/a	n/a	124.817	n/a
90.751	0.497	angry	Picture	15.53	n/a	1	3	20	n/a	60	79	2	n/a	n/a	n/a	n/a	125.347	BM28HAS.jpg
91.249	0.514	Blank	Blank	15.016	n/a	1	3	20	n/a	60	n/a	2	n/a	n/a	n/a	n/a	125.844	n/a
91.779	10.014	ITI	Fixation+	4.986	n/a	1	n/a	n/a	n/a	n/a	n/a	n/a	n/a	n/a	n/a	n/a	126.375	n/a
106.779	n/a	ConfirmRating	Rate	n/a	4.973	1	n/a	n/a	0	n/a	n/a	n/a	2	Angry	54	51	141.375	n/a
110.888	n/a	ConfirmRating	Rate	n/a	4.095	1	n/a	n/a	1	n/a	n/a	n/a	3	Angry	16	48	145.484	n/a
110.911	10.014	ITI	Fixation+	95.469	n/a	2	n/a	n/a	n/a	n/a	n/a	n/a	n/a	n/a	n/a	n/a	145.507	n/a
120.941	0.497	happy	Picture	94.955	n/a	2	4	1	n/a	61	119	3	n/a	n/a	n/a	n/a	155.537	BM28ANS.jpg
121.439	0.514	Blank	Blank	94.441	n/a	2	4	1	n/a	61	n/a	3	n/a	n/a	n/a	n/a	156.035	n/a
121.969	0.497	happy	Picture	93.927	n/a	2	4	2	n/a	62	100	3	n/a	n/a	n/a	n/a	156.565	AF32ANS.jpg
122.466	0.514	Blank	Blank	93.413	n/a	2	4	2	n/a	62	n/a	3	n/a	n/a	n/a	n/a	157.063	n/a
122.997	0.497	happy	Picture	92.9	n/a	2	4	3	n/a	63	118	3	n/a	n/a	n/a	n/a	157.593	BM26ANS.jpg
123.494	0.514	Blank	Blank	92.386	n/a	2	4	3	n/a	63	n/a	3	n/a	n/a	n/a	n/a	158.09	n/a
124.025	0.497	happy	Picture	91.872	n/a	2	4	4	n/a	64	89	3	n/a	n/a	n/a	n/a	158.621	AF17ANS.jpg
124.522	0.514	Blank	Blank	91.358	n/a	2	4	4	n/a	64	n/a	3	n/a	n/a	n/a	n/a	159.118	n/a
125.053	0.497	happy	Picture	90.844	n/a	2	4	5	n/a	65	116	3	n/a	n/a	n/a	n/a	159.649	BM24ANS.jpg
125.55	0.514	Blank	Blank	90.33	n/a	2	4	5	n/a	65	n/a	3	n/a	n/a	n/a	n/a	160.146	n/a
126.081	0.497	happy	Picture	89.816	n/a	2	4	6	n/a	66	105	3	n/a	n/a	n/a	n/a	160.677	BM06ANS.jpg
126.578	0.514	Blank	Blank	89.302	n/a	2	4	6	n/a	66	n/a	3	n/a	n/a	n/a	n/a	161.174	n/a
127.108	0.497	happy	Picture	88.788	n/a	2	4	7	n/a	67	106	3	n/a	n/a	n/a	n/a	161.704	AM07ANS.jpg
127.606	0.514	Blank	Blank	88.274	n/a	2	4	7	n/a	67	n/a	3	n/a	n/a	n/a	n/a	162.202	n/a
128.136	0.497	happy	Picture	87.76	n/a	2	4	8	n/a	68	94	3	n/a	n/a	n/a	n/a	162.732	AF23ANS.jpg
128.634	0.514	Blank	Blank	87.246	n/a	2	4	8	n/a	68	n/a	3	n/a	n/a	n/a	n/a	163.23	n/a
129.164	0.497	happy	Picture	86.732	n/a	2	4	9	n/a	69	117	3	n/a	n/a	n/a	n/a	163.76	BM25ANS.jpg
129.662	0.514	Blank	Blank	86.218	n/a	2	4	9	n/a	69	n/a	3	n/a	n/a	n/a	n/a	164.258	n/a
130.192	0.497	happy	Picture	85.704	n/a	2	4	10	n/a	70	90	3	n/a	n/a	n/a	n/a	164.788	AF18ANS.jpg
130.69	0.514	Blank	Blank	85.19	n/a	2	4	10	n/a	70	n/a	3	n/a	n/a	n/a	n/a	165.286	n/a
131.22	0.497	happy	Picture	84.676	n/a	2	4	11	n/a	71	83	3	n/a	n/a	n/a	n/a	165.816	BF04ANS.jpg
131.718	0.514	Blank	Blank	84.162	n/a	2	4	11	n/a	71	n/a	3	n/a	n/a	n/a	n/a	166.314	n/a
132.248	0.497	happy	Picture	83.649	n/a	2	4	12	n/a	72	112	3	n/a	n/a	n/a	n/a	166.844	AM14ANS.jpg
132.745	0.514	Blank	Blank	83.135	n/a	2	4	12	n/a	72	n/a	3	n/a	n/a	n/a	n/a	167.341	n/a
133.276	0.497	happy	Picture	82.621	n/a	2	4	13	n/a	73	102	3	n/a	n/a	n/a	n/a	167.872	BM03ANS.jpg
133.773	0.514	Blank	Blank	82.107	n/a	2	4	13	n/a	73	n/a	3	n/a	n/a	n/a	n/a	168.369	n/a
134.304	0.497	happy	Picture	81.593	n/a	2	4	14	n/a	74	95	3	n/a	n/a	n/a	n/a	168.9	AF25ANS.jpg
134.801	0.514	Blank	Blank	81.079	n/a	2	4	14	n/a	74	n/a	3	n/a	n/a	n/a	n/a	169.397	n/a
135.332	0.497	happy	Picture	80.565	n/a	2	4	15	n/a	75	113	3	n/a	n/a	n/a	n/a	169.928	AM21ANS.jpg
135.829	0.514	Blank	Blank	80.051	n/a	2	4	15	n/a	75	n/a	3	n/a	n/a	n/a	n/a	170.425	n/a
136.359	0.497	happy	Picture	79.537	n/a	2	4	16	n/a	76	88	3	n/a	n/a	n/a	n/a	170.956	AF14ANS.jpg
136.857	0.514	Blank	Blank	79.023	n/a	2	4	16	n/a	76	n/a	3	n/a	n/a	n/a	n/a	171.453	n/a
137.387	0.497	happy	Picture	78.509	n/a	2	4	17	n/a	77	93	3	n/a	n/a	n/a	n/a	171.983	BF22ANS.jpg
137.885	0.514	Blank	Blank	77.995	n/a	2	4	17	n/a	77	n/a	3	n/a	n/a	n/a	n/a	172.481	n/a
138.415	0.497	happy	Picture	77.481	n/a	2	4	18	n/a	78	86	3	n/a	n/a	n/a	n/a	173.011	AF09ANS.jpg
138.913	0.514	Blank	Blank	76.967	n/a	2	4	18	n/a	78	n/a	3	n/a	n/a	n/a	n/a	173.509	n/a
139.443	0.497	happy	Picture	76.453	n/a	2	4	19	n/a	79	92	3	n/a	n/a	n/a	n/a	174.039	AF21ANS.jpg
139.941	0.514	Blank	Blank	75.939	n/a	2	4	19	n/a	79	n/a	3	n/a	n/a	n/a	n/a	174.537	n/a
140.471	0.497	happy	Picture	75.425	n/a	2	4	20	n/a	80	84	3	n/a	n/a	n/a	n/a	175.067	AF05ANS.jpg
140.968	0.514	Blank	Blank	74.911	n/a	2	4	20	n/a	80	n/a	3	n/a	n/a	n/a	n/a	175.564	n/a
141.499	10.014	ITI	Fixation+	64.881	n/a	2	n/a	n/a	n/a	n/a	n/a	n/a	n/a	n/a	n/a	n/a	176.095	n/a
151.529	0.497	neutral	Picture	64.367	n/a	2	5	1	n/a	81	4	1	n/a	n/a	n/a	n/a	186.125	AF05NES.jpg
152.026	0.514	Blank	Blank	63.853	n/a	2	5	1	n/a	81	n/a	1	n/a	n/a	n/a	n/a	186.623	n/a
152.557	0.497	neutral	Picture	63.34	n/a	2	5	2	n/a	82	14	1	n/a	n/a	n/a	n/a	187.153	AF23NES.jpg
153.054	0.514	Blank	Blank	62.826	n/a	2	5	2	n/a	82	n/a	1	n/a	n/a	n/a	n/a	187.65	n/a
153.585	0.497	neutral	Picture	62.312	n/a	2	5	3	n/a	83	19	1	n/a	n/a	n/a	n/a	188.181	AF31NES.jpg
154.082	0.514	Blank	Blank	61.798	n/a	2	5	3	n/a	83	n/a	1	n/a	n/a	n/a	n/a	188.678	n/a
154.613	0.497	neutral	Picture	61.284	n/a	2	5	4	n/a	84	8	1	n/a	n/a	n/a	n/a	189.209	AF14NES.jpg
155.11	0.514	Blank	Blank	60.77	n/a	2	5	4	n/a	84	n/a	1	n/a	n/a	n/a	n/a	189.706	n/a
155.641	0.497	neutral	Picture	60.256	n/a	2	5	5	n/a	85	25	1	n/a	n/a	n/a	n/a	190.237	BM06NES.jpg
156.138	0.514	Blank	Blank	59.742	n/a	2	5	5	n/a	85	n/a	1	n/a	n/a	n/a	n/a	190.734	n/a
156.669	0.497	neutral	Picture	59.228	n/a	2	5	6	n/a	86	9	1	n/a	n/a	n/a	n/a	191.265	AF17NES.jpg
157.166	0.514	Blank	Blank	58.714	n/a	2	5	6	n/a	86	n/a	1	n/a	n/a	n/a	n/a	191.762	n/a
157.696	0.497	neutral	Picture	58.2	n/a	2	5	7	n/a	87	2	1	n/a	n/a	n/a	n/a	192.292	AF03NES.jpg
158.194	0.514	Blank	Blank	57.686	n/a	2	5	7	n/a	87	n/a	1	n/a	n/a	n/a	n/a	192.79	n/a
158.724	0.497	neutral	Picture	57.172	n/a	2	5	8	n/a	88	17	1	n/a	n/a	n/a	n/a	193.32	BF28NES.jpg
159.222	0.514	Blank	Blank	56.658	n/a	2	5	8	n/a	88	n/a	1	n/a	n/a	n/a	n/a	193.818	n/a
159.752	0.497	neutral	Picture	56.144	n/a	2	5	9	n/a	89	6	1	n/a	n/a	n/a	n/a	194.348	AF09NES.jpg
160.25	0.514	Blank	Blank	55.63	n/a	2	5	9	n/a	89	n/a	1	n/a	n/a	n/a	n/a	194.846	n/a
160.78	0.497	neutral	Picture	55.116	n/a	2	5	10	n/a	90	12	1	n/a	n/a	n/a	n/a	195.376	AF21NES.jpg
161.278	0.514	Blank	Blank	54.602	n/a	2	5	10	n/a	90	n/a	1	n/a	n/a	n/a	n/a	195.874	n/a
161.808	0.497	neutral	Picture	54.089	n/a	2	5	11	n/a	91	24	1	n/a	n/a	n/a	n/a	196.404	BM05NES.jpg
162.305	0.514	Blank	Blank	53.575	n/a	2	5	11	n/a	91	n/a	1	n/a	n/a	n/a	n/a	196.901	n/a
162.836	0.497	neutral	Picture	53.061	n/a	2	5	12	n/a	92	34	1	n/a	n/a	n/a	n/a	197.432	AM22NES.jpg
163.333	0.514	Blank	Blank	52.547	n/a	2	5	12	n/a	92	n/a	1	n/a	n/a	n/a	n/a	197.929	n/a
163.864	0.497	neutral	Picture	52.033	n/a	2	5	13	n/a	93	23	1	n/a	n/a	n/a	n/a	198.46	AM04NES.jpg
164.361	0.514	Blank	Blank	51.519	n/a	2	5	13	n/a	93	n/a	1	n/a	n/a	n/a	n/a	198.957	n/a
164.892	0.497	neutral	Picture	51.005	n/a	2	5	14	n/a	94	15	1	n/a	n/a	n/a	n/a	199.488	AF25NES.jpg
165.389	0.514	Blank	Blank	50.491	n/a	2	5	14	n/a	94	n/a	1	n/a	n/a	n/a	n/a	199.985	n/a
165.92	0.497	neutral	Picture	49.977	n/a	2	5	15	n/a	95	37	1	n/a	n/a	n/a	n/a	200.516	BM25NES.jpg
166.417	0.514	Blank	Blank	49.463	n/a	2	5	15	n/a	95	n/a	1	n/a	n/a	n/a	n/a	201.013	n/a
166.947	0.497	neutral	Picture	48.949	n/a	2	5	16	n/a	96	32	1	n/a	n/a	n/a	n/a	201.543	AM14NES.jpg
167.445	0.514	Blank	Blank	48.435	n/a	2	5	16	n/a	96	n/a	1	n/a	n/a	n/a	n/a	202.041	n/a
167.975	0.497	neutral	Picture	47.921	n/a	2	5	17	n/a	97	3	1	n/a	n/a	n/a	n/a	202.571	BF04NES.jpg
168.473	0.514	Blank	Blank	47.407	n/a	2	5	17	n/a	97	n/a	1	n/a	n/a	n/a	n/a	203.069	n/a
169.003	0.497	neutral	Picture	46.893	n/a	2	5	18	n/a	98	16	1	n/a	n/a	n/a	n/a	203.599	AF26NES.jpg
169.501	0.514	Blank	Blank	46.379	n/a	2	5	18	n/a	98	n/a	1	n/a	n/a	n/a	n/a	204.097	n/a
170.031	0.497	neutral	Picture	45.865	n/a	2	5	19	n/a	99	27	1	n/a	n/a	n/a	n/a	204.627	BM08NES.jpg
170.529	0.514	Blank	Blank	45.351	n/a	2	5	19	n/a	99	n/a	1	n/a	n/a	n/a	n/a	205.125	n/a
171.059	0.497	neutral	Picture	44.838	n/a	2	5	20	n/a	100	28	1	n/a	n/a	n/a	n/a	205.655	AM09NES.jpg
171.556	0.514	Blank	Blank	44.324	n/a	2	5	20	n/a	100	n/a	1	n/a	n/a	n/a	n/a	206.152	n/a
172.087	10.014	ITI	Fixation+	34.293	n/a	2	n/a	n/a	n/a	n/a	n/a	n/a	n/a	n/a	n/a	n/a	206.683	n/a
182.117	0.497	happy	Picture	33.78	n/a	2	6	1	n/a	101	81	3	n/a	n/a	n/a	n/a	216.713	AF01ANS.jpg
182.614	0.514	Blank	Blank	33.266	n/a	2	6	1	n/a	101	n/a	3	n/a	n/a	n/a	n/a	217.21	n/a
183.145	0.497	happy	Picture	32.752	n/a	2	6	2	n/a	102	120	3	n/a	n/a	n/a	n/a	217.741	AM35ANS.jpg
183.642	0.514	Blank	Blank	32.238	n/a	2	6	2	n/a	102	n/a	3	n/a	n/a	n/a	n/a	218.238	n/a
184.173	0.497	happy	Picture	31.724	n/a	2	6	3	n/a	103	114	3	n/a	n/a	n/a	n/a	218.769	AM22ANS.jpg
184.67	0.514	Blank	Blank	31.21	n/a	2	6	3	n/a	103	n/a	3	n/a	n/a	n/a	n/a	219.266	n/a
185.201	0.497	happy	Picture	30.696	n/a	2	6	4	n/a	104	109	3	n/a	n/a	n/a	n/a	219.797	AM10ANS.jpg
185.698	0.514	Blank	Blank	30.182	n/a	2	6	4	n/a	104	n/a	3	n/a	n/a	n/a	n/a	220.294	n/a
186.229	0.497	happy	Picture	29.668	n/a	2	6	5	n/a	105	96	3	n/a	n/a	n/a	n/a	220.825	AF26ANS.jpg
186.726	0.514	Blank	Blank	29.154	n/a	2	6	5	n/a	105	n/a	3	n/a	n/a	n/a	n/a	221.322	n/a
187.256	0.497	happy	Picture	28.64	n/a	2	6	6	n/a	106	82	3	n/a	n/a	n/a	n/a	221.852	AF03ANS.jpg
187.754	0.514	Blank	Blank	28.126	n/a	2	6	6	n/a	106	n/a	3	n/a	n/a	n/a	n/a	222.35	n/a
188.284	0.497	happy	Picture	27.612	n/a	2	6	7	n/a	107	97	3	n/a	n/a	n/a	n/a	222.88	BF28ANS.jpg
188.782	0.514	Blank	Blank	27.098	n/a	2	6	7	n/a	107	n/a	3	n/a	n/a	n/a	n/a	223.378	n/a
189.312	0.497	happy	Picture	26.584	n/a	2	6	8	n/a	108	115	3	n/a	n/a	n/a	n/a	223.908	AM23ANS.jpg
189.81	0.514	Blank	Blank	26.07	n/a	2	6	8	n/a	108	n/a	3	n/a	n/a	n/a	n/a	224.406	n/a
190.34	0.497	happy	Picture	25.556	n/a	2	6	9	n/a	109	91	3	n/a	n/a	n/a	n/a	224.936	AF20ANS.jpg
190.838	0.514	Blank	Blank	25.042	n/a	2	6	9	n/a	109	n/a	3	n/a	n/a	n/a	n/a	225.434	n/a
191.368	0.497	happy	Picture	24.529	n/a	2	6	10	n/a	110	87	3	n/a	n/a	n/a	n/a	225.964	BF11ANS.jpg
191.865	0.514	Blank	Blank	24.014	n/a	2	6	10	n/a	110	n/a	3	n/a	n/a	n/a	n/a	226.461	n/a
192.396	0.497	happy	Picture	23.501	n/a	2	6	11	n/a	111	85	3	n/a	n/a	n/a	n/a	226.992	BF07ANS.jpg
192.893	0.514	Blank	Blank	22.987	n/a	2	6	11	n/a	111	n/a	3	n/a	n/a	n/a	n/a	227.489	n/a
193.424	0.497	happy	Picture	22.473	n/a	2	6	12	n/a	112	110	3	n/a	n/a	n/a	n/a	228.02	AM11ANS.jpg
193.921	0.514	Blank	Blank	21.959	n/a	2	6	12	n/a	112	n/a	3	n/a	n/a	n/a	n/a	228.517	n/a
194.452	0.497	happy	Picture	21.445	n/a	2	6	13	n/a	113	111	3	n/a	n/a	n/a	n/a	229.048	BM12ANS.jpg
194.949	0.514	Blank	Blank	20.931	n/a	2	6	13	n/a	113	n/a	3	n/a	n/a	n/a	n/a	229.545	n/a
195.48	0.497	happy	Picture	20.417	n/a	2	6	14	n/a	114	103	3	n/a	n/a	n/a	n/a	230.076	AM04ANS.jpg
195.977	0.514	Blank	Blank	19.903	n/a	2	6	14	n/a	114	n/a	3	n/a	n/a	n/a	n/a	230.573	n/a
196.507	0.497	happy	Picture	19.389	n/a	2	6	15	n/a	115	101	3	n/a	n/a	n/a	n/a	231.103	AM01ANS.jpg
197.005	0.514	Blank	Blank	18.875	n/a	2	6	15	n/a	115	n/a	3	n/a	n/a	n/a	n/a	231.601	n/a
197.535	0.497	happy	Picture	18.361	n/a	2	6	16	n/a	116	104	3	n/a	n/a	n/a	n/a	232.131	BM05ANS.jpg
198.033	0.514	Blank	Blank	17.847	n/a	2	6	16	n/a	116	n/a	3	n/a	n/a	n/a	n/a	232.629	n/a
198.563	0.497	happy	Picture	17.333	n/a	2	6	17	n/a	117	107	3	n/a	n/a	n/a	n/a	233.159	BM08ANS.jpg
199.061	0.514	Blank	Blank	16.819	n/a	2	6	17	n/a	117	n/a	3	n/a	n/a	n/a	n/a	233.657	n/a
199.591	0.497	happy	Picture	16.305	n/a	2	6	18	n/a	118	98	3	n/a	n/a	n/a	n/a	234.187	BF29ANS.jpg
200.089	0.514	Blank	Blank	15.791	n/a	2	6	18	n/a	118	n/a	3	n/a	n/a	n/a	n/a	234.685	n/a
200.619	0.497	happy	Picture	15.278	n/a	2	6	19	n/a	119	99	3	n/a	n/a	n/a	n/a	235.215	AF31ANS.jpg
201.116	0.514	Blank	Blank	14.763	n/a	2	6	19	n/a	119	n/a	3	n/a	n/a	n/a	n/a	235.712	n/a
201.647	0.497	happy	Picture	14.25	n/a	2	6	20	n/a	120	108	3	n/a	n/a	n/a	n/a	236.243	AM09ANS.jpg
202.144	0.514	Blank	Blank	13.736	n/a	2	6	20	n/a	120	n/a	3	n/a	n/a	n/a	n/a	236.74	n/a
202.675	10.014	ITI	Fixation+	3.706	n/a	2	n/a	n/a	n/a	n/a	n/a	n/a	n/a	n/a	n/a	n/a	237.271	n/a
216.394	n/a	ConfirmRating	Rate	n/a	3.697	2	n/a	n/a	0	n/a	n/a	n/a	2	Happy	82	52	250.99	n/a
219.106	n/a	ConfirmRating	Rate	n/a	2.703	2	n/a	n/a	1	n/a	n/a	n/a	3	Happy	0	49	253.702	n/a
219.138	15.004	Rest	Picture	n/a	n/a	n/a	n/a	n/a	n/a	n/a	n/a	n/a	0	n/a	0	0	253.734	n/a
234.158	10.014	ITI	Fixation+	95.04	n/a	3	n/a	n/a	n/a	n/a	n/a	n/a	n/a	n/a	n/a	n/a	268.754	n/a
244.188	0.497	angry	Picture	94.526	n/a	3	7	1	n/a	1	46	2	n/a	n/a	n/a	n/a	278.784	AF09HAS.jpg
244.686	0.514	Blank	Blank	94.012	n/a	3	7	1	n/a	1	n/a	2	n/a	n/a	n/a	n/a	279.282	n/a
245.216	0.497	angry	Picture	93.498	n/a	3	7	2	n/a	2	69	2	n/a	n/a	n/a	n/a	279.812	AM10HAS.jpg
245.714	0.514	Blank	Blank	92.984	n/a	3	7	2	n/a	2	n/a	2	n/a	n/a	n/a	n/a	280.31	n/a
246.244	0.497	angry	Picture	92.47	n/a	3	7	3	n/a	3	71	2	n/a	n/a	n/a	n/a	280.84	BM12HAS.jpg
246.741	0.514	Blank	Blank	91.956	n/a	3	7	3	n/a	3	n/a	2	n/a	n/a	n/a	n/a	281.337	n/a
247.272	0.497	angry	Picture	91.442	n/a	3	7	4	n/a	4	51	2	n/a	n/a	n/a	n/a	281.868	AF20HAS.jpg
247.769	0.514	Blank	Blank	90.928	n/a	3	7	4	n/a	4	n/a	2	n/a	n/a	n/a	n/a	282.365	n/a
248.3	0.497	angry	Picture	90.414	n/a	3	7	5	n/a	5	67	2	n/a	n/a	n/a	n/a	282.896	BM08HAS.jpg
248.797	0.514	Blank	Blank	89.9	n/a	3	7	5	n/a	5	n/a	2	n/a	n/a	n/a	n/a	283.393	n/a
249.328	0.497	angry	Picture	89.387	n/a	3	7	6	n/a	6	60	2	n/a	n/a	n/a	n/a	283.924	AF32HAS.jpg
249.825	0.514	Blank	Blank	88.873	n/a	3	7	6	n/a	6	n/a	2	n/a	n/a	n/a	n/a	284.421	n/a
250.356	0.497	angry	Picture	88.359	n/a	3	7	7	n/a	7	42	2	n/a	n/a	n/a	n/a	284.952	AF03HAS.jpg
250.853	0.514	Blank	Blank	87.845	n/a	3	7	7	n/a	7	n/a	2	n/a	n/a	n/a	n/a	285.449	n/a
251.383	0.497	angry	Picture	87.331	n/a	3	7	8	n/a	8	55	2	n/a	n/a	n/a	n/a	285.979	AF25HAS.jpg
251.881	0.514	Blank	Blank	86.817	n/a	3	7	8	n/a	8	n/a	2	n/a	n/a	n/a	n/a	286.477	n/a
252.411	0.497	angry	Picture	86.303	n/a	3	7	9	n/a	9	72	2	n/a	n/a	n/a	n/a	287.007	AM14HAS.jpg
252.909	0.514	Blank	Blank	85.789	n/a	3	7	9	n/a	9	n/a	2	n/a	n/a	n/a	n/a	287.505	n/a
253.439	0.497	angry	Picture	85.275	n/a	3	7	10	n/a	10	63	2	n/a	n/a	n/a	n/a	288.035	AM04HAS.jpg
253.937	0.514	Blank	Blank	84.761	n/a	3	7	10	n/a	10	n/a	2	n/a	n/a	n/a	n/a	288.533	n/a
254.467	0.497	angry	Picture	84.247	n/a	3	7	11	n/a	11	58	2	n/a	n/a	n/a	n/a	289.063	BF29HAS.jpg
254.964	0.514	Blank	Blank	83.733	n/a	3	7	11	n/a	11	n/a	2	n/a	n/a	n/a	n/a	289.56	n/a
255.495	0.497	angry	Picture	83.219	n/a	3	7	12	n/a	12	48	2	n/a	n/a	n/a	n/a	290.091	AF14HAS.jpg
255.992	0.514	Blank	Blank	82.705	n/a	3	7	12	n/a	12	n/a	2	n/a	n/a	n/a	n/a	290.588	n/a
256.523	0.497	angry	Picture	82.191	n/a	3	7	13	n/a	13	66	2	n/a	n/a	n/a	n/a	291.119	BM07HAS.jpg
257.02	0.514	Blank	Blank	81.677	n/a	3	7	13	n/a	13	n/a	2	n/a	n/a	n/a	n/a	291.616	n/a
257.551	0.497	angry	Picture	81.163	n/a	3	7	14	n/a	14	70	2	n/a	n/a	n/a	n/a	292.147	BM11HAS.jpg
258.048	0.514	Blank	Blank	80.649	n/a	3	7	14	n/a	14	n/a	2	n/a	n/a	n/a	n/a	292.644	n/a
258.579	0.497	angry	Picture	80.136	n/a	3	7	15	n/a	15	43	2	n/a	n/a	n/a	n/a	293.175	BF04HAS.jpg
259.076	0.514	Blank	Blank	79.622	n/a	3	7	15	n/a	15	n/a	2	n/a	n/a	n/a	n/a	293.672	n/a
259.606	0.497	angry	Picture	79.108	n/a	3	7	16	n/a	16	49	2	n/a	n/a	n/a	n/a	294.202	AF17HAS.jpg
260.104	0.514	Blank	Blank	78.594	n/a	3	7	16	n/a	16	n/a	2	n/a	n/a	n/a	n/a	294.7	n/a
260.634	0.497	angry	Picture	78.08	n/a	3	7	17	n/a	17	75	2	n/a	n/a	n/a	n/a	295.23	AM23HAS.jpg
261.132	0.514	Blank	Blank	77.566	n/a	3	7	17	n/a	17	n/a	2	n/a	n/a	n/a	n/a	295.728	n/a
261.662	0.497	angry	Picture	77.052	n/a	3	7	18	n/a	18	80	2	n/a	n/a	n/a	n/a	296.258	BM35HAS.jpg
262.16	0.514	Blank	Blank	76.538	n/a	3	7	18	n/a	18	n/a	2	n/a	n/a	n/a	n/a	296.756	n/a
262.69	0.497	angry	Picture	76.024	n/a	3	7	19	n/a	19	76	2	n/a	n/a	n/a	n/a	297.286	BM24HAS.jpg
263.188	0.514	Blank	Blank	75.51	n/a	3	7	19	n/a	19	n/a	2	n/a	n/a	n/a	n/a	297.784	n/a
263.718	0.497	angry	Picture	74.996	n/a	3	7	20	n/a	20	74	2	n/a	n/a	n/a	n/a	298.314	AM22HAS.jpg
264.215	0.514	Blank	Blank	74.482	n/a	3	7	20	n/a	20	n/a	2	n/a	n/a	n/a	n/a	298.811	n/a
264.746	10.014	ITI	Fixation+	64.452	n/a	3	n/a	n/a	n/a	n/a	n/a	n/a	n/a	n/a	n/a	n/a	299.342	n/a
274.776	0.497	neutral	Picture	63.938	n/a	3	8	1	n/a	21	33	1	n/a	n/a	n/a	n/a	309.372	AM21NES.jpg
275.274	0.514	Blank	Blank	63.424	n/a	3	8	1	n/a	21	n/a	1	n/a	n/a	n/a	n/a	309.87	n/a
275.804	0.497	neutral	Picture	62.91	n/a	3	8	2	n/a	22	39	1	n/a	n/a	n/a	n/a	310.4	AM28NES.jpg
276.301	0.514	Blank	Blank	62.396	n/a	3	8	2	n/a	22	n/a	1	n/a	n/a	n/a	n/a	310.897	n/a
276.832	0.497	neutral	Picture	61.882	n/a	3	8	3	n/a	23	25	1	n/a	n/a	n/a	n/a	311.428	BM06NES.jpg
277.329	0.514	Blank	Blank	61.368	n/a	3	8	3	n/a	23	n/a	1	n/a	n/a	n/a	n/a	311.925	n/a
277.86	0.497	neutral	Picture	60.854	n/a	3	8	4	n/a	24	5	1	n/a	n/a	n/a	n/a	312.456	BF07NES.jpg
278.357	0.514	Blank	Blank	60.341	n/a	3	8	4	n/a	24	n/a	1	n/a	n/a	n/a	n/a	312.953	n/a
278.888	0.497	neutral	Picture	59.826	n/a	3	8	5	n/a	25	10	1	n/a	n/a	n/a	n/a	313.484	AF18NES.jpg
279.385	0.514	Blank	Blank	59.313	n/a	3	8	5	n/a	25	n/a	1	n/a	n/a	n/a	n/a	313.981	n/a
279.916	0.497	neutral	Picture	58.799	n/a	3	8	6	n/a	26	34	1	n/a	n/a	n/a	n/a	314.512	AM22NES.jpg
280.413	0.514	Blank	Blank	58.285	n/a	3	8	6	n/a	26	n/a	1	n/a	n/a	n/a	n/a	315.009	n/a
280.943	0.497	neutral	Picture	57.771	n/a	3	8	7	n/a	27	36	1	n/a	n/a	n/a	n/a	315.539	BM24NES.jpg
281.441	0.514	Blank	Blank	57.257	n/a	3	8	7	n/a	27	n/a	1	n/a	n/a	n/a	n/a	316.037	n/a
281.971	0.497	neutral	Picture	56.743	n/a	3	8	8	n/a	28	14	1	n/a	n/a	n/a	n/a	316.567	AF23NES.jpg
282.469	0.514	Blank	Blank	56.229	n/a	3	8	8	n/a	28	n/a	1	n/a	n/a	n/a	n/a	317.065	n/a
282.999	0.497	neutral	Picture	55.715	n/a	3	8	9	n/a	29	9	1	n/a	n/a	n/a	n/a	317.595	AF17NES.jpg
283.497	0.514	Blank	Blank	55.201	n/a	3	8	9	n/a	29	n/a	1	n/a	n/a	n/a	n/a	318.093	n/a
284.027	0.497	neutral	Picture	54.687	n/a	3	8	10	n/a	30	19	1	n/a	n/a	n/a	n/a	318.623	AF31NES.jpg
284.524	0.514	Blank	Blank	54.173	n/a	3	8	10	n/a	30	n/a	1	n/a	n/a	n/a	n/a	319.12	n/a
285.055	0.497	neutral	Picture	53.659	n/a	3	8	11	n/a	31	15	1	n/a	n/a	n/a	n/a	319.651	AF25NES.jpg
285.552	0.514	Blank	Blank	53.145	n/a	3	8	11	n/a	31	n/a	1	n/a	n/a	n/a	n/a	320.148	n/a
286.083	0.497	neutral	Picture	52.631	n/a	3	8	12	n/a	32	22	1	n/a	n/a	n/a	n/a	320.679	BM03NES.jpg
286.58	0.514	Blank	Blank	52.117	n/a	3	8	12	n/a	32	n/a	1	n/a	n/a	n/a	n/a	321.176	n/a
287.111	0.497	neutral	Picture	51.603	n/a	3	8	13	n/a	33	11	1	n/a	n/a	n/a	n/a	321.707	AF20NES.jpg
287.608	0.514	Blank	Blank	51.089	n/a	3	8	13	n/a	33	n/a	1	n/a	n/a	n/a	n/a	322.204	n/a
288.139	0.497	neutral	Picture	50.576	n/a	3	8	14	n/a	34	4	1	n/a	n/a	n/a	n/a	322.735	AF05NES.jpg
288.636	0.514	Blank	Blank	50.062	n/a	3	8	14	n/a	34	n/a	1	n/a	n/a	n/a	n/a	323.232	n/a
289.167	0.497	neutral	Picture	49.548	n/a	3	8	15	n/a	35	17	1	n/a	n/a	n/a	n/a	323.763	BF28NES.jpg
289.664	0.514	Blank	Blank	49.034	n/a	3	8	15	n/a	35	n/a	1	n/a	n/a	n/a	n/a	324.26	n/a
290.195	0.497	neutral	Picture	48.52	n/a	3	8	16	n/a	36	13	1	n/a	n/a	n/a	n/a	324.791	BF22NES.jpg
290.692	0.514	Blank	Blank	48.006	n/a	3	8	16	n/a	36	n/a	1	n/a	n/a	n/a	n/a	325.288	n/a
291.222	0.497	neutral	Picture	47.492	n/a	3	8	17	n/a	37	12	1	n/a	n/a	n/a	n/a	325.818	AF21NES.jpg
291.72	0.514	Blank	Blank	46.978	n/a	3	8	17	n/a	37	n/a	1	n/a	n/a	n/a	n/a	326.316	n/a
292.25	0.497	neutral	Picture	46.464	n/a	3	8	18	n/a	38	24	1	n/a	n/a	n/a	n/a	326.846	BM05NES.jpg
292.748	0.514	Blank	Blank	45.95	n/a	3	8	18	n/a	38	n/a	1	n/a	n/a	n/a	n/a	327.344	n/a
293.278	0.497	neutral	Picture	45.436	n/a	3	8	19	n/a	39	29	1	n/a	n/a	n/a	n/a	327.874	AM10NES.jpg
293.776	0.514	Blank	Blank	44.922	n/a	3	8	19	n/a	39	n/a	1	n/a	n/a	n/a	n/a	328.372	n/a
294.306	0.497	neutral	Picture	44.408	n/a	3	8	20	n/a	40	23	1	n/a	n/a	n/a	n/a	328.902	AM04NES.jpg
294.803	0.514	Blank	Blank	43.894	n/a	3	8	20	n/a	40	n/a	1	n/a	n/a	n/a	n/a	329.399	n/a
295.334	10.014	ITI	Fixation+	33.864	n/a	3	n/a	n/a	n/a	n/a	n/a	n/a	n/a	n/a	n/a	n/a	329.93	n/a
305.364	0.497	angry	Picture	33.35	n/a	3	9	1	n/a	41	62	2	n/a	n/a	n/a	n/a	339.96	BM03HAS.jpg
305.861	0.514	Blank	Blank	32.836	n/a	3	9	1	n/a	41	n/a	2	n/a	n/a	n/a	n/a	340.457	n/a
306.392	0.497	angry	Picture	32.322	n/a	3	9	2	n/a	42	52	2	n/a	n/a	n/a	n/a	340.988	AF21HAS.jpg
306.889	0.514	Blank	Blank	31.808	n/a	3	9	2	n/a	42	n/a	2	n/a	n/a	n/a	n/a	341.485	n/a
307.42	0.497	angry	Picture	31.294	n/a	3	9	3	n/a	43	44	2	n/a	n/a	n/a	n/a	342.016	AF05HAS.jpg
307.917	0.514	Blank	Blank	30.78	n/a	3	9	3	n/a	43	n/a	2	n/a	n/a	n/a	n/a	342.513	n/a
308.448	0.497	angry	Picture	30.266	n/a	3	9	4	n/a	44	53	2	n/a	n/a	n/a	n/a	343.044	BF22HAS.jpg
308.945	0.514	Blank	Blank	29.752	n/a	3	9	4	n/a	44	n/a	2	n/a	n/a	n/a	n/a	343.541	n/a
309.476	0.497	angry	Picture	29.239	n/a	3	9	5	n/a	45	54	2	n/a	n/a	n/a	n/a	344.072	AF23HAS.jpg
309.973	0.514	Blank	Blank	28.725	n/a	3	9	5	n/a	45	n/a	2	n/a	n/a	n/a	n/a	344.569	n/a
310.503	0.497	angry	Picture	28.211	n/a	3	9	6	n/a	46	68	2	n/a	n/a	n/a	n/a	345.099	AM09HAS.jpg
311.001	0.514	Blank	Blank	27.697	n/a	3	9	6	n/a	46	n/a	2	n/a	n/a	n/a	n/a	345.597	n/a
311.531	0.497	angry	Picture	27.183	n/a	3	9	7	n/a	47	64	2	n/a	n/a	n/a	n/a	346.127	BM05HAS.jpg
312.029	0.514	Blank	Blank	26.669	n/a	3	9	7	n/a	47	n/a	2	n/a	n/a	n/a	n/a	346.625	n/a
312.559	0.497	angry	Picture	26.155	n/a	3	9	8	n/a	48	59	2	n/a	n/a	n/a	n/a	347.155	AF31HAS.jpg
313.057	0.514	Blank	Blank	25.641	n/a	3	9	8	n/a	48	n/a	2	n/a	n/a	n/a	n/a	347.653	n/a
313.587	0.497	angry	Picture	25.127	n/a	3	9	9	n/a	49	41	2	n/a	n/a	n/a	n/a	348.183	AF01HAS.jpg
314.084	0.514	Blank	Blank	24.613	n/a	3	9	9	n/a	49	n/a	2	n/a	n/a	n/a	n/a	348.68	n/a
314.615	0.497	angry	Picture	24.099	n/a	3	9	10	n/a	50	73	2	n/a	n/a	n/a	n/a	349.211	AM21HAS.jpg
315.112	0.514	Blank	Blank	23.585	n/a	3	9	10	n/a	50	n/a	2	n/a	n/a	n/a	n/a	349.708	n/a
315.643	0.497	angry	Picture	23.071	n/a	3	9	11	n/a	51	65	2	n/a	n/a	n/a	n/a	350.239	BM06HAS.jpg
316.14	0.514	Blank	Blank	22.557	n/a	3	9	11	n/a	51	n/a	2	n/a	n/a	n/a	n/a	350.736	n/a
316.671	0.497	angry	Picture	22.043	n/a	3	9	12	n/a	52	56	2	n/a	n/a	n/a	n/a	351.267	AF26HAS.jpg
317.168	0.514	Blank	Blank	21.529	n/a	3	9	12	n/a	52	n/a	2	n/a	n/a	n/a	n/a	351.764	n/a
317.699	0.497	angry	Picture	21.015	n/a	3	9	13	n/a	53	45	2	n/a	n/a	n/a	n/a	352.295	BF07HAS.jpg
318.196	0.514	Blank	Blank	20.502	n/a	3	9	13	n/a	53	n/a	2	n/a	n/a	n/a	n/a	352.792	n/a
318.727	0.497	angry	Picture	19.988	n/a	3	9	14	n/a	54	78	2	n/a	n/a	n/a	n/a	353.323	BM26HAS.jpg
319.224	0.514	Blank	Blank	19.474	n/a	3	9	14	n/a	54	n/a	2	n/a	n/a	n/a	n/a	353.82	n/a
319.755	0.497	angry	Picture	18.96	n/a	3	9	15	n/a	55	50	2	n/a	n/a	n/a	n/a	354.351	AF18HAS.jpg
320.252	0.514	Blank	Blank	18.446	n/a	3	9	15	n/a	55	n/a	2	n/a	n/a	n/a	n/a	354.848	n/a
320.782	0.497	angry	Picture	17.932	n/a	3	9	16	n/a	56	47	2	n/a	n/a	n/a	n/a	355.378	BF11HAS.jpg
321.28	0.514	Blank	Blank	17.418	n/a	3	9	16	n/a	56	n/a	2	n/a	n/a	n/a	n/a	355.876	n/a
321.81	0.497	angry	Picture	16.904	n/a	3	9	17	n/a	57	77	2	n/a	n/a	n/a	n/a	356.406	BM25HAS.jpg
322.308	0.514	Blank	Blank	16.39	n/a	3	9	17	n/a	57	n/a	2	n/a	n/a	n/a	n/a	356.904	n/a
322.838	0.497	angry	Picture	15.876	n/a	3	9	18	n/a	58	57	2	n/a	n/a	n/a	n/a	357.434	BF28HAS.jpg
323.336	0.514	Blank	Blank	15.362	n/a	3	9	18	n/a	58	n/a	2	n/a	n/a	n/a	n/a	357.932	n/a
323.866	0.497	angry	Picture	14.848	n/a	3	9	19	n/a	59	61	2	n/a	n/a	n/a	n/a	358.462	AM01HAS.jpg
324.363	0.514	Blank	Blank	14.334	n/a	3	9	19	n/a	59	n/a	2	n/a	n/a	n/a	n/a	358.959	n/a
324.894	0.497	angry	Picture	13.82	n/a	3	9	20	n/a	60	79	2	n/a	n/a	n/a	n/a	359.49	BM28HAS.jpg
325.391	0.514	Blank	Blank	13.306	n/a	3	9	20	n/a	60	n/a	2	n/a	n/a	n/a	n/a	359.987	n/a
325.922	10.014	ITI	Fixation+	3.276	n/a	3	n/a	n/a	n/a	n/a	n/a	n/a	n/a	n/a	n/a	n/a	360.518	n/a
339.212	n/a	ConfirmRating	Rate	n/a	3.266	3	n/a	n/a	0	n/a	n/a	n/a	2	Angry	77	52	373.808	n/a
341.339	n/a	ConfirmRating	Rate	n/a	2.106	3	n/a	n/a	1	n/a	n/a	n/a	3	Angry	0	49	375.935	n/a
341.357	10.014	ITI	Fixation+	95.17	n/a	4	n/a	n/a	n/a	n/a	n/a	n/a	n/a	n/a	n/a	n/a	375.953	n/a
351.387	0.497	happy	Picture	94.656	n/a	4	10	1	n/a	61	119	3	n/a	n/a	n/a	n/a	385.983	BM28ANS.jpg
351.884	0.514	Blank	Blank	94.142	n/a	4	10	1	n/a	61	n/a	3	n/a	n/a	n/a	n/a	386.48	n/a
352.415	0.497	happy	Picture	93.628	n/a	4	10	2	n/a	62	100	3	n/a	n/a	n/a	n/a	387.011	AF32ANS.jpg
352.912	0.514	Blank	Blank	93.114	n/a	4	10	2	n/a	62	n/a	3	n/a	n/a	n/a	n/a	387.508	n/a
353.443	0.497	happy	Picture	92.6	n/a	4	10	3	n/a	63	118	3	n/a	n/a	n/a	n/a	388.039	BM26ANS.jpg
353.94	0.514	Blank	Blank	92.086	n/a	4	10	3	n/a	63	n/a	3	n/a	n/a	n/a	n/a	388.536	n/a
354.471	0.497	happy	Picture	91.572	n/a	4	10	4	n/a	64	89	3	n/a	n/a	n/a	n/a	389.067	AF17ANS.jpg
354.968	0.514	Blank	Blank	91.058	n/a	4	10	4	n/a	64	n/a	3	n/a	n/a	n/a	n/a	389.564	n/a
355.498	0.497	happy	Picture	90.545	n/a	4	10	5	n/a	65	116	3	n/a	n/a	n/a	n/a	390.094	BM24ANS.jpg
355.996	0.514	Blank	Blank	90.031	n/a	4	10	5	n/a	65	n/a	3	n/a	n/a	n/a	n/a	390.592	n/a
356.526	0.497	happy	Picture	89.517	n/a	4	10	6	n/a	66	105	3	n/a	n/a	n/a	n/a	391.122	BM06ANS.jpg
357.024	0.514	Blank	Blank	89.003	n/a	4	10	6	n/a	66	n/a	3	n/a	n/a	n/a	n/a	391.62	n/a
357.554	0.497	happy	Picture	88.489	n/a	4	10	7	n/a	67	106	3	n/a	n/a	n/a	n/a	392.15	AM07ANS.jpg
358.052	0.514	Blank	Blank	87.975	n/a	4	10	7	n/a	67	n/a	3	n/a	n/a	n/a	n/a	392.648	n/a
358.582	0.497	happy	Picture	87.461	n/a	4	10	8	n/a	68	94	3	n/a	n/a	n/a	n/a	393.178	AF23ANS.jpg
359.079	0.514	Blank	Blank	86.947	n/a	4	10	8	n/a	68	n/a	3	n/a	n/a	n/a	n/a	393.675	n/a
359.61	0.497	happy	Picture	86.433	n/a	4	10	9	n/a	69	117	3	n/a	n/a	n/a	n/a	394.206	BM25ANS.jpg
360.107	0.514	Blank	Blank	85.919	n/a	4	10	9	n/a	69	n/a	3	n/a	n/a	n/a	n/a	394.703	n/a
360.638	0.497	happy	Picture	85.405	n/a	4	10	10	n/a	70	90	3	n/a	n/a	n/a	n/a	395.234	AF18ANS.jpg
361.135	0.514	Blank	Blank	84.891	n/a	4	10	10	n/a	70	n/a	3	n/a	n/a	n/a	n/a	395.731	n/a
361.666	0.497	happy	Picture	84.377	n/a	4	10	11	n/a	71	83	3	n/a	n/a	n/a	n/a	396.262	BF04ANS.jpg
362.163	0.514	Blank	Blank	83.863	n/a	4	10	11	n/a	71	n/a	3	n/a	n/a	n/a	n/a	396.759	n/a
362.694	0.497	happy	Picture	83.349	n/a	4	10	12	n/a	72	112	3	n/a	n/a	n/a	n/a	397.29	AM14ANS.jpg
363.191	0.514	Blank	Blank	82.835	n/a	4	10	12	n/a	72	n/a	3	n/a	n/a	n/a	n/a	397.787	n/a
363.722	0.497	happy	Picture	82.321	n/a	4	10	13	n/a	73	102	3	n/a	n/a	n/a	n/a	398.318	BM03ANS.jpg
364.219	0.514	Blank	Blank	81.807	n/a	4	10	13	n/a	73	n/a	3	n/a	n/a	n/a	n/a	398.815	n/a
364.749	0.497	happy	Picture	81.294	n/a	4	10	14	n/a	74	95	3	n/a	n/a	n/a	n/a	399.345	AF25ANS.jpg
365.247	0.514	Blank	Blank	80.78	n/a	4	10	14	n/a	74	n/a	3	n/a	n/a	n/a	n/a	399.843	n/a
365.777	0.497	happy	Picture	80.266	n/a	4	10	15	n/a	75	113	3	n/a	n/a	n/a	n/a	400.373	AM21ANS.jpg
366.275	0.514	Blank	Blank	79.752	n/a	4	10	15	n/a	75	n/a	3	n/a	n/a	n/a	n/a	400.871	n/a
366.805	0.497	happy	Picture	79.238	n/a	4	10	16	n/a	76	88	3	n/a	n/a	n/a	n/a	401.401	AF14ANS.jpg
367.303	0.514	Blank	Blank	78.724	n/a	4	10	16	n/a	76	n/a	3	n/a	n/a	n/a	n/a	401.899	n/a
367.833	0.497	happy	Picture	78.21	n/a	4	10	17	n/a	77	93	3	n/a	n/a	n/a	n/a	402.429	BF22ANS.jpg
368.33	0.514	Blank	Blank	77.696	n/a	4	10	17	n/a	77	n/a	3	n/a	n/a	n/a	n/a	402.926	n/a
368.861	0.497	happy	Picture	77.182	n/a	4	10	18	n/a	78	86	3	n/a	n/a	n/a	n/a	403.457	AF09ANS.jpg
369.358	0.514	Blank	Blank	76.668	n/a	4	10	18	n/a	78	n/a	3	n/a	n/a	n/a	n/a	403.954	n/a
369.889	0.497	happy	Picture	76.154	n/a	4	10	19	n/a	79	92	3	n/a	n/a	n/a	n/a	404.485	AF21ANS.jpg
370.386	0.514	Blank	Blank	75.64	n/a	4	10	19	n/a	79	n/a	3	n/a	n/a	n/a	n/a	404.982	n/a
370.917	0.497	happy	Picture	75.126	n/a	4	10	20	n/a	80	84	3	n/a	n/a	n/a	n/a	405.513	AF05ANS.jpg
371.414	0.514	Blank	Blank	74.612	n/a	4	10	20	n/a	80	n/a	3	n/a	n/a	n/a	n/a	406.01	n/a
371.945	10.014	ITI	Fixation+	64.582	n/a	4	n/a	n/a	n/a	n/a	n/a	n/a	n/a	n/a	n/a	n/a	406.541	n/a
381.975	0.497	neutral	Picture	64.068	n/a	4	11	1	n/a	81	4	1	n/a	n/a	n/a	n/a	416.571	AF05NES.jpg
382.472	0.514	Blank	Blank	63.554	n/a	4	11	1	n/a	81	n/a	1	n/a	n/a	n/a	n/a	417.068	n/a
383.003	0.497	neutral	Picture	63.04	n/a	4	11	2	n/a	82	14	1	n/a	n/a	n/a	n/a	417.599	AF23NES.jpg
383.5	0.514	Blank	Blank	62.526	n/a	4	11	2	n/a	82	n/a	1	n/a	n/a	n/a	n/a	418.096	n/a
384.031	0.497	neutral	Picture	62.012	n/a	4	11	3	n/a	83	19	1	n/a	n/a	n/a	n/a	418.627	AF31NES.jpg
384.528	0.514	Blank	Blank	61.498	n/a	4	11	3	n/a	83	n/a	1	n/a	n/a	n/a	n/a	419.124	n/a
385.058	0.497	neutral	Picture	60.984	n/a	4	11	4	n/a	84	8	1	n/a	n/a	n/a	n/a	419.654	AF14NES.jpg
385.556	0.514	Blank	Blank	60.471	n/a	4	11	4	n/a	84	n/a	1	n/a	n/a	n/a	n/a	420.152	n/a
386.086	0.497	neutral	Picture	59.957	n/a	4	11	5	n/a	85	25	1	n/a	n/a	n/a	n/a	420.682	BM06NES.jpg
386.584	0.514	Blank	Blank	59.443	n/a	4	11	5	n/a	85	n/a	1	n/a	n/a	n/a	n/a	421.18	n/a
387.114	0.497	neutral	Picture	58.929	n/a	4	11	6	n/a	86	9	1	n/a	n/a	n/a	n/a	421.71	AF17NES.jpg
387.612	0.514	Blank	Blank	58.415	n/a	4	11	6	n/a	86	n/a	1	n/a	n/a	n/a	n/a	422.208	n/a
388.142	0.497	neutral	Picture	57.901	n/a	4	11	7	n/a	87	2	1	n/a	n/a	n/a	n/a	422.738	AF03NES.jpg
388.639	0.514	Blank	Blank	57.387	n/a	4	11	7	n/a	87	n/a	1	n/a	n/a	n/a	n/a	423.236	n/a
389.17	0.497	neutral	Picture	56.873	n/a	4	11	8	n/a	88	17	1	n/a	n/a	n/a	n/a	423.766	BF28NES.jpg
389.667	0.514	Blank	Blank	56.359	n/a	4	11	8	n/a	88	n/a	1	n/a	n/a	n/a	n/a	424.263	n/a
390.198	0.497	neutral	Picture	55.845	n/a	4	11	9	n/a	89	6	1	n/a	n/a	n/a	n/a	424.794	AF09NES.jpg
390.695	0.514	Blank	Blank	55.331	n/a	4	11	9	n/a	89	n/a	1	n/a	n/a	n/a	n/a	425.291	n/a
391.226	0.497	neutral	Picture	54.817	n/a	4	11	10	n/a	90	12	1	n/a	n/a	n/a	n/a	425.822	AF21NES.jpg
391.723	0.514	Blank	Blank	54.303	n/a	4	11	10	n/a	90	n/a	1	n/a	n/a	n/a	n/a	426.319	n/a
392.254	0.497	neutral	Picture	53.789	n/a	4	11	11	n/a	91	24	1	n/a	n/a	n/a	n/a	426.85	BM05NES.jpg
392.751	0.514	Blank	Blank	53.275	n/a	4	11	11	n/a	91	n/a	1	n/a	n/a	n/a	n/a	427.347	n/a
393.282	0.497	neutral	Picture	52.762	n/a	4	11	12	n/a	92	34	1	n/a	n/a	n/a	n/a	427.878	AM22NES.jpg
393.779	0.514	Blank	Blank	52.247	n/a	4	11	12	n/a	92	n/a	1	n/a	n/a	n/a	n/a	428.375	n/a
394.31	0.497	neutral	Picture	51.733	n/a	4	11	13	n/a	93	23	1	n/a	n/a	n/a	n/a	428.906	AM04NES.jpg
394.807	0.514	Blank	Blank	51.22	n/a	4	11	13	n/a	93	n/a	1	n/a	n/a	n/a	n/a	429.403	n/a
395.337	0.497	neutral	Picture	50.706	n/a	4	11	14	n/a	94	15	1	n/a	n/a	n/a	n/a	429.933	AF25NES.jpg
395.835	0.514	Blank	Blank	50.192	n/a	4	11	14	n/a	94	n/a	1	n/a	n/a	n/a	n/a	430.431	n/a
396.365	0.497	neutral	Picture	49.678	n/a	4	11	15	n/a	95	37	1	n/a	n/a	n/a	n/a	430.961	BM25NES.jpg
396.863	0.514	Blank	Blank	49.164	n/a	4	11	15	n/a	95	n/a	1	n/a	n/a	n/a	n/a	431.459	n/a
397.393	0.497	neutral	Picture	48.65	n/a	4	11	16	n/a	96	32	1	n/a	n/a	n/a	n/a	431.989	AM14NES.jpg
397.89	0.514	Blank	Blank	48.136	n/a	4	11	16	n/a	96	n/a	1	n/a	n/a	n/a	n/a	432.486	n/a
398.421	0.497	neutral	Picture	47.622	n/a	4	11	17	n/a	97	3	1	n/a	n/a	n/a	n/a	433.017	BF04NES.jpg
398.918	0.514	Blank	Blank	47.108	n/a	4	11	17	n/a	97	n/a	1	n/a	n/a	n/a	n/a	433.514	n/a
399.449	0.497	neutral	Picture	46.594	n/a	4	11	18	n/a	98	16	1	n/a	n/a	n/a	n/a	434.045	AF26NES.jpg
399.946	0.514	Blank	Blank	46.08	n/a	4	11	18	n/a	98	n/a	1	n/a	n/a	n/a	n/a	434.542	n/a
400.477	0.497	neutral	Picture	45.566	n/a	4	11	19	n/a	99	27	1	n/a	n/a	n/a	n/a	435.073	BM08NES.jpg
400.974	0.514	Blank	Blank	45.052	n/a	4	11	19	n/a	99	n/a	1	n/a	n/a	n/a	n/a	435.57	n/a
401.505	0.497	neutral	Picture	44.538	n/a	4	11	20	n/a	100	28	1	n/a	n/a	n/a	n/a	436.101	AM09NES.jpg
402.002	0.514	Blank	Blank	44.024	n/a	4	11	20	n/a	100	n/a	1	n/a	n/a	n/a	n/a	436.598	n/a
402.533	10.014	ITI	Fixation+	33.994	n/a	4	n/a	n/a	n/a	n/a	n/a	n/a	n/a	n/a	n/a	n/a	437.129	n/a
412.563	0.497	happy	Picture	33.48	n/a	4	12	1	n/a	101	81	3	n/a	n/a	n/a	n/a	447.159	AF01ANS.jpg
413.06	0.514	Blank	Blank	32.966	n/a	4	12	1	n/a	101	n/a	3	n/a	n/a	n/a	n/a	447.656	n/a
413.591	0.497	happy	Picture	32.452	n/a	4	12	2	n/a	102	120	3	n/a	n/a	n/a	n/a	448.187	AM35ANS.jpg
414.088	0.514	Blank	Blank	31.938	n/a	4	12	2	n/a	102	n/a	3	n/a	n/a	n/a	n/a	448.684	n/a
414.619	0.497	happy	Picture	31.424	n/a	4	12	3	n/a	103	114	3	n/a	n/a	n/a	n/a	449.215	AM22ANS.jpg
415.116	0.514	Blank	Blank	30.91	n/a	4	12	3	n/a	103	n/a	3	n/a	n/a	n/a	n/a	449.712	n/a
415.646	0.497	happy	Picture	30.397	n/a	4	12	4	n/a	104	109	3	n/a	n/a	n/a	n/a	450.242	AM10ANS.jpg
416.144	0.514	Blank	Blank	29.883	n/a	4	12	4	n/a	104	n/a	3	n/a	n/a	n/a	n/a	450.74	n/a
416.674	0.497	happy	Picture	29.369	n/a	4	12	5	n/a	105	96	3	n/a	n/a	n/a	n/a	451.27	AF26ANS.jpg
417.172	0.514	Blank	Blank	28.855	n/a	4	12	5	n/a	105	n/a	3	n/a	n/a	n/a	n/a	451.768	n/a
417.702	0.497	happy	Picture	28.341	n/a	4	12	6	n/a	106	82	3	n/a	n/a	n/a	n/a	452.298	AF03ANS.jpg
418.2	0.514	Blank	Blank	27.827	n/a	4	12	6	n/a	106	n/a	3	n/a	n/a	n/a	n/a	452.796	n/a
418.73	0.497	happy	Picture	27.313	n/a	4	12	7	n/a	107	97	3	n/a	n/a	n/a	n/a	453.326	BF28ANS.jpg
419.228	0.514	Blank	Blank	26.799	n/a	4	12	7	n/a	107	n/a	3	n/a	n/a	n/a	n/a	453.824	n/a
419.758	0.497	happy	Picture	26.285	n/a	4	12	8	n/a	108	115	3	n/a	n/a	n/a	n/a	454.354	AM23ANS.jpg
420.255	0.514	Blank	Blank	25.771	n/a	4	12	8	n/a	108	n/a	3	n/a	n/a	n/a	n/a	454.851	n/a
420.786	0.497	happy	Picture	25.257	n/a	4	12	9	n/a	109	91	3	n/a	n/a	n/a	n/a	455.382	AF20ANS.jpg
421.283	0.514	Blank	Blank	24.743	n/a	4	12	9	n/a	109	n/a	3	n/a	n/a	n/a	n/a	455.879	n/a
421.814	0.497	happy	Picture	24.229	n/a	4	12	10	n/a	110	87	3	n/a	n/a	n/a	n/a	456.41	BF11ANS.jpg
422.311	0.514	Blank	Blank	23.715	n/a	4	12	10	n/a	110	n/a	3	n/a	n/a	n/a	n/a	456.907	n/a
422.842	0.497	happy	Picture	23.201	n/a	4	12	11	n/a	111	85	3	n/a	n/a	n/a	n/a	457.438	BF07ANS.jpg
423.339	0.514	Blank	Blank	22.687	n/a	4	12	11	n/a	111	n/a	3	n/a	n/a	n/a	n/a	457.935	n/a
423.87	0.497	happy	Picture	22.173	n/a	4	12	12	n/a	112	110	3	n/a	n/a	n/a	n/a	458.466	AM11ANS.jpg
424.367	0.514	Blank	Blank	21.66	n/a	4	12	12	n/a	112	n/a	3	n/a	n/a	n/a	n/a	458.963	n/a
424.897	0.497	happy	Picture	21.146	n/a	4	12	13	n/a	113	111	3	n/a	n/a	n/a	n/a	459.493	BM12ANS.jpg
425.395	0.514	Blank	Blank	20.632	n/a	4	12	13	n/a	113	n/a	3	n/a	n/a	n/a	n/a	459.991	n/a
425.925	0.497	happy	Picture	20.118	n/a	4	12	14	n/a	114	103	3	n/a	n/a	n/a	n/a	460.521	AM04ANS.jpg
426.423	0.514	Blank	Blank	19.604	n/a	4	12	14	n/a	114	n/a	3	n/a	n/a	n/a	n/a	461.019	n/a
426.953	0.497	happy	Picture	19.09	n/a	4	12	15	n/a	115	101	3	n/a	n/a	n/a	n/a	461.549	AM01ANS.jpg
427.451	0.514	Blank	Blank	18.576	n/a	4	12	15	n/a	115	n/a	3	n/a	n/a	n/a	n/a	462.047	n/a
427.981	0.497	happy	Picture	18.062	n/a	4	12	16	n/a	116	104	3	n/a	n/a	n/a	n/a	462.577	BM05ANS.jpg
428.478	0.514	Blank	Blank	17.548	n/a	4	12	16	n/a	116	n/a	3	n/a	n/a	n/a	n/a	463.075	n/a
429.009	0.497	happy	Picture	17.034	n/a	4	12	17	n/a	117	107	3	n/a	n/a	n/a	n/a	463.605	BM08ANS.jpg
429.506	0.514	Blank	Blank	16.52	n/a	4	12	17	n/a	117	n/a	3	n/a	n/a	n/a	n/a	464.102	n/a
430.037	0.497	happy	Picture	16.006	n/a	4	12	18	n/a	118	98	3	n/a	n/a	n/a	n/a	464.633	BF29ANS.jpg
430.534	0.514	Blank	Blank	15.492	n/a	4	12	18	n/a	118	n/a	3	n/a	n/a	n/a	n/a	465.13	n/a
431.065	0.497	happy	Picture	14.978	n/a	4	12	19	n/a	119	99	3	n/a	n/a	n/a	n/a	465.661	AF31ANS.jpg
431.562	0.514	Blank	Blank	14.464	n/a	4	12	19	n/a	119	n/a	3	n/a	n/a	n/a	n/a	466.158	n/a
432.093	0.497	happy	Picture	13.95	n/a	4	12	20	n/a	120	108	3	n/a	n/a	n/a	n/a	466.689	AM09ANS.jpg
432.59	0.514	Blank	Blank	13.437	n/a	4	12	20	n/a	120	n/a	3	n/a	n/a	n/a	n/a	467.186	n/a
433.12	10.014	ITI	Fixation+	3.406	n/a	4	n/a	n/a	n/a	n/a	n/a	n/a	n/a	n/a	n/a	n/a	467.716	n/a
446.54	n/a	ConfirmRating	Rate	n/a	3.399	4	n/a	n/a	0	n/a	n/a	n/a	2	Happy	88	51	481.136	n/a
449.209	n/a	ConfirmRating	Rate	n/a	2.652	4	n/a	n/a	1	n/a	n/a	n/a	3	Happy	0	48	483.805	n/a
