onset	duration	trial_type	event_type	time_until_response	response_time	trial_number	block_num_within_trial	image_seq_num_within_block	question_seq_num_within_block	image_seq_num	picture_number	condition	question_type	block_type	rating	rating_computed	onset_uncorrected	KDEV_imagefile
0.016	10.014	ITI	Fixation+	100.295	n/a	1	n/a	n/a	n/a	n/a	n/a	n/a	n/a	n/a	n/a	n/a	29.472	n/a
10.046	0.497	angry	Picture	99.781	n/a	1	1	1	n/a	1	46	2	n/a	n/a	n/a	n/a	39.502	AF09HAS.jpg
10.544	0.514	Blank	Blank	99.267	n/a	1	1	1	n/a	1	n/a	2	n/a	n/a	n/a	n/a	39.999	n/a
11.074	0.497	angry	Picture	98.753	n/a	1	1	2	n/a	2	69	2	n/a	n/a	n/a	n/a	40.53	AM10HAS.jpg
11.571	0.514	Blank	Blank	98.239	n/a	1	1	2	n/a	2	n/a	2	n/a	n/a	n/a	n/a	41.027	n/a
12.102	0.497	angry	Picture	97.725	n/a	1	1	3	n/a	3	71	2	n/a	n/a	n/a	n/a	41.558	BM12HAS.jpg
12.599	0.514	Blank	Blank	97.211	n/a	1	1	3	n/a	3	n/a	2	n/a	n/a	n/a	n/a	42.055	n/a
13.13	0.497	angry	Picture	96.698	n/a	1	1	4	n/a	4	51	2	n/a	n/a	n/a	n/a	42.585	AF20HAS.jpg
13.627	0.514	Blank	Blank	96.184	n/a	1	1	4	n/a	4	n/a	2	n/a	n/a	n/a	n/a	43.083	n/a
14.158	0.497	angry	Picture	95.67	n/a	1	1	5	n/a	5	67	2	n/a	n/a	n/a	n/a	43.613	BM08HAS.jpg
14.655	0.514	Blank	Blank	95.156	n/a	1	1	5	n/a	5	n/a	2	n/a	n/a	n/a	n/a	44.111	n/a
15.185	0.497	angry	Picture	94.642	n/a	1	1	6	n/a	6	60	2	n/a	n/a	n/a	n/a	44.641	AF32HAS.jpg
15.683	0.514	Blank	Blank	94.128	n/a	1	1	6	n/a	6	n/a	2	n/a	n/a	n/a	n/a	45.139	n/a
16.213	0.497	angry	Picture	93.614	n/a	1	1	7	n/a	7	42	2	n/a	n/a	n/a	n/a	45.669	AF03HAS.jpg
16.711	0.514	Blank	Blank	93.1	n/a	1	1	7	n/a	7	n/a	2	n/a	n/a	n/a	n/a	46.166	n/a
17.241	0.497	angry	Picture	92.586	n/a	1	1	8	n/a	8	55	2	n/a	n/a	n/a	n/a	46.697	AF25HAS.jpg
17.739	0.514	Blank	Blank	92.072	n/a	1	1	8	n/a	8	n/a	2	n/a	n/a	n/a	n/a	47.194	n/a
18.269	0.497	angry	Picture	91.558	n/a	1	1	9	n/a	9	72	2	n/a	n/a	n/a	n/a	47.725	AM14HAS.jpg
18.767	0.514	Blank	Blank	91.044	n/a	1	1	9	n/a	9	n/a	2	n/a	n/a	n/a	n/a	48.222	n/a
19.297	0.497	angry	Picture	90.53	n/a	1	1	10	n/a	10	63	2	n/a	n/a	n/a	n/a	48.753	AM04HAS.jpg
19.794	0.514	Blank	Blank	90.016	n/a	1	1	10	n/a	10	n/a	2	n/a	n/a	n/a	n/a	49.25	n/a
20.325	0.497	angry	Picture	89.502	n/a	1	1	11	n/a	11	58	2	n/a	n/a	n/a	n/a	49.781	BF29HAS.jpg
20.822	0.514	Blank	Blank	88.988	n/a	1	1	11	n/a	11	n/a	2	n/a	n/a	n/a	n/a	50.278	n/a
21.353	0.497	angry	Picture	88.474	n/a	1	1	12	n/a	12	48	2	n/a	n/a	n/a	n/a	50.809	AF14HAS.jpg
21.85	0.514	Blank	Blank	87.961	n/a	1	1	12	n/a	12	n/a	2	n/a	n/a	n/a	n/a	51.306	n/a
22.381	0.497	angry	Picture	87.447	n/a	1	1	13	n/a	13	66	2	n/a	n/a	n/a	n/a	51.836	BM07HAS.jpg
22.878	0.514	Blank	Blank	86.933	n/a	1	1	13	n/a	13	n/a	2	n/a	n/a	n/a	n/a	52.334	n/a
23.409	0.497	angry	Picture	86.419	n/a	1	1	14	n/a	14	70	2	n/a	n/a	n/a	n/a	52.864	BM11HAS.jpg
23.906	0.514	Blank	Blank	85.905	n/a	1	1	14	n/a	14	n/a	2	n/a	n/a	n/a	n/a	53.362	n/a
24.437	0.497	angry	Picture	85.391	n/a	1	1	15	n/a	15	43	2	n/a	n/a	n/a	n/a	53.892	BF04HAS.jpg
24.934	0.514	Blank	Blank	84.877	n/a	1	1	15	n/a	15	n/a	2	n/a	n/a	n/a	n/a	54.389	n/a
25.464	0.497	angry	Picture	84.363	n/a	1	1	16	n/a	16	49	2	n/a	n/a	n/a	n/a	54.92	AF17HAS.jpg
25.962	0.514	Blank	Blank	83.849	n/a	1	1	16	n/a	16	n/a	2	n/a	n/a	n/a	n/a	55.417	n/a
26.492	0.497	angry	Picture	83.335	n/a	1	1	17	n/a	17	75	2	n/a	n/a	n/a	n/a	55.948	AM23HAS.jpg
26.99	0.514	Blank	Blank	82.821	n/a	1	1	17	n/a	17	n/a	2	n/a	n/a	n/a	n/a	56.445	n/a
27.52	0.497	angry	Picture	82.307	n/a	1	1	18	n/a	18	80	2	n/a	n/a	n/a	n/a	56.976	BM35HAS.jpg
28.017	0.514	Blank	Blank	81.793	n/a	1	1	18	n/a	18	n/a	2	n/a	n/a	n/a	n/a	57.473	n/a
28.548	0.497	angry	Picture	81.279	n/a	1	1	19	n/a	19	76	2	n/a	n/a	n/a	n/a	58.004	BM24HAS.jpg
29.045	0.514	Blank	Blank	80.765	n/a	1	1	19	n/a	19	n/a	2	n/a	n/a	n/a	n/a	58.501	n/a
29.576	0.497	angry	Picture	80.251	n/a	1	1	20	n/a	20	74	2	n/a	n/a	n/a	n/a	59.032	AM22HAS.jpg
30.073	0.514	Blank	Blank	79.737	n/a	1	1	20	n/a	20	n/a	2	n/a	n/a	n/a	n/a	59.529	n/a
30.604	10.014	ITI	Fixation+	69.707	n/a	1	n/a	n/a	n/a	n/a	n/a	n/a	n/a	n/a	n/a	n/a	60.059	n/a
40.634	0.497	neutral	Picture	69.193	n/a	1	2	1	n/a	21	33	1	n/a	n/a	n/a	n/a	70.09	AM21NES.jpg
41.131	0.514	Blank	Blank	68.679	n/a	1	2	1	n/a	21	n/a	1	n/a	n/a	n/a	n/a	70.587	n/a
41.662	0.497	neutral	Picture	68.166	n/a	1	2	2	n/a	22	39	1	n/a	n/a	n/a	n/a	71.118	AM28NES.jpg
42.159	0.514	Blank	Blank	67.652	n/a	1	2	2	n/a	22	n/a	1	n/a	n/a	n/a	n/a	71.615	n/a
42.69	0.497	neutral	Picture	67.138	n/a	1	2	3	n/a	23	25	1	n/a	n/a	n/a	n/a	72.145	BM06NES.jpg
43.187	0.514	Blank	Blank	66.624	n/a	1	2	3	n/a	23	n/a	1	n/a	n/a	n/a	n/a	72.643	n/a
43.717	0.497	neutral	Picture	66.11	n/a	1	2	4	n/a	24	5	1	n/a	n/a	n/a	n/a	73.173	BF07NES.jpg
44.215	0.514	Blank	Blank	65.596	n/a	1	2	4	n/a	24	n/a	1	n/a	n/a	n/a	n/a	73.671	n/a
44.745	0.497	neutral	Picture	65.082	n/a	1	2	5	n/a	25	10	1	n/a	n/a	n/a	n/a	74.201	AF18NES.jpg
45.243	0.514	Blank	Blank	64.568	n/a	1	2	5	n/a	25	n/a	1	n/a	n/a	n/a	n/a	74.698	n/a
45.773	0.497	neutral	Picture	64.054	n/a	1	2	6	n/a	26	34	1	n/a	n/a	n/a	n/a	75.229	AM22NES.jpg
46.271	0.514	Blank	Blank	63.54	n/a	1	2	6	n/a	26	n/a	1	n/a	n/a	n/a	n/a	75.726	n/a
46.801	0.497	neutral	Picture	63.026	n/a	1	2	7	n/a	27	36	1	n/a	n/a	n/a	n/a	76.257	BM24NES.jpg
47.298	0.514	Blank	Blank	62.512	n/a	1	2	7	n/a	27	n/a	1	n/a	n/a	n/a	n/a	76.754	n/a
47.829	0.497	neutral	Picture	61.998	n/a	1	2	8	n/a	28	14	1	n/a	n/a	n/a	n/a	77.285	AF23NES.jpg
48.326	0.514	Blank	Blank	61.484	n/a	1	2	8	n/a	28	n/a	1	n/a	n/a	n/a	n/a	77.782	n/a
48.857	0.497	neutral	Picture	60.97	n/a	1	2	9	n/a	29	9	1	n/a	n/a	n/a	n/a	78.313	AF17NES.jpg
49.354	0.514	Blank	Blank	60.456	n/a	1	2	9	n/a	29	n/a	1	n/a	n/a	n/a	n/a	78.81	n/a
49.885	0.497	neutral	Picture	59.942	n/a	1	2	10	n/a	30	19	1	n/a	n/a	n/a	n/a	79.341	AF31NES.jpg
50.382	0.514	Blank	Blank	59.429	n/a	1	2	10	n/a	30	n/a	1	n/a	n/a	n/a	n/a	79.838	n/a
50.913	0.497	neutral	Picture	58.915	n/a	1	2	11	n/a	31	15	1	n/a	n/a	n/a	n/a	80.368	AF25NES.jpg
51.41	0.514	Blank	Blank	58.401	n/a	1	2	11	n/a	31	n/a	1	n/a	n/a	n/a	n/a	80.866	n/a
51.941	0.497	neutral	Picture	57.887	n/a	1	2	12	n/a	32	22	1	n/a	n/a	n/a	n/a	81.396	BM03NES.jpg
52.438	0.514	Blank	Blank	57.373	n/a	1	2	12	n/a	32	n/a	1	n/a	n/a	n/a	n/a	81.894	n/a
52.968	0.497	neutral	Picture	56.859	n/a	1	2	13	n/a	33	11	1	n/a	n/a	n/a	n/a	82.424	AF20NES.jpg
53.466	0.514	Blank	Blank	56.345	n/a	1	2	13	n/a	33	n/a	1	n/a	n/a	n/a	n/a	82.921	n/a
53.996	0.497	neutral	Picture	55.831	n/a	1	2	14	n/a	34	4	1	n/a	n/a	n/a	n/a	83.452	AF05NES.jpg
54.494	0.514	Blank	Blank	55.317	n/a	1	2	14	n/a	34	n/a	1	n/a	n/a	n/a	n/a	83.949	n/a
55.024	0.497	neutral	Picture	54.803	n/a	1	2	15	n/a	35	17	1	n/a	n/a	n/a	n/a	84.48	BF28NES.jpg
55.522	0.514	Blank	Blank	54.289	n/a	1	2	15	n/a	35	n/a	1	n/a	n/a	n/a	n/a	84.977	n/a
56.052	0.497	neutral	Picture	53.775	n/a	1	2	16	n/a	36	13	1	n/a	n/a	n/a	n/a	85.508	BF22NES.jpg
56.55	0.514	Blank	Blank	53.261	n/a	1	2	16	n/a	36	n/a	1	n/a	n/a	n/a	n/a	86.005	n/a
57.08	0.497	neutral	Picture	52.747	n/a	1	2	17	n/a	37	12	1	n/a	n/a	n/a	n/a	86.536	AF21NES.jpg
57.577	0.514	Blank	Blank	52.233	n/a	1	2	17	n/a	37	n/a	1	n/a	n/a	n/a	n/a	87.033	n/a
58.108	0.497	neutral	Picture	51.719	n/a	1	2	18	n/a	38	24	1	n/a	n/a	n/a	n/a	87.564	BM05NES.jpg
58.605	0.514	Blank	Blank	51.205	n/a	1	2	18	n/a	38	n/a	1	n/a	n/a	n/a	n/a	88.061	n/a
59.136	0.497	neutral	Picture	50.692	n/a	1	2	19	n/a	39	29	1	n/a	n/a	n/a	n/a	88.591	AM10NES.jpg
59.633	0.514	Blank	Blank	50.178	n/a	1	2	19	n/a	39	n/a	1	n/a	n/a	n/a	n/a	89.089	n/a
60.164	0.497	neutral	Picture	49.664	n/a	1	2	20	n/a	40	23	1	n/a	n/a	n/a	n/a	89.619	AM04NES.jpg
60.661	0.514	Blank	Blank	49.15	n/a	1	2	20	n/a	40	n/a	1	n/a	n/a	n/a	n/a	90.117	n/a
61.191	10.014	ITI	Fixation+	39.12	n/a	1	n/a	n/a	n/a	n/a	n/a	n/a	n/a	n/a	n/a	n/a	90.647	n/a
71.222	0.497	angry	Picture	38.606	n/a	1	3	1	n/a	41	62	2	n/a	n/a	n/a	n/a	100.677	BM03HAS.jpg
71.719	0.514	Blank	Blank	38.092	n/a	1	3	1	n/a	41	n/a	2	n/a	n/a	n/a	n/a	101.175	n/a
72.25	0.497	angry	Picture	37.578	n/a	1	3	2	n/a	42	52	2	n/a	n/a	n/a	n/a	101.705	AF21HAS.jpg
72.747	0.514	Blank	Blank	37.064	n/a	1	3	2	n/a	42	n/a	2	n/a	n/a	n/a	n/a	102.203	n/a
73.277	0.497	angry	Picture	36.55	n/a	1	3	3	n/a	43	44	2	n/a	n/a	n/a	n/a	102.733	AF05HAS.jpg
73.775	0.514	Blank	Blank	36.036	n/a	1	3	3	n/a	43	n/a	2	n/a	n/a	n/a	n/a	103.231	n/a
74.305	0.497	angry	Picture	35.522	n/a	1	3	4	n/a	44	53	2	n/a	n/a	n/a	n/a	103.761	BF22HAS.jpg
74.803	0.514	Blank	Blank	35.008	n/a	1	3	4	n/a	44	n/a	2	n/a	n/a	n/a	n/a	104.258	n/a
75.333	0.497	angry	Picture	34.494	n/a	1	3	5	n/a	45	54	2	n/a	n/a	n/a	n/a	104.789	AF23HAS.jpg
75.831	0.514	Blank	Blank	33.98	n/a	1	3	5	n/a	45	n/a	2	n/a	n/a	n/a	n/a	105.286	n/a
76.361	0.497	angry	Picture	33.466	n/a	1	3	6	n/a	46	68	2	n/a	n/a	n/a	n/a	105.817	AM09HAS.jpg
76.858	0.514	Blank	Blank	32.952	n/a	1	3	6	n/a	46	n/a	2	n/a	n/a	n/a	n/a	106.314	n/a
77.389	0.497	angry	Picture	32.438	n/a	1	3	7	n/a	47	64	2	n/a	n/a	n/a	n/a	106.845	BM05HAS.jpg
77.886	0.514	Blank	Blank	31.924	n/a	1	3	7	n/a	47	n/a	2	n/a	n/a	n/a	n/a	107.342	n/a
78.417	0.497	angry	Picture	31.41	n/a	1	3	8	n/a	48	59	2	n/a	n/a	n/a	n/a	107.873	AF31HAS.jpg
78.914	0.514	Blank	Blank	30.897	n/a	1	3	8	n/a	48	n/a	2	n/a	n/a	n/a	n/a	108.37	n/a
79.445	0.497	angry	Picture	30.383	n/a	1	3	9	n/a	49	41	2	n/a	n/a	n/a	n/a	108.9	AF01HAS.jpg
79.942	0.514	Blank	Blank	29.869	n/a	1	3	9	n/a	49	n/a	2	n/a	n/a	n/a	n/a	109.398	n/a
80.473	0.497	angry	Picture	29.355	n/a	1	3	10	n/a	50	73	2	n/a	n/a	n/a	n/a	109.928	AM21HAS.jpg
80.97	0.514	Blank	Blank	28.841	n/a	1	3	10	n/a	50	n/a	2	n/a	n/a	n/a	n/a	110.426	n/a
81.5	0.497	angry	Picture	28.327	n/a	1	3	11	n/a	51	65	2	n/a	n/a	n/a	n/a	110.956	BM06HAS.jpg
81.998	0.514	Blank	Blank	27.813	n/a	1	3	11	n/a	51	n/a	2	n/a	n/a	n/a	n/a	111.454	n/a
82.528	0.497	angry	Picture	27.299	n/a	1	3	12	n/a	52	56	2	n/a	n/a	n/a	n/a	111.984	AF26HAS.jpg
83.026	0.514	Blank	Blank	26.785	n/a	1	3	12	n/a	52	n/a	2	n/a	n/a	n/a	n/a	112.481	n/a
83.556	0.497	angry	Picture	26.271	n/a	1	3	13	n/a	53	45	2	n/a	n/a	n/a	n/a	113.012	BF07HAS.jpg
84.054	0.514	Blank	Blank	25.757	n/a	1	3	13	n/a	53	n/a	2	n/a	n/a	n/a	n/a	113.509	n/a
84.584	0.497	angry	Picture	25.243	n/a	1	3	14	n/a	54	78	2	n/a	n/a	n/a	n/a	114.04	BM26HAS.jpg
85.082	0.514	Blank	Blank	24.729	n/a	1	3	14	n/a	54	n/a	2	n/a	n/a	n/a	n/a	114.537	n/a
85.612	0.497	angry	Picture	24.215	n/a	1	3	15	n/a	55	50	2	n/a	n/a	n/a	n/a	115.068	AF18HAS.jpg
86.109	0.514	Blank	Blank	23.701	n/a	1	3	15	n/a	55	n/a	2	n/a	n/a	n/a	n/a	115.565	n/a
86.64	0.497	angry	Picture	23.187	n/a	1	3	16	n/a	56	47	2	n/a	n/a	n/a	n/a	116.096	BF11HAS.jpg
87.137	0.514	Blank	Blank	22.673	n/a	1	3	16	n/a	56	n/a	2	n/a	n/a	n/a	n/a	116.593	n/a
87.668	0.497	angry	Picture	22.16	n/a	1	3	17	n/a	57	77	2	n/a	n/a	n/a	n/a	117.124	BM25HAS.jpg
88.165	0.514	Blank	Blank	21.646	n/a	1	3	17	n/a	57	n/a	2	n/a	n/a	n/a	n/a	117.621	n/a
88.696	0.497	angry	Picture	21.132	n/a	1	3	18	n/a	58	57	2	n/a	n/a	n/a	n/a	118.151	BF28HAS.jpg
89.193	0.514	Blank	Blank	20.618	n/a	1	3	18	n/a	58	n/a	2	n/a	n/a	n/a	n/a	118.649	n/a
89.724	0.497	angry	Picture	20.104	n/a	1	3	19	n/a	59	61	2	n/a	n/a	n/a	n/a	119.179	AM01HAS.jpg
90.221	0.514	Blank	Blank	19.59	n/a	1	3	19	n/a	59	n/a	2	n/a	n/a	n/a	n/a	119.677	n/a
90.751	0.497	angry	Picture	19.076	n/a	1	3	20	n/a	60	79	2	n/a	n/a	n/a	n/a	120.207	BM28HAS.jpg
91.249	0.514	Blank	Blank	18.562	n/a	1	3	20	n/a	60	n/a	2	n/a	n/a	n/a	n/a	120.704	n/a
91.779	10.014	ITI	Fixation+	8.532	n/a	1	n/a	n/a	n/a	n/a	n/a	n/a	n/a	n/a	n/a	n/a	121.235	n/a
110.325	n/a	ConfirmRating	Rate	n/a	8.505	1	n/a	n/a	0	n/a	n/a	n/a	2	Angry	19	49	139.78	n/a
115.672	n/a	ConfirmRating	Rate	n/a	5.338	1	n/a	n/a	1	n/a	n/a	n/a	3	Angry	11	49	145.128	n/a
115.702	10.014	ITI	Fixation+	96.274	n/a	2	n/a	n/a	n/a	n/a	n/a	n/a	n/a	n/a	n/a	n/a	145.158	n/a
125.733	0.497	happy	Picture	95.76	n/a	2	4	1	n/a	61	119	3	n/a	n/a	n/a	n/a	155.188	BM28ANS.jpg
126.23	0.514	Blank	Blank	95.246	n/a	2	4	1	n/a	61	n/a	3	n/a	n/a	n/a	n/a	155.686	n/a
126.76	0.497	happy	Picture	94.732	n/a	2	4	2	n/a	62	100	3	n/a	n/a	n/a	n/a	156.216	AF32ANS.jpg
127.258	0.514	Blank	Blank	94.218	n/a	2	4	2	n/a	62	n/a	3	n/a	n/a	n/a	n/a	156.714	n/a
127.788	0.497	happy	Picture	93.704	n/a	2	4	3	n/a	63	118	3	n/a	n/a	n/a	n/a	157.244	BM26ANS.jpg
128.286	0.514	Blank	Blank	93.19	n/a	2	4	3	n/a	63	n/a	3	n/a	n/a	n/a	n/a	157.741	n/a
128.816	0.497	happy	Picture	92.676	n/a	2	4	4	n/a	64	89	3	n/a	n/a	n/a	n/a	158.272	AF17ANS.jpg
129.314	0.514	Blank	Blank	92.162	n/a	2	4	4	n/a	64	n/a	3	n/a	n/a	n/a	n/a	158.769	n/a
129.844	0.497	happy	Picture	91.648	n/a	2	4	5	n/a	65	116	3	n/a	n/a	n/a	n/a	159.3	BM24ANS.jpg
130.341	0.514	Blank	Blank	91.134	n/a	2	4	5	n/a	65	n/a	3	n/a	n/a	n/a	n/a	159.797	n/a
130.872	0.497	happy	Picture	90.62	n/a	2	4	6	n/a	66	105	3	n/a	n/a	n/a	n/a	160.328	BM06ANS.jpg
131.369	0.514	Blank	Blank	90.106	n/a	2	4	6	n/a	66	n/a	3	n/a	n/a	n/a	n/a	160.825	n/a
131.9	0.497	happy	Picture	89.592	n/a	2	4	7	n/a	67	106	3	n/a	n/a	n/a	n/a	161.356	AM07ANS.jpg
132.397	0.514	Blank	Blank	89.078	n/a	2	4	7	n/a	67	n/a	3	n/a	n/a	n/a	n/a	161.853	n/a
132.928	0.497	happy	Picture	88.565	n/a	2	4	8	n/a	68	94	3	n/a	n/a	n/a	n/a	162.383	AF23ANS.jpg
133.425	0.514	Blank	Blank	88.05	n/a	2	4	8	n/a	68	n/a	3	n/a	n/a	n/a	n/a	162.881	n/a
133.956	0.497	happy	Picture	87.537	n/a	2	4	9	n/a	69	117	3	n/a	n/a	n/a	n/a	163.411	BM25ANS.jpg
134.453	0.514	Blank	Blank	87.023	n/a	2	4	9	n/a	69	n/a	3	n/a	n/a	n/a	n/a	163.909	n/a
134.983	0.497	happy	Picture	86.509	n/a	2	4	10	n/a	70	90	3	n/a	n/a	n/a	n/a	164.439	AF18ANS.jpg
135.481	0.514	Blank	Blank	85.995	n/a	2	4	10	n/a	70	n/a	3	n/a	n/a	n/a	n/a	164.937	n/a
136.011	0.497	happy	Picture	85.481	n/a	2	4	11	n/a	71	83	3	n/a	n/a	n/a	n/a	165.467	BF04ANS.jpg
136.509	0.514	Blank	Blank	84.967	n/a	2	4	11	n/a	71	n/a	3	n/a	n/a	n/a	n/a	165.964	n/a
137.039	0.497	happy	Picture	84.453	n/a	2	4	12	n/a	72	112	3	n/a	n/a	n/a	n/a	166.495	AM14ANS.jpg
137.537	0.514	Blank	Blank	83.939	n/a	2	4	12	n/a	72	n/a	3	n/a	n/a	n/a	n/a	166.992	n/a
138.067	0.497	happy	Picture	83.425	n/a	2	4	13	n/a	73	102	3	n/a	n/a	n/a	n/a	167.523	BM03ANS.jpg
138.564	0.514	Blank	Blank	82.911	n/a	2	4	13	n/a	73	n/a	3	n/a	n/a	n/a	n/a	168.02	n/a
139.095	0.497	happy	Picture	82.397	n/a	2	4	14	n/a	74	95	3	n/a	n/a	n/a	n/a	168.551	AF25ANS.jpg
139.592	0.514	Blank	Blank	81.883	n/a	2	4	14	n/a	74	n/a	3	n/a	n/a	n/a	n/a	169.048	n/a
140.123	0.497	happy	Picture	81.369	n/a	2	4	15	n/a	75	113	3	n/a	n/a	n/a	n/a	169.579	AM21ANS.jpg
140.62	0.514	Blank	Blank	80.855	n/a	2	4	15	n/a	75	n/a	3	n/a	n/a	n/a	n/a	170.076	n/a
141.151	0.497	happy	Picture	80.341	n/a	2	4	16	n/a	76	88	3	n/a	n/a	n/a	n/a	170.607	AF14ANS.jpg
141.648	0.514	Blank	Blank	79.827	n/a	2	4	16	n/a	76	n/a	3	n/a	n/a	n/a	n/a	171.104	n/a
142.179	0.497	happy	Picture	79.314	n/a	2	4	17	n/a	77	93	3	n/a	n/a	n/a	n/a	171.634	BF22ANS.jpg
142.676	0.514	Blank	Blank	78.8	n/a	2	4	17	n/a	77	n/a	3	n/a	n/a	n/a	n/a	172.131	n/a
143.207	0.497	happy	Picture	78.286	n/a	2	4	18	n/a	78	86	3	n/a	n/a	n/a	n/a	172.662	AF09ANS.jpg
143.704	0.514	Blank	Blank	77.772	n/a	2	4	18	n/a	78	n/a	3	n/a	n/a	n/a	n/a	173.16	n/a
144.234	0.497	happy	Picture	77.258	n/a	2	4	19	n/a	79	92	3	n/a	n/a	n/a	n/a	173.69	AF21ANS.jpg
144.732	0.514	Blank	Blank	76.744	n/a	2	4	19	n/a	79	n/a	3	n/a	n/a	n/a	n/a	174.188	n/a
145.262	0.497	happy	Picture	76.23	n/a	2	4	20	n/a	80	84	3	n/a	n/a	n/a	n/a	174.718	AF05ANS.jpg
145.76	0.514	Blank	Blank	75.716	n/a	2	4	20	n/a	80	n/a	3	n/a	n/a	n/a	n/a	175.215	n/a
146.29	10.014	ITI	Fixation+	65.686	n/a	2	n/a	n/a	n/a	n/a	n/a	n/a	n/a	n/a	n/a	n/a	175.746	n/a
156.32	0.497	neutral	Picture	65.172	n/a	2	5	1	n/a	81	4	1	n/a	n/a	n/a	n/a	185.776	AF05NES.jpg
156.818	0.514	Blank	Blank	64.658	n/a	2	5	1	n/a	81	n/a	1	n/a	n/a	n/a	n/a	186.273	n/a
157.348	0.497	neutral	Picture	64.144	n/a	2	5	2	n/a	82	14	1	n/a	n/a	n/a	n/a	186.804	AF23NES.jpg
157.846	0.514	Blank	Blank	63.63	n/a	2	5	2	n/a	82	n/a	1	n/a	n/a	n/a	n/a	187.301	n/a
158.376	0.497	neutral	Picture	63.116	n/a	2	5	3	n/a	83	19	1	n/a	n/a	n/a	n/a	187.832	AF31NES.jpg
158.873	0.514	Blank	Blank	62.602	n/a	2	5	3	n/a	83	n/a	1	n/a	n/a	n/a	n/a	188.329	n/a
159.404	0.497	neutral	Picture	62.088	n/a	2	5	4	n/a	84	8	1	n/a	n/a	n/a	n/a	188.86	AF14NES.jpg
159.901	0.514	Blank	Blank	61.574	n/a	2	5	4	n/a	84	n/a	1	n/a	n/a	n/a	n/a	189.357	n/a
160.432	0.497	neutral	Picture	61.06	n/a	2	5	5	n/a	85	25	1	n/a	n/a	n/a	n/a	189.888	BM06NES.jpg
160.929	0.514	Blank	Blank	60.546	n/a	2	5	5	n/a	85	n/a	1	n/a	n/a	n/a	n/a	190.385	n/a
161.46	0.497	neutral	Picture	60.032	n/a	2	5	6	n/a	86	9	1	n/a	n/a	n/a	n/a	190.916	AF17NES.jpg
161.957	0.514	Blank	Blank	59.518	n/a	2	5	6	n/a	86	n/a	1	n/a	n/a	n/a	n/a	191.413	n/a
162.488	0.497	neutral	Picture	59.005	n/a	2	5	7	n/a	87	2	1	n/a	n/a	n/a	n/a	191.943	AF03NES.jpg
162.985	0.514	Blank	Blank	58.491	n/a	2	5	7	n/a	87	n/a	1	n/a	n/a	n/a	n/a	192.441	n/a
163.516	0.497	neutral	Picture	57.977	n/a	2	5	8	n/a	88	17	1	n/a	n/a	n/a	n/a	192.971	BF28NES.jpg
164.013	0.514	Blank	Blank	57.463	n/a	2	5	8	n/a	88	n/a	1	n/a	n/a	n/a	n/a	193.469	n/a
164.543	0.497	neutral	Picture	56.949	n/a	2	5	9	n/a	89	6	1	n/a	n/a	n/a	n/a	193.999	AF09NES.jpg
165.041	0.514	Blank	Blank	56.435	n/a	2	5	9	n/a	89	n/a	1	n/a	n/a	n/a	n/a	194.496	n/a
165.571	0.497	neutral	Picture	55.921	n/a	2	5	10	n/a	90	12	1	n/a	n/a	n/a	n/a	195.027	AF21NES.jpg
166.069	0.514	Blank	Blank	55.407	n/a	2	5	10	n/a	90	n/a	1	n/a	n/a	n/a	n/a	195.524	n/a
166.599	0.497	neutral	Picture	54.893	n/a	2	5	11	n/a	91	24	1	n/a	n/a	n/a	n/a	196.055	BM05NES.jpg
167.096	0.514	Blank	Blank	54.379	n/a	2	5	11	n/a	91	n/a	1	n/a	n/a	n/a	n/a	196.552	n/a
167.627	0.497	neutral	Picture	53.865	n/a	2	5	12	n/a	92	34	1	n/a	n/a	n/a	n/a	197.083	AM22NES.jpg
168.124	0.514	Blank	Blank	53.351	n/a	2	5	12	n/a	92	n/a	1	n/a	n/a	n/a	n/a	197.58	n/a
168.655	0.497	neutral	Picture	52.837	n/a	2	5	13	n/a	93	23	1	n/a	n/a	n/a	n/a	198.111	AM04NES.jpg
169.152	0.514	Blank	Blank	52.323	n/a	2	5	13	n/a	93	n/a	1	n/a	n/a	n/a	n/a	198.608	n/a
169.683	0.497	neutral	Picture	51.809	n/a	2	5	14	n/a	94	15	1	n/a	n/a	n/a	n/a	199.138	AF25NES.jpg
170.18	0.514	Blank	Blank	51.296	n/a	2	5	14	n/a	94	n/a	1	n/a	n/a	n/a	n/a	199.636	n/a
170.711	0.497	neutral	Picture	50.781	n/a	2	5	15	n/a	95	37	1	n/a	n/a	n/a	n/a	200.166	BM25NES.jpg
171.208	0.514	Blank	Blank	50.268	n/a	2	5	15	n/a	95	n/a	1	n/a	n/a	n/a	n/a	200.664	n/a
171.739	0.497	neutral	Picture	49.754	n/a	2	5	16	n/a	96	32	1	n/a	n/a	n/a	n/a	201.194	AM14NES.jpg
172.236	0.514	Blank	Blank	49.24	n/a	2	5	16	n/a	96	n/a	1	n/a	n/a	n/a	n/a	201.692	n/a
172.766	0.497	neutral	Picture	48.726	n/a	2	5	17	n/a	97	3	1	n/a	n/a	n/a	n/a	202.222	BF04NES.jpg
173.264	0.514	Blank	Blank	48.212	n/a	2	5	17	n/a	97	n/a	1	n/a	n/a	n/a	n/a	202.72	n/a
173.794	0.497	neutral	Picture	47.698	n/a	2	5	18	n/a	98	16	1	n/a	n/a	n/a	n/a	203.25	AF26NES.jpg
174.292	0.514	Blank	Blank	47.184	n/a	2	5	18	n/a	98	n/a	1	n/a	n/a	n/a	n/a	203.747	n/a
174.822	0.497	neutral	Picture	46.67	n/a	2	5	19	n/a	99	27	1	n/a	n/a	n/a	n/a	204.278	BM08NES.jpg
175.32	0.514	Blank	Blank	46.156	n/a	2	5	19	n/a	99	n/a	1	n/a	n/a	n/a	n/a	204.775	n/a
175.85	0.497	neutral	Picture	45.642	n/a	2	5	20	n/a	100	28	1	n/a	n/a	n/a	n/a	205.306	AM09NES.jpg
176.347	0.514	Blank	Blank	45.128	n/a	2	5	20	n/a	100	n/a	1	n/a	n/a	n/a	n/a	205.803	n/a
176.878	10.014	ITI	Fixation+	35.098	n/a	2	n/a	n/a	n/a	n/a	n/a	n/a	n/a	n/a	n/a	n/a	206.334	n/a
186.908	0.497	happy	Picture	34.584	n/a	2	6	1	n/a	101	81	3	n/a	n/a	n/a	n/a	216.364	AF01ANS.jpg
187.405	0.514	Blank	Blank	34.07	n/a	2	6	1	n/a	101	n/a	3	n/a	n/a	n/a	n/a	216.861	n/a
187.936	0.497	happy	Picture	33.556	n/a	2	6	2	n/a	102	120	3	n/a	n/a	n/a	n/a	217.392	AM35ANS.jpg
188.433	0.514	Blank	Blank	33.042	n/a	2	6	2	n/a	102	n/a	3	n/a	n/a	n/a	n/a	217.889	n/a
188.964	0.497	happy	Picture	32.528	n/a	2	6	3	n/a	103	114	3	n/a	n/a	n/a	n/a	218.42	AM22ANS.jpg
189.461	0.514	Blank	Blank	32.014	n/a	2	6	3	n/a	103	n/a	3	n/a	n/a	n/a	n/a	218.917	n/a
189.992	0.497	happy	Picture	31.501	n/a	2	6	4	n/a	104	109	3	n/a	n/a	n/a	n/a	219.447	AM10ANS.jpg
190.489	0.514	Blank	Blank	30.987	n/a	2	6	4	n/a	104	n/a	3	n/a	n/a	n/a	n/a	219.945	n/a
191.02	0.497	happy	Picture	30.473	n/a	2	6	5	n/a	105	96	3	n/a	n/a	n/a	n/a	220.475	AF26ANS.jpg
191.517	0.514	Blank	Blank	29.959	n/a	2	6	5	n/a	105	n/a	3	n/a	n/a	n/a	n/a	220.973	n/a
192.047	0.497	happy	Picture	29.445	n/a	2	6	6	n/a	106	82	3	n/a	n/a	n/a	n/a	221.503	AF03ANS.jpg
192.545	0.514	Blank	Blank	28.931	n/a	2	6	6	n/a	106	n/a	3	n/a	n/a	n/a	n/a	222.001	n/a
193.075	0.497	happy	Picture	28.417	n/a	2	6	7	n/a	107	97	3	n/a	n/a	n/a	n/a	222.531	BF28ANS.jpg
193.573	0.514	Blank	Blank	27.903	n/a	2	6	7	n/a	107	n/a	3	n/a	n/a	n/a	n/a	223.029	n/a
194.103	0.497	happy	Picture	27.389	n/a	2	6	8	n/a	108	115	3	n/a	n/a	n/a	n/a	223.559	AM23ANS.jpg
194.601	0.514	Blank	Blank	26.875	n/a	2	6	8	n/a	108	n/a	3	n/a	n/a	n/a	n/a	224.056	n/a
195.131	0.497	happy	Picture	26.361	n/a	2	6	9	n/a	109	91	3	n/a	n/a	n/a	n/a	224.587	AF20ANS.jpg
195.629	0.514	Blank	Blank	25.847	n/a	2	6	9	n/a	109	n/a	3	n/a	n/a	n/a	n/a	225.084	n/a
196.159	0.497	happy	Picture	25.333	n/a	2	6	10	n/a	110	87	3	n/a	n/a	n/a	n/a	225.615	BF11ANS.jpg
196.656	0.514	Blank	Blank	24.819	n/a	2	6	10	n/a	110	n/a	3	n/a	n/a	n/a	n/a	226.112	n/a
197.187	0.497	happy	Picture	24.305	n/a	2	6	11	n/a	111	85	3	n/a	n/a	n/a	n/a	226.643	BF07ANS.jpg
197.684	0.514	Blank	Blank	23.791	n/a	2	6	11	n/a	111	n/a	3	n/a	n/a	n/a	n/a	227.14	n/a
198.215	0.497	happy	Picture	23.277	n/a	2	6	12	n/a	112	110	3	n/a	n/a	n/a	n/a	227.671	AM11ANS.jpg
198.712	0.514	Blank	Blank	22.763	n/a	2	6	12	n/a	112	n/a	3	n/a	n/a	n/a	n/a	228.168	n/a
199.243	0.497	happy	Picture	22.25	n/a	2	6	13	n/a	113	111	3	n/a	n/a	n/a	n/a	228.698	BM12ANS.jpg
199.74	0.514	Blank	Blank	21.736	n/a	2	6	13	n/a	113	n/a	3	n/a	n/a	n/a	n/a	229.196	n/a
200.271	0.497	happy	Picture	21.222	n/a	2	6	14	n/a	114	103	3	n/a	n/a	n/a	n/a	229.726	AM04ANS.jpg
200.768	0.514	Blank	Blank	20.708	n/a	2	6	14	n/a	114	n/a	3	n/a	n/a	n/a	n/a	230.224	n/a
201.298	0.497	happy	Picture	20.194	n/a	2	6	15	n/a	115	101	3	n/a	n/a	n/a	n/a	230.754	AM01ANS.jpg
201.796	0.514	Blank	Blank	19.68	n/a	2	6	15	n/a	115	n/a	3	n/a	n/a	n/a	n/a	231.251	n/a
202.326	0.497	happy	Picture	19.166	n/a	2	6	16	n/a	116	104	3	n/a	n/a	n/a	n/a	231.782	BM05ANS.jpg
202.824	0.514	Blank	Blank	18.652	n/a	2	6	16	n/a	116	n/a	3	n/a	n/a	n/a	n/a	232.279	n/a
203.354	0.497	happy	Picture	18.138	n/a	2	6	17	n/a	117	107	3	n/a	n/a	n/a	n/a	232.81	BM08ANS.jpg
203.852	0.514	Blank	Blank	17.624	n/a	2	6	17	n/a	117	n/a	3	n/a	n/a	n/a	n/a	233.307	n/a
204.382	0.497	happy	Picture	17.11	n/a	2	6	18	n/a	118	98	3	n/a	n/a	n/a	n/a	233.838	BF29ANS.jpg
204.879	0.514	Blank	Blank	16.596	n/a	2	6	18	n/a	118	n/a	3	n/a	n/a	n/a	n/a	234.335	n/a
205.41	0.497	happy	Picture	16.082	n/a	2	6	19	n/a	119	99	3	n/a	n/a	n/a	n/a	234.866	AF31ANS.jpg
205.907	0.514	Blank	Blank	15.568	n/a	2	6	19	n/a	119	n/a	3	n/a	n/a	n/a	n/a	235.363	n/a
206.438	0.497	happy	Picture	15.054	n/a	2	6	20	n/a	120	108	3	n/a	n/a	n/a	n/a	235.894	AM09ANS.jpg
206.935	0.514	Blank	Blank	14.54	n/a	2	6	20	n/a	120	n/a	3	n/a	n/a	n/a	n/a	236.391	n/a
207.466	10.014	ITI	Fixation+	4.51	n/a	2	n/a	n/a	n/a	n/a	n/a	n/a	n/a	n/a	n/a	n/a	236.922	n/a
221.99	n/a	ConfirmRating	Rate	n/a	4.51	2	n/a	n/a	0	n/a	n/a	n/a	2	Happy	84	52	251.445	n/a
229.804	n/a	ConfirmRating	Rate	n/a	7.792	2	n/a	n/a	1	n/a	n/a	n/a	3	Happy	6	48	259.26	n/a
229.831	15.004	Rest	Picture	n/a	n/a	n/a	n/a	n/a	n/a	n/a	n/a	n/a	0	n/a	0	0	259.286	n/a
244.851	10.014	ITI	Fixation+	97.65	n/a	3	n/a	n/a	n/a	n/a	n/a	n/a	n/a	n/a	n/a	n/a	274.307	n/a
254.881	0.497	angry	Picture	97.136	n/a	3	7	1	n/a	1	46	2	n/a	n/a	n/a	n/a	284.337	AF09HAS.jpg
255.378	0.514	Blank	Blank	96.622	n/a	3	7	1	n/a	1	n/a	2	n/a	n/a	n/a	n/a	284.834	n/a
255.909	0.497	angry	Picture	96.108	n/a	3	7	2	n/a	2	69	2	n/a	n/a	n/a	n/a	285.365	AM10HAS.jpg
256.406	0.514	Blank	Blank	95.594	n/a	3	7	2	n/a	2	n/a	2	n/a	n/a	n/a	n/a	285.862	n/a
256.937	0.497	angry	Picture	95.08	n/a	3	7	3	n/a	3	71	2	n/a	n/a	n/a	n/a	286.392	BM12HAS.jpg
257.434	0.514	Blank	Blank	94.566	n/a	3	7	3	n/a	3	n/a	2	n/a	n/a	n/a	n/a	286.89	n/a
257.965	0.497	angry	Picture	94.052	n/a	3	7	4	n/a	4	51	2	n/a	n/a	n/a	n/a	287.42	AF20HAS.jpg
258.462	0.514	Blank	Blank	93.538	n/a	3	7	4	n/a	4	n/a	2	n/a	n/a	n/a	n/a	287.918	n/a
258.993	0.497	angry	Picture	93.024	n/a	3	7	5	n/a	5	67	2	n/a	n/a	n/a	n/a	288.448	BM08HAS.jpg
259.49	0.514	Blank	Blank	92.51	n/a	3	7	5	n/a	5	n/a	2	n/a	n/a	n/a	n/a	288.946	n/a
260.02	0.497	angry	Picture	91.996	n/a	3	7	6	n/a	6	60	2	n/a	n/a	n/a	n/a	289.476	AF32HAS.jpg
260.518	0.514	Blank	Blank	91.483	n/a	3	7	6	n/a	6	n/a	2	n/a	n/a	n/a	n/a	289.974	n/a
261.048	0.497	angry	Picture	90.969	n/a	3	7	7	n/a	7	42	2	n/a	n/a	n/a	n/a	290.504	AF03HAS.jpg
261.546	0.514	Blank	Blank	90.455	n/a	3	7	7	n/a	7	n/a	2	n/a	n/a	n/a	n/a	291.001	n/a
262.076	0.497	angry	Picture	89.941	n/a	3	7	8	n/a	8	55	2	n/a	n/a	n/a	n/a	291.532	AF25HAS.jpg
262.574	0.514	Blank	Blank	89.427	n/a	3	7	8	n/a	8	n/a	2	n/a	n/a	n/a	n/a	292.029	n/a
263.104	0.497	angry	Picture	88.913	n/a	3	7	9	n/a	9	72	2	n/a	n/a	n/a	n/a	292.56	AM14HAS.jpg
263.601	0.514	Blank	Blank	88.399	n/a	3	7	9	n/a	9	n/a	2	n/a	n/a	n/a	n/a	293.057	n/a
264.132	0.497	angry	Picture	87.885	n/a	3	7	10	n/a	10	63	2	n/a	n/a	n/a	n/a	293.588	AM04HAS.jpg
264.629	0.514	Blank	Blank	87.371	n/a	3	7	10	n/a	10	n/a	2	n/a	n/a	n/a	n/a	294.085	n/a
265.16	0.497	angry	Picture	86.857	n/a	3	7	11	n/a	11	58	2	n/a	n/a	n/a	n/a	294.615	BF29HAS.jpg
265.657	0.514	Blank	Blank	86.343	n/a	3	7	11	n/a	11	n/a	2	n/a	n/a	n/a	n/a	295.113	n/a
266.188	0.497	angry	Picture	85.829	n/a	3	7	12	n/a	12	48	2	n/a	n/a	n/a	n/a	295.643	AF14HAS.jpg
266.685	0.514	Blank	Blank	85.315	n/a	3	7	12	n/a	12	n/a	2	n/a	n/a	n/a	n/a	296.141	n/a
267.216	0.497	angry	Picture	84.801	n/a	3	7	13	n/a	13	66	2	n/a	n/a	n/a	n/a	296.671	BM07HAS.jpg
267.713	0.514	Blank	Blank	84.287	n/a	3	7	13	n/a	13	n/a	2	n/a	n/a	n/a	n/a	297.169	n/a
268.243	0.497	angry	Picture	83.773	n/a	3	7	14	n/a	14	70	2	n/a	n/a	n/a	n/a	297.699	BM11HAS.jpg
268.741	0.514	Blank	Blank	83.259	n/a	3	7	14	n/a	14	n/a	2	n/a	n/a	n/a	n/a	298.197	n/a
269.271	0.497	angry	Picture	82.745	n/a	3	7	15	n/a	15	43	2	n/a	n/a	n/a	n/a	298.727	BF04HAS.jpg
269.769	0.514	Blank	Blank	82.232	n/a	3	7	15	n/a	15	n/a	2	n/a	n/a	n/a	n/a	299.224	n/a
270.299	0.497	angry	Picture	81.718	n/a	3	7	16	n/a	16	49	2	n/a	n/a	n/a	n/a	299.755	AF17HAS.jpg
270.797	0.514	Blank	Blank	81.204	n/a	3	7	16	n/a	16	n/a	2	n/a	n/a	n/a	n/a	300.252	n/a
271.327	0.497	angry	Picture	80.69	n/a	3	7	17	n/a	17	75	2	n/a	n/a	n/a	n/a	300.783	AM23HAS.jpg
271.825	0.514	Blank	Blank	80.176	n/a	3	7	17	n/a	17	n/a	2	n/a	n/a	n/a	n/a	301.28	n/a
272.355	0.497	angry	Picture	79.662	n/a	3	7	18	n/a	18	80	2	n/a	n/a	n/a	n/a	301.811	BM35HAS.jpg
272.852	0.514	Blank	Blank	79.148	n/a	3	7	18	n/a	18	n/a	2	n/a	n/a	n/a	n/a	302.308	n/a
273.383	0.497	angry	Picture	78.634	n/a	3	7	19	n/a	19	76	2	n/a	n/a	n/a	n/a	302.839	BM24HAS.jpg
273.88	0.514	Blank	Blank	78.12	n/a	3	7	19	n/a	19	n/a	2	n/a	n/a	n/a	n/a	303.336	n/a
274.411	0.497	angry	Picture	77.606	n/a	3	7	20	n/a	20	74	2	n/a	n/a	n/a	n/a	303.866	AM22HAS.jpg
274.908	0.514	Blank	Blank	77.092	n/a	3	7	20	n/a	20	n/a	2	n/a	n/a	n/a	n/a	304.364	n/a
275.439	10.014	ITI	Fixation+	67.062	n/a	3	n/a	n/a	n/a	n/a	n/a	n/a	n/a	n/a	n/a	n/a	304.894	n/a
285.469	0.497	neutral	Picture	66.548	n/a	3	8	1	n/a	21	33	1	n/a	n/a	n/a	n/a	314.925	AM21NES.jpg
285.966	0.514	Blank	Blank	66.034	n/a	3	8	1	n/a	21	n/a	1	n/a	n/a	n/a	n/a	315.422	n/a
286.497	0.497	neutral	Picture	65.52	n/a	3	8	2	n/a	22	39	1	n/a	n/a	n/a	n/a	315.952	AM28NES.jpg
286.994	0.514	Blank	Blank	65.006	n/a	3	8	2	n/a	22	n/a	1	n/a	n/a	n/a	n/a	316.45	n/a
287.525	0.497	neutral	Picture	64.492	n/a	3	8	3	n/a	23	25	1	n/a	n/a	n/a	n/a	316.98	BM06NES.jpg
288.022	0.514	Blank	Blank	63.978	n/a	3	8	3	n/a	23	n/a	1	n/a	n/a	n/a	n/a	317.478	n/a
288.552	0.497	neutral	Picture	63.464	n/a	3	8	4	n/a	24	5	1	n/a	n/a	n/a	n/a	318.008	BF07NES.jpg
289.05	0.514	Blank	Blank	62.951	n/a	3	8	4	n/a	24	n/a	1	n/a	n/a	n/a	n/a	318.505	n/a
289.58	0.497	neutral	Picture	62.436	n/a	3	8	5	n/a	25	10	1	n/a	n/a	n/a	n/a	319.036	AF18NES.jpg
290.078	0.514	Blank	Blank	61.923	n/a	3	8	5	n/a	25	n/a	1	n/a	n/a	n/a	n/a	319.533	n/a
290.608	0.497	neutral	Picture	61.409	n/a	3	8	6	n/a	26	34	1	n/a	n/a	n/a	n/a	320.064	AM22NES.jpg
291.106	0.514	Blank	Blank	60.895	n/a	3	8	6	n/a	26	n/a	1	n/a	n/a	n/a	n/a	320.561	n/a
291.636	0.497	neutral	Picture	60.381	n/a	3	8	7	n/a	27	36	1	n/a	n/a	n/a	n/a	321.092	BM24NES.jpg
292.133	0.514	Blank	Blank	59.867	n/a	3	8	7	n/a	27	n/a	1	n/a	n/a	n/a	n/a	321.589	n/a
292.664	0.497	neutral	Picture	59.353	n/a	3	8	8	n/a	28	14	1	n/a	n/a	n/a	n/a	322.12	AF23NES.jpg
293.161	0.514	Blank	Blank	58.839	n/a	3	8	8	n/a	28	n/a	1	n/a	n/a	n/a	n/a	322.617	n/a
293.692	0.497	neutral	Picture	58.325	n/a	3	8	9	n/a	29	9	1	n/a	n/a	n/a	n/a	323.147	AF17NES.jpg
294.189	0.514	Blank	Blank	57.811	n/a	3	8	9	n/a	29	n/a	1	n/a	n/a	n/a	n/a	323.645	n/a
294.72	0.497	neutral	Picture	57.297	n/a	3	8	10	n/a	30	19	1	n/a	n/a	n/a	n/a	324.175	AF31NES.jpg
295.217	0.514	Blank	Blank	56.783	n/a	3	8	10	n/a	30	n/a	1	n/a	n/a	n/a	n/a	324.673	n/a
295.748	0.497	neutral	Picture	56.269	n/a	3	8	11	n/a	31	15	1	n/a	n/a	n/a	n/a	325.203	AF25NES.jpg
296.245	0.514	Blank	Blank	55.755	n/a	3	8	11	n/a	31	n/a	1	n/a	n/a	n/a	n/a	325.701	n/a
296.776	0.497	neutral	Picture	55.241	n/a	3	8	12	n/a	32	22	1	n/a	n/a	n/a	n/a	326.231	BM03NES.jpg
297.273	0.514	Blank	Blank	54.727	n/a	3	8	12	n/a	32	n/a	1	n/a	n/a	n/a	n/a	326.728	n/a
297.803	0.497	neutral	Picture	54.213	n/a	3	8	13	n/a	33	11	1	n/a	n/a	n/a	n/a	327.259	AF20NES.jpg
298.301	0.514	Blank	Blank	53.7	n/a	3	8	13	n/a	33	n/a	1	n/a	n/a	n/a	n/a	327.756	n/a
298.831	0.497	neutral	Picture	53.186	n/a	3	8	14	n/a	34	4	1	n/a	n/a	n/a	n/a	328.287	AF05NES.jpg
299.329	0.514	Blank	Blank	52.672	n/a	3	8	14	n/a	34	n/a	1	n/a	n/a	n/a	n/a	328.784	n/a
299.859	0.497	neutral	Picture	52.158	n/a	3	8	15	n/a	35	17	1	n/a	n/a	n/a	n/a	329.315	BF28NES.jpg
300.357	0.514	Blank	Blank	51.644	n/a	3	8	15	n/a	35	n/a	1	n/a	n/a	n/a	n/a	329.812	n/a
300.887	0.497	neutral	Picture	51.13	n/a	3	8	16	n/a	36	13	1	n/a	n/a	n/a	n/a	330.343	BF22NES.jpg
301.384	0.514	Blank	Blank	50.616	n/a	3	8	16	n/a	36	n/a	1	n/a	n/a	n/a	n/a	330.84	n/a
301.915	0.497	neutral	Picture	50.102	n/a	3	8	17	n/a	37	12	1	n/a	n/a	n/a	n/a	331.371	AF21NES.jpg
302.412	0.514	Blank	Blank	49.588	n/a	3	8	17	n/a	37	n/a	1	n/a	n/a	n/a	n/a	331.868	n/a
302.943	0.497	neutral	Picture	49.074	n/a	3	8	18	n/a	38	24	1	n/a	n/a	n/a	n/a	332.399	BM05NES.jpg
303.44	0.514	Blank	Blank	48.56	n/a	3	8	18	n/a	38	n/a	1	n/a	n/a	n/a	n/a	332.896	n/a
303.971	0.497	neutral	Picture	48.046	n/a	3	8	19	n/a	39	29	1	n/a	n/a	n/a	n/a	333.426	AM10NES.jpg
304.468	0.514	Blank	Blank	47.532	n/a	3	8	19	n/a	39	n/a	1	n/a	n/a	n/a	n/a	333.924	n/a
304.999	0.497	neutral	Picture	47.018	n/a	3	8	20	n/a	40	23	1	n/a	n/a	n/a	n/a	334.454	AM04NES.jpg
305.496	0.514	Blank	Blank	46.504	n/a	3	8	20	n/a	40	n/a	1	n/a	n/a	n/a	n/a	334.952	n/a
306.026	10.014	ITI	Fixation+	36.474	n/a	3	n/a	n/a	n/a	n/a	n/a	n/a	n/a	n/a	n/a	n/a	335.482	n/a
316.057	0.497	angry	Picture	35.96	n/a	3	9	1	n/a	41	62	2	n/a	n/a	n/a	n/a	345.512	BM03HAS.jpg
316.554	0.514	Blank	Blank	35.446	n/a	3	9	1	n/a	41	n/a	2	n/a	n/a	n/a	n/a	346.01	n/a
317.084	0.497	angry	Picture	34.932	n/a	3	9	2	n/a	42	52	2	n/a	n/a	n/a	n/a	346.54	AF21HAS.jpg
317.582	0.514	Blank	Blank	34.418	n/a	3	9	2	n/a	42	n/a	2	n/a	n/a	n/a	n/a	347.038	n/a
318.112	0.497	angry	Picture	33.904	n/a	3	9	3	n/a	43	44	2	n/a	n/a	n/a	n/a	347.568	AF05HAS.jpg
318.61	0.514	Blank	Blank	33.391	n/a	3	9	3	n/a	43	n/a	2	n/a	n/a	n/a	n/a	348.065	n/a
319.14	0.497	angry	Picture	32.877	n/a	3	9	4	n/a	44	53	2	n/a	n/a	n/a	n/a	348.596	BF22HAS.jpg
319.638	0.514	Blank	Blank	32.363	n/a	3	9	4	n/a	44	n/a	2	n/a	n/a	n/a	n/a	349.093	n/a
320.168	0.497	angry	Picture	31.849	n/a	3	9	5	n/a	45	54	2	n/a	n/a	n/a	n/a	349.624	AF23HAS.jpg
320.665	0.514	Blank	Blank	31.335	n/a	3	9	5	n/a	45	n/a	2	n/a	n/a	n/a	n/a	350.121	n/a
321.196	0.497	angry	Picture	30.821	n/a	3	9	6	n/a	46	68	2	n/a	n/a	n/a	n/a	350.652	AM09HAS.jpg
321.693	0.514	Blank	Blank	30.307	n/a	3	9	6	n/a	46	n/a	2	n/a	n/a	n/a	n/a	351.149	n/a
322.224	0.497	angry	Picture	29.793	n/a	3	9	7	n/a	47	64	2	n/a	n/a	n/a	n/a	351.68	BM05HAS.jpg
322.721	0.514	Blank	Blank	29.279	n/a	3	9	7	n/a	47	n/a	2	n/a	n/a	n/a	n/a	352.177	n/a
323.252	0.497	angry	Picture	28.765	n/a	3	9	8	n/a	48	59	2	n/a	n/a	n/a	n/a	352.707	AF31HAS.jpg
323.749	0.514	Blank	Blank	28.251	n/a	3	9	8	n/a	48	n/a	2	n/a	n/a	n/a	n/a	353.205	n/a
324.28	0.497	angry	Picture	27.737	n/a	3	9	9	n/a	49	41	2	n/a	n/a	n/a	n/a	353.735	AF01HAS.jpg
324.777	0.514	Blank	Blank	27.223	n/a	3	9	9	n/a	49	n/a	2	n/a	n/a	n/a	n/a	354.233	n/a
325.308	0.497	angry	Picture	26.709	n/a	3	9	10	n/a	50	73	2	n/a	n/a	n/a	n/a	354.763	AM21HAS.jpg
325.805	0.514	Blank	Blank	26.195	n/a	3	9	10	n/a	50	n/a	2	n/a	n/a	n/a	n/a	355.26	n/a
326.335	0.497	angry	Picture	25.682	n/a	3	9	11	n/a	51	65	2	n/a	n/a	n/a	n/a	355.791	BM06HAS.jpg
326.833	0.514	Blank	Blank	25.167	n/a	3	9	11	n/a	51	n/a	2	n/a	n/a	n/a	n/a	356.288	n/a
327.363	0.497	angry	Picture	24.654	n/a	3	9	12	n/a	52	56	2	n/a	n/a	n/a	n/a	356.819	AF26HAS.jpg
327.861	0.514	Blank	Blank	24.14	n/a	3	9	12	n/a	52	n/a	2	n/a	n/a	n/a	n/a	357.316	n/a
328.391	0.497	angry	Picture	23.626	n/a	3	9	13	n/a	53	45	2	n/a	n/a	n/a	n/a	357.847	BF07HAS.jpg
328.889	0.514	Blank	Blank	23.112	n/a	3	9	13	n/a	53	n/a	2	n/a	n/a	n/a	n/a	358.344	n/a
329.419	0.497	angry	Picture	22.598	n/a	3	9	14	n/a	54	78	2	n/a	n/a	n/a	n/a	358.875	BM26HAS.jpg
329.916	0.514	Blank	Blank	22.084	n/a	3	9	14	n/a	54	n/a	2	n/a	n/a	n/a	n/a	359.372	n/a
330.447	0.497	angry	Picture	21.57	n/a	3	9	15	n/a	55	50	2	n/a	n/a	n/a	n/a	359.903	AF18HAS.jpg
330.944	0.514	Blank	Blank	21.056	n/a	3	9	15	n/a	55	n/a	2	n/a	n/a	n/a	n/a	360.4	n/a
331.475	0.497	angry	Picture	20.542	n/a	3	9	16	n/a	56	47	2	n/a	n/a	n/a	n/a	360.93	BF11HAS.jpg
331.972	0.514	Blank	Blank	20.028	n/a	3	9	16	n/a	56	n/a	2	n/a	n/a	n/a	n/a	361.428	n/a
332.503	0.497	angry	Picture	19.514	n/a	3	9	17	n/a	57	77	2	n/a	n/a	n/a	n/a	361.958	BM25HAS.jpg
333.0	0.514	Blank	Blank	19.0	n/a	3	9	17	n/a	57	n/a	2	n/a	n/a	n/a	n/a	362.456	n/a
333.531	0.497	angry	Picture	18.486	n/a	3	9	18	n/a	58	57	2	n/a	n/a	n/a	n/a	362.986	BF28HAS.jpg
334.028	0.514	Blank	Blank	17.972	n/a	3	9	18	n/a	58	n/a	2	n/a	n/a	n/a	n/a	363.484	n/a
334.558	0.497	angry	Picture	17.458	n/a	3	9	19	n/a	59	61	2	n/a	n/a	n/a	n/a	364.014	AM01HAS.jpg
335.056	0.514	Blank	Blank	16.945	n/a	3	9	19	n/a	59	n/a	2	n/a	n/a	n/a	n/a	364.512	n/a
335.586	0.497	angry	Picture	16.43	n/a	3	9	20	n/a	60	79	2	n/a	n/a	n/a	n/a	365.042	BM28HAS.jpg
336.084	0.514	Blank	Blank	15.917	n/a	3	9	20	n/a	60	n/a	2	n/a	n/a	n/a	n/a	365.539	n/a
336.614	10.014	ITI	Fixation+	5.886	n/a	3	n/a	n/a	n/a	n/a	n/a	n/a	n/a	n/a	n/a	n/a	366.07	n/a
352.514	n/a	ConfirmRating	Rate	n/a	5.885	3	n/a	n/a	0	n/a	n/a	n/a	2	Angry	9	49	381.97	n/a
355.633	n/a	ConfirmRating	Rate	n/a	3.1	3	n/a	n/a	1	n/a	n/a	n/a	3	Angry	7	49	385.089	n/a
355.663	10.014	ITI	Fixation+	95.195	n/a	4	n/a	n/a	n/a	n/a	n/a	n/a	n/a	n/a	n/a	n/a	385.119	n/a
365.693	0.497	happy	Picture	94.68	n/a	4	10	1	n/a	61	119	3	n/a	n/a	n/a	n/a	395.149	BM28ANS.jpg
366.191	0.514	Blank	Blank	94.167	n/a	4	10	1	n/a	61	n/a	3	n/a	n/a	n/a	n/a	395.646	n/a
366.721	0.497	happy	Picture	93.653	n/a	4	10	2	n/a	62	100	3	n/a	n/a	n/a	n/a	396.177	AF32ANS.jpg
367.219	0.514	Blank	Blank	93.139	n/a	4	10	2	n/a	62	n/a	3	n/a	n/a	n/a	n/a	396.674	n/a
367.749	0.497	happy	Picture	92.625	n/a	4	10	3	n/a	63	118	3	n/a	n/a	n/a	n/a	397.205	BM26ANS.jpg
368.246	0.514	Blank	Blank	92.111	n/a	4	10	3	n/a	63	n/a	3	n/a	n/a	n/a	n/a	397.702	n/a
368.777	0.497	happy	Picture	91.597	n/a	4	10	4	n/a	64	89	3	n/a	n/a	n/a	n/a	398.233	AF17ANS.jpg
369.274	0.514	Blank	Blank	91.083	n/a	4	10	4	n/a	64	n/a	3	n/a	n/a	n/a	n/a	398.73	n/a
369.805	0.497	happy	Picture	90.569	n/a	4	10	5	n/a	65	116	3	n/a	n/a	n/a	n/a	399.26	BM24ANS.jpg
370.302	0.514	Blank	Blank	90.055	n/a	4	10	5	n/a	65	n/a	3	n/a	n/a	n/a	n/a	399.758	n/a
370.833	0.497	happy	Picture	89.541	n/a	4	10	6	n/a	66	105	3	n/a	n/a	n/a	n/a	400.288	BM06ANS.jpg
371.33	0.514	Blank	Blank	89.027	n/a	4	10	6	n/a	66	n/a	3	n/a	n/a	n/a	n/a	400.786	n/a
371.861	0.497	happy	Picture	88.513	n/a	4	10	7	n/a	67	106	3	n/a	n/a	n/a	n/a	401.316	AM07ANS.jpg
372.358	0.514	Blank	Blank	87.999	n/a	4	10	7	n/a	67	n/a	3	n/a	n/a	n/a	n/a	401.814	n/a
372.889	0.497	happy	Picture	87.485	n/a	4	10	8	n/a	68	94	3	n/a	n/a	n/a	n/a	402.344	AF23ANS.jpg
373.386	0.514	Blank	Blank	86.971	n/a	4	10	8	n/a	68	n/a	3	n/a	n/a	n/a	n/a	402.841	n/a
373.916	0.497	happy	Picture	86.458	n/a	4	10	9	n/a	69	117	3	n/a	n/a	n/a	n/a	403.372	BM25ANS.jpg
374.414	0.514	Blank	Blank	85.944	n/a	4	10	9	n/a	69	n/a	3	n/a	n/a	n/a	n/a	403.869	n/a
374.944	0.497	happy	Picture	85.43	n/a	4	10	10	n/a	70	90	3	n/a	n/a	n/a	n/a	404.4	AF18ANS.jpg
375.442	0.514	Blank	Blank	84.916	n/a	4	10	10	n/a	70	n/a	3	n/a	n/a	n/a	n/a	404.897	n/a
375.972	0.497	happy	Picture	84.402	n/a	4	10	11	n/a	71	83	3	n/a	n/a	n/a	n/a	405.428	BF04ANS.jpg
376.47	0.514	Blank	Blank	83.888	n/a	4	10	11	n/a	71	n/a	3	n/a	n/a	n/a	n/a	405.925	n/a
377.0	0.497	happy	Picture	83.374	n/a	4	10	12	n/a	72	112	3	n/a	n/a	n/a	n/a	406.456	AM14ANS.jpg
377.497	0.514	Blank	Blank	82.86	n/a	4	10	12	n/a	72	n/a	3	n/a	n/a	n/a	n/a	406.953	n/a
378.028	0.497	happy	Picture	82.346	n/a	4	10	13	n/a	73	102	3	n/a	n/a	n/a	n/a	407.484	BM03ANS.jpg
378.525	0.514	Blank	Blank	81.832	n/a	4	10	13	n/a	73	n/a	3	n/a	n/a	n/a	n/a	407.981	n/a
379.056	0.497	happy	Picture	81.318	n/a	4	10	14	n/a	74	95	3	n/a	n/a	n/a	n/a	408.512	AF25ANS.jpg
379.553	0.514	Blank	Blank	80.804	n/a	4	10	14	n/a	74	n/a	3	n/a	n/a	n/a	n/a	409.009	n/a
380.084	0.497	happy	Picture	80.29	n/a	4	10	15	n/a	75	113	3	n/a	n/a	n/a	n/a	409.539	AM21ANS.jpg
380.581	0.514	Blank	Blank	79.776	n/a	4	10	15	n/a	75	n/a	3	n/a	n/a	n/a	n/a	410.037	n/a
381.112	0.497	happy	Picture	79.262	n/a	4	10	16	n/a	76	88	3	n/a	n/a	n/a	n/a	410.567	AF14ANS.jpg
381.609	0.514	Blank	Blank	78.748	n/a	4	10	16	n/a	76	n/a	3	n/a	n/a	n/a	n/a	411.065	n/a
382.139	0.497	happy	Picture	78.234	n/a	4	10	17	n/a	77	93	3	n/a	n/a	n/a	n/a	411.595	BF22ANS.jpg
382.637	0.514	Blank	Blank	77.721	n/a	4	10	17	n/a	77	n/a	3	n/a	n/a	n/a	n/a	412.092	n/a
383.167	0.497	happy	Picture	77.207	n/a	4	10	18	n/a	78	86	3	n/a	n/a	n/a	n/a	412.623	AF09ANS.jpg
383.665	0.514	Blank	Blank	76.693	n/a	4	10	18	n/a	78	n/a	3	n/a	n/a	n/a	n/a	413.12	n/a
384.195	0.497	happy	Picture	76.179	n/a	4	10	19	n/a	79	92	3	n/a	n/a	n/a	n/a	413.651	AF21ANS.jpg
384.692	0.514	Blank	Blank	75.665	n/a	4	10	19	n/a	79	n/a	3	n/a	n/a	n/a	n/a	414.148	n/a
385.223	0.497	happy	Picture	75.151	n/a	4	10	20	n/a	80	84	3	n/a	n/a	n/a	n/a	414.679	AF05ANS.jpg
385.72	0.514	Blank	Blank	74.637	n/a	4	10	20	n/a	80	n/a	3	n/a	n/a	n/a	n/a	415.176	n/a
386.251	10.014	ITI	Fixation+	64.607	n/a	4	n/a	n/a	n/a	n/a	n/a	n/a	n/a	n/a	n/a	n/a	415.707	n/a
396.281	0.497	neutral	Picture	64.093	n/a	4	11	1	n/a	81	4	1	n/a	n/a	n/a	n/a	425.737	AF05NES.jpg
396.778	0.514	Blank	Blank	63.579	n/a	4	11	1	n/a	81	n/a	1	n/a	n/a	n/a	n/a	426.234	n/a
397.309	0.497	neutral	Picture	63.065	n/a	4	11	2	n/a	82	14	1	n/a	n/a	n/a	n/a	426.765	AF23NES.jpg
397.806	0.514	Blank	Blank	62.551	n/a	4	11	2	n/a	82	n/a	1	n/a	n/a	n/a	n/a	427.262	n/a
398.337	0.497	neutral	Picture	62.037	n/a	4	11	3	n/a	83	19	1	n/a	n/a	n/a	n/a	427.793	AF31NES.jpg
398.834	0.514	Blank	Blank	61.523	n/a	4	11	3	n/a	83	n/a	1	n/a	n/a	n/a	n/a	428.29	n/a
399.365	0.497	neutral	Picture	61.009	n/a	4	11	4	n/a	84	8	1	n/a	n/a	n/a	n/a	428.82	AF14NES.jpg
399.862	0.514	Blank	Blank	60.495	n/a	4	11	4	n/a	84	n/a	1	n/a	n/a	n/a	n/a	429.318	n/a
400.393	0.497	neutral	Picture	59.981	n/a	4	11	5	n/a	85	25	1	n/a	n/a	n/a	n/a	429.848	BM06NES.jpg
400.89	0.514	Blank	Blank	59.467	n/a	4	11	5	n/a	85	n/a	1	n/a	n/a	n/a	n/a	430.346	n/a
401.421	0.497	neutral	Picture	58.953	n/a	4	11	6	n/a	86	9	1	n/a	n/a	n/a	n/a	430.876	AF17NES.jpg
401.918	0.514	Blank	Blank	58.439	n/a	4	11	6	n/a	86	n/a	1	n/a	n/a	n/a	n/a	431.374	n/a
402.448	0.497	neutral	Picture	57.925	n/a	4	11	7	n/a	87	2	1	n/a	n/a	n/a	n/a	431.904	AF03NES.jpg
402.946	0.514	Blank	Blank	57.411	n/a	4	11	7	n/a	87	n/a	1	n/a	n/a	n/a	n/a	432.401	n/a
403.476	0.497	neutral	Picture	56.898	n/a	4	11	8	n/a	88	17	1	n/a	n/a	n/a	n/a	432.932	BF28NES.jpg
403.974	0.514	Blank	Blank	56.384	n/a	4	11	8	n/a	88	n/a	1	n/a	n/a	n/a	n/a	433.429	n/a
404.504	0.497	neutral	Picture	55.87	n/a	4	11	9	n/a	89	6	1	n/a	n/a	n/a	n/a	433.96	AF09NES.jpg
405.002	0.514	Blank	Blank	55.356	n/a	4	11	9	n/a	89	n/a	1	n/a	n/a	n/a	n/a	434.457	n/a
405.532	0.497	neutral	Picture	54.842	n/a	4	11	10	n/a	90	12	1	n/a	n/a	n/a	n/a	434.988	AF21NES.jpg
406.029	0.514	Blank	Blank	54.328	n/a	4	11	10	n/a	90	n/a	1	n/a	n/a	n/a	n/a	435.485	n/a
406.56	0.497	neutral	Picture	53.814	n/a	4	11	11	n/a	91	24	1	n/a	n/a	n/a	n/a	436.016	BM05NES.jpg
407.057	0.514	Blank	Blank	53.3	n/a	4	11	11	n/a	91	n/a	1	n/a	n/a	n/a	n/a	436.513	n/a
407.588	0.497	neutral	Picture	52.786	n/a	4	11	12	n/a	92	34	1	n/a	n/a	n/a	n/a	437.043	AM22NES.jpg
408.085	0.514	Blank	Blank	52.272	n/a	4	11	12	n/a	92	n/a	1	n/a	n/a	n/a	n/a	437.541	n/a
408.616	0.497	neutral	Picture	51.758	n/a	4	11	13	n/a	93	23	1	n/a	n/a	n/a	n/a	438.071	AM04NES.jpg
409.113	0.514	Blank	Blank	51.244	n/a	4	11	13	n/a	93	n/a	1	n/a	n/a	n/a	n/a	438.569	n/a
409.644	0.497	neutral	Picture	50.73	n/a	4	11	14	n/a	94	15	1	n/a	n/a	n/a	n/a	439.099	AF25NES.jpg
410.141	0.514	Blank	Blank	50.216	n/a	4	11	14	n/a	94	n/a	1	n/a	n/a	n/a	n/a	439.597	n/a
410.671	0.497	neutral	Picture	49.702	n/a	4	11	15	n/a	95	37	1	n/a	n/a	n/a	n/a	440.127	BM25NES.jpg
411.169	0.514	Blank	Blank	49.189	n/a	4	11	15	n/a	95	n/a	1	n/a	n/a	n/a	n/a	440.625	n/a
411.699	0.497	neutral	Picture	48.675	n/a	4	11	16	n/a	96	32	1	n/a	n/a	n/a	n/a	441.155	AM14NES.jpg
412.197	0.514	Blank	Blank	48.161	n/a	4	11	16	n/a	96	n/a	1	n/a	n/a	n/a	n/a	441.652	n/a
412.727	0.497	neutral	Picture	47.647	n/a	4	11	17	n/a	97	3	1	n/a	n/a	n/a	n/a	442.183	BF04NES.jpg
413.225	0.514	Blank	Blank	47.133	n/a	4	11	17	n/a	97	n/a	1	n/a	n/a	n/a	n/a	442.68	n/a
413.755	0.497	neutral	Picture	46.619	n/a	4	11	18	n/a	98	16	1	n/a	n/a	n/a	n/a	443.211	AF26NES.jpg
414.252	0.514	Blank	Blank	46.105	n/a	4	11	18	n/a	98	n/a	1	n/a	n/a	n/a	n/a	443.708	n/a
414.783	0.497	neutral	Picture	45.591	n/a	4	11	19	n/a	99	27	1	n/a	n/a	n/a	n/a	444.239	BM08NES.jpg
415.28	0.514	Blank	Blank	45.077	n/a	4	11	19	n/a	99	n/a	1	n/a	n/a	n/a	n/a	444.736	n/a
415.811	0.497	neutral	Picture	44.563	n/a	4	11	20	n/a	100	28	1	n/a	n/a	n/a	n/a	445.267	AM09NES.jpg
416.308	0.514	Blank	Blank	44.049	n/a	4	11	20	n/a	100	n/a	1	n/a	n/a	n/a	n/a	445.764	n/a
416.839	10.014	ITI	Fixation+	34.019	n/a	4	n/a	n/a	n/a	n/a	n/a	n/a	n/a	n/a	n/a	n/a	446.294	n/a
426.869	0.497	happy	Picture	33.505	n/a	4	12	1	n/a	101	81	3	n/a	n/a	n/a	n/a	456.325	AF01ANS.jpg
427.366	0.514	Blank	Blank	32.991	n/a	4	12	1	n/a	101	n/a	3	n/a	n/a	n/a	n/a	456.822	n/a
427.897	0.497	happy	Picture	32.477	n/a	4	12	2	n/a	102	120	3	n/a	n/a	n/a	n/a	457.352	AM35ANS.jpg
428.394	0.514	Blank	Blank	31.963	n/a	4	12	2	n/a	102	n/a	3	n/a	n/a	n/a	n/a	457.85	n/a
428.925	0.497	happy	Picture	31.449	n/a	4	12	3	n/a	103	114	3	n/a	n/a	n/a	n/a	458.38	AM22ANS.jpg
429.422	0.514	Blank	Blank	30.935	n/a	4	12	3	n/a	103	n/a	3	n/a	n/a	n/a	n/a	458.878	n/a
429.953	0.497	happy	Picture	30.421	n/a	4	12	4	n/a	104	109	3	n/a	n/a	n/a	n/a	459.408	AM10ANS.jpg
430.45	0.514	Blank	Blank	29.907	n/a	4	12	4	n/a	104	n/a	3	n/a	n/a	n/a	n/a	459.906	n/a
430.98	0.497	happy	Picture	29.393	n/a	4	12	5	n/a	105	96	3	n/a	n/a	n/a	n/a	460.436	AF26ANS.jpg
431.478	0.514	Blank	Blank	28.88	n/a	4	12	5	n/a	105	n/a	3	n/a	n/a	n/a	n/a	460.933	n/a
432.008	0.497	happy	Picture	28.366	n/a	4	12	6	n/a	106	82	3	n/a	n/a	n/a	n/a	461.464	AF03ANS.jpg
432.506	0.514	Blank	Blank	27.852	n/a	4	12	6	n/a	106	n/a	3	n/a	n/a	n/a	n/a	461.961	n/a
433.036	0.497	happy	Picture	27.338	n/a	4	12	7	n/a	107	97	3	n/a	n/a	n/a	n/a	462.492	BF28ANS.jpg
433.534	0.514	Blank	Blank	26.824	n/a	4	12	7	n/a	107	n/a	3	n/a	n/a	n/a	n/a	462.989	n/a
434.064	0.497	happy	Picture	26.31	n/a	4	12	8	n/a	108	115	3	n/a	n/a	n/a	n/a	463.52	AM23ANS.jpg
434.561	0.514	Blank	Blank	25.796	n/a	4	12	8	n/a	108	n/a	3	n/a	n/a	n/a	n/a	464.017	n/a
435.092	0.497	happy	Picture	25.282	n/a	4	12	9	n/a	109	91	3	n/a	n/a	n/a	n/a	464.548	AF20ANS.jpg
435.589	0.514	Blank	Blank	24.768	n/a	4	12	9	n/a	109	n/a	3	n/a	n/a	n/a	n/a	465.045	n/a
436.12	0.497	happy	Picture	24.254	n/a	4	12	10	n/a	110	87	3	n/a	n/a	n/a	n/a	465.575	BF11ANS.jpg
436.617	0.514	Blank	Blank	23.74	n/a	4	12	10	n/a	110	n/a	3	n/a	n/a	n/a	n/a	466.073	n/a
437.148	0.497	happy	Picture	23.226	n/a	4	12	11	n/a	111	85	3	n/a	n/a	n/a	n/a	466.603	BF07ANS.jpg
437.645	0.514	Blank	Blank	22.712	n/a	4	12	11	n/a	111	n/a	3	n/a	n/a	n/a	n/a	467.101	n/a
438.176	0.497	happy	Picture	22.198	n/a	4	12	12	n/a	112	110	3	n/a	n/a	n/a	n/a	467.631	AM11ANS.jpg
438.673	0.514	Blank	Blank	21.684	n/a	4	12	12	n/a	112	n/a	3	n/a	n/a	n/a	n/a	468.129	n/a
439.203	0.497	happy	Picture	21.17	n/a	4	12	13	n/a	113	111	3	n/a	n/a	n/a	n/a	468.659	BM12ANS.jpg
439.701	0.514	Blank	Blank	20.657	n/a	4	12	13	n/a	113	n/a	3	n/a	n/a	n/a	n/a	469.156	n/a
440.231	0.497	happy	Picture	20.142	n/a	4	12	14	n/a	114	103	3	n/a	n/a	n/a	n/a	469.687	AM04ANS.jpg
440.729	0.514	Blank	Blank	19.629	n/a	4	12	14	n/a	114	n/a	3	n/a	n/a	n/a	n/a	470.184	n/a
441.259	0.497	happy	Picture	19.115	n/a	4	12	15	n/a	115	101	3	n/a	n/a	n/a	n/a	470.715	AM01ANS.jpg
441.757	0.514	Blank	Blank	18.601	n/a	4	12	15	n/a	115	n/a	3	n/a	n/a	n/a	n/a	471.212	n/a
442.287	0.497	happy	Picture	18.087	n/a	4	12	16	n/a	116	104	3	n/a	n/a	n/a	n/a	471.743	BM05ANS.jpg
442.785	0.514	Blank	Blank	17.573	n/a	4	12	16	n/a	116	n/a	3	n/a	n/a	n/a	n/a	472.24	n/a
443.315	0.497	happy	Picture	17.059	n/a	4	12	17	n/a	117	107	3	n/a	n/a	n/a	n/a	472.771	BM08ANS.jpg
443.812	0.514	Blank	Blank	16.545	n/a	4	12	17	n/a	117	n/a	3	n/a	n/a	n/a	n/a	473.268	n/a
444.343	0.497	happy	Picture	16.031	n/a	4	12	18	n/a	118	98	3	n/a	n/a	n/a	n/a	473.799	BF29ANS.jpg
444.84	0.514	Blank	Blank	15.517	n/a	4	12	18	n/a	118	n/a	3	n/a	n/a	n/a	n/a	474.296	n/a
445.371	0.497	happy	Picture	15.003	n/a	4	12	19	n/a	119	99	3	n/a	n/a	n/a	n/a	474.826	AF31ANS.jpg
445.868	0.514	Blank	Blank	14.489	n/a	4	12	19	n/a	119	n/a	3	n/a	n/a	n/a	n/a	475.324	n/a
446.399	0.497	happy	Picture	13.975	n/a	4	12	20	n/a	120	108	3	n/a	n/a	n/a	n/a	475.854	AM09ANS.jpg
446.896	0.514	Blank	Blank	13.461	n/a	4	12	20	n/a	120	n/a	3	n/a	n/a	n/a	n/a	476.352	n/a
447.427	10.014	ITI	Fixation+	3.431	n/a	4	n/a	n/a	n/a	n/a	n/a	n/a	n/a	n/a	n/a	n/a	476.882	n/a
460.871	n/a	ConfirmRating	Rate	n/a	3.415	4	n/a	n/a	0	n/a	n/a	n/a	2	Happy	76	51	490.327	n/a
464.382	n/a	ConfirmRating	Rate	n/a	3.498	4	n/a	n/a	1	n/a	n/a	n/a	3	Happy	0	49	493.838	n/a
