onset	duration	trial_type	event_type	time_until_response	response_time	trial_number	block_num_within_trial	image_seq_num_within_block	question_seq_num_within_block	image_seq_num	picture_number	condition	question_type	block_type	rating	rating_computed	onset_uncorrected	KDEV_imagefile
0.003	10.014	ITI	Fixation+	102.142	n/a	1	n/a	n/a	n/a	n/a	n/a	n/a	n/a	n/a	n/a	n/a	30.433	n/a
10.033	0.497	angry	Picture	101.628	n/a	1	1	1	n/a	1	46	2	n/a	n/a	n/a	n/a	40.464	AF09HAS.jpg
10.53	0.514	Blank	Blank	101.114	n/a	1	1	1	n/a	1	n/a	2	n/a	n/a	n/a	n/a	40.961	n/a
11.061	0.497	angry	Picture	100.6	n/a	1	1	2	n/a	2	69	2	n/a	n/a	n/a	n/a	41.492	AM10HAS.jpg
11.558	0.514	Blank	Blank	100.086	n/a	1	1	2	n/a	2	n/a	2	n/a	n/a	n/a	n/a	41.989	n/a
12.089	0.497	angry	Picture	99.572	n/a	1	1	3	n/a	3	71	2	n/a	n/a	n/a	n/a	42.52	BM12HAS.jpg
12.586	0.514	Blank	Blank	99.058	n/a	1	1	3	n/a	3	n/a	2	n/a	n/a	n/a	n/a	43.017	n/a
13.117	0.497	angry	Picture	98.544	n/a	1	1	4	n/a	4	51	2	n/a	n/a	n/a	n/a	43.547	AF20HAS.jpg
13.614	0.514	Blank	Blank	98.03	n/a	1	1	4	n/a	4	n/a	2	n/a	n/a	n/a	n/a	44.045	n/a
14.144	0.497	angry	Picture	97.516	n/a	1	1	5	n/a	5	67	2	n/a	n/a	n/a	n/a	44.575	BM08HAS.jpg
14.642	0.514	Blank	Blank	97.002	n/a	1	1	5	n/a	5	n/a	2	n/a	n/a	n/a	n/a	45.073	n/a
15.172	0.497	angry	Picture	96.489	n/a	1	1	6	n/a	6	60	2	n/a	n/a	n/a	n/a	45.603	AF32HAS.jpg
15.67	0.514	Blank	Blank	95.975	n/a	1	1	6	n/a	6	n/a	2	n/a	n/a	n/a	n/a	46.1	n/a
16.2	0.497	angry	Picture	95.461	n/a	1	1	7	n/a	7	42	2	n/a	n/a	n/a	n/a	46.631	AF03HAS.jpg
16.697	0.514	Blank	Blank	94.947	n/a	1	1	7	n/a	7	n/a	2	n/a	n/a	n/a	n/a	47.128	n/a
17.228	0.497	angry	Picture	94.433	n/a	1	1	8	n/a	8	55	2	n/a	n/a	n/a	n/a	47.659	AF25HAS.jpg
17.725	0.514	Blank	Blank	93.919	n/a	1	1	8	n/a	8	n/a	2	n/a	n/a	n/a	n/a	48.156	n/a
18.256	0.497	angry	Picture	93.405	n/a	1	1	9	n/a	9	72	2	n/a	n/a	n/a	n/a	48.687	AM14HAS.jpg
18.753	0.514	Blank	Blank	92.891	n/a	1	1	9	n/a	9	n/a	2	n/a	n/a	n/a	n/a	49.184	n/a
19.284	0.497	angry	Picture	92.377	n/a	1	1	10	n/a	10	63	2	n/a	n/a	n/a	n/a	49.715	AM04HAS.jpg
19.781	0.514	Blank	Blank	91.863	n/a	1	1	10	n/a	10	n/a	2	n/a	n/a	n/a	n/a	50.212	n/a
20.312	0.497	angry	Picture	91.349	n/a	1	1	11	n/a	11	58	2	n/a	n/a	n/a	n/a	50.743	BF29HAS.jpg
20.809	0.514	Blank	Blank	90.835	n/a	1	1	11	n/a	11	n/a	2	n/a	n/a	n/a	n/a	51.24	n/a
21.34	0.497	angry	Picture	90.321	n/a	1	1	12	n/a	12	48	2	n/a	n/a	n/a	n/a	51.77	AF14HAS.jpg
21.837	0.514	Blank	Blank	89.807	n/a	1	1	12	n/a	12	n/a	2	n/a	n/a	n/a	n/a	52.268	n/a
22.367	0.497	angry	Picture	89.293	n/a	1	1	13	n/a	13	66	2	n/a	n/a	n/a	n/a	52.798	BM07HAS.jpg
22.865	0.514	Blank	Blank	88.779	n/a	1	1	13	n/a	13	n/a	2	n/a	n/a	n/a	n/a	53.296	n/a
23.395	0.497	angry	Picture	88.265	n/a	1	1	14	n/a	14	70	2	n/a	n/a	n/a	n/a	53.826	BM11HAS.jpg
23.893	0.514	Blank	Blank	87.751	n/a	1	1	14	n/a	14	n/a	2	n/a	n/a	n/a	n/a	54.324	n/a
24.423	0.497	angry	Picture	87.238	n/a	1	1	15	n/a	15	43	2	n/a	n/a	n/a	n/a	54.854	BF04HAS.jpg
24.921	0.514	Blank	Blank	86.724	n/a	1	1	15	n/a	15	n/a	2	n/a	n/a	n/a	n/a	55.352	n/a
25.451	0.497	angry	Picture	86.21	n/a	1	1	16	n/a	16	49	2	n/a	n/a	n/a	n/a	55.882	AF17HAS.jpg
25.948	0.514	Blank	Blank	85.696	n/a	1	1	16	n/a	16	n/a	2	n/a	n/a	n/a	n/a	56.379	n/a
26.479	0.497	angry	Picture	85.182	n/a	1	1	17	n/a	17	75	2	n/a	n/a	n/a	n/a	56.91	AM23HAS.jpg
26.976	0.514	Blank	Blank	84.668	n/a	1	1	17	n/a	17	n/a	2	n/a	n/a	n/a	n/a	57.407	n/a
27.507	0.497	angry	Picture	84.154	n/a	1	1	18	n/a	18	80	2	n/a	n/a	n/a	n/a	57.938	BM35HAS.jpg
28.004	0.514	Blank	Blank	83.64	n/a	1	1	18	n/a	18	n/a	2	n/a	n/a	n/a	n/a	58.435	n/a
28.535	0.497	angry	Picture	83.126	n/a	1	1	19	n/a	19	76	2	n/a	n/a	n/a	n/a	58.966	BM24HAS.jpg
29.032	0.514	Blank	Blank	82.612	n/a	1	1	19	n/a	19	n/a	2	n/a	n/a	n/a	n/a	59.463	n/a
29.563	0.497	angry	Picture	82.098	n/a	1	1	20	n/a	20	74	2	n/a	n/a	n/a	n/a	59.994	AM22HAS.jpg
30.06	0.514	Blank	Blank	81.584	n/a	1	1	20	n/a	20	n/a	2	n/a	n/a	n/a	n/a	60.491	n/a
30.591	10.014	ITI	Fixation+	71.554	n/a	1	n/a	n/a	n/a	n/a	n/a	n/a	n/a	n/a	n/a	n/a	61.022	n/a
40.621	0.497	neutral	Picture	71.04	n/a	1	2	1	n/a	21	33	1	n/a	n/a	n/a	n/a	71.052	AM21NES.jpg
41.118	0.514	Blank	Blank	70.526	n/a	1	2	1	n/a	21	n/a	1	n/a	n/a	n/a	n/a	71.549	n/a
41.649	0.497	neutral	Picture	70.012	n/a	1	2	2	n/a	22	39	1	n/a	n/a	n/a	n/a	72.08	AM28NES.jpg
42.146	0.514	Blank	Blank	69.498	n/a	1	2	2	n/a	22	n/a	1	n/a	n/a	n/a	n/a	72.577	n/a
42.677	0.497	neutral	Picture	68.984	n/a	1	2	3	n/a	23	25	1	n/a	n/a	n/a	n/a	73.108	BM06NES.jpg
43.174	0.514	Blank	Blank	68.47	n/a	1	2	3	n/a	23	n/a	1	n/a	n/a	n/a	n/a	73.605	n/a
43.705	0.497	neutral	Picture	67.956	n/a	1	2	4	n/a	24	5	1	n/a	n/a	n/a	n/a	74.135	BF07NES.jpg
44.202	0.514	Blank	Blank	67.442	n/a	1	2	4	n/a	24	n/a	1	n/a	n/a	n/a	n/a	74.633	n/a
44.732	0.497	neutral	Picture	66.928	n/a	1	2	5	n/a	25	10	1	n/a	n/a	n/a	n/a	75.163	AF18NES.jpg
45.23	0.514	Blank	Blank	66.414	n/a	1	2	5	n/a	25	n/a	1	n/a	n/a	n/a	n/a	75.661	n/a
45.76	0.497	neutral	Picture	65.901	n/a	1	2	6	n/a	26	34	1	n/a	n/a	n/a	n/a	76.191	AM22NES.jpg
46.258	0.514	Blank	Blank	65.387	n/a	1	2	6	n/a	26	n/a	1	n/a	n/a	n/a	n/a	76.689	n/a
46.788	0.497	neutral	Picture	64.873	n/a	1	2	7	n/a	27	36	1	n/a	n/a	n/a	n/a	77.219	BM24NES.jpg
47.285	0.514	Blank	Blank	64.359	n/a	1	2	7	n/a	27	n/a	1	n/a	n/a	n/a	n/a	77.716	n/a
47.816	0.497	neutral	Picture	63.845	n/a	1	2	8	n/a	28	14	1	n/a	n/a	n/a	n/a	78.247	AF23NES.jpg
48.313	0.514	Blank	Blank	63.331	n/a	1	2	8	n/a	28	n/a	1	n/a	n/a	n/a	n/a	78.744	n/a
48.844	0.497	neutral	Picture	62.817	n/a	1	2	9	n/a	29	9	1	n/a	n/a	n/a	n/a	79.275	AF17NES.jpg
49.341	0.514	Blank	Blank	62.303	n/a	1	2	9	n/a	29	n/a	1	n/a	n/a	n/a	n/a	79.772	n/a
49.872	0.497	neutral	Picture	61.789	n/a	1	2	10	n/a	30	19	1	n/a	n/a	n/a	n/a	80.303	AF31NES.jpg
50.369	0.514	Blank	Blank	61.275	n/a	1	2	10	n/a	30	n/a	1	n/a	n/a	n/a	n/a	80.8	n/a
50.9	0.497	neutral	Picture	60.761	n/a	1	2	11	n/a	31	15	1	n/a	n/a	n/a	n/a	81.331	AF25NES.jpg
51.397	0.514	Blank	Blank	60.247	n/a	1	2	11	n/a	31	n/a	1	n/a	n/a	n/a	n/a	81.828	n/a
51.928	0.497	neutral	Picture	59.733	n/a	1	2	12	n/a	32	22	1	n/a	n/a	n/a	n/a	82.359	BM03NES.jpg
52.425	0.514	Blank	Blank	59.219	n/a	1	2	12	n/a	32	n/a	1	n/a	n/a	n/a	n/a	82.856	n/a
52.955	0.497	neutral	Picture	58.705	n/a	1	2	13	n/a	33	11	1	n/a	n/a	n/a	n/a	83.386	AF20NES.jpg
53.453	0.514	Blank	Blank	58.191	n/a	1	2	13	n/a	33	n/a	1	n/a	n/a	n/a	n/a	83.884	n/a
53.983	0.497	neutral	Picture	57.677	n/a	1	2	14	n/a	34	4	1	n/a	n/a	n/a	n/a	84.414	AF05NES.jpg
54.481	0.514	Blank	Blank	57.163	n/a	1	2	14	n/a	34	n/a	1	n/a	n/a	n/a	n/a	84.912	n/a
55.011	0.497	neutral	Picture	56.65	n/a	1	2	15	n/a	35	17	1	n/a	n/a	n/a	n/a	85.442	BF28NES.jpg
55.509	0.514	Blank	Blank	56.136	n/a	1	2	15	n/a	35	n/a	1	n/a	n/a	n/a	n/a	85.939	n/a
56.039	0.497	neutral	Picture	55.622	n/a	1	2	16	n/a	36	13	1	n/a	n/a	n/a	n/a	86.47	BF22NES.jpg
56.536	0.514	Blank	Blank	55.108	n/a	1	2	16	n/a	36	n/a	1	n/a	n/a	n/a	n/a	86.967	n/a
57.067	0.497	neutral	Picture	54.594	n/a	1	2	17	n/a	37	12	1	n/a	n/a	n/a	n/a	87.498	AF21NES.jpg
57.564	0.514	Blank	Blank	54.08	n/a	1	2	17	n/a	37	n/a	1	n/a	n/a	n/a	n/a	87.995	n/a
58.095	0.497	neutral	Picture	53.566	n/a	1	2	18	n/a	38	24	1	n/a	n/a	n/a	n/a	88.526	BM05NES.jpg
58.592	0.514	Blank	Blank	53.052	n/a	1	2	18	n/a	38	n/a	1	n/a	n/a	n/a	n/a	89.023	n/a
59.123	0.497	neutral	Picture	52.538	n/a	1	2	19	n/a	39	29	1	n/a	n/a	n/a	n/a	89.554	AM10NES.jpg
59.62	0.514	Blank	Blank	52.024	n/a	1	2	19	n/a	39	n/a	1	n/a	n/a	n/a	n/a	90.051	n/a
60.151	0.497	neutral	Picture	51.51	n/a	1	2	20	n/a	40	23	1	n/a	n/a	n/a	n/a	90.582	AM04NES.jpg
60.648	0.514	Blank	Blank	50.996	n/a	1	2	20	n/a	40	n/a	1	n/a	n/a	n/a	n/a	91.079	n/a
61.179	10.014	ITI	Fixation+	40.966	n/a	1	n/a	n/a	n/a	n/a	n/a	n/a	n/a	n/a	n/a	n/a	91.609	n/a
71.209	0.497	angry	Picture	40.452	n/a	1	3	1	n/a	41	62	2	n/a	n/a	n/a	n/a	101.64	BM03HAS.jpg
71.706	0.514	Blank	Blank	39.938	n/a	1	3	1	n/a	41	n/a	2	n/a	n/a	n/a	n/a	102.137	n/a
72.237	0.497	angry	Picture	39.424	n/a	1	3	2	n/a	42	52	2	n/a	n/a	n/a	n/a	102.668	AF21HAS.jpg
72.734	0.514	Blank	Blank	38.91	n/a	1	3	2	n/a	42	n/a	2	n/a	n/a	n/a	n/a	103.165	n/a
73.265	0.497	angry	Picture	38.396	n/a	1	3	3	n/a	43	44	2	n/a	n/a	n/a	n/a	103.695	AF05HAS.jpg
73.762	0.514	Blank	Blank	37.882	n/a	1	3	3	n/a	43	n/a	2	n/a	n/a	n/a	n/a	104.193	n/a
74.292	0.497	angry	Picture	37.368	n/a	1	3	4	n/a	44	53	2	n/a	n/a	n/a	n/a	104.723	BF22HAS.jpg
74.79	0.514	Blank	Blank	36.854	n/a	1	3	4	n/a	44	n/a	2	n/a	n/a	n/a	n/a	105.221	n/a
75.32	0.497	angry	Picture	36.34	n/a	1	3	5	n/a	45	54	2	n/a	n/a	n/a	n/a	105.751	AF23HAS.jpg
75.818	0.514	Blank	Blank	35.826	n/a	1	3	5	n/a	45	n/a	2	n/a	n/a	n/a	n/a	106.249	n/a
76.348	0.497	angry	Picture	35.313	n/a	1	3	6	n/a	46	68	2	n/a	n/a	n/a	n/a	106.779	AM09HAS.jpg
76.846	0.514	Blank	Blank	34.799	n/a	1	3	6	n/a	46	n/a	2	n/a	n/a	n/a	n/a	107.276	n/a
77.376	0.497	angry	Picture	34.285	n/a	1	3	7	n/a	47	64	2	n/a	n/a	n/a	n/a	107.807	BM05HAS.jpg
77.874	0.514	Blank	Blank	33.771	n/a	1	3	7	n/a	47	n/a	2	n/a	n/a	n/a	n/a	108.304	n/a
78.404	0.497	angry	Picture	33.257	n/a	1	3	8	n/a	48	59	2	n/a	n/a	n/a	n/a	108.835	AF31HAS.jpg
78.901	0.514	Blank	Blank	32.743	n/a	1	3	8	n/a	48	n/a	2	n/a	n/a	n/a	n/a	109.332	n/a
79.432	0.497	angry	Picture	32.229	n/a	1	3	9	n/a	49	41	2	n/a	n/a	n/a	n/a	109.863	AF01HAS.jpg
79.929	0.514	Blank	Blank	31.715	n/a	1	3	9	n/a	49	n/a	2	n/a	n/a	n/a	n/a	110.36	n/a
80.46	0.497	angry	Picture	31.201	n/a	1	3	10	n/a	50	73	2	n/a	n/a	n/a	n/a	110.891	AM21HAS.jpg
80.957	0.514	Blank	Blank	30.687	n/a	1	3	10	n/a	50	n/a	2	n/a	n/a	n/a	n/a	111.388	n/a
81.488	0.497	angry	Picture	30.173	n/a	1	3	11	n/a	51	65	2	n/a	n/a	n/a	n/a	111.919	BM06HAS.jpg
81.985	0.514	Blank	Blank	29.659	n/a	1	3	11	n/a	51	n/a	2	n/a	n/a	n/a	n/a	112.416	n/a
82.516	0.497	angry	Picture	29.145	n/a	1	3	12	n/a	52	56	2	n/a	n/a	n/a	n/a	112.947	AF26HAS.jpg
83.013	0.514	Blank	Blank	28.631	n/a	1	3	12	n/a	52	n/a	2	n/a	n/a	n/a	n/a	113.444	n/a
83.543	0.497	angry	Picture	28.117	n/a	1	3	13	n/a	53	45	2	n/a	n/a	n/a	n/a	113.974	BF07HAS.jpg
84.041	0.514	Blank	Blank	27.603	n/a	1	3	13	n/a	53	n/a	2	n/a	n/a	n/a	n/a	114.472	n/a
84.571	0.497	angry	Picture	27.089	n/a	1	3	14	n/a	54	78	2	n/a	n/a	n/a	n/a	115.002	BM26HAS.jpg
85.069	0.514	Blank	Blank	26.575	n/a	1	3	14	n/a	54	n/a	2	n/a	n/a	n/a	n/a	115.5	n/a
85.599	0.497	angry	Picture	26.062	n/a	1	3	15	n/a	55	50	2	n/a	n/a	n/a	n/a	116.03	AF18HAS.jpg
86.097	0.514	Blank	Blank	25.548	n/a	1	3	15	n/a	55	n/a	2	n/a	n/a	n/a	n/a	116.528	n/a
86.627	0.497	angry	Picture	25.034	n/a	1	3	16	n/a	56	47	2	n/a	n/a	n/a	n/a	117.058	BF11HAS.jpg
87.125	0.514	Blank	Blank	24.52	n/a	1	3	16	n/a	56	n/a	2	n/a	n/a	n/a	n/a	117.555	n/a
87.655	0.497	angry	Picture	24.006	n/a	1	3	17	n/a	57	77	2	n/a	n/a	n/a	n/a	118.086	BM25HAS.jpg
88.152	0.514	Blank	Blank	23.492	n/a	1	3	17	n/a	57	n/a	2	n/a	n/a	n/a	n/a	118.583	n/a
88.683	0.497	angry	Picture	22.978	n/a	1	3	18	n/a	58	57	2	n/a	n/a	n/a	n/a	119.114	BF28HAS.jpg
89.18	0.514	Blank	Blank	22.464	n/a	1	3	18	n/a	58	n/a	2	n/a	n/a	n/a	n/a	119.611	n/a
89.711	0.497	angry	Picture	21.95	n/a	1	3	19	n/a	59	61	2	n/a	n/a	n/a	n/a	120.142	AM01HAS.jpg
90.208	0.514	Blank	Blank	21.436	n/a	1	3	19	n/a	59	n/a	2	n/a	n/a	n/a	n/a	120.639	n/a
90.739	0.497	angry	Picture	20.922	n/a	1	3	20	n/a	60	79	2	n/a	n/a	n/a	n/a	121.17	BM28HAS.jpg
91.236	0.514	Blank	Blank	20.408	n/a	1	3	20	n/a	60	n/a	2	n/a	n/a	n/a	n/a	121.667	n/a
91.767	10.014	ITI	Fixation+	10.378	n/a	1	n/a	n/a	n/a	n/a	n/a	n/a	n/a	n/a	n/a	n/a	122.198	n/a
112.158	n/a	ConfirmRating	Rate	n/a	10.362	1	n/a	n/a	0	n/a	n/a	n/a	2	Angry	27	49	142.589	n/a
117.376	n/a	ConfirmRating	Rate	n/a	5.205	1	n/a	n/a	1	n/a	n/a	n/a	3	Angry	9	46	147.807	n/a
117.398	10.014	ITI	Fixation+	98.595	n/a	2	n/a	n/a	n/a	n/a	n/a	n/a	n/a	n/a	n/a	n/a	147.828	n/a
127.428	0.497	happy	Picture	98.081	n/a	2	4	1	n/a	61	119	3	n/a	n/a	n/a	n/a	157.859	BM28ANS.jpg
127.925	0.514	Blank	Blank	97.567	n/a	2	4	1	n/a	61	n/a	3	n/a	n/a	n/a	n/a	158.356	n/a
128.456	0.497	happy	Picture	97.053	n/a	2	4	2	n/a	62	100	3	n/a	n/a	n/a	n/a	158.887	AF32ANS.jpg
128.953	0.514	Blank	Blank	96.539	n/a	2	4	2	n/a	62	n/a	3	n/a	n/a	n/a	n/a	159.384	n/a
129.484	0.497	happy	Picture	96.025	n/a	2	4	3	n/a	63	118	3	n/a	n/a	n/a	n/a	159.915	BM26ANS.jpg
129.981	0.514	Blank	Blank	95.511	n/a	2	4	3	n/a	63	n/a	3	n/a	n/a	n/a	n/a	160.412	n/a
130.511	0.497	happy	Picture	94.997	n/a	2	4	4	n/a	64	89	3	n/a	n/a	n/a	n/a	160.942	AF17ANS.jpg
131.009	0.514	Blank	Blank	94.483	n/a	2	4	4	n/a	64	n/a	3	n/a	n/a	n/a	n/a	161.44	n/a
131.539	0.497	happy	Picture	93.969	n/a	2	4	5	n/a	65	116	3	n/a	n/a	n/a	n/a	161.97	BM24ANS.jpg
132.037	0.514	Blank	Blank	93.455	n/a	2	4	5	n/a	65	n/a	3	n/a	n/a	n/a	n/a	162.468	n/a
132.567	0.497	happy	Picture	92.941	n/a	2	4	6	n/a	66	105	3	n/a	n/a	n/a	n/a	162.998	BM06ANS.jpg
133.065	0.514	Blank	Blank	92.427	n/a	2	4	6	n/a	66	n/a	3	n/a	n/a	n/a	n/a	163.495	n/a
133.595	0.497	happy	Picture	91.913	n/a	2	4	7	n/a	67	106	3	n/a	n/a	n/a	n/a	164.026	AM07ANS.jpg
134.093	0.514	Blank	Blank	91.4	n/a	2	4	7	n/a	67	n/a	3	n/a	n/a	n/a	n/a	164.523	n/a
134.623	0.497	happy	Picture	90.886	n/a	2	4	8	n/a	68	94	3	n/a	n/a	n/a	n/a	165.054	AF23ANS.jpg
135.12	0.514	Blank	Blank	90.372	n/a	2	4	8	n/a	68	n/a	3	n/a	n/a	n/a	n/a	165.551	n/a
135.651	0.497	happy	Picture	89.858	n/a	2	4	9	n/a	69	117	3	n/a	n/a	n/a	n/a	166.082	BM25ANS.jpg
136.148	0.514	Blank	Blank	89.344	n/a	2	4	9	n/a	69	n/a	3	n/a	n/a	n/a	n/a	166.579	n/a
136.679	0.497	happy	Picture	88.83	n/a	2	4	10	n/a	70	90	3	n/a	n/a	n/a	n/a	167.11	AF18ANS.jpg
137.176	0.514	Blank	Blank	88.316	n/a	2	4	10	n/a	70	n/a	3	n/a	n/a	n/a	n/a	167.607	n/a
137.707	0.497	happy	Picture	87.802	n/a	2	4	11	n/a	71	83	3	n/a	n/a	n/a	n/a	168.138	BF04ANS.jpg
138.204	0.514	Blank	Blank	87.288	n/a	2	4	11	n/a	71	n/a	3	n/a	n/a	n/a	n/a	168.635	n/a
138.735	0.497	happy	Picture	86.774	n/a	2	4	12	n/a	72	112	3	n/a	n/a	n/a	n/a	169.166	AM14ANS.jpg
139.232	0.514	Blank	Blank	86.26	n/a	2	4	12	n/a	72	n/a	3	n/a	n/a	n/a	n/a	169.663	n/a
139.762	0.497	happy	Picture	85.746	n/a	2	4	13	n/a	73	102	3	n/a	n/a	n/a	n/a	170.193	BM03ANS.jpg
140.26	0.514	Blank	Blank	85.232	n/a	2	4	13	n/a	73	n/a	3	n/a	n/a	n/a	n/a	170.691	n/a
140.79	0.497	happy	Picture	84.718	n/a	2	4	14	n/a	74	95	3	n/a	n/a	n/a	n/a	171.221	AF25ANS.jpg
141.288	0.514	Blank	Blank	84.204	n/a	2	4	14	n/a	74	n/a	3	n/a	n/a	n/a	n/a	171.719	n/a
141.818	0.497	happy	Picture	83.69	n/a	2	4	15	n/a	75	113	3	n/a	n/a	n/a	n/a	172.249	AM21ANS.jpg
142.316	0.514	Blank	Blank	83.176	n/a	2	4	15	n/a	75	n/a	3	n/a	n/a	n/a	n/a	172.746	n/a
142.846	0.497	happy	Picture	82.662	n/a	2	4	16	n/a	76	88	3	n/a	n/a	n/a	n/a	173.277	AF14ANS.jpg
143.344	0.514	Blank	Blank	82.149	n/a	2	4	16	n/a	76	n/a	3	n/a	n/a	n/a	n/a	173.774	n/a
143.874	0.497	happy	Picture	81.635	n/a	2	4	17	n/a	77	93	3	n/a	n/a	n/a	n/a	174.305	BF22ANS.jpg
144.371	0.514	Blank	Blank	81.121	n/a	2	4	17	n/a	77	n/a	3	n/a	n/a	n/a	n/a	174.802	n/a
144.902	0.497	happy	Picture	80.607	n/a	2	4	18	n/a	78	86	3	n/a	n/a	n/a	n/a	175.333	AF09ANS.jpg
145.399	0.514	Blank	Blank	80.093	n/a	2	4	18	n/a	78	n/a	3	n/a	n/a	n/a	n/a	175.83	n/a
145.93	0.497	happy	Picture	79.579	n/a	2	4	19	n/a	79	92	3	n/a	n/a	n/a	n/a	176.361	AF21ANS.jpg
146.427	0.514	Blank	Blank	79.065	n/a	2	4	19	n/a	79	n/a	3	n/a	n/a	n/a	n/a	176.858	n/a
146.958	0.497	happy	Picture	78.551	n/a	2	4	20	n/a	80	84	3	n/a	n/a	n/a	n/a	177.389	AF05ANS.jpg
147.455	0.514	Blank	Blank	78.037	n/a	2	4	20	n/a	80	n/a	3	n/a	n/a	n/a	n/a	177.886	n/a
147.986	10.014	ITI	Fixation+	68.007	n/a	2	n/a	n/a	n/a	n/a	n/a	n/a	n/a	n/a	n/a	n/a	178.417	n/a
158.016	0.497	neutral	Picture	67.493	n/a	2	5	1	n/a	81	4	1	n/a	n/a	n/a	n/a	188.447	AF05NES.jpg
158.513	0.514	Blank	Blank	66.979	n/a	2	5	1	n/a	81	n/a	1	n/a	n/a	n/a	n/a	188.944	n/a
159.044	0.497	neutral	Picture	66.465	n/a	2	5	2	n/a	82	14	1	n/a	n/a	n/a	n/a	189.475	AF23NES.jpg
159.541	0.514	Blank	Blank	65.951	n/a	2	5	2	n/a	82	n/a	1	n/a	n/a	n/a	n/a	189.972	n/a
160.072	0.497	neutral	Picture	65.437	n/a	2	5	3	n/a	83	19	1	n/a	n/a	n/a	n/a	190.502	AF31NES.jpg
160.569	0.514	Blank	Blank	64.923	n/a	2	5	3	n/a	83	n/a	1	n/a	n/a	n/a	n/a	191.0	n/a
161.099	0.497	neutral	Picture	64.409	n/a	2	5	4	n/a	84	8	1	n/a	n/a	n/a	n/a	191.53	AF14NES.jpg
161.597	0.514	Blank	Blank	63.895	n/a	2	5	4	n/a	84	n/a	1	n/a	n/a	n/a	n/a	192.028	n/a
162.127	0.497	neutral	Picture	63.381	n/a	2	5	5	n/a	85	25	1	n/a	n/a	n/a	n/a	192.558	BM06NES.jpg
162.625	0.514	Blank	Blank	62.867	n/a	2	5	5	n/a	85	n/a	1	n/a	n/a	n/a	n/a	193.056	n/a
163.155	0.497	neutral	Picture	62.353	n/a	2	5	6	n/a	86	9	1	n/a	n/a	n/a	n/a	193.586	AF17NES.jpg
163.653	0.514	Blank	Blank	61.839	n/a	2	5	6	n/a	86	n/a	1	n/a	n/a	n/a	n/a	194.083	n/a
164.183	0.497	neutral	Picture	61.325	n/a	2	5	7	n/a	87	2	1	n/a	n/a	n/a	n/a	194.614	AF03NES.jpg
164.68	0.514	Blank	Blank	60.812	n/a	2	5	7	n/a	87	n/a	1	n/a	n/a	n/a	n/a	195.111	n/a
165.211	0.497	neutral	Picture	60.298	n/a	2	5	8	n/a	88	17	1	n/a	n/a	n/a	n/a	195.642	BF28NES.jpg
165.708	0.514	Blank	Blank	59.784	n/a	2	5	8	n/a	88	n/a	1	n/a	n/a	n/a	n/a	196.139	n/a
166.239	0.497	neutral	Picture	59.27	n/a	2	5	9	n/a	89	6	1	n/a	n/a	n/a	n/a	196.67	AF09NES.jpg
166.736	0.514	Blank	Blank	58.756	n/a	2	5	9	n/a	89	n/a	1	n/a	n/a	n/a	n/a	197.167	n/a
167.267	0.497	neutral	Picture	58.242	n/a	2	5	10	n/a	90	12	1	n/a	n/a	n/a	n/a	197.698	AF21NES.jpg
167.764	0.514	Blank	Blank	57.728	n/a	2	5	10	n/a	90	n/a	1	n/a	n/a	n/a	n/a	198.195	n/a
168.295	0.497	neutral	Picture	57.214	n/a	2	5	11	n/a	91	24	1	n/a	n/a	n/a	n/a	198.726	BM05NES.jpg
168.792	0.514	Blank	Blank	56.7	n/a	2	5	11	n/a	91	n/a	1	n/a	n/a	n/a	n/a	199.223	n/a
169.323	0.497	neutral	Picture	56.186	n/a	2	5	12	n/a	92	34	1	n/a	n/a	n/a	n/a	199.754	AM22NES.jpg
169.82	0.514	Blank	Blank	55.672	n/a	2	5	12	n/a	92	n/a	1	n/a	n/a	n/a	n/a	200.251	n/a
170.35	0.497	neutral	Picture	55.158	n/a	2	5	13	n/a	93	23	1	n/a	n/a	n/a	n/a	200.781	AM04NES.jpg
170.848	0.514	Blank	Blank	54.644	n/a	2	5	13	n/a	93	n/a	1	n/a	n/a	n/a	n/a	201.279	n/a
171.378	0.497	neutral	Picture	54.13	n/a	2	5	14	n/a	94	15	1	n/a	n/a	n/a	n/a	201.809	AF25NES.jpg
171.876	0.514	Blank	Blank	53.616	n/a	2	5	14	n/a	94	n/a	1	n/a	n/a	n/a	n/a	202.307	n/a
172.406	0.497	neutral	Picture	53.102	n/a	2	5	15	n/a	95	37	1	n/a	n/a	n/a	n/a	202.837	BM25NES.jpg
172.904	0.514	Blank	Blank	52.588	n/a	2	5	15	n/a	95	n/a	1	n/a	n/a	n/a	n/a	203.334	n/a
173.434	0.497	neutral	Picture	52.074	n/a	2	5	16	n/a	96	32	1	n/a	n/a	n/a	n/a	203.865	AM14NES.jpg
173.931	0.514	Blank	Blank	51.561	n/a	2	5	16	n/a	96	n/a	1	n/a	n/a	n/a	n/a	204.362	n/a
174.462	0.497	neutral	Picture	51.047	n/a	2	5	17	n/a	97	3	1	n/a	n/a	n/a	n/a	204.893	BF04NES.jpg
174.959	0.514	Blank	Blank	50.533	n/a	2	5	17	n/a	97	n/a	1	n/a	n/a	n/a	n/a	205.39	n/a
175.49	0.497	neutral	Picture	50.019	n/a	2	5	18	n/a	98	16	1	n/a	n/a	n/a	n/a	205.921	AF26NES.jpg
175.987	0.514	Blank	Blank	49.505	n/a	2	5	18	n/a	98	n/a	1	n/a	n/a	n/a	n/a	206.418	n/a
176.518	0.497	neutral	Picture	48.991	n/a	2	5	19	n/a	99	27	1	n/a	n/a	n/a	n/a	206.949	BM08NES.jpg
177.015	0.514	Blank	Blank	48.477	n/a	2	5	19	n/a	99	n/a	1	n/a	n/a	n/a	n/a	207.446	n/a
177.546	0.497	neutral	Picture	47.963	n/a	2	5	20	n/a	100	28	1	n/a	n/a	n/a	n/a	207.977	AM09NES.jpg
178.043	0.514	Blank	Blank	47.449	n/a	2	5	20	n/a	100	n/a	1	n/a	n/a	n/a	n/a	208.474	n/a
178.574	10.014	ITI	Fixation+	37.419	n/a	2	n/a	n/a	n/a	n/a	n/a	n/a	n/a	n/a	n/a	n/a	209.005	n/a
188.604	0.497	happy	Picture	36.905	n/a	2	6	1	n/a	101	81	3	n/a	n/a	n/a	n/a	219.035	AF01ANS.jpg
189.101	0.514	Blank	Blank	36.391	n/a	2	6	1	n/a	101	n/a	3	n/a	n/a	n/a	n/a	219.532	n/a
189.632	0.497	happy	Picture	35.877	n/a	2	6	2	n/a	102	120	3	n/a	n/a	n/a	n/a	220.063	AM35ANS.jpg
190.129	0.514	Blank	Blank	35.363	n/a	2	6	2	n/a	102	n/a	3	n/a	n/a	n/a	n/a	220.56	n/a
190.66	0.497	happy	Picture	34.849	n/a	2	6	3	n/a	103	114	3	n/a	n/a	n/a	n/a	221.09	AM22ANS.jpg
191.157	0.514	Blank	Blank	34.335	n/a	2	6	3	n/a	103	n/a	3	n/a	n/a	n/a	n/a	221.588	n/a
191.688	0.497	happy	Picture	33.821	n/a	2	6	4	n/a	104	109	3	n/a	n/a	n/a	n/a	222.118	AM10ANS.jpg
192.185	0.514	Blank	Blank	33.307	n/a	2	6	4	n/a	104	n/a	3	n/a	n/a	n/a	n/a	222.616	n/a
192.715	0.497	happy	Picture	32.793	n/a	2	6	5	n/a	105	96	3	n/a	n/a	n/a	n/a	223.146	AF26ANS.jpg
193.213	0.514	Blank	Blank	32.279	n/a	2	6	5	n/a	105	n/a	3	n/a	n/a	n/a	n/a	223.644	n/a
193.743	0.497	happy	Picture	31.765	n/a	2	6	6	n/a	106	82	3	n/a	n/a	n/a	n/a	224.174	AF03ANS.jpg
194.241	0.514	Blank	Blank	31.251	n/a	2	6	6	n/a	106	n/a	3	n/a	n/a	n/a	n/a	224.672	n/a
194.771	0.497	happy	Picture	30.737	n/a	2	6	7	n/a	107	97	3	n/a	n/a	n/a	n/a	225.202	BF28ANS.jpg
195.268	0.514	Blank	Blank	30.223	n/a	2	6	7	n/a	107	n/a	3	n/a	n/a	n/a	n/a	225.699	n/a
195.799	0.497	happy	Picture	29.71	n/a	2	6	8	n/a	108	115	3	n/a	n/a	n/a	n/a	226.23	AM23ANS.jpg
196.296	0.514	Blank	Blank	29.196	n/a	2	6	8	n/a	108	n/a	3	n/a	n/a	n/a	n/a	226.727	n/a
196.827	0.497	happy	Picture	28.682	n/a	2	6	9	n/a	109	91	3	n/a	n/a	n/a	n/a	227.258	AF20ANS.jpg
197.324	0.514	Blank	Blank	28.168	n/a	2	6	9	n/a	109	n/a	3	n/a	n/a	n/a	n/a	227.755	n/a
197.855	0.497	happy	Picture	27.654	n/a	2	6	10	n/a	110	87	3	n/a	n/a	n/a	n/a	228.286	BF11ANS.jpg
198.352	0.514	Blank	Blank	27.14	n/a	2	6	10	n/a	110	n/a	3	n/a	n/a	n/a	n/a	228.783	n/a
198.883	0.497	happy	Picture	26.626	n/a	2	6	11	n/a	111	85	3	n/a	n/a	n/a	n/a	229.314	BF07ANS.jpg
199.38	0.514	Blank	Blank	26.112	n/a	2	6	11	n/a	111	n/a	3	n/a	n/a	n/a	n/a	229.811	n/a
199.911	0.497	happy	Picture	25.598	n/a	2	6	12	n/a	112	110	3	n/a	n/a	n/a	n/a	230.341	AM11ANS.jpg
200.408	0.514	Blank	Blank	25.084	n/a	2	6	12	n/a	112	n/a	3	n/a	n/a	n/a	n/a	230.839	n/a
200.939	0.497	happy	Picture	24.57	n/a	2	6	13	n/a	113	111	3	n/a	n/a	n/a	n/a	231.369	BM12ANS.jpg
201.436	0.514	Blank	Blank	24.056	n/a	2	6	13	n/a	113	n/a	3	n/a	n/a	n/a	n/a	231.867	n/a
201.966	0.497	happy	Picture	23.542	n/a	2	6	14	n/a	114	103	3	n/a	n/a	n/a	n/a	232.397	AM04ANS.jpg
202.464	0.514	Blank	Blank	23.028	n/a	2	6	14	n/a	114	n/a	3	n/a	n/a	n/a	n/a	232.895	n/a
202.994	0.497	happy	Picture	22.514	n/a	2	6	15	n/a	115	101	3	n/a	n/a	n/a	n/a	233.425	AM01ANS.jpg
203.492	0.514	Blank	Blank	22.0	n/a	2	6	15	n/a	115	n/a	3	n/a	n/a	n/a	n/a	233.923	n/a
204.022	0.497	happy	Picture	21.486	n/a	2	6	16	n/a	116	104	3	n/a	n/a	n/a	n/a	234.453	BM05ANS.jpg
204.519	0.514	Blank	Blank	20.972	n/a	2	6	16	n/a	116	n/a	3	n/a	n/a	n/a	n/a	234.95	n/a
205.05	0.497	happy	Picture	20.459	n/a	2	6	17	n/a	117	107	3	n/a	n/a	n/a	n/a	235.481	BM08ANS.jpg
205.547	0.514	Blank	Blank	19.945	n/a	2	6	17	n/a	117	n/a	3	n/a	n/a	n/a	n/a	235.978	n/a
206.078	0.497	happy	Picture	19.431	n/a	2	6	18	n/a	118	98	3	n/a	n/a	n/a	n/a	236.509	BF29ANS.jpg
206.575	0.514	Blank	Blank	18.917	n/a	2	6	18	n/a	118	n/a	3	n/a	n/a	n/a	n/a	237.006	n/a
207.106	0.497	happy	Picture	18.403	n/a	2	6	19	n/a	119	99	3	n/a	n/a	n/a	n/a	237.537	AF31ANS.jpg
207.603	0.514	Blank	Blank	17.889	n/a	2	6	19	n/a	119	n/a	3	n/a	n/a	n/a	n/a	238.034	n/a
208.134	0.497	happy	Picture	17.375	n/a	2	6	20	n/a	120	108	3	n/a	n/a	n/a	n/a	238.565	AM09ANS.jpg
208.631	0.514	Blank	Blank	16.861	n/a	2	6	20	n/a	120	n/a	3	n/a	n/a	n/a	n/a	239.062	n/a
209.162	10.014	ITI	Fixation+	6.831	n/a	2	n/a	n/a	n/a	n/a	n/a	n/a	n/a	n/a	n/a	n/a	239.593	n/a
226.006	n/a	ConfirmRating	Rate	n/a	6.831	2	n/a	n/a	0	n/a	n/a	n/a	2	Happy	68	52	256.437	n/a
229.696	n/a	ConfirmRating	Rate	n/a	3.664	2	n/a	n/a	1	n/a	n/a	n/a	3	Happy	22	48	260.127	n/a
229.719	15.004	Rest	Picture	n/a	n/a	n/a	n/a	n/a	n/a	n/a	n/a	n/a	0	n/a	0	0	260.15	n/a
244.74	10.014	ITI	Fixation+	97.695	n/a	3	n/a	n/a	n/a	n/a	n/a	n/a	n/a	n/a	n/a	n/a	275.171	n/a
254.77	0.497	angry	Picture	97.181	n/a	3	7	1	n/a	1	46	2	n/a	n/a	n/a	n/a	285.201	AF09HAS.jpg
255.267	0.514	Blank	Blank	96.667	n/a	3	7	1	n/a	1	n/a	2	n/a	n/a	n/a	n/a	285.698	n/a
255.798	0.497	angry	Picture	96.153	n/a	3	7	2	n/a	2	69	2	n/a	n/a	n/a	n/a	286.229	AM10HAS.jpg
256.295	0.514	Blank	Blank	95.639	n/a	3	7	2	n/a	2	n/a	2	n/a	n/a	n/a	n/a	286.726	n/a
256.826	0.497	angry	Picture	95.125	n/a	3	7	3	n/a	3	71	2	n/a	n/a	n/a	n/a	287.257	BM12HAS.jpg
257.323	0.514	Blank	Blank	94.611	n/a	3	7	3	n/a	3	n/a	2	n/a	n/a	n/a	n/a	287.754	n/a
257.854	0.497	angry	Picture	94.098	n/a	3	7	4	n/a	4	51	2	n/a	n/a	n/a	n/a	288.285	AF20HAS.jpg
258.351	0.514	Blank	Blank	93.584	n/a	3	7	4	n/a	4	n/a	2	n/a	n/a	n/a	n/a	288.782	n/a
258.882	0.497	angry	Picture	93.07	n/a	3	7	5	n/a	5	67	2	n/a	n/a	n/a	n/a	289.313	BM08HAS.jpg
259.379	0.514	Blank	Blank	92.556	n/a	3	7	5	n/a	5	n/a	2	n/a	n/a	n/a	n/a	289.81	n/a
259.909	0.497	angry	Picture	92.042	n/a	3	7	6	n/a	6	60	2	n/a	n/a	n/a	n/a	290.34	AF32HAS.jpg
260.407	0.514	Blank	Blank	91.528	n/a	3	7	6	n/a	6	n/a	2	n/a	n/a	n/a	n/a	290.838	n/a
260.937	0.497	angry	Picture	91.014	n/a	3	7	7	n/a	7	42	2	n/a	n/a	n/a	n/a	291.368	AF03HAS.jpg
261.435	0.514	Blank	Blank	90.5	n/a	3	7	7	n/a	7	n/a	2	n/a	n/a	n/a	n/a	291.866	n/a
261.965	0.497	angry	Picture	89.986	n/a	3	7	8	n/a	8	55	2	n/a	n/a	n/a	n/a	292.396	AF25HAS.jpg
262.463	0.514	Blank	Blank	89.472	n/a	3	7	8	n/a	8	n/a	2	n/a	n/a	n/a	n/a	292.894	n/a
262.993	0.497	angry	Picture	88.958	n/a	3	7	9	n/a	9	72	2	n/a	n/a	n/a	n/a	293.424	AM14HAS.jpg
263.491	0.514	Blank	Blank	88.444	n/a	3	7	9	n/a	9	n/a	2	n/a	n/a	n/a	n/a	293.921	n/a
264.021	0.497	angry	Picture	87.93	n/a	3	7	10	n/a	10	63	2	n/a	n/a	n/a	n/a	294.452	AM04HAS.jpg
264.519	0.514	Blank	Blank	87.416	n/a	3	7	10	n/a	10	n/a	2	n/a	n/a	n/a	n/a	294.949	n/a
265.049	0.497	angry	Picture	86.902	n/a	3	7	11	n/a	11	58	2	n/a	n/a	n/a	n/a	295.48	BF29HAS.jpg
265.546	0.514	Blank	Blank	86.388	n/a	3	7	11	n/a	11	n/a	2	n/a	n/a	n/a	n/a	295.977	n/a
266.077	0.497	angry	Picture	85.875	n/a	3	7	12	n/a	12	48	2	n/a	n/a	n/a	n/a	296.508	AF14HAS.jpg
266.574	0.514	Blank	Blank	85.36	n/a	3	7	12	n/a	12	n/a	2	n/a	n/a	n/a	n/a	297.005	n/a
267.105	0.497	angry	Picture	84.847	n/a	3	7	13	n/a	13	66	2	n/a	n/a	n/a	n/a	297.536	BM07HAS.jpg
267.602	0.514	Blank	Blank	84.333	n/a	3	7	13	n/a	13	n/a	2	n/a	n/a	n/a	n/a	298.033	n/a
268.133	0.497	angry	Picture	83.819	n/a	3	7	14	n/a	14	70	2	n/a	n/a	n/a	n/a	298.563	BM11HAS.jpg
268.63	0.514	Blank	Blank	83.305	n/a	3	7	14	n/a	14	n/a	2	n/a	n/a	n/a	n/a	299.061	n/a
269.161	0.497	angry	Picture	82.791	n/a	3	7	15	n/a	15	43	2	n/a	n/a	n/a	n/a	299.591	BF04HAS.jpg
269.658	0.514	Blank	Blank	82.277	n/a	3	7	15	n/a	15	n/a	2	n/a	n/a	n/a	n/a	300.089	n/a
270.188	0.497	angry	Picture	81.763	n/a	3	7	16	n/a	16	49	2	n/a	n/a	n/a	n/a	300.619	AF17HAS.jpg
270.686	0.514	Blank	Blank	81.249	n/a	3	7	16	n/a	16	n/a	2	n/a	n/a	n/a	n/a	301.117	n/a
271.216	0.497	angry	Picture	80.735	n/a	3	7	17	n/a	17	75	2	n/a	n/a	n/a	n/a	301.647	AM23HAS.jpg
271.714	0.514	Blank	Blank	80.221	n/a	3	7	17	n/a	17	n/a	2	n/a	n/a	n/a	n/a	302.145	n/a
272.244	0.497	angry	Picture	79.707	n/a	3	7	18	n/a	18	80	2	n/a	n/a	n/a	n/a	302.675	BM35HAS.jpg
272.742	0.514	Blank	Blank	79.193	n/a	3	7	18	n/a	18	n/a	2	n/a	n/a	n/a	n/a	303.173	n/a
273.272	0.497	angry	Picture	78.679	n/a	3	7	19	n/a	19	76	2	n/a	n/a	n/a	n/a	303.703	BM24HAS.jpg
273.769	0.514	Blank	Blank	78.165	n/a	3	7	19	n/a	19	n/a	2	n/a	n/a	n/a	n/a	304.2	n/a
274.3	0.497	angry	Picture	77.651	n/a	3	7	20	n/a	20	74	2	n/a	n/a	n/a	n/a	304.731	AM22HAS.jpg
274.797	0.514	Blank	Blank	77.137	n/a	3	7	20	n/a	20	n/a	2	n/a	n/a	n/a	n/a	305.228	n/a
275.328	10.014	ITI	Fixation+	67.107	n/a	3	n/a	n/a	n/a	n/a	n/a	n/a	n/a	n/a	n/a	n/a	305.759	n/a
285.358	0.497	neutral	Picture	66.593	n/a	3	8	1	n/a	21	33	1	n/a	n/a	n/a	n/a	315.789	AM21NES.jpg
285.856	0.514	Blank	Blank	66.079	n/a	3	8	1	n/a	21	n/a	1	n/a	n/a	n/a	n/a	316.286	n/a
286.386	0.497	neutral	Picture	65.565	n/a	3	8	2	n/a	22	39	1	n/a	n/a	n/a	n/a	316.817	AM28NES.jpg
286.883	0.514	Blank	Blank	65.051	n/a	3	8	2	n/a	22	n/a	1	n/a	n/a	n/a	n/a	317.314	n/a
287.414	0.497	neutral	Picture	64.537	n/a	3	8	3	n/a	23	25	1	n/a	n/a	n/a	n/a	317.845	BM06NES.jpg
287.911	0.514	Blank	Blank	64.023	n/a	3	8	3	n/a	23	n/a	1	n/a	n/a	n/a	n/a	318.342	n/a
288.442	0.497	neutral	Picture	63.51	n/a	3	8	4	n/a	24	5	1	n/a	n/a	n/a	n/a	318.873	BF07NES.jpg
288.939	0.514	Blank	Blank	62.996	n/a	3	8	4	n/a	24	n/a	1	n/a	n/a	n/a	n/a	319.37	n/a
289.47	0.497	neutral	Picture	62.482	n/a	3	8	5	n/a	25	10	1	n/a	n/a	n/a	n/a	319.901	AF18NES.jpg
289.967	0.514	Blank	Blank	61.968	n/a	3	8	5	n/a	25	n/a	1	n/a	n/a	n/a	n/a	320.398	n/a
290.498	0.497	neutral	Picture	61.454	n/a	3	8	6	n/a	26	34	1	n/a	n/a	n/a	n/a	320.928	AM22NES.jpg
290.995	0.514	Blank	Blank	60.94	n/a	3	8	6	n/a	26	n/a	1	n/a	n/a	n/a	n/a	321.426	n/a
291.525	0.497	neutral	Picture	60.426	n/a	3	8	7	n/a	27	36	1	n/a	n/a	n/a	n/a	321.956	BM24NES.jpg
292.023	0.514	Blank	Blank	59.912	n/a	3	8	7	n/a	27	n/a	1	n/a	n/a	n/a	n/a	322.454	n/a
292.553	0.497	neutral	Picture	59.398	n/a	3	8	8	n/a	28	14	1	n/a	n/a	n/a	n/a	322.984	AF23NES.jpg
293.051	0.514	Blank	Blank	58.884	n/a	3	8	8	n/a	28	n/a	1	n/a	n/a	n/a	n/a	323.482	n/a
293.581	0.497	neutral	Picture	58.37	n/a	3	8	9	n/a	29	9	1	n/a	n/a	n/a	n/a	324.012	AF17NES.jpg
294.079	0.514	Blank	Blank	57.856	n/a	3	8	9	n/a	29	n/a	1	n/a	n/a	n/a	n/a	324.51	n/a
294.609	0.497	neutral	Picture	57.342	n/a	3	8	10	n/a	30	19	1	n/a	n/a	n/a	n/a	325.04	AF31NES.jpg
295.106	0.514	Blank	Blank	56.828	n/a	3	8	10	n/a	30	n/a	1	n/a	n/a	n/a	n/a	325.537	n/a
295.637	0.497	neutral	Picture	56.314	n/a	3	8	11	n/a	31	15	1	n/a	n/a	n/a	n/a	326.068	AF25NES.jpg
296.134	0.514	Blank	Blank	55.8	n/a	3	8	11	n/a	31	n/a	1	n/a	n/a	n/a	n/a	326.565	n/a
296.665	0.497	neutral	Picture	55.286	n/a	3	8	12	n/a	32	22	1	n/a	n/a	n/a	n/a	327.096	BM03NES.jpg
297.162	0.514	Blank	Blank	54.772	n/a	3	8	12	n/a	32	n/a	1	n/a	n/a	n/a	n/a	327.593	n/a
297.693	0.497	neutral	Picture	54.259	n/a	3	8	13	n/a	33	11	1	n/a	n/a	n/a	n/a	328.124	AF20NES.jpg
298.19	0.514	Blank	Blank	53.745	n/a	3	8	13	n/a	33	n/a	1	n/a	n/a	n/a	n/a	328.621	n/a
298.721	0.497	neutral	Picture	53.231	n/a	3	8	14	n/a	34	4	1	n/a	n/a	n/a	n/a	329.152	AF05NES.jpg
299.218	0.514	Blank	Blank	52.717	n/a	3	8	14	n/a	34	n/a	1	n/a	n/a	n/a	n/a	329.649	n/a
299.749	0.497	neutral	Picture	52.203	n/a	3	8	15	n/a	35	17	1	n/a	n/a	n/a	n/a	330.18	BF28NES.jpg
300.246	0.514	Blank	Blank	51.689	n/a	3	8	15	n/a	35	n/a	1	n/a	n/a	n/a	n/a	330.677	n/a
300.776	0.497	neutral	Picture	51.175	n/a	3	8	16	n/a	36	13	1	n/a	n/a	n/a	n/a	331.207	BF22NES.jpg
301.274	0.514	Blank	Blank	50.661	n/a	3	8	16	n/a	36	n/a	1	n/a	n/a	n/a	n/a	331.705	n/a
301.804	0.497	neutral	Picture	50.147	n/a	3	8	17	n/a	37	12	1	n/a	n/a	n/a	n/a	332.235	AF21NES.jpg
302.302	0.514	Blank	Blank	49.633	n/a	3	8	17	n/a	37	n/a	1	n/a	n/a	n/a	n/a	332.733	n/a
302.832	0.497	neutral	Picture	49.119	n/a	3	8	18	n/a	38	24	1	n/a	n/a	n/a	n/a	333.263	BM05NES.jpg
303.33	0.514	Blank	Blank	48.605	n/a	3	8	18	n/a	38	n/a	1	n/a	n/a	n/a	n/a	333.76	n/a
303.86	0.497	neutral	Picture	48.091	n/a	3	8	19	n/a	39	29	1	n/a	n/a	n/a	n/a	334.291	AM10NES.jpg
304.358	0.514	Blank	Blank	47.577	n/a	3	8	19	n/a	39	n/a	1	n/a	n/a	n/a	n/a	334.788	n/a
304.888	0.497	neutral	Picture	47.063	n/a	3	8	20	n/a	40	23	1	n/a	n/a	n/a	n/a	335.319	AM04NES.jpg
305.385	0.514	Blank	Blank	46.549	n/a	3	8	20	n/a	40	n/a	1	n/a	n/a	n/a	n/a	335.816	n/a
305.916	10.014	ITI	Fixation+	36.519	n/a	3	n/a	n/a	n/a	n/a	n/a	n/a	n/a	n/a	n/a	n/a	336.347	n/a
315.946	0.497	angry	Picture	36.005	n/a	3	9	1	n/a	41	62	2	n/a	n/a	n/a	n/a	346.377	BM03HAS.jpg
316.443	0.514	Blank	Blank	35.491	n/a	3	9	1	n/a	41	n/a	2	n/a	n/a	n/a	n/a	346.874	n/a
316.974	0.497	angry	Picture	34.977	n/a	3	9	2	n/a	42	52	2	n/a	n/a	n/a	n/a	347.405	AF21HAS.jpg
317.471	0.514	Blank	Blank	34.463	n/a	3	9	2	n/a	42	n/a	2	n/a	n/a	n/a	n/a	347.902	n/a
318.002	0.497	angry	Picture	33.949	n/a	3	9	3	n/a	43	44	2	n/a	n/a	n/a	n/a	348.433	AF05HAS.jpg
318.499	0.514	Blank	Blank	33.435	n/a	3	9	3	n/a	43	n/a	2	n/a	n/a	n/a	n/a	348.93	n/a
319.03	0.497	angry	Picture	32.922	n/a	3	9	4	n/a	44	53	2	n/a	n/a	n/a	n/a	349.461	BF22HAS.jpg
319.527	0.514	Blank	Blank	32.408	n/a	3	9	4	n/a	44	n/a	2	n/a	n/a	n/a	n/a	349.958	n/a
320.058	0.497	angry	Picture	31.894	n/a	3	9	5	n/a	45	54	2	n/a	n/a	n/a	n/a	350.489	AF23HAS.jpg
320.555	0.514	Blank	Blank	31.38	n/a	3	9	5	n/a	45	n/a	2	n/a	n/a	n/a	n/a	350.986	n/a
321.086	0.497	angry	Picture	30.866	n/a	3	9	6	n/a	46	68	2	n/a	n/a	n/a	n/a	351.517	AM09HAS.jpg
321.583	0.514	Blank	Blank	30.352	n/a	3	9	6	n/a	46	n/a	2	n/a	n/a	n/a	n/a	352.014	n/a
322.113	0.497	angry	Picture	29.838	n/a	3	9	7	n/a	47	64	2	n/a	n/a	n/a	n/a	352.544	BM05HAS.jpg
322.611	0.514	Blank	Blank	29.324	n/a	3	9	7	n/a	47	n/a	2	n/a	n/a	n/a	n/a	353.042	n/a
323.141	0.497	angry	Picture	28.81	n/a	3	9	8	n/a	48	59	2	n/a	n/a	n/a	n/a	353.572	AF31HAS.jpg
323.639	0.514	Blank	Blank	28.296	n/a	3	9	8	n/a	48	n/a	2	n/a	n/a	n/a	n/a	354.07	n/a
324.169	0.497	angry	Picture	27.782	n/a	3	9	9	n/a	49	41	2	n/a	n/a	n/a	n/a	354.6	AF01HAS.jpg
324.667	0.514	Blank	Blank	27.268	n/a	3	9	9	n/a	49	n/a	2	n/a	n/a	n/a	n/a	355.098	n/a
325.197	0.497	angry	Picture	26.754	n/a	3	9	10	n/a	50	73	2	n/a	n/a	n/a	n/a	355.628	AM21HAS.jpg
325.695	0.514	Blank	Blank	26.24	n/a	3	9	10	n/a	50	n/a	2	n/a	n/a	n/a	n/a	356.125	n/a
326.225	0.497	angry	Picture	25.726	n/a	3	9	11	n/a	51	65	2	n/a	n/a	n/a	n/a	356.656	BM06HAS.jpg
326.722	0.514	Blank	Blank	25.212	n/a	3	9	11	n/a	51	n/a	2	n/a	n/a	n/a	n/a	357.153	n/a
327.253	0.497	angry	Picture	24.698	n/a	3	9	12	n/a	52	56	2	n/a	n/a	n/a	n/a	357.684	AF26HAS.jpg
327.75	0.514	Blank	Blank	24.185	n/a	3	9	12	n/a	52	n/a	2	n/a	n/a	n/a	n/a	358.181	n/a
328.281	0.497	angry	Picture	23.67	n/a	3	9	13	n/a	53	45	2	n/a	n/a	n/a	n/a	358.712	BF07HAS.jpg
328.778	0.514	Blank	Blank	23.157	n/a	3	9	13	n/a	53	n/a	2	n/a	n/a	n/a	n/a	359.209	n/a
329.309	0.497	angry	Picture	22.643	n/a	3	9	14	n/a	54	78	2	n/a	n/a	n/a	n/a	359.74	BM26HAS.jpg
329.806	0.514	Blank	Blank	22.129	n/a	3	9	14	n/a	54	n/a	2	n/a	n/a	n/a	n/a	360.237	n/a
330.337	0.497	angry	Picture	21.615	n/a	3	9	15	n/a	55	50	2	n/a	n/a	n/a	n/a	360.767	AF18HAS.jpg
330.834	0.514	Blank	Blank	21.101	n/a	3	9	15	n/a	55	n/a	2	n/a	n/a	n/a	n/a	361.265	n/a
331.364	0.497	angry	Picture	20.587	n/a	3	9	16	n/a	56	47	2	n/a	n/a	n/a	n/a	361.795	BF11HAS.jpg
331.862	0.514	Blank	Blank	20.073	n/a	3	9	16	n/a	56	n/a	2	n/a	n/a	n/a	n/a	362.293	n/a
332.392	0.497	angry	Picture	19.559	n/a	3	9	17	n/a	57	77	2	n/a	n/a	n/a	n/a	362.823	BM25HAS.jpg
332.89	0.514	Blank	Blank	19.045	n/a	3	9	17	n/a	57	n/a	2	n/a	n/a	n/a	n/a	363.321	n/a
333.42	0.497	angry	Picture	18.531	n/a	3	9	18	n/a	58	57	2	n/a	n/a	n/a	n/a	363.851	BF28HAS.jpg
333.918	0.514	Blank	Blank	18.017	n/a	3	9	18	n/a	58	n/a	2	n/a	n/a	n/a	n/a	364.349	n/a
334.448	0.497	angry	Picture	17.503	n/a	3	9	19	n/a	59	61	2	n/a	n/a	n/a	n/a	364.879	AM01HAS.jpg
334.945	0.514	Blank	Blank	16.989	n/a	3	9	19	n/a	59	n/a	2	n/a	n/a	n/a	n/a	365.376	n/a
335.476	0.497	angry	Picture	16.475	n/a	3	9	20	n/a	60	79	2	n/a	n/a	n/a	n/a	365.907	BM28HAS.jpg
335.973	0.514	Blank	Blank	15.961	n/a	3	9	20	n/a	60	n/a	2	n/a	n/a	n/a	n/a	366.404	n/a
336.504	10.014	ITI	Fixation+	5.931	n/a	3	n/a	n/a	n/a	n/a	n/a	n/a	n/a	n/a	n/a	n/a	366.935	n/a
352.449	n/a	ConfirmRating	Rate	n/a	5.918	3	n/a	n/a	0	n/a	n/a	n/a	2	Angry	50	50	382.88	n/a
356.141	n/a	ConfirmRating	Rate	n/a	3.68	3	n/a	n/a	1	n/a	n/a	n/a	3	Angry	36	49	386.572	n/a
356.166	10.014	ITI	Fixation+	95.874	n/a	4	n/a	n/a	n/a	n/a	n/a	n/a	n/a	n/a	n/a	n/a	386.597	n/a
366.197	0.497	happy	Picture	95.361	n/a	4	10	1	n/a	61	119	3	n/a	n/a	n/a	n/a	396.628	BM28ANS.jpg
366.694	0.514	Blank	Blank	94.846	n/a	4	10	1	n/a	61	n/a	3	n/a	n/a	n/a	n/a	397.125	n/a
367.225	0.497	happy	Picture	94.333	n/a	4	10	2	n/a	62	100	3	n/a	n/a	n/a	n/a	397.656	AF32ANS.jpg
367.722	0.514	Blank	Blank	93.819	n/a	4	10	2	n/a	62	n/a	3	n/a	n/a	n/a	n/a	398.153	n/a
368.252	0.497	happy	Picture	93.305	n/a	4	10	3	n/a	63	118	3	n/a	n/a	n/a	n/a	398.683	BM26ANS.jpg
368.75	0.514	Blank	Blank	92.791	n/a	4	10	3	n/a	63	n/a	3	n/a	n/a	n/a	n/a	399.181	n/a
369.28	0.497	happy	Picture	92.277	n/a	4	10	4	n/a	64	89	3	n/a	n/a	n/a	n/a	399.711	AF17ANS.jpg
369.778	0.514	Blank	Blank	91.763	n/a	4	10	4	n/a	64	n/a	3	n/a	n/a	n/a	n/a	400.209	n/a
370.308	0.497	happy	Picture	91.249	n/a	4	10	5	n/a	65	116	3	n/a	n/a	n/a	n/a	400.739	BM24ANS.jpg
370.806	0.514	Blank	Blank	90.735	n/a	4	10	5	n/a	65	n/a	3	n/a	n/a	n/a	n/a	401.236	n/a
371.336	0.497	happy	Picture	90.221	n/a	4	10	6	n/a	66	105	3	n/a	n/a	n/a	n/a	401.767	BM06ANS.jpg
371.834	0.514	Blank	Blank	89.707	n/a	4	10	6	n/a	66	n/a	3	n/a	n/a	n/a	n/a	402.264	n/a
372.364	0.497	happy	Picture	89.193	n/a	4	10	7	n/a	67	106	3	n/a	n/a	n/a	n/a	402.795	AM07ANS.jpg
372.861	0.514	Blank	Blank	88.679	n/a	4	10	7	n/a	67	n/a	3	n/a	n/a	n/a	n/a	403.292	n/a
373.392	0.497	happy	Picture	88.165	n/a	4	10	8	n/a	68	94	3	n/a	n/a	n/a	n/a	403.823	AF23ANS.jpg
373.889	0.514	Blank	Blank	87.651	n/a	4	10	8	n/a	68	n/a	3	n/a	n/a	n/a	n/a	404.32	n/a
374.42	0.497	happy	Picture	87.137	n/a	4	10	9	n/a	69	117	3	n/a	n/a	n/a	n/a	404.851	BM25ANS.jpg
374.917	0.514	Blank	Blank	86.623	n/a	4	10	9	n/a	69	n/a	3	n/a	n/a	n/a	n/a	405.348	n/a
375.448	0.497	happy	Picture	86.11	n/a	4	10	10	n/a	70	90	3	n/a	n/a	n/a	n/a	405.879	AF18ANS.jpg
375.945	0.514	Blank	Blank	85.596	n/a	4	10	10	n/a	70	n/a	3	n/a	n/a	n/a	n/a	406.376	n/a
376.476	0.497	happy	Picture	85.082	n/a	4	10	11	n/a	71	83	3	n/a	n/a	n/a	n/a	406.906	BF04ANS.jpg
376.973	0.514	Blank	Blank	84.568	n/a	4	10	11	n/a	71	n/a	3	n/a	n/a	n/a	n/a	407.404	n/a
377.503	0.497	happy	Picture	84.054	n/a	4	10	12	n/a	72	112	3	n/a	n/a	n/a	n/a	407.934	AM14ANS.jpg
378.001	0.514	Blank	Blank	83.54	n/a	4	10	12	n/a	72	n/a	3	n/a	n/a	n/a	n/a	408.432	n/a
378.531	0.497	happy	Picture	83.026	n/a	4	10	13	n/a	73	102	3	n/a	n/a	n/a	n/a	408.962	BM03ANS.jpg
379.029	0.514	Blank	Blank	82.512	n/a	4	10	13	n/a	73	n/a	3	n/a	n/a	n/a	n/a	409.46	n/a
379.559	0.497	happy	Picture	81.998	n/a	4	10	14	n/a	74	95	3	n/a	n/a	n/a	n/a	409.99	AF25ANS.jpg
380.057	0.514	Blank	Blank	81.484	n/a	4	10	14	n/a	74	n/a	3	n/a	n/a	n/a	n/a	410.488	n/a
380.587	0.497	happy	Picture	80.97	n/a	4	10	15	n/a	75	113	3	n/a	n/a	n/a	n/a	411.018	AM21ANS.jpg
381.084	0.514	Blank	Blank	80.456	n/a	4	10	15	n/a	75	n/a	3	n/a	n/a	n/a	n/a	411.515	n/a
381.615	0.497	happy	Picture	79.942	n/a	4	10	16	n/a	76	88	3	n/a	n/a	n/a	n/a	412.046	AF14ANS.jpg
382.112	0.514	Blank	Blank	79.428	n/a	4	10	16	n/a	76	n/a	3	n/a	n/a	n/a	n/a	412.543	n/a
382.643	0.497	happy	Picture	78.914	n/a	4	10	17	n/a	77	93	3	n/a	n/a	n/a	n/a	413.074	BF22ANS.jpg
383.14	0.514	Blank	Blank	78.4	n/a	4	10	17	n/a	77	n/a	3	n/a	n/a	n/a	n/a	413.571	n/a
383.671	0.497	happy	Picture	77.886	n/a	4	10	18	n/a	78	86	3	n/a	n/a	n/a	n/a	414.102	AF09ANS.jpg
384.168	0.514	Blank	Blank	77.372	n/a	4	10	18	n/a	78	n/a	3	n/a	n/a	n/a	n/a	414.599	n/a
384.699	0.497	happy	Picture	76.858	n/a	4	10	19	n/a	79	92	3	n/a	n/a	n/a	n/a	415.13	AF21ANS.jpg
385.196	0.514	Blank	Blank	76.345	n/a	4	10	19	n/a	79	n/a	3	n/a	n/a	n/a	n/a	415.627	n/a
385.727	0.497	happy	Picture	75.831	n/a	4	10	20	n/a	80	84	3	n/a	n/a	n/a	n/a	416.158	AF05ANS.jpg
386.224	0.514	Blank	Blank	75.317	n/a	4	10	20	n/a	80	n/a	3	n/a	n/a	n/a	n/a	416.655	n/a
386.755	10.014	ITI	Fixation+	65.286	n/a	4	n/a	n/a	n/a	n/a	n/a	n/a	n/a	n/a	n/a	n/a	417.185	n/a
396.785	0.497	neutral	Picture	64.772	n/a	4	11	1	n/a	81	4	1	n/a	n/a	n/a	n/a	427.216	AF05NES.jpg
397.282	0.514	Blank	Blank	64.259	n/a	4	11	1	n/a	81	n/a	1	n/a	n/a	n/a	n/a	427.713	n/a
397.813	0.497	neutral	Picture	63.745	n/a	4	11	2	n/a	82	14	1	n/a	n/a	n/a	n/a	428.243	AF23NES.jpg
398.31	0.514	Blank	Blank	63.231	n/a	4	11	2	n/a	82	n/a	1	n/a	n/a	n/a	n/a	428.741	n/a
398.841	0.497	neutral	Picture	62.717	n/a	4	11	3	n/a	83	19	1	n/a	n/a	n/a	n/a	429.271	AF31NES.jpg
399.338	0.514	Blank	Blank	62.203	n/a	4	11	3	n/a	83	n/a	1	n/a	n/a	n/a	n/a	429.769	n/a
399.868	0.497	neutral	Picture	61.689	n/a	4	11	4	n/a	84	8	1	n/a	n/a	n/a	n/a	430.299	AF14NES.jpg
400.366	0.514	Blank	Blank	61.175	n/a	4	11	4	n/a	84	n/a	1	n/a	n/a	n/a	n/a	430.797	n/a
400.896	0.497	neutral	Picture	60.661	n/a	4	11	5	n/a	85	25	1	n/a	n/a	n/a	n/a	431.327	BM06NES.jpg
401.394	0.514	Blank	Blank	60.147	n/a	4	11	5	n/a	85	n/a	1	n/a	n/a	n/a	n/a	431.825	n/a
401.924	0.497	neutral	Picture	59.633	n/a	4	11	6	n/a	86	9	1	n/a	n/a	n/a	n/a	432.355	AF17NES.jpg
402.421	0.514	Blank	Blank	59.119	n/a	4	11	6	n/a	86	n/a	1	n/a	n/a	n/a	n/a	432.852	n/a
402.952	0.497	neutral	Picture	58.605	n/a	4	11	7	n/a	87	2	1	n/a	n/a	n/a	n/a	433.383	AF03NES.jpg
403.449	0.514	Blank	Blank	58.091	n/a	4	11	7	n/a	87	n/a	1	n/a	n/a	n/a	n/a	433.88	n/a
403.98	0.497	neutral	Picture	57.577	n/a	4	11	8	n/a	88	17	1	n/a	n/a	n/a	n/a	434.411	BF28NES.jpg
404.477	0.514	Blank	Blank	57.063	n/a	4	11	8	n/a	88	n/a	1	n/a	n/a	n/a	n/a	434.908	n/a
405.008	0.497	neutral	Picture	56.549	n/a	4	11	9	n/a	89	6	1	n/a	n/a	n/a	n/a	435.439	AF09NES.jpg
405.505	0.514	Blank	Blank	56.035	n/a	4	11	9	n/a	89	n/a	1	n/a	n/a	n/a	n/a	435.936	n/a
406.036	0.497	neutral	Picture	55.521	n/a	4	11	10	n/a	90	12	1	n/a	n/a	n/a	n/a	436.467	AF21NES.jpg
406.533	0.514	Blank	Blank	55.008	n/a	4	11	10	n/a	90	n/a	1	n/a	n/a	n/a	n/a	436.964	n/a
407.064	0.497	neutral	Picture	54.493	n/a	4	11	11	n/a	91	24	1	n/a	n/a	n/a	n/a	437.495	BM05NES.jpg
407.561	0.514	Blank	Blank	53.98	n/a	4	11	11	n/a	91	n/a	1	n/a	n/a	n/a	n/a	437.992	n/a
408.091	0.497	neutral	Picture	53.466	n/a	4	11	12	n/a	92	34	1	n/a	n/a	n/a	n/a	438.522	AM22NES.jpg
408.589	0.514	Blank	Blank	52.952	n/a	4	11	12	n/a	92	n/a	1	n/a	n/a	n/a	n/a	439.02	n/a
409.119	0.497	neutral	Picture	52.438	n/a	4	11	13	n/a	93	23	1	n/a	n/a	n/a	n/a	439.55	AM04NES.jpg
409.617	0.514	Blank	Blank	51.924	n/a	4	11	13	n/a	93	n/a	1	n/a	n/a	n/a	n/a	440.048	n/a
410.147	0.497	neutral	Picture	51.41	n/a	4	11	14	n/a	94	15	1	n/a	n/a	n/a	n/a	440.578	AF25NES.jpg
410.645	0.514	Blank	Blank	50.896	n/a	4	11	14	n/a	94	n/a	1	n/a	n/a	n/a	n/a	441.075	n/a
411.175	0.497	neutral	Picture	50.382	n/a	4	11	15	n/a	95	37	1	n/a	n/a	n/a	n/a	441.606	BM25NES.jpg
411.673	0.514	Blank	Blank	49.868	n/a	4	11	15	n/a	95	n/a	1	n/a	n/a	n/a	n/a	442.103	n/a
412.203	0.497	neutral	Picture	49.354	n/a	4	11	16	n/a	96	32	1	n/a	n/a	n/a	n/a	442.634	AM14NES.jpg
412.7	0.514	Blank	Blank	48.84	n/a	4	11	16	n/a	96	n/a	1	n/a	n/a	n/a	n/a	443.131	n/a
413.231	0.497	neutral	Picture	48.326	n/a	4	11	17	n/a	97	3	1	n/a	n/a	n/a	n/a	443.662	BF04NES.jpg
413.728	0.514	Blank	Blank	47.812	n/a	4	11	17	n/a	97	n/a	1	n/a	n/a	n/a	n/a	444.159	n/a
414.259	0.497	neutral	Picture	47.298	n/a	4	11	18	n/a	98	16	1	n/a	n/a	n/a	n/a	444.69	AF26NES.jpg
414.756	0.514	Blank	Blank	46.784	n/a	4	11	18	n/a	98	n/a	1	n/a	n/a	n/a	n/a	445.187	n/a
415.287	0.497	neutral	Picture	46.27	n/a	4	11	19	n/a	99	27	1	n/a	n/a	n/a	n/a	445.718	BM08NES.jpg
415.784	0.514	Blank	Blank	45.757	n/a	4	11	19	n/a	99	n/a	1	n/a	n/a	n/a	n/a	446.215	n/a
416.315	0.497	neutral	Picture	45.243	n/a	4	11	20	n/a	100	28	1	n/a	n/a	n/a	n/a	446.745	AM09NES.jpg
416.812	0.514	Blank	Blank	44.729	n/a	4	11	20	n/a	100	n/a	1	n/a	n/a	n/a	n/a	447.243	n/a
417.342	10.014	ITI	Fixation+	34.698	n/a	4	n/a	n/a	n/a	n/a	n/a	n/a	n/a	n/a	n/a	n/a	447.773	n/a
427.373	0.497	happy	Picture	34.184	n/a	4	12	1	n/a	101	81	3	n/a	n/a	n/a	n/a	457.804	AF01ANS.jpg
427.87	0.514	Blank	Blank	33.671	n/a	4	12	1	n/a	101	n/a	3	n/a	n/a	n/a	n/a	458.301	n/a
428.401	0.497	happy	Picture	33.156	n/a	4	12	2	n/a	102	120	3	n/a	n/a	n/a	n/a	458.832	AM35ANS.jpg
428.898	0.514	Blank	Blank	32.643	n/a	4	12	2	n/a	102	n/a	3	n/a	n/a	n/a	n/a	459.329	n/a
429.428	0.497	happy	Picture	32.129	n/a	4	12	3	n/a	103	114	3	n/a	n/a	n/a	n/a	459.859	AM22ANS.jpg
429.926	0.514	Blank	Blank	31.615	n/a	4	12	3	n/a	103	n/a	3	n/a	n/a	n/a	n/a	460.357	n/a
430.456	0.497	happy	Picture	31.101	n/a	4	12	4	n/a	104	109	3	n/a	n/a	n/a	n/a	460.887	AM10ANS.jpg
430.954	0.514	Blank	Blank	30.587	n/a	4	12	4	n/a	104	n/a	3	n/a	n/a	n/a	n/a	461.385	n/a
431.484	0.497	happy	Picture	30.073	n/a	4	12	5	n/a	105	96	3	n/a	n/a	n/a	n/a	461.915	AF26ANS.jpg
431.982	0.514	Blank	Blank	29.559	n/a	4	12	5	n/a	105	n/a	3	n/a	n/a	n/a	n/a	462.413	n/a
432.512	0.497	happy	Picture	29.045	n/a	4	12	6	n/a	106	82	3	n/a	n/a	n/a	n/a	462.943	AF03ANS.jpg
433.01	0.514	Blank	Blank	28.531	n/a	4	12	6	n/a	106	n/a	3	n/a	n/a	n/a	n/a	463.44	n/a
433.54	0.497	happy	Picture	28.017	n/a	4	12	7	n/a	107	97	3	n/a	n/a	n/a	n/a	463.971	BF28ANS.jpg
434.037	0.514	Blank	Blank	27.503	n/a	4	12	7	n/a	107	n/a	3	n/a	n/a	n/a	n/a	464.468	n/a
434.568	0.497	happy	Picture	26.989	n/a	4	12	8	n/a	108	115	3	n/a	n/a	n/a	n/a	464.999	AM23ANS.jpg
435.065	0.514	Blank	Blank	26.475	n/a	4	12	8	n/a	108	n/a	3	n/a	n/a	n/a	n/a	465.496	n/a
435.596	0.497	happy	Picture	25.961	n/a	4	12	9	n/a	109	91	3	n/a	n/a	n/a	n/a	466.027	AF20ANS.jpg
436.093	0.514	Blank	Blank	25.447	n/a	4	12	9	n/a	109	n/a	3	n/a	n/a	n/a	n/a	466.524	n/a
436.624	0.497	happy	Picture	24.933	n/a	4	12	10	n/a	110	87	3	n/a	n/a	n/a	n/a	467.055	BF11ANS.jpg
437.121	0.514	Blank	Blank	24.42	n/a	4	12	10	n/a	110	n/a	3	n/a	n/a	n/a	n/a	467.552	n/a
437.652	0.497	happy	Picture	23.906	n/a	4	12	11	n/a	111	85	3	n/a	n/a	n/a	n/a	468.082	BF07ANS.jpg
438.149	0.514	Blank	Blank	23.392	n/a	4	12	11	n/a	111	n/a	3	n/a	n/a	n/a	n/a	468.58	n/a
438.68	0.497	happy	Picture	22.878	n/a	4	12	12	n/a	112	110	3	n/a	n/a	n/a	n/a	469.11	AM11ANS.jpg
439.177	0.514	Blank	Blank	22.364	n/a	4	12	12	n/a	112	n/a	3	n/a	n/a	n/a	n/a	469.608	n/a
439.707	0.497	happy	Picture	21.85	n/a	4	12	13	n/a	113	111	3	n/a	n/a	n/a	n/a	470.138	BM12ANS.jpg
440.205	0.514	Blank	Blank	21.336	n/a	4	12	13	n/a	113	n/a	3	n/a	n/a	n/a	n/a	470.636	n/a
440.735	0.497	happy	Picture	20.822	n/a	4	12	14	n/a	114	103	3	n/a	n/a	n/a	n/a	471.166	AM04ANS.jpg
441.233	0.514	Blank	Blank	20.308	n/a	4	12	14	n/a	114	n/a	3	n/a	n/a	n/a	n/a	471.663	n/a
441.763	0.497	happy	Picture	19.794	n/a	4	12	15	n/a	115	101	3	n/a	n/a	n/a	n/a	472.194	AM01ANS.jpg
442.26	0.514	Blank	Blank	19.28	n/a	4	12	15	n/a	115	n/a	3	n/a	n/a	n/a	n/a	472.691	n/a
442.791	0.497	happy	Picture	18.766	n/a	4	12	16	n/a	116	104	3	n/a	n/a	n/a	n/a	473.222	BM05ANS.jpg
443.288	0.514	Blank	Blank	18.252	n/a	4	12	16	n/a	116	n/a	3	n/a	n/a	n/a	n/a	473.719	n/a
443.819	0.497	happy	Picture	17.738	n/a	4	12	17	n/a	117	107	3	n/a	n/a	n/a	n/a	474.25	BM08ANS.jpg
444.316	0.514	Blank	Blank	17.224	n/a	4	12	17	n/a	117	n/a	3	n/a	n/a	n/a	n/a	474.747	n/a
444.847	0.497	happy	Picture	16.71	n/a	4	12	18	n/a	118	98	3	n/a	n/a	n/a	n/a	475.278	BF29ANS.jpg
445.344	0.514	Blank	Blank	16.196	n/a	4	12	18	n/a	118	n/a	3	n/a	n/a	n/a	n/a	475.775	n/a
445.875	0.497	happy	Picture	15.682	n/a	4	12	19	n/a	119	99	3	n/a	n/a	n/a	n/a	476.306	AF31ANS.jpg
446.372	0.514	Blank	Blank	15.169	n/a	4	12	19	n/a	119	n/a	3	n/a	n/a	n/a	n/a	476.803	n/a
446.903	0.497	happy	Picture	14.654	n/a	4	12	20	n/a	120	108	3	n/a	n/a	n/a	n/a	477.334	AM09ANS.jpg
447.4	0.514	Blank	Blank	14.141	n/a	4	12	20	n/a	120	n/a	3	n/a	n/a	n/a	n/a	477.831	n/a
447.93	10.014	ITI	Fixation+	4.11	n/a	4	n/a	n/a	n/a	n/a	n/a	n/a	n/a	n/a	n/a	n/a	478.361	n/a
462.055	n/a	ConfirmRating	Rate	n/a	4.095	4	n/a	n/a	0	n/a	n/a	n/a	2	Happy	76	52	492.485	n/a
466.13	n/a	ConfirmRating	Rate	n/a	4.062	4	n/a	n/a	1	n/a	n/a	n/a	3	Happy	8	47	496.561	n/a
