onset	duration	trial_type	event_type	time_until_response	response_time	trial_number	block_num_within_trial	image_seq_num_within_block	question_seq_num_within_block	image_seq_num	picture_number	condition	question_type	block_type	rating	rating_computed	onset_uncorrected	KDEV_imagefile
0.013	10.014	ITI	Fixation+	95.286	n/a	1	n/a	n/a	n/a	n/a	n/a	n/a	n/a	n/a	n/a	n/a	31.693	n/a
10.043	0.497	angry	Picture	94.773	n/a	1	1	1	n/a	1	108	3	n/a	n/a	n/a	n/a	41.723	AM09ANS.jpg
10.541	0.514	Blank	Blank	94.259	n/a	1	1	1	n/a	1	n/a	3	n/a	n/a	n/a	n/a	42.221	n/a
11.071	0.497	angry	Picture	93.745	n/a	1	1	2	n/a	2	99	3	n/a	n/a	n/a	n/a	42.751	AF31ANS.jpg
11.569	0.514	Blank	Blank	93.231	n/a	1	1	2	n/a	2	n/a	3	n/a	n/a	n/a	n/a	43.249	n/a
12.099	0.497	angry	Picture	92.717	n/a	1	1	3	n/a	3	98	3	n/a	n/a	n/a	n/a	43.779	BF29ANS.jpg
12.596	0.514	Blank	Blank	92.203	n/a	1	1	3	n/a	3	n/a	3	n/a	n/a	n/a	n/a	44.276	n/a
13.127	0.497	angry	Picture	91.689	n/a	1	1	4	n/a	4	107	3	n/a	n/a	n/a	n/a	44.807	BM08ANS.jpg
13.624	0.514	Blank	Blank	91.175	n/a	1	1	4	n/a	4	n/a	3	n/a	n/a	n/a	n/a	45.304	n/a
14.155	0.497	angry	Picture	90.661	n/a	1	1	5	n/a	5	104	3	n/a	n/a	n/a	n/a	45.835	BM05ANS.jpg
14.652	0.514	Blank	Blank	90.147	n/a	1	1	5	n/a	5	n/a	3	n/a	n/a	n/a	n/a	46.332	n/a
15.183	0.497	angry	Picture	89.633	n/a	1	1	6	n/a	6	101	3	n/a	n/a	n/a	n/a	46.863	AM01ANS.jpg
15.68	0.514	Blank	Blank	89.119	n/a	1	1	6	n/a	6	n/a	3	n/a	n/a	n/a	n/a	47.36	n/a
16.211	0.497	angry	Picture	88.605	n/a	1	1	7	n/a	7	103	3	n/a	n/a	n/a	n/a	47.891	AM04ANS.jpg
16.708	0.514	Blank	Blank	88.091	n/a	1	1	7	n/a	7	n/a	3	n/a	n/a	n/a	n/a	48.388	n/a
17.239	0.497	angry	Picture	87.577	n/a	1	1	8	n/a	8	111	3	n/a	n/a	n/a	n/a	48.919	BM12ANS.jpg
17.736	0.514	Blank	Blank	87.064	n/a	1	1	8	n/a	8	n/a	3	n/a	n/a	n/a	n/a	49.416	n/a
18.266	0.497	angry	Picture	86.549	n/a	1	1	9	n/a	9	110	3	n/a	n/a	n/a	n/a	49.946	AM11ANS.jpg
18.764	0.514	Blank	Blank	86.036	n/a	1	1	9	n/a	9	n/a	3	n/a	n/a	n/a	n/a	50.444	n/a
19.294	0.497	angry	Picture	85.522	n/a	1	1	10	n/a	10	85	3	n/a	n/a	n/a	n/a	50.974	BF07ANS.jpg
19.792	0.514	Blank	Blank	85.008	n/a	1	1	10	n/a	10	n/a	3	n/a	n/a	n/a	n/a	51.472	n/a
20.322	0.497	angry	Picture	84.494	n/a	1	1	11	n/a	11	87	3	n/a	n/a	n/a	n/a	52.002	BF11ANS.jpg
20.819	0.514	Blank	Blank	83.98	n/a	1	1	11	n/a	11	n/a	3	n/a	n/a	n/a	n/a	52.499	n/a
21.35	0.497	angry	Picture	83.466	n/a	1	1	12	n/a	12	91	3	n/a	n/a	n/a	n/a	53.03	AF20ANS.jpg
21.847	0.514	Blank	Blank	82.952	n/a	1	1	12	n/a	12	n/a	3	n/a	n/a	n/a	n/a	53.527	n/a
22.378	0.497	angry	Picture	82.438	n/a	1	1	13	n/a	13	115	3	n/a	n/a	n/a	n/a	54.058	AM23ANS.jpg
22.875	0.514	Blank	Blank	81.924	n/a	1	1	13	n/a	13	n/a	3	n/a	n/a	n/a	n/a	54.555	n/a
23.406	0.497	angry	Picture	81.41	n/a	1	1	14	n/a	14	97	3	n/a	n/a	n/a	n/a	55.086	BF28ANS.jpg
23.903	0.514	Blank	Blank	80.896	n/a	1	1	14	n/a	14	n/a	3	n/a	n/a	n/a	n/a	55.583	n/a
24.434	0.497	angry	Picture	80.382	n/a	1	1	15	n/a	15	82	3	n/a	n/a	n/a	n/a	56.114	AF03ANS.jpg
24.931	0.514	Blank	Blank	79.868	n/a	1	1	15	n/a	15	n/a	3	n/a	n/a	n/a	n/a	56.611	n/a
25.462	0.497	angry	Picture	79.354	n/a	1	1	16	n/a	16	96	3	n/a	n/a	n/a	n/a	57.142	AF26ANS.jpg
25.959	0.514	Blank	Blank	78.84	n/a	1	1	16	n/a	16	n/a	3	n/a	n/a	n/a	n/a	57.639	n/a
26.489	0.497	angry	Picture	78.326	n/a	1	1	17	n/a	17	109	3	n/a	n/a	n/a	n/a	58.169	AM10ANS.jpg
26.987	0.514	Blank	Blank	77.813	n/a	1	1	17	n/a	17	n/a	3	n/a	n/a	n/a	n/a	58.667	n/a
27.517	0.497	angry	Picture	77.299	n/a	1	1	18	n/a	18	114	3	n/a	n/a	n/a	n/a	59.197	AM22ANS.jpg
28.015	0.514	Blank	Blank	76.785	n/a	1	1	18	n/a	18	n/a	3	n/a	n/a	n/a	n/a	59.695	n/a
28.545	0.497	angry	Picture	76.271	n/a	1	1	19	n/a	19	120	3	n/a	n/a	n/a	n/a	60.225	AM35ANS.jpg
29.043	0.514	Blank	Blank	75.757	n/a	1	1	19	n/a	19	n/a	3	n/a	n/a	n/a	n/a	60.723	n/a
29.573	0.497	angry	Picture	75.243	n/a	1	1	20	n/a	20	81	3	n/a	n/a	n/a	n/a	61.253	AF01ANS.jpg
30.071	0.514	Blank	Blank	74.729	n/a	1	1	20	n/a	20	n/a	3	n/a	n/a	n/a	n/a	61.751	n/a
30.601	10.014	ITI	Fixation+	64.699	n/a	1	n/a	n/a	n/a	n/a	n/a	n/a	n/a	n/a	n/a	n/a	62.281	n/a
40.631	0.497	neutral	Picture	64.185	n/a	1	2	1	n/a	21	28	1	n/a	n/a	n/a	n/a	72.311	AM09NES.jpg
41.128	0.514	Blank	Blank	63.671	n/a	1	2	1	n/a	21	n/a	1	n/a	n/a	n/a	n/a	72.808	n/a
41.659	0.497	neutral	Picture	63.157	n/a	1	2	2	n/a	22	27	1	n/a	n/a	n/a	n/a	73.339	BM08NES.jpg
42.156	0.514	Blank	Blank	62.643	n/a	1	2	2	n/a	22	n/a	1	n/a	n/a	n/a	n/a	73.836	n/a
42.687	0.497	neutral	Picture	62.129	n/a	1	2	3	n/a	23	16	1	n/a	n/a	n/a	n/a	74.367	AF26NES.jpg
43.184	0.514	Blank	Blank	61.615	n/a	1	2	3	n/a	23	n/a	1	n/a	n/a	n/a	n/a	74.864	n/a
43.715	0.497	neutral	Picture	61.101	n/a	1	2	4	n/a	24	3	1	n/a	n/a	n/a	n/a	75.395	BF04NES.jpg
44.212	0.514	Blank	Blank	60.587	n/a	1	2	4	n/a	24	n/a	1	n/a	n/a	n/a	n/a	75.892	n/a
44.743	0.497	neutral	Picture	60.073	n/a	1	2	5	n/a	25	32	1	n/a	n/a	n/a	n/a	76.423	AM14NES.jpg
45.24	0.514	Blank	Blank	59.559	n/a	1	2	5	n/a	25	n/a	1	n/a	n/a	n/a	n/a	76.92	n/a
45.771	0.497	neutral	Picture	59.045	n/a	1	2	6	n/a	26	37	1	n/a	n/a	n/a	n/a	77.451	BM25NES.jpg
46.268	0.514	Blank	Blank	58.531	n/a	1	2	6	n/a	26	n/a	1	n/a	n/a	n/a	n/a	77.948	n/a
46.798	0.497	neutral	Picture	58.018	n/a	1	2	7	n/a	27	15	1	n/a	n/a	n/a	n/a	78.478	AF25NES.jpg
47.296	0.514	Blank	Blank	57.504	n/a	1	2	7	n/a	27	n/a	1	n/a	n/a	n/a	n/a	78.976	n/a
47.826	0.497	neutral	Picture	56.99	n/a	1	2	8	n/a	28	23	1	n/a	n/a	n/a	n/a	79.506	AM04NES.jpg
48.324	0.514	Blank	Blank	56.476	n/a	1	2	8	n/a	28	n/a	1	n/a	n/a	n/a	n/a	80.004	n/a
48.854	0.497	neutral	Picture	55.962	n/a	1	2	9	n/a	29	34	1	n/a	n/a	n/a	n/a	80.534	AM22NES.jpg
49.352	0.514	Blank	Blank	55.448	n/a	1	2	9	n/a	29	n/a	1	n/a	n/a	n/a	n/a	81.032	n/a
49.882	0.497	neutral	Picture	54.934	n/a	1	2	10	n/a	30	24	1	n/a	n/a	n/a	n/a	81.562	BM05NES.jpg
50.379	0.514	Blank	Blank	54.42	n/a	1	2	10	n/a	30	n/a	1	n/a	n/a	n/a	n/a	82.059	n/a
50.91	0.497	neutral	Picture	53.906	n/a	1	2	11	n/a	31	12	1	n/a	n/a	n/a	n/a	82.59	AF21NES.jpg
51.407	0.514	Blank	Blank	53.392	n/a	1	2	11	n/a	31	n/a	1	n/a	n/a	n/a	n/a	83.087	n/a
51.938	0.497	neutral	Picture	52.878	n/a	1	2	12	n/a	32	6	1	n/a	n/a	n/a	n/a	83.618	AF09NES.jpg
52.435	0.514	Blank	Blank	52.364	n/a	1	2	12	n/a	32	n/a	1	n/a	n/a	n/a	n/a	84.115	n/a
52.966	0.497	neutral	Picture	51.85	n/a	1	2	13	n/a	33	17	1	n/a	n/a	n/a	n/a	84.646	BF28NES.jpg
53.463	0.514	Blank	Blank	51.336	n/a	1	2	13	n/a	33	n/a	1	n/a	n/a	n/a	n/a	85.143	n/a
53.994	0.497	neutral	Picture	50.822	n/a	1	2	14	n/a	34	2	1	n/a	n/a	n/a	n/a	85.674	AF03NES.jpg
54.491	0.514	Blank	Blank	50.308	n/a	1	2	14	n/a	34	n/a	1	n/a	n/a	n/a	n/a	86.171	n/a
55.021	0.497	neutral	Picture	49.794	n/a	1	2	15	n/a	35	9	1	n/a	n/a	n/a	n/a	86.701	AF17NES.jpg
55.519	0.514	Blank	Blank	49.28	n/a	1	2	15	n/a	35	n/a	1	n/a	n/a	n/a	n/a	87.199	n/a
56.049	0.497	neutral	Picture	48.767	n/a	1	2	16	n/a	36	25	1	n/a	n/a	n/a	n/a	87.729	BM06NES.jpg
56.547	0.514	Blank	Blank	48.253	n/a	1	2	16	n/a	36	n/a	1	n/a	n/a	n/a	n/a	88.227	n/a
57.077	0.497	neutral	Picture	47.739	n/a	1	2	17	n/a	37	8	1	n/a	n/a	n/a	n/a	88.757	AF14NES.jpg
57.575	0.514	Blank	Blank	47.225	n/a	1	2	17	n/a	37	n/a	1	n/a	n/a	n/a	n/a	89.255	n/a
58.105	0.497	neutral	Picture	46.711	n/a	1	2	18	n/a	38	19	1	n/a	n/a	n/a	n/a	89.785	AF31NES.jpg
58.602	0.514	Blank	Blank	46.197	n/a	1	2	18	n/a	38	n/a	1	n/a	n/a	n/a	n/a	90.282	n/a
59.133	0.497	neutral	Picture	45.683	n/a	1	2	19	n/a	39	14	1	n/a	n/a	n/a	n/a	90.813	AF23NES.jpg
59.63	0.514	Blank	Blank	45.169	n/a	1	2	19	n/a	39	n/a	1	n/a	n/a	n/a	n/a	91.31	n/a
60.161	0.497	neutral	Picture	44.655	n/a	1	2	20	n/a	40	4	1	n/a	n/a	n/a	n/a	91.841	AF05NES.jpg
60.658	0.514	Blank	Blank	44.141	n/a	1	2	20	n/a	40	n/a	1	n/a	n/a	n/a	n/a	92.338	n/a
61.189	10.014	ITI	Fixation+	34.111	n/a	1	n/a	n/a	n/a	n/a	n/a	n/a	n/a	n/a	n/a	n/a	92.869	n/a
71.219	0.497	angry	Picture	33.597	n/a	1	3	1	n/a	41	84	3	n/a	n/a	n/a	n/a	102.899	AF05ANS.jpg
71.716	0.514	Blank	Blank	33.083	n/a	1	3	1	n/a	41	n/a	3	n/a	n/a	n/a	n/a	103.396	n/a
72.247	0.497	angry	Picture	32.569	n/a	1	3	2	n/a	42	92	3	n/a	n/a	n/a	n/a	103.927	AF21ANS.jpg
72.744	0.514	Blank	Blank	32.055	n/a	1	3	2	n/a	42	n/a	3	n/a	n/a	n/a	n/a	104.424	n/a
73.275	0.497	angry	Picture	31.541	n/a	1	3	3	n/a	43	86	3	n/a	n/a	n/a	n/a	104.955	AF09ANS.jpg
73.772	0.514	Blank	Blank	31.027	n/a	1	3	3	n/a	43	n/a	3	n/a	n/a	n/a	n/a	105.452	n/a
74.303	0.497	angry	Picture	30.513	n/a	1	3	4	n/a	44	93	3	n/a	n/a	n/a	n/a	105.983	BF22ANS.jpg
74.8	0.514	Blank	Blank	29.999	n/a	1	3	4	n/a	44	n/a	3	n/a	n/a	n/a	n/a	106.48	n/a
75.33	0.497	angry	Picture	29.486	n/a	1	3	5	n/a	45	88	3	n/a	n/a	n/a	n/a	107.01	AF14ANS.jpg
75.828	0.514	Blank	Blank	28.972	n/a	1	3	5	n/a	45	n/a	3	n/a	n/a	n/a	n/a	107.508	n/a
76.358	0.497	angry	Picture	28.458	n/a	1	3	6	n/a	46	113	3	n/a	n/a	n/a	n/a	108.038	AM21ANS.jpg
76.856	0.514	Blank	Blank	27.944	n/a	1	3	6	n/a	46	n/a	3	n/a	n/a	n/a	n/a	108.536	n/a
77.386	0.497	angry	Picture	27.43	n/a	1	3	7	n/a	47	95	3	n/a	n/a	n/a	n/a	109.066	AF25ANS.jpg
77.884	0.514	Blank	Blank	26.916	n/a	1	3	7	n/a	47	n/a	3	n/a	n/a	n/a	n/a	109.564	n/a
78.414	0.497	angry	Picture	26.402	n/a	1	3	8	n/a	48	102	3	n/a	n/a	n/a	n/a	110.094	BM03ANS.jpg
78.911	0.514	Blank	Blank	25.888	n/a	1	3	8	n/a	48	n/a	3	n/a	n/a	n/a	n/a	110.591	n/a
79.442	0.497	angry	Picture	25.374	n/a	1	3	9	n/a	49	112	3	n/a	n/a	n/a	n/a	111.122	AM14ANS.jpg
79.939	0.514	Blank	Blank	24.86	n/a	1	3	9	n/a	49	n/a	3	n/a	n/a	n/a	n/a	111.619	n/a
80.47	0.497	angry	Picture	24.346	n/a	1	3	10	n/a	50	83	3	n/a	n/a	n/a	n/a	112.15	BF04ANS.jpg
80.967	0.514	Blank	Blank	23.832	n/a	1	3	10	n/a	50	n/a	3	n/a	n/a	n/a	n/a	112.647	n/a
81.498	0.497	angry	Picture	23.318	n/a	1	3	11	n/a	51	90	3	n/a	n/a	n/a	n/a	113.178	AF18ANS.jpg
81.995	0.514	Blank	Blank	22.804	n/a	1	3	11	n/a	51	n/a	3	n/a	n/a	n/a	n/a	113.675	n/a
82.526	0.497	angry	Picture	22.29	n/a	1	3	12	n/a	52	117	3	n/a	n/a	n/a	n/a	114.206	BM25ANS.jpg
83.023	0.514	Blank	Blank	21.776	n/a	1	3	12	n/a	52	n/a	3	n/a	n/a	n/a	n/a	114.703	n/a
83.554	0.497	angry	Picture	21.262	n/a	1	3	13	n/a	53	94	3	n/a	n/a	n/a	n/a	115.234	AF23ANS.jpg
84.051	0.514	Blank	Blank	20.748	n/a	1	3	13	n/a	53	n/a	3	n/a	n/a	n/a	n/a	115.731	n/a
84.581	0.497	angry	Picture	20.235	n/a	1	3	14	n/a	54	106	3	n/a	n/a	n/a	n/a	116.261	AM07ANS.jpg
85.079	0.514	Blank	Blank	19.721	n/a	1	3	14	n/a	54	n/a	3	n/a	n/a	n/a	n/a	116.759	n/a
85.609	0.497	angry	Picture	19.207	n/a	1	3	15	n/a	55	105	3	n/a	n/a	n/a	n/a	117.289	BM06ANS.jpg
86.107	0.514	Blank	Blank	18.693	n/a	1	3	15	n/a	55	n/a	3	n/a	n/a	n/a	n/a	117.787	n/a
86.637	0.497	angry	Picture	18.179	n/a	1	3	16	n/a	56	116	3	n/a	n/a	n/a	n/a	118.317	BM24ANS.jpg
87.135	0.514	Blank	Blank	17.665	n/a	1	3	16	n/a	56	n/a	3	n/a	n/a	n/a	n/a	118.814	n/a
87.665	0.497	angry	Picture	17.151	n/a	1	3	17	n/a	57	89	3	n/a	n/a	n/a	n/a	119.345	AF17ANS.jpg
88.162	0.514	Blank	Blank	16.637	n/a	1	3	17	n/a	57	n/a	3	n/a	n/a	n/a	n/a	119.842	n/a
88.693	0.497	angry	Picture	16.123	n/a	1	3	18	n/a	58	118	3	n/a	n/a	n/a	n/a	120.373	BM26ANS.jpg
89.19	0.514	Blank	Blank	15.609	n/a	1	3	18	n/a	58	n/a	3	n/a	n/a	n/a	n/a	120.87	n/a
89.721	0.497	angry	Picture	15.095	n/a	1	3	19	n/a	59	100	3	n/a	n/a	n/a	n/a	121.401	AF32ANS.jpg
90.218	0.514	Blank	Blank	14.581	n/a	1	3	19	n/a	59	n/a	3	n/a	n/a	n/a	n/a	121.898	n/a
90.749	0.497	angry	Picture	14.067	n/a	1	3	20	n/a	60	119	3	n/a	n/a	n/a	n/a	122.429	BM28ANS.jpg
91.246	0.514	Blank	Blank	13.553	n/a	1	3	20	n/a	60	n/a	3	n/a	n/a	n/a	n/a	122.926	n/a
91.777	10.014	ITI	Fixation+	3.523	n/a	1	n/a	n/a	n/a	n/a	n/a	n/a	n/a	n/a	n/a	n/a	123.457	n/a
105.313	n/a	ConfirmRating	Rate	n/a	3.498	1	n/a	n/a	0	n/a	n/a	n/a	2	Angry	22	48	136.993	n/a
110.346	n/a	ConfirmRating	Rate	n/a	5.023	1	n/a	n/a	1	n/a	n/a	n/a	3	Angry	0	48	142.026	n/a
110.378	10.014	ITI	Fixation+	94.78	n/a	2	n/a	n/a	n/a	n/a	n/a	n/a	n/a	n/a	n/a	n/a	142.058	n/a
120.408	0.497	happy	Picture	94.266	n/a	2	4	1	n/a	61	79	2	n/a	n/a	n/a	n/a	152.088	BM28HAS.jpg
120.905	0.514	Blank	Blank	93.752	n/a	2	4	1	n/a	61	n/a	2	n/a	n/a	n/a	n/a	152.585	n/a
121.436	0.497	happy	Picture	93.238	n/a	2	4	2	n/a	62	61	2	n/a	n/a	n/a	n/a	153.116	AM01HAS.jpg
121.933	0.514	Blank	Blank	92.724	n/a	2	4	2	n/a	62	n/a	2	n/a	n/a	n/a	n/a	153.613	n/a
122.464	0.497	happy	Picture	92.21	n/a	2	4	3	n/a	63	57	2	n/a	n/a	n/a	n/a	154.144	BF28HAS.jpg
122.961	0.514	Blank	Blank	91.696	n/a	2	4	3	n/a	63	n/a	2	n/a	n/a	n/a	n/a	154.641	n/a
123.492	0.497	happy	Picture	91.182	n/a	2	4	4	n/a	64	77	2	n/a	n/a	n/a	n/a	155.172	BM25HAS.jpg
123.989	0.514	Blank	Blank	90.668	n/a	2	4	4	n/a	64	n/a	2	n/a	n/a	n/a	n/a	155.669	n/a
124.52	0.497	happy	Picture	90.154	n/a	2	4	5	n/a	65	47	2	n/a	n/a	n/a	n/a	156.2	BF11HAS.jpg
125.017	0.514	Blank	Blank	89.64	n/a	2	4	5	n/a	65	n/a	2	n/a	n/a	n/a	n/a	156.697	n/a
125.547	0.497	happy	Picture	89.127	n/a	2	4	6	n/a	66	50	2	n/a	n/a	n/a	n/a	157.227	AF18HAS.jpg
126.045	0.514	Blank	Blank	88.613	n/a	2	4	6	n/a	66	n/a	2	n/a	n/a	n/a	n/a	157.725	n/a
126.575	0.497	happy	Picture	88.099	n/a	2	4	7	n/a	67	78	2	n/a	n/a	n/a	n/a	158.255	BM26HAS.jpg
127.073	0.514	Blank	Blank	87.585	n/a	2	4	7	n/a	67	n/a	2	n/a	n/a	n/a	n/a	158.753	n/a
127.603	0.497	happy	Picture	87.071	n/a	2	4	8	n/a	68	45	2	n/a	n/a	n/a	n/a	159.283	BF07HAS.jpg
128.101	0.514	Blank	Blank	86.557	n/a	2	4	8	n/a	68	n/a	2	n/a	n/a	n/a	n/a	159.781	n/a
128.631	0.497	happy	Picture	86.043	n/a	2	4	9	n/a	69	56	2	n/a	n/a	n/a	n/a	160.311	AF26HAS.jpg
129.129	0.514	Blank	Blank	85.529	n/a	2	4	9	n/a	69	n/a	2	n/a	n/a	n/a	n/a	160.809	n/a
129.659	0.497	happy	Picture	85.015	n/a	2	4	10	n/a	70	65	2	n/a	n/a	n/a	n/a	161.339	BM06HAS.jpg
130.156	0.514	Blank	Blank	84.501	n/a	2	4	10	n/a	70	n/a	2	n/a	n/a	n/a	n/a	161.836	n/a
130.687	0.497	happy	Picture	83.987	n/a	2	4	11	n/a	71	73	2	n/a	n/a	n/a	n/a	162.367	AM21HAS.jpg
131.184	0.514	Blank	Blank	83.473	n/a	2	4	11	n/a	71	n/a	2	n/a	n/a	n/a	n/a	162.864	n/a
131.715	0.497	happy	Picture	82.959	n/a	2	4	12	n/a	72	41	2	n/a	n/a	n/a	n/a	163.395	AF01HAS.jpg
132.212	0.514	Blank	Blank	82.445	n/a	2	4	12	n/a	72	n/a	2	n/a	n/a	n/a	n/a	163.892	n/a
132.743	0.497	happy	Picture	81.931	n/a	2	4	13	n/a	73	59	2	n/a	n/a	n/a	n/a	164.423	AF31HAS.jpg
133.24	0.514	Blank	Blank	81.417	n/a	2	4	13	n/a	73	n/a	2	n/a	n/a	n/a	n/a	164.92	n/a
133.77	0.497	happy	Picture	80.903	n/a	2	4	14	n/a	74	64	2	n/a	n/a	n/a	n/a	165.451	BM05HAS.jpg
134.268	0.514	Blank	Blank	80.389	n/a	2	4	14	n/a	74	n/a	2	n/a	n/a	n/a	n/a	165.948	n/a
134.798	0.497	happy	Picture	79.876	n/a	2	4	15	n/a	75	68	2	n/a	n/a	n/a	n/a	166.478	AM09HAS.jpg
135.296	0.514	Blank	Blank	79.362	n/a	2	4	15	n/a	75	n/a	2	n/a	n/a	n/a	n/a	166.976	n/a
135.826	0.497	happy	Picture	78.848	n/a	2	4	16	n/a	76	54	2	n/a	n/a	n/a	n/a	167.506	AF23HAS.jpg
136.324	0.514	Blank	Blank	78.334	n/a	2	4	16	n/a	76	n/a	2	n/a	n/a	n/a	n/a	168.004	n/a
136.854	0.497	happy	Picture	77.82	n/a	2	4	17	n/a	77	53	2	n/a	n/a	n/a	n/a	168.534	BF22HAS.jpg
137.351	0.514	Blank	Blank	77.306	n/a	2	4	17	n/a	77	n/a	2	n/a	n/a	n/a	n/a	169.031	n/a
137.882	0.497	happy	Picture	76.792	n/a	2	4	18	n/a	78	44	2	n/a	n/a	n/a	n/a	169.562	AF05HAS.jpg
138.379	0.514	Blank	Blank	76.278	n/a	2	4	18	n/a	78	n/a	2	n/a	n/a	n/a	n/a	170.059	n/a
138.91	0.497	happy	Picture	75.764	n/a	2	4	19	n/a	79	52	2	n/a	n/a	n/a	n/a	170.59	AF21HAS.jpg
139.407	0.514	Blank	Blank	75.25	n/a	2	4	19	n/a	79	n/a	2	n/a	n/a	n/a	n/a	171.087	n/a
139.938	0.497	happy	Picture	74.736	n/a	2	4	20	n/a	80	62	2	n/a	n/a	n/a	n/a	171.618	BM03HAS.jpg
140.435	0.514	Blank	Blank	74.222	n/a	2	4	20	n/a	80	n/a	2	n/a	n/a	n/a	n/a	172.115	n/a
140.966	10.014	ITI	Fixation+	64.192	n/a	2	n/a	n/a	n/a	n/a	n/a	n/a	n/a	n/a	n/a	n/a	172.646	n/a
150.996	0.497	neutral	Picture	63.678	n/a	2	5	1	n/a	81	23	1	n/a	n/a	n/a	n/a	182.676	AM04NES.jpg
151.493	0.514	Blank	Blank	63.164	n/a	2	5	1	n/a	81	n/a	1	n/a	n/a	n/a	n/a	183.173	n/a
152.024	0.497	neutral	Picture	62.65	n/a	2	5	2	n/a	82	29	1	n/a	n/a	n/a	n/a	183.704	AM10NES.jpg
152.521	0.514	Blank	Blank	62.136	n/a	2	5	2	n/a	82	n/a	1	n/a	n/a	n/a	n/a	184.201	n/a
153.052	0.497	neutral	Picture	61.622	n/a	2	5	3	n/a	83	24	1	n/a	n/a	n/a	n/a	184.732	BM05NES.jpg
153.549	0.514	Blank	Blank	61.108	n/a	2	5	3	n/a	83	n/a	1	n/a	n/a	n/a	n/a	185.229	n/a
154.079	0.497	neutral	Picture	60.595	n/a	2	5	4	n/a	84	12	1	n/a	n/a	n/a	n/a	185.76	AF21NES.jpg
154.577	0.514	Blank	Blank	60.081	n/a	2	5	4	n/a	84	n/a	1	n/a	n/a	n/a	n/a	186.257	n/a
155.107	0.497	neutral	Picture	59.567	n/a	2	5	5	n/a	85	13	1	n/a	n/a	n/a	n/a	186.787	BF22NES.jpg
155.605	0.514	Blank	Blank	59.053	n/a	2	5	5	n/a	85	n/a	1	n/a	n/a	n/a	n/a	187.285	n/a
156.135	0.497	neutral	Picture	58.539	n/a	2	5	6	n/a	86	17	1	n/a	n/a	n/a	n/a	187.815	BF28NES.jpg
156.633	0.514	Blank	Blank	58.025	n/a	2	5	6	n/a	86	n/a	1	n/a	n/a	n/a	n/a	188.313	n/a
157.163	0.497	neutral	Picture	57.511	n/a	2	5	7	n/a	87	4	1	n/a	n/a	n/a	n/a	188.843	AF05NES.jpg
157.66	0.514	Blank	Blank	56.997	n/a	2	5	7	n/a	87	n/a	1	n/a	n/a	n/a	n/a	189.34	n/a
158.191	0.497	neutral	Picture	56.483	n/a	2	5	8	n/a	88	11	1	n/a	n/a	n/a	n/a	189.871	AF20NES.jpg
158.688	0.514	Blank	Blank	55.969	n/a	2	5	8	n/a	88	n/a	1	n/a	n/a	n/a	n/a	190.368	n/a
159.219	0.497	neutral	Picture	55.455	n/a	2	5	9	n/a	89	22	1	n/a	n/a	n/a	n/a	190.899	BM03NES.jpg
159.716	0.514	Blank	Blank	54.941	n/a	2	5	9	n/a	89	n/a	1	n/a	n/a	n/a	n/a	191.396	n/a
160.247	0.497	neutral	Picture	54.427	n/a	2	5	10	n/a	90	15	1	n/a	n/a	n/a	n/a	191.927	AF25NES.jpg
160.744	0.514	Blank	Blank	53.913	n/a	2	5	10	n/a	90	n/a	1	n/a	n/a	n/a	n/a	192.424	n/a
161.275	0.497	neutral	Picture	53.399	n/a	2	5	11	n/a	91	19	1	n/a	n/a	n/a	n/a	192.955	AF31NES.jpg
161.772	0.514	Blank	Blank	52.885	n/a	2	5	11	n/a	91	n/a	1	n/a	n/a	n/a	n/a	193.452	n/a
162.302	0.497	neutral	Picture	52.371	n/a	2	5	12	n/a	92	9	1	n/a	n/a	n/a	n/a	193.982	AF17NES.jpg
162.8	0.514	Blank	Blank	51.858	n/a	2	5	12	n/a	92	n/a	1	n/a	n/a	n/a	n/a	194.48	n/a
163.33	0.497	neutral	Picture	51.344	n/a	2	5	13	n/a	93	14	1	n/a	n/a	n/a	n/a	195.01	AF23NES.jpg
163.828	0.514	Blank	Blank	50.83	n/a	2	5	13	n/a	93	n/a	1	n/a	n/a	n/a	n/a	195.508	n/a
164.358	0.497	neutral	Picture	50.316	n/a	2	5	14	n/a	94	36	1	n/a	n/a	n/a	n/a	196.038	BM24NES.jpg
164.856	0.514	Blank	Blank	49.802	n/a	2	5	14	n/a	94	n/a	1	n/a	n/a	n/a	n/a	196.536	n/a
165.386	0.497	neutral	Picture	49.288	n/a	2	5	15	n/a	95	34	1	n/a	n/a	n/a	n/a	197.066	AM22NES.jpg
165.883	0.514	Blank	Blank	48.774	n/a	2	5	15	n/a	95	n/a	1	n/a	n/a	n/a	n/a	197.564	n/a
166.414	0.497	neutral	Picture	48.26	n/a	2	5	16	n/a	96	10	1	n/a	n/a	n/a	n/a	198.094	AF18NES.jpg
166.911	0.514	Blank	Blank	47.746	n/a	2	5	16	n/a	96	n/a	1	n/a	n/a	n/a	n/a	198.591	n/a
167.442	0.497	neutral	Picture	47.232	n/a	2	5	17	n/a	97	5	1	n/a	n/a	n/a	n/a	199.122	BF07NES.jpg
167.939	0.514	Blank	Blank	46.718	n/a	2	5	17	n/a	97	n/a	1	n/a	n/a	n/a	n/a	199.619	n/a
168.47	0.497	neutral	Picture	46.204	n/a	2	5	18	n/a	98	25	1	n/a	n/a	n/a	n/a	200.15	BM06NES.jpg
168.967	0.514	Blank	Blank	45.69	n/a	2	5	18	n/a	98	n/a	1	n/a	n/a	n/a	n/a	200.647	n/a
169.498	0.497	neutral	Picture	45.176	n/a	2	5	19	n/a	99	39	1	n/a	n/a	n/a	n/a	201.178	AM28NES.jpg
169.995	0.514	Blank	Blank	44.662	n/a	2	5	19	n/a	99	n/a	1	n/a	n/a	n/a	n/a	201.675	n/a
170.526	0.497	neutral	Picture	44.148	n/a	2	5	20	n/a	100	33	1	n/a	n/a	n/a	n/a	202.206	AM21NES.jpg
171.023	0.514	Blank	Blank	43.634	n/a	2	5	20	n/a	100	n/a	1	n/a	n/a	n/a	n/a	202.703	n/a
171.553	10.014	ITI	Fixation+	33.604	n/a	2	n/a	n/a	n/a	n/a	n/a	n/a	n/a	n/a	n/a	n/a	203.233	n/a
181.584	0.497	happy	Picture	33.09	n/a	2	6	1	n/a	101	74	2	n/a	n/a	n/a	n/a	213.264	AM22HAS.jpg
182.081	0.514	Blank	Blank	32.576	n/a	2	6	1	n/a	101	n/a	2	n/a	n/a	n/a	n/a	213.761	n/a
182.612	0.497	happy	Picture	32.063	n/a	2	6	2	n/a	102	76	2	n/a	n/a	n/a	n/a	214.292	BM24HAS.jpg
183.109	0.514	Blank	Blank	31.548	n/a	2	6	2	n/a	102	n/a	2	n/a	n/a	n/a	n/a	214.789	n/a
183.639	0.497	happy	Picture	31.035	n/a	2	6	3	n/a	103	80	2	n/a	n/a	n/a	n/a	215.319	BM35HAS.jpg
184.137	0.514	Blank	Blank	30.521	n/a	2	6	3	n/a	103	n/a	2	n/a	n/a	n/a	n/a	215.817	n/a
184.667	0.497	happy	Picture	30.007	n/a	2	6	4	n/a	104	75	2	n/a	n/a	n/a	n/a	216.347	AM23HAS.jpg
185.165	0.514	Blank	Blank	29.493	n/a	2	6	4	n/a	104	n/a	2	n/a	n/a	n/a	n/a	216.845	n/a
185.695	0.497	happy	Picture	28.979	n/a	2	6	5	n/a	105	49	2	n/a	n/a	n/a	n/a	217.375	AF17HAS.jpg
186.192	0.514	Blank	Blank	28.465	n/a	2	6	5	n/a	105	n/a	2	n/a	n/a	n/a	n/a	217.873	n/a
186.723	0.497	happy	Picture	27.951	n/a	2	6	6	n/a	106	43	2	n/a	n/a	n/a	n/a	218.403	BF04HAS.jpg
187.22	0.514	Blank	Blank	27.437	n/a	2	6	6	n/a	106	n/a	2	n/a	n/a	n/a	n/a	218.9	n/a
187.751	0.497	happy	Picture	26.923	n/a	2	6	7	n/a	107	70	2	n/a	n/a	n/a	n/a	219.431	BM11HAS.jpg
188.248	0.514	Blank	Blank	26.409	n/a	2	6	7	n/a	107	n/a	2	n/a	n/a	n/a	n/a	219.928	n/a
188.779	0.497	happy	Picture	25.895	n/a	2	6	8	n/a	108	66	2	n/a	n/a	n/a	n/a	220.459	BM07HAS.jpg
189.276	0.514	Blank	Blank	25.381	n/a	2	6	8	n/a	108	n/a	2	n/a	n/a	n/a	n/a	220.956	n/a
189.807	0.497	happy	Picture	24.867	n/a	2	6	9	n/a	109	48	2	n/a	n/a	n/a	n/a	221.487	AF14HAS.jpg
190.304	0.514	Blank	Blank	24.353	n/a	2	6	9	n/a	109	n/a	2	n/a	n/a	n/a	n/a	221.984	n/a
190.834	0.497	happy	Picture	23.839	n/a	2	6	10	n/a	110	58	2	n/a	n/a	n/a	n/a	222.514	BF29HAS.jpg
191.332	0.514	Blank	Blank	23.326	n/a	2	6	10	n/a	110	n/a	2	n/a	n/a	n/a	n/a	223.012	n/a
191.862	0.497	happy	Picture	22.812	n/a	2	6	11	n/a	111	63	2	n/a	n/a	n/a	n/a	223.542	AM04HAS.jpg
192.36	0.514	Blank	Blank	22.298	n/a	2	6	11	n/a	111	n/a	2	n/a	n/a	n/a	n/a	224.04	n/a
192.89	0.497	happy	Picture	21.784	n/a	2	6	12	n/a	112	72	2	n/a	n/a	n/a	n/a	224.57	AM14HAS.jpg
193.388	0.514	Blank	Blank	21.27	n/a	2	6	12	n/a	112	n/a	2	n/a	n/a	n/a	n/a	225.068	n/a
193.918	0.497	happy	Picture	20.756	n/a	2	6	13	n/a	113	55	2	n/a	n/a	n/a	n/a	225.598	AF25HAS.jpg
194.415	0.514	Blank	Blank	20.242	n/a	2	6	13	n/a	113	n/a	2	n/a	n/a	n/a	n/a	226.095	n/a
194.946	0.497	happy	Picture	19.728	n/a	2	6	14	n/a	114	42	2	n/a	n/a	n/a	n/a	226.626	AF03HAS.jpg
195.443	0.514	Blank	Blank	19.214	n/a	2	6	14	n/a	114	n/a	2	n/a	n/a	n/a	n/a	227.123	n/a
195.974	0.497	happy	Picture	18.7	n/a	2	6	15	n/a	115	60	2	n/a	n/a	n/a	n/a	227.654	AF32HAS.jpg
196.471	0.514	Blank	Blank	18.186	n/a	2	6	15	n/a	115	n/a	2	n/a	n/a	n/a	n/a	228.151	n/a
197.002	0.497	happy	Picture	17.672	n/a	2	6	16	n/a	116	67	2	n/a	n/a	n/a	n/a	228.682	BM08HAS.jpg
197.499	0.514	Blank	Blank	17.158	n/a	2	6	16	n/a	116	n/a	2	n/a	n/a	n/a	n/a	229.179	n/a
198.03	0.497	happy	Picture	16.644	n/a	2	6	17	n/a	117	51	2	n/a	n/a	n/a	n/a	229.71	AF20HAS.jpg
198.527	0.514	Blank	Blank	16.13	n/a	2	6	17	n/a	117	n/a	2	n/a	n/a	n/a	n/a	230.207	n/a
199.058	0.497	happy	Picture	15.616	n/a	2	6	18	n/a	118	71	2	n/a	n/a	n/a	n/a	230.738	BM12HAS.jpg
199.555	0.514	Blank	Blank	15.102	n/a	2	6	18	n/a	118	n/a	2	n/a	n/a	n/a	n/a	231.235	n/a
200.085	0.497	happy	Picture	14.589	n/a	2	6	19	n/a	119	69	2	n/a	n/a	n/a	n/a	231.766	AM10HAS.jpg
200.583	0.514	Blank	Blank	14.075	n/a	2	6	19	n/a	119	n/a	2	n/a	n/a	n/a	n/a	232.263	n/a
201.113	0.497	happy	Picture	13.561	n/a	2	6	20	n/a	120	46	2	n/a	n/a	n/a	n/a	232.793	AF09HAS.jpg
201.611	0.514	Blank	Blank	13.047	n/a	2	6	20	n/a	120	n/a	2	n/a	n/a	n/a	n/a	233.291	n/a
202.141	10.014	ITI	Fixation+	3.017	n/a	2	n/a	n/a	n/a	n/a	n/a	n/a	n/a	n/a	n/a	n/a	233.821	n/a
215.171	n/a	ConfirmRating	Rate	n/a	3.001	2	n/a	n/a	0	n/a	n/a	n/a	2	Happy	14	48	246.851	n/a
218.913	n/a	ConfirmRating	Rate	n/a	3.73	2	n/a	n/a	1	n/a	n/a	n/a	3	Happy	1	48	250.593	n/a
218.935	15.004	Rest	Picture	n/a	n/a	n/a	n/a	n/a	n/a	n/a	n/a	n/a	0	n/a	0	0	250.615	n/a
233.956	10.014	ITI	Fixation+	107.343	n/a	3	n/a	n/a	n/a	n/a	n/a	n/a	n/a	n/a	n/a	n/a	265.636	n/a
243.986	0.497	angry	Picture	106.829	n/a	3	7	1	n/a	1	108	3	n/a	n/a	n/a	n/a	275.666	AM09ANS.jpg
244.483	0.514	Blank	Blank	106.315	n/a	3	7	1	n/a	1	n/a	3	n/a	n/a	n/a	n/a	276.163	n/a
245.014	0.497	angry	Picture	105.802	n/a	3	7	2	n/a	2	99	3	n/a	n/a	n/a	n/a	276.694	AF31ANS.jpg
245.511	0.514	Blank	Blank	105.288	n/a	3	7	2	n/a	2	n/a	3	n/a	n/a	n/a	n/a	277.191	n/a
246.042	0.497	angry	Picture	104.774	n/a	3	7	3	n/a	3	98	3	n/a	n/a	n/a	n/a	277.722	BF29ANS.jpg
246.539	0.514	Blank	Blank	104.26	n/a	3	7	3	n/a	3	n/a	3	n/a	n/a	n/a	n/a	278.219	n/a
247.07	0.497	angry	Picture	103.746	n/a	3	7	4	n/a	4	107	3	n/a	n/a	n/a	n/a	278.75	BM08ANS.jpg
247.567	0.514	Blank	Blank	103.232	n/a	3	7	4	n/a	4	n/a	3	n/a	n/a	n/a	n/a	279.247	n/a
248.097	0.497	angry	Picture	102.718	n/a	3	7	5	n/a	5	104	3	n/a	n/a	n/a	n/a	279.777	BM05ANS.jpg
248.595	0.514	Blank	Blank	102.204	n/a	3	7	5	n/a	5	n/a	3	n/a	n/a	n/a	n/a	280.275	n/a
249.125	0.497	angry	Picture	101.69	n/a	3	7	6	n/a	6	101	3	n/a	n/a	n/a	n/a	280.805	AM01ANS.jpg
249.623	0.514	Blank	Blank	101.176	n/a	3	7	6	n/a	6	n/a	3	n/a	n/a	n/a	n/a	281.303	n/a
250.153	0.497	angry	Picture	100.662	n/a	3	7	7	n/a	7	103	3	n/a	n/a	n/a	n/a	281.833	AM04ANS.jpg
250.651	0.514	Blank	Blank	100.148	n/a	3	7	7	n/a	7	n/a	3	n/a	n/a	n/a	n/a	282.331	n/a
251.181	0.497	angry	Picture	99.634	n/a	3	7	8	n/a	8	111	3	n/a	n/a	n/a	n/a	282.861	BM12ANS.jpg
251.678	0.514	Blank	Blank	99.12	n/a	3	7	8	n/a	8	n/a	3	n/a	n/a	n/a	n/a	283.358	n/a
252.209	0.497	angry	Picture	98.606	n/a	3	7	9	n/a	9	110	3	n/a	n/a	n/a	n/a	283.889	AM11ANS.jpg
252.706	0.514	Blank	Blank	98.092	n/a	3	7	9	n/a	9	n/a	3	n/a	n/a	n/a	n/a	284.386	n/a
253.237	0.497	angry	Picture	97.578	n/a	3	7	10	n/a	10	85	3	n/a	n/a	n/a	n/a	284.917	BF07ANS.jpg
253.734	0.514	Blank	Blank	97.065	n/a	3	7	10	n/a	10	n/a	3	n/a	n/a	n/a	n/a	285.414	n/a
254.265	0.497	angry	Picture	96.551	n/a	3	7	11	n/a	11	87	3	n/a	n/a	n/a	n/a	285.945	BF11ANS.jpg
254.762	0.514	Blank	Blank	96.037	n/a	3	7	11	n/a	11	n/a	3	n/a	n/a	n/a	n/a	286.442	n/a
255.293	0.497	angry	Picture	95.523	n/a	3	7	12	n/a	12	91	3	n/a	n/a	n/a	n/a	286.973	AF20ANS.jpg
255.79	0.514	Blank	Blank	95.009	n/a	3	7	12	n/a	12	n/a	3	n/a	n/a	n/a	n/a	287.47	n/a
256.321	0.497	angry	Picture	94.495	n/a	3	7	13	n/a	13	115	3	n/a	n/a	n/a	n/a	288.001	AM23ANS.jpg
256.818	0.514	Blank	Blank	93.981	n/a	3	7	13	n/a	13	n/a	3	n/a	n/a	n/a	n/a	288.498	n/a
257.349	0.497	angry	Picture	93.467	n/a	3	7	14	n/a	14	97	3	n/a	n/a	n/a	n/a	289.029	BF28ANS.jpg
257.846	0.514	Blank	Blank	92.953	n/a	3	7	14	n/a	14	n/a	3	n/a	n/a	n/a	n/a	289.526	n/a
258.376	0.497	angry	Picture	92.439	n/a	3	7	15	n/a	15	82	3	n/a	n/a	n/a	n/a	290.056	AF03ANS.jpg
258.874	0.514	Blank	Blank	91.925	n/a	3	7	15	n/a	15	n/a	3	n/a	n/a	n/a	n/a	290.554	n/a
259.404	0.497	angry	Picture	91.411	n/a	3	7	16	n/a	16	96	3	n/a	n/a	n/a	n/a	291.084	AF26ANS.jpg
259.902	0.514	Blank	Blank	90.897	n/a	3	7	16	n/a	16	n/a	3	n/a	n/a	n/a	n/a	291.582	n/a
260.432	0.497	angry	Picture	90.383	n/a	3	7	17	n/a	17	109	3	n/a	n/a	n/a	n/a	292.112	AM10ANS.jpg
260.93	0.514	Blank	Blank	89.869	n/a	3	7	17	n/a	17	n/a	3	n/a	n/a	n/a	n/a	292.61	n/a
261.46	0.497	angry	Picture	89.356	n/a	3	7	18	n/a	18	114	3	n/a	n/a	n/a	n/a	293.14	AM22ANS.jpg
261.957	0.514	Blank	Blank	88.841	n/a	3	7	18	n/a	18	n/a	3	n/a	n/a	n/a	n/a	293.637	n/a
262.488	0.497	angry	Picture	88.328	n/a	3	7	19	n/a	19	120	3	n/a	n/a	n/a	n/a	294.168	AM35ANS.jpg
262.985	0.514	Blank	Blank	87.814	n/a	3	7	19	n/a	19	n/a	3	n/a	n/a	n/a	n/a	294.665	n/a
263.516	0.497	angry	Picture	87.3	n/a	3	7	20	n/a	20	81	3	n/a	n/a	n/a	n/a	295.196	AF01ANS.jpg
264.013	0.514	Blank	Blank	86.786	n/a	3	7	20	n/a	20	n/a	3	n/a	n/a	n/a	n/a	295.693	n/a
264.544	10.014	ITI	Fixation+	76.756	n/a	3	n/a	n/a	n/a	n/a	n/a	n/a	n/a	n/a	n/a	n/a	296.224	n/a
274.574	0.497	neutral	Picture	76.242	n/a	3	8	1	n/a	21	28	1	n/a	n/a	n/a	n/a	306.254	AM09NES.jpg
275.071	0.514	Blank	Blank	75.728	n/a	3	8	1	n/a	21	n/a	1	n/a	n/a	n/a	n/a	306.751	n/a
275.602	0.497	neutral	Picture	75.214	n/a	3	8	2	n/a	22	27	1	n/a	n/a	n/a	n/a	307.282	BM08NES.jpg
276.099	0.514	Blank	Blank	74.7	n/a	3	8	2	n/a	22	n/a	1	n/a	n/a	n/a	n/a	307.779	n/a
276.63	0.497	neutral	Picture	74.186	n/a	3	8	3	n/a	23	16	1	n/a	n/a	n/a	n/a	308.31	AF26NES.jpg
277.127	0.514	Blank	Blank	73.672	n/a	3	8	3	n/a	23	n/a	1	n/a	n/a	n/a	n/a	308.807	n/a
277.657	0.497	neutral	Picture	73.158	n/a	3	8	4	n/a	24	3	1	n/a	n/a	n/a	n/a	309.337	BF04NES.jpg
278.155	0.514	Blank	Blank	72.644	n/a	3	8	4	n/a	24	n/a	1	n/a	n/a	n/a	n/a	309.835	n/a
278.685	0.497	neutral	Picture	72.13	n/a	3	8	5	n/a	25	32	1	n/a	n/a	n/a	n/a	310.365	AM14NES.jpg
279.183	0.514	Blank	Blank	71.616	n/a	3	8	5	n/a	25	n/a	1	n/a	n/a	n/a	n/a	310.863	n/a
279.713	0.497	neutral	Picture	71.102	n/a	3	8	6	n/a	26	37	1	n/a	n/a	n/a	n/a	311.393	BM25NES.jpg
280.21	0.514	Blank	Blank	70.588	n/a	3	8	6	n/a	26	n/a	1	n/a	n/a	n/a	n/a	311.89	n/a
280.741	0.497	neutral	Picture	70.074	n/a	3	8	7	n/a	27	15	1	n/a	n/a	n/a	n/a	312.421	AF25NES.jpg
281.238	0.514	Blank	Blank	69.56	n/a	3	8	7	n/a	27	n/a	1	n/a	n/a	n/a	n/a	312.918	n/a
281.769	0.497	neutral	Picture	69.046	n/a	3	8	8	n/a	28	23	1	n/a	n/a	n/a	n/a	313.449	AM04NES.jpg
282.266	0.514	Blank	Blank	68.532	n/a	3	8	8	n/a	28	n/a	1	n/a	n/a	n/a	n/a	313.946	n/a
282.797	0.497	neutral	Picture	68.019	n/a	3	8	9	n/a	29	34	1	n/a	n/a	n/a	n/a	314.477	AM22NES.jpg
283.294	0.514	Blank	Blank	67.505	n/a	3	8	9	n/a	29	n/a	1	n/a	n/a	n/a	n/a	314.974	n/a
283.825	0.497	neutral	Picture	66.991	n/a	3	8	10	n/a	30	24	1	n/a	n/a	n/a	n/a	315.505	BM05NES.jpg
284.322	0.514	Blank	Blank	66.477	n/a	3	8	10	n/a	30	n/a	1	n/a	n/a	n/a	n/a	316.002	n/a
284.853	0.497	neutral	Picture	65.963	n/a	3	8	11	n/a	31	12	1	n/a	n/a	n/a	n/a	316.533	AF21NES.jpg
285.35	0.514	Blank	Blank	65.449	n/a	3	8	11	n/a	31	n/a	1	n/a	n/a	n/a	n/a	317.03	n/a
285.88	0.497	neutral	Picture	64.935	n/a	3	8	12	n/a	32	6	1	n/a	n/a	n/a	n/a	317.56	AF09NES.jpg
286.378	0.514	Blank	Blank	64.421	n/a	3	8	12	n/a	32	n/a	1	n/a	n/a	n/a	n/a	318.058	n/a
286.908	0.497	neutral	Picture	63.907	n/a	3	8	13	n/a	33	17	1	n/a	n/a	n/a	n/a	318.588	BF28NES.jpg
287.406	0.514	Blank	Blank	63.393	n/a	3	8	13	n/a	33	n/a	1	n/a	n/a	n/a	n/a	319.086	n/a
287.936	0.497	neutral	Picture	62.879	n/a	3	8	14	n/a	34	2	1	n/a	n/a	n/a	n/a	319.616	AF03NES.jpg
288.434	0.514	Blank	Blank	62.365	n/a	3	8	14	n/a	34	n/a	1	n/a	n/a	n/a	n/a	320.114	n/a
288.964	0.497	neutral	Picture	61.851	n/a	3	8	15	n/a	35	9	1	n/a	n/a	n/a	n/a	320.644	AF17NES.jpg
289.462	0.514	Blank	Blank	61.337	n/a	3	8	15	n/a	35	n/a	1	n/a	n/a	n/a	n/a	321.142	n/a
289.992	0.497	neutral	Picture	60.823	n/a	3	8	16	n/a	36	25	1	n/a	n/a	n/a	n/a	321.672	BM06NES.jpg
290.489	0.514	Blank	Blank	60.31	n/a	3	8	16	n/a	36	n/a	1	n/a	n/a	n/a	n/a	322.169	n/a
291.02	0.497	neutral	Picture	59.796	n/a	3	8	17	n/a	37	8	1	n/a	n/a	n/a	n/a	322.7	AF14NES.jpg
291.517	0.514	Blank	Blank	59.282	n/a	3	8	17	n/a	37	n/a	1	n/a	n/a	n/a	n/a	323.197	n/a
292.048	0.497	neutral	Picture	58.768	n/a	3	8	18	n/a	38	19	1	n/a	n/a	n/a	n/a	323.728	AF31NES.jpg
292.545	0.514	Blank	Blank	58.254	n/a	3	8	18	n/a	38	n/a	1	n/a	n/a	n/a	n/a	324.225	n/a
293.076	0.497	neutral	Picture	57.74	n/a	3	8	19	n/a	39	14	1	n/a	n/a	n/a	n/a	324.756	AF23NES.jpg
293.573	0.514	Blank	Blank	57.226	n/a	3	8	19	n/a	39	n/a	1	n/a	n/a	n/a	n/a	325.253	n/a
294.103	0.497	neutral	Picture	56.712	n/a	3	8	20	n/a	40	4	1	n/a	n/a	n/a	n/a	325.784	AF05NES.jpg
294.601	0.514	Blank	Blank	56.198	n/a	3	8	20	n/a	40	n/a	1	n/a	n/a	n/a	n/a	326.281	n/a
295.131	10.014	ITI	Fixation+	46.168	n/a	3	n/a	n/a	n/a	n/a	n/a	n/a	n/a	n/a	n/a	n/a	326.811	n/a
305.162	0.497	angry	Picture	45.654	n/a	3	9	1	n/a	41	84	3	n/a	n/a	n/a	n/a	336.842	AF05ANS.jpg
305.659	0.514	Blank	Blank	45.14	n/a	3	9	1	n/a	41	n/a	3	n/a	n/a	n/a	n/a	337.339	n/a
306.189	0.497	angry	Picture	44.626	n/a	3	9	2	n/a	42	92	3	n/a	n/a	n/a	n/a	337.869	AF21ANS.jpg
306.687	0.514	Blank	Blank	44.112	n/a	3	9	2	n/a	42	n/a	3	n/a	n/a	n/a	n/a	338.367	n/a
307.217	0.497	angry	Picture	43.598	n/a	3	9	3	n/a	43	86	3	n/a	n/a	n/a	n/a	338.897	AF09ANS.jpg
307.715	0.514	Blank	Blank	43.084	n/a	3	9	3	n/a	43	n/a	3	n/a	n/a	n/a	n/a	339.395	n/a
308.245	0.497	angry	Picture	42.57	n/a	3	9	4	n/a	44	93	3	n/a	n/a	n/a	n/a	339.925	BF22ANS.jpg
308.743	0.514	Blank	Blank	42.056	n/a	3	9	4	n/a	44	n/a	3	n/a	n/a	n/a	n/a	340.423	n/a
309.273	0.497	angry	Picture	41.542	n/a	3	9	5	n/a	45	88	3	n/a	n/a	n/a	n/a	340.953	AF14ANS.jpg
309.77	0.514	Blank	Blank	41.028	n/a	3	9	5	n/a	45	n/a	3	n/a	n/a	n/a	n/a	341.45	n/a
310.301	0.497	angry	Picture	40.514	n/a	3	9	6	n/a	46	113	3	n/a	n/a	n/a	n/a	341.981	AM21ANS.jpg
310.798	0.514	Blank	Blank	40.0	n/a	3	9	6	n/a	46	n/a	3	n/a	n/a	n/a	n/a	342.478	n/a
311.329	0.497	angry	Picture	39.487	n/a	3	9	7	n/a	47	95	3	n/a	n/a	n/a	n/a	343.009	AF25ANS.jpg
311.826	0.514	Blank	Blank	38.973	n/a	3	9	7	n/a	47	n/a	3	n/a	n/a	n/a	n/a	343.506	n/a
312.357	0.497	angry	Picture	38.459	n/a	3	9	8	n/a	48	102	3	n/a	n/a	n/a	n/a	344.037	BM03ANS.jpg
312.854	0.514	Blank	Blank	37.945	n/a	3	9	8	n/a	48	n/a	3	n/a	n/a	n/a	n/a	344.534	n/a
313.385	0.497	angry	Picture	37.431	n/a	3	9	9	n/a	49	112	3	n/a	n/a	n/a	n/a	345.065	AM14ANS.jpg
313.882	0.514	Blank	Blank	36.917	n/a	3	9	9	n/a	49	n/a	3	n/a	n/a	n/a	n/a	345.562	n/a
314.412	0.497	angry	Picture	36.403	n/a	3	9	10	n/a	50	83	3	n/a	n/a	n/a	n/a	346.092	BF04ANS.jpg
314.91	0.514	Blank	Blank	35.889	n/a	3	9	10	n/a	50	n/a	3	n/a	n/a	n/a	n/a	346.59	n/a
315.44	0.497	angry	Picture	35.375	n/a	3	9	11	n/a	51	90	3	n/a	n/a	n/a	n/a	347.12	AF18ANS.jpg
315.938	0.514	Blank	Blank	34.861	n/a	3	9	11	n/a	51	n/a	3	n/a	n/a	n/a	n/a	347.618	n/a
316.468	0.497	angry	Picture	34.347	n/a	3	9	12	n/a	52	117	3	n/a	n/a	n/a	n/a	348.148	BM25ANS.jpg
316.966	0.514	Blank	Blank	33.833	n/a	3	9	12	n/a	52	n/a	3	n/a	n/a	n/a	n/a	348.646	n/a
317.496	0.497	angry	Picture	33.319	n/a	3	9	13	n/a	53	94	3	n/a	n/a	n/a	n/a	349.176	AF23ANS.jpg
317.993	0.514	Blank	Blank	32.805	n/a	3	9	13	n/a	53	n/a	3	n/a	n/a	n/a	n/a	349.673	n/a
318.524	0.497	angry	Picture	32.291	n/a	3	9	14	n/a	54	106	3	n/a	n/a	n/a	n/a	350.204	AM07ANS.jpg
319.021	0.514	Blank	Blank	31.778	n/a	3	9	14	n/a	54	n/a	3	n/a	n/a	n/a	n/a	350.701	n/a
319.552	0.497	angry	Picture	31.263	n/a	3	9	15	n/a	55	105	3	n/a	n/a	n/a	n/a	351.232	BM06ANS.jpg
320.049	0.514	Blank	Blank	30.75	n/a	3	9	15	n/a	55	n/a	3	n/a	n/a	n/a	n/a	351.729	n/a
320.58	0.497	angry	Picture	30.236	n/a	3	9	16	n/a	56	116	3	n/a	n/a	n/a	n/a	352.26	BM24ANS.jpg
321.077	0.514	Blank	Blank	29.722	n/a	3	9	16	n/a	56	n/a	3	n/a	n/a	n/a	n/a	352.757	n/a
321.608	0.497	angry	Picture	29.208	n/a	3	9	17	n/a	57	89	3	n/a	n/a	n/a	n/a	353.288	AF17ANS.jpg
322.105	0.514	Blank	Blank	28.694	n/a	3	9	17	n/a	57	n/a	3	n/a	n/a	n/a	n/a	353.785	n/a
322.635	0.497	angry	Picture	28.18	n/a	3	9	18	n/a	58	118	3	n/a	n/a	n/a	n/a	354.315	BM26ANS.jpg
323.133	0.514	Blank	Blank	27.666	n/a	3	9	18	n/a	58	n/a	3	n/a	n/a	n/a	n/a	354.813	n/a
323.663	0.497	angry	Picture	27.152	n/a	3	9	19	n/a	59	100	3	n/a	n/a	n/a	n/a	355.343	AF32ANS.jpg
324.161	0.514	Blank	Blank	26.638	n/a	3	9	19	n/a	59	n/a	3	n/a	n/a	n/a	n/a	355.841	n/a
324.691	0.497	angry	Picture	26.124	n/a	3	9	20	n/a	60	119	3	n/a	n/a	n/a	n/a	356.371	BM28ANS.jpg
325.189	0.514	Blank	Blank	25.61	n/a	3	9	20	n/a	60	n/a	3	n/a	n/a	n/a	n/a	356.869	n/a
325.719	10.014	ITI	Fixation+	15.58	n/a	3	n/a	n/a	n/a	n/a	n/a	n/a	n/a	n/a	n/a	n/a	357.399	n/a
351.313	n/a	ConfirmRating	Rate	n/a	15.567	3	n/a	n/a	0	n/a	n/a	n/a	2	Angry	16	47	382.993	n/a
355.672	n/a	ConfirmRating	Rate	n/a	4.344	3	n/a	n/a	1	n/a	n/a	n/a	3	Angry	13	48	387.352	n/a
355.694	10.014	ITI	Fixation+	99.197	n/a	4	n/a	n/a	n/a	n/a	n/a	n/a	n/a	n/a	n/a	n/a	387.374	n/a
365.724	0.497	happy	Picture	98.683	n/a	4	10	1	n/a	61	79	2	n/a	n/a	n/a	n/a	397.404	BM28HAS.jpg
366.221	0.514	Blank	Blank	98.169	n/a	4	10	1	n/a	61	n/a	2	n/a	n/a	n/a	n/a	397.901	n/a
366.752	0.497	happy	Picture	97.655	n/a	4	10	2	n/a	62	61	2	n/a	n/a	n/a	n/a	398.432	AM01HAS.jpg
367.249	0.514	Blank	Blank	97.141	n/a	4	10	2	n/a	62	n/a	2	n/a	n/a	n/a	n/a	398.929	n/a
367.779	0.497	happy	Picture	96.627	n/a	4	10	3	n/a	63	57	2	n/a	n/a	n/a	n/a	399.459	BF28HAS.jpg
368.277	0.514	Blank	Blank	96.113	n/a	4	10	3	n/a	63	n/a	2	n/a	n/a	n/a	n/a	399.957	n/a
368.807	0.497	happy	Picture	95.599	n/a	4	10	4	n/a	64	77	2	n/a	n/a	n/a	n/a	400.487	BM25HAS.jpg
369.305	0.514	Blank	Blank	95.085	n/a	4	10	4	n/a	64	n/a	2	n/a	n/a	n/a	n/a	400.985	n/a
369.835	0.497	happy	Picture	94.571	n/a	4	10	5	n/a	65	47	2	n/a	n/a	n/a	n/a	401.515	BF11HAS.jpg
370.333	0.514	Blank	Blank	94.057	n/a	4	10	5	n/a	65	n/a	2	n/a	n/a	n/a	n/a	402.013	n/a
370.863	0.497	happy	Picture	93.543	n/a	4	10	6	n/a	66	50	2	n/a	n/a	n/a	n/a	402.543	AF18HAS.jpg
371.361	0.514	Blank	Blank	93.029	n/a	4	10	6	n/a	66	n/a	2	n/a	n/a	n/a	n/a	403.041	n/a
371.891	0.497	happy	Picture	92.515	n/a	4	10	7	n/a	67	78	2	n/a	n/a	n/a	n/a	403.571	BM26HAS.jpg
372.388	0.514	Blank	Blank	92.001	n/a	4	10	7	n/a	67	n/a	2	n/a	n/a	n/a	n/a	404.068	n/a
372.919	0.497	happy	Picture	91.488	n/a	4	10	8	n/a	68	45	2	n/a	n/a	n/a	n/a	404.599	BF07HAS.jpg
373.416	0.514	Blank	Blank	90.974	n/a	4	10	8	n/a	68	n/a	2	n/a	n/a	n/a	n/a	405.096	n/a
373.947	0.497	happy	Picture	90.46	n/a	4	10	9	n/a	69	56	2	n/a	n/a	n/a	n/a	405.627	AF26HAS.jpg
374.444	0.514	Blank	Blank	89.946	n/a	4	10	9	n/a	69	n/a	2	n/a	n/a	n/a	n/a	406.124	n/a
374.975	0.497	happy	Picture	89.432	n/a	4	10	10	n/a	70	65	2	n/a	n/a	n/a	n/a	406.655	BM06HAS.jpg
375.472	0.514	Blank	Blank	88.918	n/a	4	10	10	n/a	70	n/a	2	n/a	n/a	n/a	n/a	407.152	n/a
376.002	0.497	happy	Picture	88.404	n/a	4	10	11	n/a	71	73	2	n/a	n/a	n/a	n/a	407.683	AM21HAS.jpg
376.5	0.514	Blank	Blank	87.89	n/a	4	10	11	n/a	71	n/a	2	n/a	n/a	n/a	n/a	408.18	n/a
377.03	0.497	happy	Picture	87.376	n/a	4	10	12	n/a	72	41	2	n/a	n/a	n/a	n/a	408.71	AF01HAS.jpg
377.528	0.514	Blank	Blank	86.862	n/a	4	10	12	n/a	72	n/a	2	n/a	n/a	n/a	n/a	409.208	n/a
378.058	0.497	happy	Picture	86.348	n/a	4	10	13	n/a	73	59	2	n/a	n/a	n/a	n/a	409.738	AF31HAS.jpg
378.556	0.514	Blank	Blank	85.834	n/a	4	10	13	n/a	73	n/a	2	n/a	n/a	n/a	n/a	410.236	n/a
379.086	0.497	happy	Picture	85.32	n/a	4	10	14	n/a	74	64	2	n/a	n/a	n/a	n/a	410.766	BM05HAS.jpg
379.584	0.514	Blank	Blank	84.806	n/a	4	10	14	n/a	74	n/a	2	n/a	n/a	n/a	n/a	411.264	n/a
380.114	0.497	happy	Picture	84.292	n/a	4	10	15	n/a	75	68	2	n/a	n/a	n/a	n/a	411.794	AM09HAS.jpg
380.611	0.514	Blank	Blank	83.778	n/a	4	10	15	n/a	75	n/a	2	n/a	n/a	n/a	n/a	412.291	n/a
381.142	0.497	happy	Picture	83.264	n/a	4	10	16	n/a	76	54	2	n/a	n/a	n/a	n/a	412.822	AF23HAS.jpg
381.639	0.514	Blank	Blank	82.751	n/a	4	10	16	n/a	76	n/a	2	n/a	n/a	n/a	n/a	413.319	n/a
382.17	0.497	happy	Picture	82.236	n/a	4	10	17	n/a	77	53	2	n/a	n/a	n/a	n/a	413.85	BF22HAS.jpg
382.667	0.514	Blank	Blank	81.723	n/a	4	10	17	n/a	77	n/a	2	n/a	n/a	n/a	n/a	414.347	n/a
383.198	0.497	happy	Picture	81.209	n/a	4	10	18	n/a	78	44	2	n/a	n/a	n/a	n/a	414.878	AF05HAS.jpg
383.695	0.514	Blank	Blank	80.695	n/a	4	10	18	n/a	78	n/a	2	n/a	n/a	n/a	n/a	415.375	n/a
384.226	0.497	happy	Picture	80.181	n/a	4	10	19	n/a	79	52	2	n/a	n/a	n/a	n/a	415.906	AF21HAS.jpg
384.723	0.514	Blank	Blank	79.667	n/a	4	10	19	n/a	79	n/a	2	n/a	n/a	n/a	n/a	416.403	n/a
385.253	0.497	happy	Picture	79.153	n/a	4	10	20	n/a	80	62	2	n/a	n/a	n/a	n/a	416.933	BM03HAS.jpg
385.751	0.514	Blank	Blank	78.639	n/a	4	10	20	n/a	80	n/a	2	n/a	n/a	n/a	n/a	417.431	n/a
386.281	10.014	ITI	Fixation+	68.609	n/a	4	n/a	n/a	n/a	n/a	n/a	n/a	n/a	n/a	n/a	n/a	417.961	n/a
396.311	0.497	neutral	Picture	68.095	n/a	4	11	1	n/a	81	23	1	n/a	n/a	n/a	n/a	427.991	AM04NES.jpg
396.809	0.514	Blank	Blank	67.581	n/a	4	11	1	n/a	81	n/a	1	n/a	n/a	n/a	n/a	428.489	n/a
397.339	0.497	neutral	Picture	67.067	n/a	4	11	2	n/a	82	29	1	n/a	n/a	n/a	n/a	429.019	AM10NES.jpg
397.837	0.514	Blank	Blank	66.553	n/a	4	11	2	n/a	82	n/a	1	n/a	n/a	n/a	n/a	429.517	n/a
398.367	0.497	neutral	Picture	66.039	n/a	4	11	3	n/a	83	24	1	n/a	n/a	n/a	n/a	430.047	BM05NES.jpg
398.865	0.514	Blank	Blank	65.525	n/a	4	11	3	n/a	83	n/a	1	n/a	n/a	n/a	n/a	430.545	n/a
399.395	0.497	neutral	Picture	65.011	n/a	4	11	4	n/a	84	12	1	n/a	n/a	n/a	n/a	431.075	AF21NES.jpg
399.892	0.514	Blank	Blank	64.497	n/a	4	11	4	n/a	84	n/a	1	n/a	n/a	n/a	n/a	431.572	n/a
400.423	0.497	neutral	Picture	63.983	n/a	4	11	5	n/a	85	13	1	n/a	n/a	n/a	n/a	432.103	BF22NES.jpg
400.92	0.514	Blank	Blank	63.469	n/a	4	11	5	n/a	85	n/a	1	n/a	n/a	n/a	n/a	432.6	n/a
401.451	0.497	neutral	Picture	62.955	n/a	4	11	6	n/a	86	17	1	n/a	n/a	n/a	n/a	433.131	BF28NES.jpg
401.948	0.514	Blank	Blank	62.442	n/a	4	11	6	n/a	86	n/a	1	n/a	n/a	n/a	n/a	433.628	n/a
402.479	0.497	neutral	Picture	61.928	n/a	4	11	7	n/a	87	4	1	n/a	n/a	n/a	n/a	434.159	AF05NES.jpg
402.976	0.514	Blank	Blank	61.414	n/a	4	11	7	n/a	87	n/a	1	n/a	n/a	n/a	n/a	434.656	n/a
403.507	0.497	neutral	Picture	60.9	n/a	4	11	8	n/a	88	11	1	n/a	n/a	n/a	n/a	435.187	AF20NES.jpg
404.004	0.514	Blank	Blank	60.386	n/a	4	11	8	n/a	88	n/a	1	n/a	n/a	n/a	n/a	435.684	n/a
404.534	0.497	neutral	Picture	59.872	n/a	4	11	9	n/a	89	22	1	n/a	n/a	n/a	n/a	436.214	BM03NES.jpg
405.032	0.514	Blank	Blank	59.358	n/a	4	11	9	n/a	89	n/a	1	n/a	n/a	n/a	n/a	436.712	n/a
405.562	0.497	neutral	Picture	58.844	n/a	4	11	10	n/a	90	15	1	n/a	n/a	n/a	n/a	437.242	AF25NES.jpg
406.06	0.514	Blank	Blank	58.33	n/a	4	11	10	n/a	90	n/a	1	n/a	n/a	n/a	n/a	437.74	n/a
406.59	0.497	neutral	Picture	57.816	n/a	4	11	11	n/a	91	19	1	n/a	n/a	n/a	n/a	438.27	AF31NES.jpg
407.088	0.514	Blank	Blank	57.302	n/a	4	11	11	n/a	91	n/a	1	n/a	n/a	n/a	n/a	438.768	n/a
407.618	0.497	neutral	Picture	56.788	n/a	4	11	12	n/a	92	9	1	n/a	n/a	n/a	n/a	439.298	AF17NES.jpg
408.115	0.514	Blank	Blank	56.274	n/a	4	11	12	n/a	92	n/a	1	n/a	n/a	n/a	n/a	439.796	n/a
408.646	0.497	neutral	Picture	55.76	n/a	4	11	13	n/a	93	14	1	n/a	n/a	n/a	n/a	440.326	AF23NES.jpg
409.143	0.514	Blank	Blank	55.246	n/a	4	11	13	n/a	93	n/a	1	n/a	n/a	n/a	n/a	440.823	n/a
409.674	0.497	neutral	Picture	54.732	n/a	4	11	14	n/a	94	36	1	n/a	n/a	n/a	n/a	441.354	BM24NES.jpg
410.171	0.514	Blank	Blank	54.219	n/a	4	11	14	n/a	94	n/a	1	n/a	n/a	n/a	n/a	441.851	n/a
410.702	0.497	neutral	Picture	53.704	n/a	4	11	15	n/a	95	34	1	n/a	n/a	n/a	n/a	442.382	AM22NES.jpg
411.199	0.514	Blank	Blank	53.191	n/a	4	11	15	n/a	95	n/a	1	n/a	n/a	n/a	n/a	442.879	n/a
411.73	0.497	neutral	Picture	52.677	n/a	4	11	16	n/a	96	10	1	n/a	n/a	n/a	n/a	443.41	AF18NES.jpg
412.227	0.514	Blank	Blank	52.163	n/a	4	11	16	n/a	96	n/a	1	n/a	n/a	n/a	n/a	443.907	n/a
412.758	0.497	neutral	Picture	51.649	n/a	4	11	17	n/a	97	5	1	n/a	n/a	n/a	n/a	444.438	BF07NES.jpg
413.255	0.514	Blank	Blank	51.135	n/a	4	11	17	n/a	97	n/a	1	n/a	n/a	n/a	n/a	444.935	n/a
413.786	0.497	neutral	Picture	50.621	n/a	4	11	18	n/a	98	25	1	n/a	n/a	n/a	n/a	445.466	BM06NES.jpg
414.283	0.514	Blank	Blank	50.107	n/a	4	11	18	n/a	98	n/a	1	n/a	n/a	n/a	n/a	445.963	n/a
414.813	0.497	neutral	Picture	49.593	n/a	4	11	19	n/a	99	39	1	n/a	n/a	n/a	n/a	446.493	AM28NES.jpg
415.311	0.514	Blank	Blank	49.079	n/a	4	11	19	n/a	99	n/a	1	n/a	n/a	n/a	n/a	446.991	n/a
415.841	0.497	neutral	Picture	48.565	n/a	4	11	20	n/a	100	33	1	n/a	n/a	n/a	n/a	447.521	AM21NES.jpg
416.339	0.514	Blank	Blank	48.051	n/a	4	11	20	n/a	100	n/a	1	n/a	n/a	n/a	n/a	448.019	n/a
416.869	10.014	ITI	Fixation+	38.021	n/a	4	n/a	n/a	n/a	n/a	n/a	n/a	n/a	n/a	n/a	n/a	448.549	n/a
426.899	0.497	happy	Picture	37.507	n/a	4	12	1	n/a	101	74	2	n/a	n/a	n/a	n/a	458.579	AM22HAS.jpg
427.397	0.514	Blank	Blank	36.993	n/a	4	12	1	n/a	101	n/a	2	n/a	n/a	n/a	n/a	459.077	n/a
427.927	0.497	happy	Picture	36.479	n/a	4	12	2	n/a	102	76	2	n/a	n/a	n/a	n/a	459.607	BM24HAS.jpg
428.424	0.514	Blank	Blank	35.965	n/a	4	12	2	n/a	102	n/a	2	n/a	n/a	n/a	n/a	460.104	n/a
428.955	0.497	happy	Picture	35.451	n/a	4	12	3	n/a	103	80	2	n/a	n/a	n/a	n/a	460.635	BM35HAS.jpg
429.452	0.514	Blank	Blank	34.937	n/a	4	12	3	n/a	103	n/a	2	n/a	n/a	n/a	n/a	461.132	n/a
429.983	0.497	happy	Picture	34.423	n/a	4	12	4	n/a	104	75	2	n/a	n/a	n/a	n/a	461.663	AM23HAS.jpg
430.48	0.514	Blank	Blank	33.91	n/a	4	12	4	n/a	104	n/a	2	n/a	n/a	n/a	n/a	462.16	n/a
431.011	0.497	happy	Picture	33.395	n/a	4	12	5	n/a	105	49	2	n/a	n/a	n/a	n/a	462.691	AF17HAS.jpg
431.508	0.514	Blank	Blank	32.882	n/a	4	12	5	n/a	105	n/a	2	n/a	n/a	n/a	n/a	463.188	n/a
432.039	0.497	happy	Picture	32.368	n/a	4	12	6	n/a	106	43	2	n/a	n/a	n/a	n/a	463.719	BF04HAS.jpg
432.536	0.514	Blank	Blank	31.854	n/a	4	12	6	n/a	106	n/a	2	n/a	n/a	n/a	n/a	464.216	n/a
433.067	0.497	happy	Picture	31.34	n/a	4	12	7	n/a	107	70	2	n/a	n/a	n/a	n/a	464.747	BM11HAS.jpg
433.564	0.514	Blank	Blank	30.826	n/a	4	12	7	n/a	107	n/a	2	n/a	n/a	n/a	n/a	465.244	n/a
434.094	0.497	happy	Picture	30.312	n/a	4	12	8	n/a	108	66	2	n/a	n/a	n/a	n/a	465.774	BM07HAS.jpg
434.592	0.514	Blank	Blank	29.798	n/a	4	12	8	n/a	108	n/a	2	n/a	n/a	n/a	n/a	466.272	n/a
435.122	0.497	happy	Picture	29.284	n/a	4	12	9	n/a	109	48	2	n/a	n/a	n/a	n/a	466.802	AF14HAS.jpg
435.62	0.514	Blank	Blank	28.77	n/a	4	12	9	n/a	109	n/a	2	n/a	n/a	n/a	n/a	467.3	n/a
436.15	0.497	happy	Picture	28.256	n/a	4	12	10	n/a	110	58	2	n/a	n/a	n/a	n/a	467.83	BF29HAS.jpg
436.648	0.514	Blank	Blank	27.742	n/a	4	12	10	n/a	110	n/a	2	n/a	n/a	n/a	n/a	468.328	n/a
437.178	0.497	happy	Picture	27.228	n/a	4	12	11	n/a	111	63	2	n/a	n/a	n/a	n/a	468.858	AM04HAS.jpg
437.675	0.514	Blank	Blank	26.714	n/a	4	12	11	n/a	111	n/a	2	n/a	n/a	n/a	n/a	469.355	n/a
438.206	0.497	happy	Picture	26.2	n/a	4	12	12	n/a	112	72	2	n/a	n/a	n/a	n/a	469.886	AM14HAS.jpg
438.703	0.514	Blank	Blank	25.686	n/a	4	12	12	n/a	112	n/a	2	n/a	n/a	n/a	n/a	470.383	n/a
439.234	0.497	happy	Picture	25.173	n/a	4	12	13	n/a	113	55	2	n/a	n/a	n/a	n/a	470.914	AF25HAS.jpg
439.731	0.514	Blank	Blank	24.659	n/a	4	12	13	n/a	113	n/a	2	n/a	n/a	n/a	n/a	471.411	n/a
440.262	0.497	happy	Picture	24.145	n/a	4	12	14	n/a	114	42	2	n/a	n/a	n/a	n/a	471.942	AF03HAS.jpg
440.759	0.514	Blank	Blank	23.631	n/a	4	12	14	n/a	114	n/a	2	n/a	n/a	n/a	n/a	472.439	n/a
441.29	0.497	happy	Picture	23.117	n/a	4	12	15	n/a	115	60	2	n/a	n/a	n/a	n/a	472.97	AF32HAS.jpg
441.787	0.514	Blank	Blank	22.603	n/a	4	12	15	n/a	115	n/a	2	n/a	n/a	n/a	n/a	473.467	n/a
442.317	0.497	happy	Picture	22.089	n/a	4	12	16	n/a	116	67	2	n/a	n/a	n/a	n/a	473.998	BM08HAS.jpg
442.815	0.514	Blank	Blank	21.575	n/a	4	12	16	n/a	116	n/a	2	n/a	n/a	n/a	n/a	474.495	n/a
443.345	0.497	happy	Picture	21.061	n/a	4	12	17	n/a	117	51	2	n/a	n/a	n/a	n/a	475.025	AF20HAS.jpg
443.843	0.514	Blank	Blank	20.547	n/a	4	12	17	n/a	117	n/a	2	n/a	n/a	n/a	n/a	475.523	n/a
444.373	0.497	happy	Picture	20.033	n/a	4	12	18	n/a	118	71	2	n/a	n/a	n/a	n/a	476.053	BM12HAS.jpg
444.871	0.514	Blank	Blank	19.519	n/a	4	12	18	n/a	118	n/a	2	n/a	n/a	n/a	n/a	476.551	n/a
445.401	0.497	happy	Picture	19.005	n/a	4	12	19	n/a	119	69	2	n/a	n/a	n/a	n/a	477.081	AM10HAS.jpg
445.899	0.514	Blank	Blank	18.491	n/a	4	12	19	n/a	119	n/a	2	n/a	n/a	n/a	n/a	477.579	n/a
446.429	0.497	happy	Picture	17.977	n/a	4	12	20	n/a	120	46	2	n/a	n/a	n/a	n/a	478.109	AF09HAS.jpg
446.926	0.514	Blank	Blank	17.463	n/a	4	12	20	n/a	120	n/a	2	n/a	n/a	n/a	n/a	478.606	n/a
447.457	10.014	ITI	Fixation+	7.433	n/a	4	n/a	n/a	n/a	n/a	n/a	n/a	n/a	n/a	n/a	n/a	479.137	n/a
464.904	n/a	ConfirmRating	Rate	n/a	7.427	4	n/a	n/a	0	n/a	n/a	n/a	2	Happy	7	46	496.584	n/a
469.021	n/a	ConfirmRating	Rate	n/a	4.095	4	n/a	n/a	1	n/a	n/a	n/a	3	Happy	0	48	500.701	n/a
