onset	duration	trial_type	event_type	time_until_response	response_time	trial_number	block_num_within_trial	image_seq_num_within_block	question_seq_num_within_block	image_seq_num	picture_number	condition	question_type	block_type	rating	rating_computed	onset_uncorrected	KDEV_imagefile
0.005	10.014	ITI	Fixation+	101.672	n/a	1	n/a	n/a	n/a	n/a	n/a	n/a	n/a	n/a	n/a	n/a	28.112	n/a
10.035	0.497	happy	Picture	101.158	n/a	1	1	1	n/a	1	46	2	n/a	n/a	n/a	n/a	38.142	AF09HAS.jpg
10.532	0.514	Blank	Blank	100.644	n/a	1	1	1	n/a	1	n/a	2	n/a	n/a	n/a	n/a	38.64	n/a
11.063	0.497	happy	Picture	100.13	n/a	1	1	2	n/a	2	69	2	n/a	n/a	n/a	n/a	39.17	AM10HAS.jpg
11.56	0.514	Blank	Blank	99.616	n/a	1	1	2	n/a	2	n/a	2	n/a	n/a	n/a	n/a	39.668	n/a
12.091	0.497	happy	Picture	99.102	n/a	1	1	3	n/a	3	71	2	n/a	n/a	n/a	n/a	40.198	BM12HAS.jpg
12.588	0.514	Blank	Blank	98.588	n/a	1	1	3	n/a	3	n/a	2	n/a	n/a	n/a	n/a	40.696	n/a
13.118	0.497	happy	Picture	98.075	n/a	1	1	4	n/a	4	51	2	n/a	n/a	n/a	n/a	41.226	AF20HAS.jpg
13.616	0.514	Blank	Blank	97.561	n/a	1	1	4	n/a	4	n/a	2	n/a	n/a	n/a	n/a	41.724	n/a
14.146	0.497	happy	Picture	97.047	n/a	1	1	5	n/a	5	67	2	n/a	n/a	n/a	n/a	42.254	BM08HAS.jpg
14.644	0.514	Blank	Blank	96.533	n/a	1	1	5	n/a	5	n/a	2	n/a	n/a	n/a	n/a	42.751	n/a
15.174	0.497	happy	Picture	96.019	n/a	1	1	6	n/a	6	60	2	n/a	n/a	n/a	n/a	43.282	AF32HAS.jpg
15.671	0.514	Blank	Blank	95.505	n/a	1	1	6	n/a	6	n/a	2	n/a	n/a	n/a	n/a	43.779	n/a
16.202	0.497	happy	Picture	94.991	n/a	1	1	7	n/a	7	42	2	n/a	n/a	n/a	n/a	44.31	AF03HAS.jpg
16.699	0.514	Blank	Blank	94.477	n/a	1	1	7	n/a	7	n/a	2	n/a	n/a	n/a	n/a	44.807	n/a
17.23	0.497	happy	Picture	93.963	n/a	1	1	8	n/a	8	55	2	n/a	n/a	n/a	n/a	45.338	AF25HAS.jpg
17.727	0.514	Blank	Blank	93.449	n/a	1	1	8	n/a	8	n/a	2	n/a	n/a	n/a	n/a	45.835	n/a
18.258	0.497	happy	Picture	92.935	n/a	1	1	9	n/a	9	72	2	n/a	n/a	n/a	n/a	46.366	AM14HAS.jpg
18.755	0.514	Blank	Blank	92.421	n/a	1	1	9	n/a	9	n/a	2	n/a	n/a	n/a	n/a	46.863	n/a
19.286	0.497	happy	Picture	91.907	n/a	1	1	10	n/a	10	63	2	n/a	n/a	n/a	n/a	47.394	AM04HAS.jpg
19.783	0.514	Blank	Blank	91.393	n/a	1	1	10	n/a	10	n/a	2	n/a	n/a	n/a	n/a	47.891	n/a
20.314	0.497	happy	Picture	90.879	n/a	1	1	11	n/a	11	58	2	n/a	n/a	n/a	n/a	48.421	BF29HAS.jpg
20.811	0.514	Blank	Blank	90.365	n/a	1	1	11	n/a	11	n/a	2	n/a	n/a	n/a	n/a	48.919	n/a
21.341	0.497	happy	Picture	89.851	n/a	1	1	12	n/a	12	48	2	n/a	n/a	n/a	n/a	49.449	AF14HAS.jpg
21.839	0.514	Blank	Blank	89.337	n/a	1	1	12	n/a	12	n/a	2	n/a	n/a	n/a	n/a	49.947	n/a
22.369	0.497	happy	Picture	88.824	n/a	1	1	13	n/a	13	66	2	n/a	n/a	n/a	n/a	50.477	BM07HAS.jpg
22.867	0.514	Blank	Blank	88.31	n/a	1	1	13	n/a	13	n/a	2	n/a	n/a	n/a	n/a	50.974	n/a
23.397	0.497	happy	Picture	87.796	n/a	1	1	14	n/a	14	70	2	n/a	n/a	n/a	n/a	51.505	BM11HAS.jpg
23.895	0.514	Blank	Blank	87.282	n/a	1	1	14	n/a	14	n/a	2	n/a	n/a	n/a	n/a	52.002	n/a
24.425	0.497	happy	Picture	86.768	n/a	1	1	15	n/a	15	43	2	n/a	n/a	n/a	n/a	52.533	BF04HAS.jpg
24.922	0.514	Blank	Blank	86.254	n/a	1	1	15	n/a	15	n/a	2	n/a	n/a	n/a	n/a	53.03	n/a
25.453	0.497	happy	Picture	85.74	n/a	1	1	16	n/a	16	49	2	n/a	n/a	n/a	n/a	53.561	AF17HAS.jpg
25.95	0.514	Blank	Blank	85.226	n/a	1	1	16	n/a	16	n/a	2	n/a	n/a	n/a	n/a	54.058	n/a
26.481	0.497	happy	Picture	84.712	n/a	1	1	17	n/a	17	75	2	n/a	n/a	n/a	n/a	54.589	AM23HAS.jpg
26.978	0.514	Blank	Blank	84.198	n/a	1	1	17	n/a	17	n/a	2	n/a	n/a	n/a	n/a	55.086	n/a
27.509	0.497	happy	Picture	83.684	n/a	1	1	18	n/a	18	80	2	n/a	n/a	n/a	n/a	55.617	BM35HAS.jpg
28.006	0.514	Blank	Blank	83.17	n/a	1	1	18	n/a	18	n/a	2	n/a	n/a	n/a	n/a	56.114	n/a
28.537	0.497	happy	Picture	82.656	n/a	1	1	19	n/a	19	76	2	n/a	n/a	n/a	n/a	56.644	BM24HAS.jpg
29.034	0.514	Blank	Blank	82.142	n/a	1	1	19	n/a	19	n/a	2	n/a	n/a	n/a	n/a	57.142	n/a
29.564	0.497	happy	Picture	81.628	n/a	1	1	20	n/a	20	74	2	n/a	n/a	n/a	n/a	57.672	AM22HAS.jpg
30.062	0.514	Blank	Blank	81.114	n/a	1	1	20	n/a	20	n/a	2	n/a	n/a	n/a	n/a	58.17	n/a
30.592	10.014	ITI	Fixation+	71.084	n/a	1	n/a	n/a	n/a	n/a	n/a	n/a	n/a	n/a	n/a	n/a	58.7	n/a
40.623	0.497	neutral	Picture	70.57	n/a	1	2	1	n/a	21	33	1	n/a	n/a	n/a	n/a	68.73	AM21NES.jpg
41.12	0.514	Blank	Blank	70.056	n/a	1	2	1	n/a	21	n/a	1	n/a	n/a	n/a	n/a	69.228	n/a
41.651	0.497	neutral	Picture	69.542	n/a	1	2	2	n/a	22	39	1	n/a	n/a	n/a	n/a	69.758	AM28NES.jpg
42.148	0.514	Blank	Blank	69.028	n/a	1	2	2	n/a	22	n/a	1	n/a	n/a	n/a	n/a	70.256	n/a
42.678	0.497	neutral	Picture	68.514	n/a	1	2	3	n/a	23	25	1	n/a	n/a	n/a	n/a	70.786	BM06NES.jpg
43.176	0.514	Blank	Blank	68.0	n/a	1	2	3	n/a	23	n/a	1	n/a	n/a	n/a	n/a	71.284	n/a
43.706	0.497	neutral	Picture	67.487	n/a	1	2	4	n/a	24	5	1	n/a	n/a	n/a	n/a	71.814	BF07NES.jpg
44.204	0.514	Blank	Blank	66.973	n/a	1	2	4	n/a	24	n/a	1	n/a	n/a	n/a	n/a	72.311	n/a
44.734	0.497	neutral	Picture	66.459	n/a	1	2	5	n/a	25	10	1	n/a	n/a	n/a	n/a	72.842	AF18NES.jpg
45.231	0.514	Blank	Blank	65.945	n/a	1	2	5	n/a	25	n/a	1	n/a	n/a	n/a	n/a	73.339	n/a
45.762	0.497	neutral	Picture	65.431	n/a	1	2	6	n/a	26	34	1	n/a	n/a	n/a	n/a	73.87	AM22NES.jpg
46.259	0.514	Blank	Blank	64.917	n/a	1	2	6	n/a	26	n/a	1	n/a	n/a	n/a	n/a	74.367	n/a
46.79	0.497	neutral	Picture	64.403	n/a	1	2	7	n/a	27	36	1	n/a	n/a	n/a	n/a	74.898	BM24NES.jpg
47.287	0.514	Blank	Blank	63.889	n/a	1	2	7	n/a	27	n/a	1	n/a	n/a	n/a	n/a	75.395	n/a
47.818	0.497	neutral	Picture	63.375	n/a	1	2	8	n/a	28	14	1	n/a	n/a	n/a	n/a	75.926	AF23NES.jpg
48.315	0.514	Blank	Blank	62.861	n/a	1	2	8	n/a	28	n/a	1	n/a	n/a	n/a	n/a	76.423	n/a
48.846	0.497	neutral	Picture	62.347	n/a	1	2	9	n/a	29	9	1	n/a	n/a	n/a	n/a	76.954	AF17NES.jpg
49.343	0.514	Blank	Blank	61.833	n/a	1	2	9	n/a	29	n/a	1	n/a	n/a	n/a	n/a	77.451	n/a
49.874	0.497	neutral	Picture	61.319	n/a	1	2	10	n/a	30	19	1	n/a	n/a	n/a	n/a	77.981	AF31NES.jpg
50.371	0.514	Blank	Blank	60.805	n/a	1	2	10	n/a	30	n/a	1	n/a	n/a	n/a	n/a	78.479	n/a
50.901	0.497	neutral	Picture	60.291	n/a	1	2	11	n/a	31	15	1	n/a	n/a	n/a	n/a	79.009	AF25NES.jpg
51.399	0.514	Blank	Blank	59.777	n/a	1	2	11	n/a	31	n/a	1	n/a	n/a	n/a	n/a	79.507	n/a
51.929	0.497	neutral	Picture	59.264	n/a	1	2	12	n/a	32	22	1	n/a	n/a	n/a	n/a	80.037	BM03NES.jpg
52.427	0.514	Blank	Blank	58.75	n/a	1	2	12	n/a	32	n/a	1	n/a	n/a	n/a	n/a	80.534	n/a
52.957	0.497	neutral	Picture	58.236	n/a	1	2	13	n/a	33	11	1	n/a	n/a	n/a	n/a	81.065	AF20NES.jpg
53.455	0.514	Blank	Blank	57.722	n/a	1	2	13	n/a	33	n/a	1	n/a	n/a	n/a	n/a	81.562	n/a
53.985	0.497	neutral	Picture	57.208	n/a	1	2	14	n/a	34	4	1	n/a	n/a	n/a	n/a	82.093	AF05NES.jpg
54.483	0.514	Blank	Blank	56.694	n/a	1	2	14	n/a	34	n/a	1	n/a	n/a	n/a	n/a	82.59	n/a
55.013	0.497	neutral	Picture	56.18	n/a	1	2	15	n/a	35	17	1	n/a	n/a	n/a	n/a	83.121	BF28NES.jpg
55.51	0.514	Blank	Blank	55.666	n/a	1	2	15	n/a	35	n/a	1	n/a	n/a	n/a	n/a	83.618	n/a
56.041	0.497	neutral	Picture	55.152	n/a	1	2	16	n/a	36	13	1	n/a	n/a	n/a	n/a	84.149	BF22NES.jpg
56.538	0.514	Blank	Blank	54.638	n/a	1	2	16	n/a	36	n/a	1	n/a	n/a	n/a	n/a	84.646	n/a
57.069	0.497	neutral	Picture	54.124	n/a	1	2	17	n/a	37	12	1	n/a	n/a	n/a	n/a	85.177	AF21NES.jpg
57.566	0.514	Blank	Blank	53.61	n/a	1	2	17	n/a	37	n/a	1	n/a	n/a	n/a	n/a	85.674	n/a
58.097	0.497	neutral	Picture	53.096	n/a	1	2	18	n/a	38	24	1	n/a	n/a	n/a	n/a	86.204	BM05NES.jpg
58.594	0.514	Blank	Blank	52.582	n/a	1	2	18	n/a	38	n/a	1	n/a	n/a	n/a	n/a	86.702	n/a
59.125	0.497	neutral	Picture	52.068	n/a	1	2	19	n/a	39	29	1	n/a	n/a	n/a	n/a	87.232	AM10NES.jpg
59.622	0.514	Blank	Blank	51.554	n/a	1	2	19	n/a	39	n/a	1	n/a	n/a	n/a	n/a	87.73	n/a
60.152	0.497	neutral	Picture	51.04	n/a	1	2	20	n/a	40	23	1	n/a	n/a	n/a	n/a	88.26	AM04NES.jpg
60.65	0.514	Blank	Blank	50.526	n/a	1	2	20	n/a	40	n/a	1	n/a	n/a	n/a	n/a	88.758	n/a
61.18	10.014	ITI	Fixation+	40.496	n/a	1	n/a	n/a	n/a	n/a	n/a	n/a	n/a	n/a	n/a	n/a	89.288	n/a
71.21	0.497	happy	Picture	39.982	n/a	1	3	1	n/a	41	62	2	n/a	n/a	n/a	n/a	99.318	BM03HAS.jpg
71.708	0.514	Blank	Blank	39.468	n/a	1	3	1	n/a	41	n/a	2	n/a	n/a	n/a	n/a	99.816	n/a
72.238	0.497	happy	Picture	38.954	n/a	1	3	2	n/a	42	52	2	n/a	n/a	n/a	n/a	100.346	AF21HAS.jpg
72.736	0.514	Blank	Blank	38.441	n/a	1	3	2	n/a	42	n/a	2	n/a	n/a	n/a	n/a	100.844	n/a
73.266	0.497	happy	Picture	37.927	n/a	1	3	3	n/a	43	44	2	n/a	n/a	n/a	n/a	101.374	AF05HAS.jpg
73.764	0.514	Blank	Blank	37.413	n/a	1	3	3	n/a	43	n/a	2	n/a	n/a	n/a	n/a	101.871	n/a
74.294	0.497	happy	Picture	36.899	n/a	1	3	4	n/a	44	53	2	n/a	n/a	n/a	n/a	102.402	BF22HAS.jpg
74.791	0.514	Blank	Blank	36.385	n/a	1	3	4	n/a	44	n/a	2	n/a	n/a	n/a	n/a	102.899	n/a
75.322	0.497	happy	Picture	35.871	n/a	1	3	5	n/a	45	54	2	n/a	n/a	n/a	n/a	103.43	AF23HAS.jpg
75.819	0.514	Blank	Blank	35.357	n/a	1	3	5	n/a	45	n/a	2	n/a	n/a	n/a	n/a	103.927	n/a
76.35	0.497	happy	Picture	34.843	n/a	1	3	6	n/a	46	68	2	n/a	n/a	n/a	n/a	104.458	AM09HAS.jpg
76.847	0.514	Blank	Blank	34.329	n/a	1	3	6	n/a	46	n/a	2	n/a	n/a	n/a	n/a	104.955	n/a
77.378	0.497	happy	Picture	33.815	n/a	1	3	7	n/a	47	64	2	n/a	n/a	n/a	n/a	105.486	BM05HAS.jpg
77.875	0.514	Blank	Blank	33.301	n/a	1	3	7	n/a	47	n/a	2	n/a	n/a	n/a	n/a	105.983	n/a
78.406	0.497	happy	Picture	32.787	n/a	1	3	8	n/a	48	59	2	n/a	n/a	n/a	n/a	106.513	AF31HAS.jpg
78.903	0.514	Blank	Blank	32.273	n/a	1	3	8	n/a	48	n/a	2	n/a	n/a	n/a	n/a	107.011	n/a
79.434	0.497	happy	Picture	31.759	n/a	1	3	9	n/a	49	41	2	n/a	n/a	n/a	n/a	107.541	AF01HAS.jpg
79.931	0.514	Blank	Blank	31.245	n/a	1	3	9	n/a	49	n/a	2	n/a	n/a	n/a	n/a	108.039	n/a
80.462	0.497	happy	Picture	30.731	n/a	1	3	10	n/a	50	73	2	n/a	n/a	n/a	n/a	108.569	AM21HAS.jpg
80.959	0.514	Blank	Blank	30.217	n/a	1	3	10	n/a	50	n/a	2	n/a	n/a	n/a	n/a	109.067	n/a
81.489	0.497	happy	Picture	29.704	n/a	1	3	11	n/a	51	65	2	n/a	n/a	n/a	n/a	109.597	BM06HAS.jpg
81.987	0.514	Blank	Blank	29.19	n/a	1	3	11	n/a	51	n/a	2	n/a	n/a	n/a	n/a	110.094	n/a
82.517	0.497	happy	Picture	28.676	n/a	1	3	12	n/a	52	56	2	n/a	n/a	n/a	n/a	110.625	AF26HAS.jpg
83.015	0.514	Blank	Blank	28.162	n/a	1	3	12	n/a	52	n/a	2	n/a	n/a	n/a	n/a	111.122	n/a
83.545	0.497	happy	Picture	27.648	n/a	1	3	13	n/a	53	45	2	n/a	n/a	n/a	n/a	111.653	BF07HAS.jpg
84.043	0.514	Blank	Blank	27.134	n/a	1	3	13	n/a	53	n/a	2	n/a	n/a	n/a	n/a	112.15	n/a
84.573	0.497	happy	Picture	26.62	n/a	1	3	14	n/a	54	78	2	n/a	n/a	n/a	n/a	112.681	BM26HAS.jpg
85.07	0.514	Blank	Blank	26.106	n/a	1	3	14	n/a	54	n/a	2	n/a	n/a	n/a	n/a	113.178	n/a
85.601	0.497	happy	Picture	25.592	n/a	1	3	15	n/a	55	50	2	n/a	n/a	n/a	n/a	113.709	AF18HAS.jpg
86.098	0.514	Blank	Blank	25.078	n/a	1	3	15	n/a	55	n/a	2	n/a	n/a	n/a	n/a	114.206	n/a
86.629	0.497	happy	Picture	24.564	n/a	1	3	16	n/a	56	47	2	n/a	n/a	n/a	n/a	114.737	BF11HAS.jpg
87.126	0.514	Blank	Blank	24.05	n/a	1	3	16	n/a	56	n/a	2	n/a	n/a	n/a	n/a	115.234	n/a
87.657	0.497	happy	Picture	23.536	n/a	1	3	17	n/a	57	77	2	n/a	n/a	n/a	n/a	115.764	BM25HAS.jpg
88.154	0.514	Blank	Blank	23.022	n/a	1	3	17	n/a	57	n/a	2	n/a	n/a	n/a	n/a	116.262	n/a
88.685	0.497	happy	Picture	22.508	n/a	1	3	18	n/a	58	57	2	n/a	n/a	n/a	n/a	116.792	BF28HAS.jpg
89.182	0.514	Blank	Blank	21.994	n/a	1	3	18	n/a	58	n/a	2	n/a	n/a	n/a	n/a	117.29	n/a
89.713	0.497	happy	Picture	21.48	n/a	1	3	19	n/a	59	61	2	n/a	n/a	n/a	n/a	117.82	AM01HAS.jpg
90.21	0.514	Blank	Blank	20.966	n/a	1	3	19	n/a	59	n/a	2	n/a	n/a	n/a	n/a	118.318	n/a
90.74	0.497	happy	Picture	20.453	n/a	1	3	20	n/a	60	79	2	n/a	n/a	n/a	n/a	118.848	BM28HAS.jpg
91.238	0.514	Blank	Blank	19.939	n/a	1	3	20	n/a	60	n/a	2	n/a	n/a	n/a	n/a	119.346	n/a
91.768	10.014	ITI	Fixation+	9.908	n/a	1	n/a	n/a	n/a	n/a	n/a	n/a	n/a	n/a	n/a	n/a	119.876	n/a
111.69	n/a	ConfirmRating	Rate	n/a	9.897	1	n/a	n/a	0	n/a	n/a	n/a	2	Happy	54	50	139.798	n/a
122.337	n/a	ConfirmRating	Rate	n/a	10.627	1	n/a	n/a	1	n/a	n/a	n/a	3	Happy	18	48	150.445	n/a
122.356	10.014	ITI	Fixation+	96.596	n/a	2	n/a	n/a	n/a	n/a	n/a	n/a	n/a	n/a	n/a	n/a	150.464	n/a
132.386	0.497	angry	Picture	96.082	n/a	2	4	1	n/a	61	119	3	n/a	n/a	n/a	n/a	160.494	BM28ANS.jpg
132.884	0.514	Blank	Blank	95.568	n/a	2	4	1	n/a	61	n/a	3	n/a	n/a	n/a	n/a	160.992	n/a
133.414	0.497	angry	Picture	95.054	n/a	2	4	2	n/a	62	100	3	n/a	n/a	n/a	n/a	161.522	AF32ANS.jpg
133.912	0.514	Blank	Blank	94.54	n/a	2	4	2	n/a	62	n/a	3	n/a	n/a	n/a	n/a	162.019	n/a
134.442	0.497	angry	Picture	94.026	n/a	2	4	3	n/a	63	118	3	n/a	n/a	n/a	n/a	162.55	BM26ANS.jpg
134.94	0.514	Blank	Blank	93.512	n/a	2	4	3	n/a	63	n/a	3	n/a	n/a	n/a	n/a	163.047	n/a
135.47	0.497	angry	Picture	92.998	n/a	2	4	4	n/a	64	89	3	n/a	n/a	n/a	n/a	163.578	AF17ANS.jpg
135.967	0.514	Blank	Blank	92.484	n/a	2	4	4	n/a	64	n/a	3	n/a	n/a	n/a	n/a	164.075	n/a
136.498	0.497	angry	Picture	91.97	n/a	2	4	5	n/a	65	116	3	n/a	n/a	n/a	n/a	164.606	BM24ANS.jpg
136.995	0.514	Blank	Blank	91.456	n/a	2	4	5	n/a	65	n/a	3	n/a	n/a	n/a	n/a	165.103	n/a
137.526	0.497	angry	Picture	90.942	n/a	2	4	6	n/a	66	105	3	n/a	n/a	n/a	n/a	165.633	BM06ANS.jpg
138.023	0.514	Blank	Blank	90.428	n/a	2	4	6	n/a	66	n/a	3	n/a	n/a	n/a	n/a	166.131	n/a
138.554	0.497	angry	Picture	89.915	n/a	2	4	7	n/a	67	106	3	n/a	n/a	n/a	n/a	166.661	AM07ANS.jpg
139.051	0.514	Blank	Blank	89.401	n/a	2	4	7	n/a	67	n/a	3	n/a	n/a	n/a	n/a	167.159	n/a
139.582	0.497	angry	Picture	88.887	n/a	2	4	8	n/a	68	94	3	n/a	n/a	n/a	n/a	167.689	AF23ANS.jpg
140.079	0.514	Blank	Blank	88.373	n/a	2	4	8	n/a	68	n/a	3	n/a	n/a	n/a	n/a	168.187	n/a
140.609	0.497	angry	Picture	87.859	n/a	2	4	9	n/a	69	117	3	n/a	n/a	n/a	n/a	168.717	BM25ANS.jpg
141.107	0.514	Blank	Blank	87.345	n/a	2	4	9	n/a	69	n/a	3	n/a	n/a	n/a	n/a	169.215	n/a
141.637	0.497	angry	Picture	86.831	n/a	2	4	10	n/a	70	90	3	n/a	n/a	n/a	n/a	169.745	AF18ANS.jpg
142.135	0.514	Blank	Blank	86.317	n/a	2	4	10	n/a	70	n/a	3	n/a	n/a	n/a	n/a	170.243	n/a
142.665	0.497	angry	Picture	85.803	n/a	2	4	11	n/a	71	83	3	n/a	n/a	n/a	n/a	170.773	BF04ANS.jpg
143.162	0.514	Blank	Blank	85.289	n/a	2	4	11	n/a	71	n/a	3	n/a	n/a	n/a	n/a	171.27	n/a
143.693	0.497	angry	Picture	84.775	n/a	2	4	12	n/a	72	112	3	n/a	n/a	n/a	n/a	171.801	AM14ANS.jpg
144.19	0.514	Blank	Blank	84.261	n/a	2	4	12	n/a	72	n/a	3	n/a	n/a	n/a	n/a	172.298	n/a
144.721	0.497	angry	Picture	83.747	n/a	2	4	13	n/a	73	102	3	n/a	n/a	n/a	n/a	172.829	BM03ANS.jpg
145.218	0.514	Blank	Blank	83.233	n/a	2	4	13	n/a	73	n/a	3	n/a	n/a	n/a	n/a	173.326	n/a
145.749	0.497	angry	Picture	82.719	n/a	2	4	14	n/a	74	95	3	n/a	n/a	n/a	n/a	173.857	AF25ANS.jpg
146.246	0.514	Blank	Blank	82.205	n/a	2	4	14	n/a	74	n/a	3	n/a	n/a	n/a	n/a	174.354	n/a
146.777	0.497	angry	Picture	81.691	n/a	2	4	15	n/a	75	113	3	n/a	n/a	n/a	n/a	174.885	AM21ANS.jpg
147.274	0.514	Blank	Blank	81.178	n/a	2	4	15	n/a	75	n/a	3	n/a	n/a	n/a	n/a	175.382	n/a
147.805	0.497	angry	Picture	80.664	n/a	2	4	16	n/a	76	88	3	n/a	n/a	n/a	n/a	175.912	AF14ANS.jpg
148.302	0.514	Blank	Blank	80.15	n/a	2	4	16	n/a	76	n/a	3	n/a	n/a	n/a	n/a	176.41	n/a
148.833	0.497	angry	Picture	79.636	n/a	2	4	17	n/a	77	93	3	n/a	n/a	n/a	n/a	176.94	BF22ANS.jpg
149.33	0.514	Blank	Blank	79.122	n/a	2	4	17	n/a	77	n/a	3	n/a	n/a	n/a	n/a	177.438	n/a
149.86	0.497	angry	Picture	78.608	n/a	2	4	18	n/a	78	86	3	n/a	n/a	n/a	n/a	177.968	AF09ANS.jpg
150.358	0.514	Blank	Blank	78.094	n/a	2	4	18	n/a	78	n/a	3	n/a	n/a	n/a	n/a	178.465	n/a
150.888	0.497	angry	Picture	77.58	n/a	2	4	19	n/a	79	92	3	n/a	n/a	n/a	n/a	178.996	AF21ANS.jpg
151.386	0.514	Blank	Blank	77.066	n/a	2	4	19	n/a	79	n/a	3	n/a	n/a	n/a	n/a	179.493	n/a
151.916	0.497	angry	Picture	76.552	n/a	2	4	20	n/a	80	84	3	n/a	n/a	n/a	n/a	180.024	AF05ANS.jpg
152.413	0.514	Blank	Blank	76.038	n/a	2	4	20	n/a	80	n/a	3	n/a	n/a	n/a	n/a	180.521	n/a
152.944	10.014	ITI	Fixation+	66.008	n/a	2	n/a	n/a	n/a	n/a	n/a	n/a	n/a	n/a	n/a	n/a	181.052	n/a
162.974	0.497	neutral	Picture	65.494	n/a	2	5	1	n/a	81	4	1	n/a	n/a	n/a	n/a	191.082	AF05NES.jpg
163.472	0.514	Blank	Blank	64.98	n/a	2	5	1	n/a	81	n/a	1	n/a	n/a	n/a	n/a	191.579	n/a
164.002	0.497	neutral	Picture	64.466	n/a	2	5	2	n/a	82	14	1	n/a	n/a	n/a	n/a	192.11	AF23NES.jpg
164.5	0.514	Blank	Blank	63.952	n/a	2	5	2	n/a	82	n/a	1	n/a	n/a	n/a	n/a	192.607	n/a
165.03	0.497	neutral	Picture	63.438	n/a	2	5	3	n/a	83	19	1	n/a	n/a	n/a	n/a	193.138	AF31NES.jpg
165.527	0.514	Blank	Blank	62.924	n/a	2	5	3	n/a	83	n/a	1	n/a	n/a	n/a	n/a	193.635	n/a
166.058	0.497	neutral	Picture	62.41	n/a	2	5	4	n/a	84	8	1	n/a	n/a	n/a	n/a	194.166	AF14NES.jpg
166.555	0.514	Blank	Blank	61.896	n/a	2	5	4	n/a	84	n/a	1	n/a	n/a	n/a	n/a	194.663	n/a
167.086	0.497	neutral	Picture	61.382	n/a	2	5	5	n/a	85	25	1	n/a	n/a	n/a	n/a	195.194	BM06NES.jpg
167.583	0.514	Blank	Blank	60.868	n/a	2	5	5	n/a	85	n/a	1	n/a	n/a	n/a	n/a	195.691	n/a
168.114	0.497	neutral	Picture	60.355	n/a	2	5	6	n/a	86	9	1	n/a	n/a	n/a	n/a	196.221	AF17NES.jpg
168.611	0.514	Blank	Blank	59.841	n/a	2	5	6	n/a	86	n/a	1	n/a	n/a	n/a	n/a	196.719	n/a
169.142	0.497	neutral	Picture	59.327	n/a	2	5	7	n/a	87	2	1	n/a	n/a	n/a	n/a	197.249	AF03NES.jpg
169.639	0.514	Blank	Blank	58.813	n/a	2	5	7	n/a	87	n/a	1	n/a	n/a	n/a	n/a	197.747	n/a
170.169	0.497	neutral	Picture	58.299	n/a	2	5	8	n/a	88	17	1	n/a	n/a	n/a	n/a	198.277	BF28NES.jpg
170.667	0.514	Blank	Blank	57.785	n/a	2	5	8	n/a	88	n/a	1	n/a	n/a	n/a	n/a	198.775	n/a
171.197	0.497	neutral	Picture	57.271	n/a	2	5	9	n/a	89	6	1	n/a	n/a	n/a	n/a	199.305	AF09NES.jpg
171.695	0.514	Blank	Blank	56.757	n/a	2	5	9	n/a	89	n/a	1	n/a	n/a	n/a	n/a	199.803	n/a
172.225	0.497	neutral	Picture	56.243	n/a	2	5	10	n/a	90	12	1	n/a	n/a	n/a	n/a	200.333	AF21NES.jpg
172.723	0.514	Blank	Blank	55.729	n/a	2	5	10	n/a	90	n/a	1	n/a	n/a	n/a	n/a	200.83	n/a
173.253	0.497	neutral	Picture	55.215	n/a	2	5	11	n/a	91	24	1	n/a	n/a	n/a	n/a	201.361	BM05NES.jpg
173.75	0.514	Blank	Blank	54.701	n/a	2	5	11	n/a	91	n/a	1	n/a	n/a	n/a	n/a	201.858	n/a
174.281	0.497	neutral	Picture	54.187	n/a	2	5	12	n/a	92	34	1	n/a	n/a	n/a	n/a	202.389	AM22NES.jpg
174.778	0.514	Blank	Blank	53.673	n/a	2	5	12	n/a	92	n/a	1	n/a	n/a	n/a	n/a	202.886	n/a
175.309	0.497	neutral	Picture	53.159	n/a	2	5	13	n/a	93	23	1	n/a	n/a	n/a	n/a	203.417	AM04NES.jpg
175.806	0.514	Blank	Blank	52.645	n/a	2	5	13	n/a	93	n/a	1	n/a	n/a	n/a	n/a	203.914	n/a
176.337	0.497	neutral	Picture	52.131	n/a	2	5	14	n/a	94	15	1	n/a	n/a	n/a	n/a	204.445	AF25NES.jpg
176.834	0.514	Blank	Blank	51.618	n/a	2	5	14	n/a	94	n/a	1	n/a	n/a	n/a	n/a	204.942	n/a
177.365	0.497	neutral	Picture	51.104	n/a	2	5	15	n/a	95	37	1	n/a	n/a	n/a	n/a	205.472	BM25NES.jpg
177.862	0.514	Blank	Blank	50.59	n/a	2	5	15	n/a	95	n/a	1	n/a	n/a	n/a	n/a	205.97	n/a
178.393	0.497	neutral	Picture	50.076	n/a	2	5	16	n/a	96	32	1	n/a	n/a	n/a	n/a	206.5	AM14NES.jpg
178.89	0.514	Blank	Blank	49.562	n/a	2	5	16	n/a	96	n/a	1	n/a	n/a	n/a	n/a	206.998	n/a
179.42	0.497	neutral	Picture	49.048	n/a	2	5	17	n/a	97	3	1	n/a	n/a	n/a	n/a	207.528	BF04NES.jpg
179.918	0.514	Blank	Blank	48.534	n/a	2	5	17	n/a	97	n/a	1	n/a	n/a	n/a	n/a	208.026	n/a
180.448	0.497	neutral	Picture	48.02	n/a	2	5	18	n/a	98	16	1	n/a	n/a	n/a	n/a	208.556	AF26NES.jpg
180.946	0.514	Blank	Blank	47.506	n/a	2	5	18	n/a	98	n/a	1	n/a	n/a	n/a	n/a	209.054	n/a
181.476	0.497	neutral	Picture	46.992	n/a	2	5	19	n/a	99	27	1	n/a	n/a	n/a	n/a	209.584	BM08NES.jpg
181.974	0.514	Blank	Blank	46.478	n/a	2	5	19	n/a	99	n/a	1	n/a	n/a	n/a	n/a	210.081	n/a
182.504	0.497	neutral	Picture	45.964	n/a	2	5	20	n/a	100	28	1	n/a	n/a	n/a	n/a	210.612	AM09NES.jpg
183.001	0.514	Blank	Blank	45.45	n/a	2	5	20	n/a	100	n/a	1	n/a	n/a	n/a	n/a	211.109	n/a
183.532	10.014	ITI	Fixation+	35.42	n/a	2	n/a	n/a	n/a	n/a	n/a	n/a	n/a	n/a	n/a	n/a	211.64	n/a
193.562	0.497	angry	Picture	34.906	n/a	2	6	1	n/a	101	81	3	n/a	n/a	n/a	n/a	221.67	AF01ANS.jpg
194.06	0.514	Blank	Blank	34.392	n/a	2	6	1	n/a	101	n/a	3	n/a	n/a	n/a	n/a	222.167	n/a
194.59	0.497	angry	Picture	33.878	n/a	2	6	2	n/a	102	120	3	n/a	n/a	n/a	n/a	222.698	AM35ANS.jpg
195.087	0.514	Blank	Blank	33.364	n/a	2	6	2	n/a	102	n/a	3	n/a	n/a	n/a	n/a	223.195	n/a
195.618	0.497	angry	Picture	32.85	n/a	2	6	3	n/a	103	114	3	n/a	n/a	n/a	n/a	223.726	AM22ANS.jpg
196.115	0.514	Blank	Blank	32.336	n/a	2	6	3	n/a	103	n/a	3	n/a	n/a	n/a	n/a	224.223	n/a
196.646	0.497	angry	Picture	31.822	n/a	2	6	4	n/a	104	109	3	n/a	n/a	n/a	n/a	224.754	AM10ANS.jpg
197.143	0.514	Blank	Blank	31.308	n/a	2	6	4	n/a	104	n/a	3	n/a	n/a	n/a	n/a	225.251	n/a
197.674	0.497	angry	Picture	30.795	n/a	2	6	5	n/a	105	96	3	n/a	n/a	n/a	n/a	225.781	AF26ANS.jpg
198.171	0.514	Blank	Blank	30.281	n/a	2	6	5	n/a	105	n/a	3	n/a	n/a	n/a	n/a	226.279	n/a
198.702	0.497	angry	Picture	29.767	n/a	2	6	6	n/a	106	82	3	n/a	n/a	n/a	n/a	226.809	AF03ANS.jpg
199.199	0.514	Blank	Blank	29.253	n/a	2	6	6	n/a	106	n/a	3	n/a	n/a	n/a	n/a	227.307	n/a
199.729	0.497	angry	Picture	28.739	n/a	2	6	7	n/a	107	97	3	n/a	n/a	n/a	n/a	227.837	BF28ANS.jpg
200.227	0.514	Blank	Blank	28.225	n/a	2	6	7	n/a	107	n/a	3	n/a	n/a	n/a	n/a	228.335	n/a
200.757	0.497	angry	Picture	27.711	n/a	2	6	8	n/a	108	115	3	n/a	n/a	n/a	n/a	228.865	AM23ANS.jpg
201.255	0.514	Blank	Blank	27.197	n/a	2	6	8	n/a	108	n/a	3	n/a	n/a	n/a	n/a	229.363	n/a
201.785	0.497	angry	Picture	26.683	n/a	2	6	9	n/a	109	91	3	n/a	n/a	n/a	n/a	229.893	AF20ANS.jpg
202.283	0.514	Blank	Blank	26.169	n/a	2	6	9	n/a	109	n/a	3	n/a	n/a	n/a	n/a	230.39	n/a
202.813	0.497	angry	Picture	25.655	n/a	2	6	10	n/a	110	87	3	n/a	n/a	n/a	n/a	230.921	BF11ANS.jpg
203.31	0.514	Blank	Blank	25.141	n/a	2	6	10	n/a	110	n/a	3	n/a	n/a	n/a	n/a	231.418	n/a
203.841	0.497	angry	Picture	24.627	n/a	2	6	11	n/a	111	85	3	n/a	n/a	n/a	n/a	231.949	BF07ANS.jpg
204.338	0.514	Blank	Blank	24.113	n/a	2	6	11	n/a	111	n/a	3	n/a	n/a	n/a	n/a	232.446	n/a
204.869	0.497	angry	Picture	23.599	n/a	2	6	12	n/a	112	110	3	n/a	n/a	n/a	n/a	232.977	AM11ANS.jpg
205.366	0.514	Blank	Blank	23.085	n/a	2	6	12	n/a	112	n/a	3	n/a	n/a	n/a	n/a	233.474	n/a
205.897	0.497	angry	Picture	22.571	n/a	2	6	13	n/a	113	111	3	n/a	n/a	n/a	n/a	234.005	BM12ANS.jpg
206.394	0.514	Blank	Blank	22.057	n/a	2	6	13	n/a	113	n/a	3	n/a	n/a	n/a	n/a	234.502	n/a
206.925	0.497	angry	Picture	21.544	n/a	2	6	14	n/a	114	103	3	n/a	n/a	n/a	n/a	235.032	AM04ANS.jpg
207.422	0.514	Blank	Blank	21.03	n/a	2	6	14	n/a	114	n/a	3	n/a	n/a	n/a	n/a	235.53	n/a
207.953	0.497	angry	Picture	20.516	n/a	2	6	15	n/a	115	101	3	n/a	n/a	n/a	n/a	236.06	AM01ANS.jpg
208.45	0.514	Blank	Blank	20.002	n/a	2	6	15	n/a	115	n/a	3	n/a	n/a	n/a	n/a	236.558	n/a
208.98	0.497	angry	Picture	19.488	n/a	2	6	16	n/a	116	104	3	n/a	n/a	n/a	n/a	237.088	BM05ANS.jpg
209.478	0.514	Blank	Blank	18.974	n/a	2	6	16	n/a	116	n/a	3	n/a	n/a	n/a	n/a	237.586	n/a
210.008	0.497	angry	Picture	18.46	n/a	2	6	17	n/a	117	107	3	n/a	n/a	n/a	n/a	238.116	BM08ANS.jpg
210.506	0.514	Blank	Blank	17.946	n/a	2	6	17	n/a	117	n/a	3	n/a	n/a	n/a	n/a	238.613	n/a
211.036	0.497	angry	Picture	17.432	n/a	2	6	18	n/a	118	98	3	n/a	n/a	n/a	n/a	239.144	BF29ANS.jpg
211.534	0.514	Blank	Blank	16.918	n/a	2	6	18	n/a	118	n/a	3	n/a	n/a	n/a	n/a	239.641	n/a
212.064	0.497	angry	Picture	16.404	n/a	2	6	19	n/a	119	99	3	n/a	n/a	n/a	n/a	240.172	AF31ANS.jpg
212.561	0.514	Blank	Blank	15.89	n/a	2	6	19	n/a	119	n/a	3	n/a	n/a	n/a	n/a	240.669	n/a
213.092	0.497	angry	Picture	15.376	n/a	2	6	20	n/a	120	108	3	n/a	n/a	n/a	n/a	241.2	AM09ANS.jpg
213.589	0.514	Blank	Blank	14.862	n/a	2	6	20	n/a	120	n/a	3	n/a	n/a	n/a	n/a	241.697	n/a
214.12	10.014	ITI	Fixation+	4.832	n/a	2	n/a	n/a	n/a	n/a	n/a	n/a	n/a	n/a	n/a	n/a	242.228	n/a
228.966	n/a	ConfirmRating	Rate	n/a	4.825	2	n/a	n/a	0	n/a	n/a	n/a	2	Angry	50	50	257.073	n/a
232.775	n/a	ConfirmRating	Rate	n/a	3.797	2	n/a	n/a	1	n/a	n/a	n/a	3	Angry	14	46	260.883	n/a
232.804	15.004	Rest	Picture	n/a	n/a	n/a	n/a	n/a	n/a	n/a	n/a	n/a	0	n/a	0	0	260.912	n/a
247.825	10.014	ITI	Fixation+	94.102	n/a	3	n/a	n/a	n/a	n/a	n/a	n/a	n/a	n/a	n/a	n/a	275.932	n/a
257.855	0.497	happy	Picture	93.588	n/a	3	7	1	n/a	1	46	2	n/a	n/a	n/a	n/a	285.963	AF09HAS.jpg
258.352	0.514	Blank	Blank	93.074	n/a	3	7	1	n/a	1	n/a	2	n/a	n/a	n/a	n/a	286.46	n/a
258.883	0.497	happy	Picture	92.56	n/a	3	7	2	n/a	2	69	2	n/a	n/a	n/a	n/a	286.99	AM10HAS.jpg
259.38	0.514	Blank	Blank	92.046	n/a	3	7	2	n/a	2	n/a	2	n/a	n/a	n/a	n/a	287.488	n/a
259.911	0.497	happy	Picture	91.532	n/a	3	7	3	n/a	3	71	2	n/a	n/a	n/a	n/a	288.018	BM12HAS.jpg
260.408	0.514	Blank	Blank	91.018	n/a	3	7	3	n/a	3	n/a	2	n/a	n/a	n/a	n/a	288.516	n/a
260.938	0.497	happy	Picture	90.504	n/a	3	7	4	n/a	4	51	2	n/a	n/a	n/a	n/a	289.046	AF20HAS.jpg
261.436	0.514	Blank	Blank	89.99	n/a	3	7	4	n/a	4	n/a	2	n/a	n/a	n/a	n/a	289.544	n/a
261.966	0.497	happy	Picture	89.476	n/a	3	7	5	n/a	5	67	2	n/a	n/a	n/a	n/a	290.074	BM08HAS.jpg
262.464	0.514	Blank	Blank	88.962	n/a	3	7	5	n/a	5	n/a	2	n/a	n/a	n/a	n/a	290.572	n/a
262.994	0.497	happy	Picture	88.448	n/a	3	7	6	n/a	6	60	2	n/a	n/a	n/a	n/a	291.102	AF32HAS.jpg
263.492	0.514	Blank	Blank	87.934	n/a	3	7	6	n/a	6	n/a	2	n/a	n/a	n/a	n/a	291.599	n/a
264.022	0.497	happy	Picture	87.42	n/a	3	7	7	n/a	7	42	2	n/a	n/a	n/a	n/a	292.13	AF03HAS.jpg
264.519	0.514	Blank	Blank	86.906	n/a	3	7	7	n/a	7	n/a	2	n/a	n/a	n/a	n/a	292.627	n/a
265.05	0.497	happy	Picture	86.392	n/a	3	7	8	n/a	8	55	2	n/a	n/a	n/a	n/a	293.158	AF25HAS.jpg
265.547	0.514	Blank	Blank	85.878	n/a	3	7	8	n/a	8	n/a	2	n/a	n/a	n/a	n/a	293.655	n/a
266.078	0.497	happy	Picture	85.364	n/a	3	7	9	n/a	9	72	2	n/a	n/a	n/a	n/a	294.186	AM14HAS.jpg
266.575	0.514	Blank	Blank	84.851	n/a	3	7	9	n/a	9	n/a	2	n/a	n/a	n/a	n/a	294.683	n/a
267.106	0.497	happy	Picture	84.337	n/a	3	7	10	n/a	10	63	2	n/a	n/a	n/a	n/a	295.214	AM04HAS.jpg
267.603	0.514	Blank	Blank	83.823	n/a	3	7	10	n/a	10	n/a	2	n/a	n/a	n/a	n/a	295.711	n/a
268.134	0.497	happy	Picture	83.309	n/a	3	7	11	n/a	11	58	2	n/a	n/a	n/a	n/a	296.241	BF29HAS.jpg
268.631	0.514	Blank	Blank	82.795	n/a	3	7	11	n/a	11	n/a	2	n/a	n/a	n/a	n/a	296.739	n/a
269.161	0.497	happy	Picture	82.281	n/a	3	7	12	n/a	12	48	2	n/a	n/a	n/a	n/a	297.269	AF14HAS.jpg
269.659	0.514	Blank	Blank	81.767	n/a	3	7	12	n/a	12	n/a	2	n/a	n/a	n/a	n/a	297.767	n/a
270.189	0.497	happy	Picture	81.253	n/a	3	7	13	n/a	13	66	2	n/a	n/a	n/a	n/a	298.297	BM07HAS.jpg
270.687	0.514	Blank	Blank	80.739	n/a	3	7	13	n/a	13	n/a	2	n/a	n/a	n/a	n/a	298.795	n/a
271.217	0.497	happy	Picture	80.225	n/a	3	7	14	n/a	14	70	2	n/a	n/a	n/a	n/a	299.325	BM11HAS.jpg
271.715	0.514	Blank	Blank	79.711	n/a	3	7	14	n/a	14	n/a	2	n/a	n/a	n/a	n/a	299.822	n/a
272.245	0.497	happy	Picture	79.197	n/a	3	7	15	n/a	15	43	2	n/a	n/a	n/a	n/a	300.353	BF04HAS.jpg
272.743	0.514	Blank	Blank	78.683	n/a	3	7	15	n/a	15	n/a	2	n/a	n/a	n/a	n/a	300.85	n/a
273.273	0.497	happy	Picture	78.169	n/a	3	7	16	n/a	16	49	2	n/a	n/a	n/a	n/a	301.381	AF17HAS.jpg
273.77	0.514	Blank	Blank	77.655	n/a	3	7	16	n/a	16	n/a	2	n/a	n/a	n/a	n/a	301.878	n/a
274.301	0.497	happy	Picture	77.141	n/a	3	7	17	n/a	17	75	2	n/a	n/a	n/a	n/a	302.409	AM23HAS.jpg
274.798	0.514	Blank	Blank	76.628	n/a	3	7	17	n/a	17	n/a	2	n/a	n/a	n/a	n/a	302.906	n/a
275.329	0.497	happy	Picture	76.113	n/a	3	7	18	n/a	18	80	2	n/a	n/a	n/a	n/a	303.437	BM35HAS.jpg
275.826	0.514	Blank	Blank	75.6	n/a	3	7	18	n/a	18	n/a	2	n/a	n/a	n/a	n/a	303.934	n/a
276.357	0.497	happy	Picture	75.086	n/a	3	7	19	n/a	19	76	2	n/a	n/a	n/a	n/a	304.464	BM24HAS.jpg
276.854	0.514	Blank	Blank	74.572	n/a	3	7	19	n/a	19	n/a	2	n/a	n/a	n/a	n/a	304.962	n/a
277.385	0.497	happy	Picture	74.058	n/a	3	7	20	n/a	20	74	2	n/a	n/a	n/a	n/a	305.492	AM22HAS.jpg
277.882	0.514	Blank	Blank	73.544	n/a	3	7	20	n/a	20	n/a	2	n/a	n/a	n/a	n/a	305.99	n/a
278.413	10.014	ITI	Fixation+	63.514	n/a	3	n/a	n/a	n/a	n/a	n/a	n/a	n/a	n/a	n/a	n/a	306.52	n/a
288.443	0.497	neutral	Picture	63.0	n/a	3	8	1	n/a	21	33	1	n/a	n/a	n/a	n/a	316.55	AM21NES.jpg
288.94	0.514	Blank	Blank	62.486	n/a	3	8	1	n/a	21	n/a	1	n/a	n/a	n/a	n/a	317.048	n/a
289.471	0.497	neutral	Picture	61.972	n/a	3	8	2	n/a	22	39	1	n/a	n/a	n/a	n/a	317.578	AM28NES.jpg
289.968	0.514	Blank	Blank	61.458	n/a	3	8	2	n/a	22	n/a	1	n/a	n/a	n/a	n/a	318.076	n/a
290.498	0.497	neutral	Picture	60.944	n/a	3	8	3	n/a	23	25	1	n/a	n/a	n/a	n/a	318.606	BM06NES.jpg
290.996	0.514	Blank	Blank	60.43	n/a	3	8	3	n/a	23	n/a	1	n/a	n/a	n/a	n/a	319.104	n/a
291.526	0.497	neutral	Picture	59.916	n/a	3	8	4	n/a	24	5	1	n/a	n/a	n/a	n/a	319.634	BF07NES.jpg
292.024	0.514	Blank	Blank	59.402	n/a	3	8	4	n/a	24	n/a	1	n/a	n/a	n/a	n/a	320.132	n/a
292.554	0.497	neutral	Picture	58.888	n/a	3	8	5	n/a	25	10	1	n/a	n/a	n/a	n/a	320.662	AF18NES.jpg
293.052	0.514	Blank	Blank	58.374	n/a	3	8	5	n/a	25	n/a	1	n/a	n/a	n/a	n/a	321.159	n/a
293.582	0.497	neutral	Picture	57.86	n/a	3	8	6	n/a	26	34	1	n/a	n/a	n/a	n/a	321.69	AM22NES.jpg
294.079	0.514	Blank	Blank	57.346	n/a	3	8	6	n/a	26	n/a	1	n/a	n/a	n/a	n/a	322.187	n/a
294.61	0.497	neutral	Picture	56.832	n/a	3	8	7	n/a	27	36	1	n/a	n/a	n/a	n/a	322.718	BM24NES.jpg
295.107	0.514	Blank	Blank	56.318	n/a	3	8	7	n/a	27	n/a	1	n/a	n/a	n/a	n/a	323.215	n/a
295.638	0.497	neutral	Picture	55.805	n/a	3	8	8	n/a	28	14	1	n/a	n/a	n/a	n/a	323.746	AF23NES.jpg
296.135	0.514	Blank	Blank	55.291	n/a	3	8	8	n/a	28	n/a	1	n/a	n/a	n/a	n/a	324.243	n/a
296.666	0.497	neutral	Picture	54.777	n/a	3	8	9	n/a	29	9	1	n/a	n/a	n/a	n/a	324.774	AF17NES.jpg
297.163	0.514	Blank	Blank	54.263	n/a	3	8	9	n/a	29	n/a	1	n/a	n/a	n/a	n/a	325.271	n/a
297.694	0.497	neutral	Picture	53.749	n/a	3	8	10	n/a	30	19	1	n/a	n/a	n/a	n/a	325.801	AF31NES.jpg
298.191	0.514	Blank	Blank	53.235	n/a	3	8	10	n/a	30	n/a	1	n/a	n/a	n/a	n/a	326.299	n/a
298.721	0.497	neutral	Picture	52.721	n/a	3	8	11	n/a	31	15	1	n/a	n/a	n/a	n/a	326.829	AF25NES.jpg
299.219	0.514	Blank	Blank	52.207	n/a	3	8	11	n/a	31	n/a	1	n/a	n/a	n/a	n/a	327.327	n/a
299.749	0.497	neutral	Picture	51.693	n/a	3	8	12	n/a	32	22	1	n/a	n/a	n/a	n/a	327.857	BM03NES.jpg
300.247	0.514	Blank	Blank	51.179	n/a	3	8	12	n/a	32	n/a	1	n/a	n/a	n/a	n/a	328.355	n/a
300.777	0.497	neutral	Picture	50.665	n/a	3	8	13	n/a	33	11	1	n/a	n/a	n/a	n/a	328.885	AF20NES.jpg
301.275	0.514	Blank	Blank	50.151	n/a	3	8	13	n/a	33	n/a	1	n/a	n/a	n/a	n/a	329.382	n/a
301.805	0.497	neutral	Picture	49.637	n/a	3	8	14	n/a	34	4	1	n/a	n/a	n/a	n/a	329.913	AF05NES.jpg
302.303	0.514	Blank	Blank	49.123	n/a	3	8	14	n/a	34	n/a	1	n/a	n/a	n/a	n/a	330.41	n/a
302.833	0.497	neutral	Picture	48.609	n/a	3	8	15	n/a	35	17	1	n/a	n/a	n/a	n/a	330.941	BF28NES.jpg
303.33	0.514	Blank	Blank	48.095	n/a	3	8	15	n/a	35	n/a	1	n/a	n/a	n/a	n/a	331.438	n/a
303.861	0.497	neutral	Picture	47.581	n/a	3	8	16	n/a	36	13	1	n/a	n/a	n/a	n/a	331.969	BF22NES.jpg
304.358	0.514	Blank	Blank	47.067	n/a	3	8	16	n/a	36	n/a	1	n/a	n/a	n/a	n/a	332.466	n/a
304.889	0.497	neutral	Picture	46.553	n/a	3	8	17	n/a	37	12	1	n/a	n/a	n/a	n/a	332.997	AF21NES.jpg
305.386	0.514	Blank	Blank	46.04	n/a	3	8	17	n/a	37	n/a	1	n/a	n/a	n/a	n/a	333.494	n/a
305.917	0.497	neutral	Picture	45.526	n/a	3	8	18	n/a	38	24	1	n/a	n/a	n/a	n/a	334.024	BM05NES.jpg
306.414	0.514	Blank	Blank	45.012	n/a	3	8	18	n/a	38	n/a	1	n/a	n/a	n/a	n/a	334.522	n/a
306.945	0.497	neutral	Picture	44.498	n/a	3	8	19	n/a	39	29	1	n/a	n/a	n/a	n/a	335.052	AM10NES.jpg
307.442	0.514	Blank	Blank	43.984	n/a	3	8	19	n/a	39	n/a	1	n/a	n/a	n/a	n/a	335.55	n/a
307.973	0.497	neutral	Picture	43.47	n/a	3	8	20	n/a	40	23	1	n/a	n/a	n/a	n/a	336.08	AM04NES.jpg
308.47	0.514	Blank	Blank	42.956	n/a	3	8	20	n/a	40	n/a	1	n/a	n/a	n/a	n/a	336.578	n/a
309.0	10.014	ITI	Fixation+	32.926	n/a	3	n/a	n/a	n/a	n/a	n/a	n/a	n/a	n/a	n/a	n/a	337.108	n/a
319.031	0.497	happy	Picture	32.412	n/a	3	9	1	n/a	41	62	2	n/a	n/a	n/a	n/a	347.138	BM03HAS.jpg
319.528	0.514	Blank	Blank	31.898	n/a	3	9	1	n/a	41	n/a	2	n/a	n/a	n/a	n/a	347.636	n/a
320.058	0.497	happy	Picture	31.384	n/a	3	9	2	n/a	42	52	2	n/a	n/a	n/a	n/a	348.166	AF21HAS.jpg
320.556	0.514	Blank	Blank	30.87	n/a	3	9	2	n/a	42	n/a	2	n/a	n/a	n/a	n/a	348.664	n/a
321.086	0.497	happy	Picture	30.356	n/a	3	9	3	n/a	43	44	2	n/a	n/a	n/a	n/a	349.194	AF05HAS.jpg
321.584	0.514	Blank	Blank	29.842	n/a	3	9	3	n/a	43	n/a	2	n/a	n/a	n/a	n/a	349.692	n/a
322.114	0.497	happy	Picture	29.328	n/a	3	9	4	n/a	44	53	2	n/a	n/a	n/a	n/a	350.222	BF22HAS.jpg
322.612	0.514	Blank	Blank	28.814	n/a	3	9	4	n/a	44	n/a	2	n/a	n/a	n/a	n/a	350.719	n/a
323.142	0.497	happy	Picture	28.3	n/a	3	9	5	n/a	45	54	2	n/a	n/a	n/a	n/a	351.25	AF23HAS.jpg
323.639	0.514	Blank	Blank	27.786	n/a	3	9	5	n/a	45	n/a	2	n/a	n/a	n/a	n/a	351.747	n/a
324.17	0.497	happy	Picture	27.272	n/a	3	9	6	n/a	46	68	2	n/a	n/a	n/a	n/a	352.278	AM09HAS.jpg
324.667	0.514	Blank	Blank	26.758	n/a	3	9	6	n/a	46	n/a	2	n/a	n/a	n/a	n/a	352.775	n/a
325.198	0.497	happy	Picture	26.245	n/a	3	9	7	n/a	47	64	2	n/a	n/a	n/a	n/a	353.306	BM05HAS.jpg
325.695	0.514	Blank	Blank	25.731	n/a	3	9	7	n/a	47	n/a	2	n/a	n/a	n/a	n/a	353.803	n/a
326.226	0.497	happy	Picture	25.217	n/a	3	9	8	n/a	48	59	2	n/a	n/a	n/a	n/a	354.334	AF31HAS.jpg
326.723	0.514	Blank	Blank	24.703	n/a	3	9	8	n/a	48	n/a	2	n/a	n/a	n/a	n/a	354.831	n/a
327.254	0.497	happy	Picture	24.189	n/a	3	9	9	n/a	49	41	2	n/a	n/a	n/a	n/a	355.361	AF01HAS.jpg
327.751	0.514	Blank	Blank	23.675	n/a	3	9	9	n/a	49	n/a	2	n/a	n/a	n/a	n/a	355.859	n/a
328.281	0.497	happy	Picture	23.161	n/a	3	9	10	n/a	50	73	2	n/a	n/a	n/a	n/a	356.389	AM21HAS.jpg
328.779	0.514	Blank	Blank	22.647	n/a	3	9	10	n/a	50	n/a	2	n/a	n/a	n/a	n/a	356.887	n/a
329.309	0.497	happy	Picture	22.133	n/a	3	9	11	n/a	51	65	2	n/a	n/a	n/a	n/a	357.417	BM06HAS.jpg
329.807	0.514	Blank	Blank	21.619	n/a	3	9	11	n/a	51	n/a	2	n/a	n/a	n/a	n/a	357.915	n/a
330.337	0.497	happy	Picture	21.105	n/a	3	9	12	n/a	52	56	2	n/a	n/a	n/a	n/a	358.445	AF26HAS.jpg
330.835	0.514	Blank	Blank	20.591	n/a	3	9	12	n/a	52	n/a	2	n/a	n/a	n/a	n/a	358.942	n/a
331.365	0.497	happy	Picture	20.077	n/a	3	9	13	n/a	53	45	2	n/a	n/a	n/a	n/a	359.473	BF07HAS.jpg
331.863	0.514	Blank	Blank	19.563	n/a	3	9	13	n/a	53	n/a	2	n/a	n/a	n/a	n/a	359.97	n/a
332.393	0.497	happy	Picture	19.049	n/a	3	9	14	n/a	54	78	2	n/a	n/a	n/a	n/a	360.501	BM26HAS.jpg
332.89	0.514	Blank	Blank	18.535	n/a	3	9	14	n/a	54	n/a	2	n/a	n/a	n/a	n/a	360.998	n/a
333.421	0.497	happy	Picture	18.021	n/a	3	9	15	n/a	55	50	2	n/a	n/a	n/a	n/a	361.529	AF18HAS.jpg
333.918	0.514	Blank	Blank	17.507	n/a	3	9	15	n/a	55	n/a	2	n/a	n/a	n/a	n/a	362.026	n/a
334.449	0.497	happy	Picture	16.994	n/a	3	9	16	n/a	56	47	2	n/a	n/a	n/a	n/a	362.557	BF11HAS.jpg
334.946	0.514	Blank	Blank	16.48	n/a	3	9	16	n/a	56	n/a	2	n/a	n/a	n/a	n/a	363.054	n/a
335.477	0.497	happy	Picture	15.966	n/a	3	9	17	n/a	57	77	2	n/a	n/a	n/a	n/a	363.584	BM25HAS.jpg
335.974	0.514	Blank	Blank	15.452	n/a	3	9	17	n/a	57	n/a	2	n/a	n/a	n/a	n/a	364.082	n/a
336.505	0.497	happy	Picture	14.938	n/a	3	9	18	n/a	58	57	2	n/a	n/a	n/a	n/a	364.612	BF28HAS.jpg
337.002	0.514	Blank	Blank	14.424	n/a	3	9	18	n/a	58	n/a	2	n/a	n/a	n/a	n/a	365.11	n/a
337.533	0.497	happy	Picture	13.91	n/a	3	9	19	n/a	59	61	2	n/a	n/a	n/a	n/a	365.64	AM01HAS.jpg
338.03	0.514	Blank	Blank	13.396	n/a	3	9	19	n/a	59	n/a	2	n/a	n/a	n/a	n/a	366.138	n/a
338.56	0.497	happy	Picture	12.882	n/a	3	9	20	n/a	60	79	2	n/a	n/a	n/a	n/a	366.668	BM28HAS.jpg
339.058	0.514	Blank	Blank	12.368	n/a	3	9	20	n/a	60	n/a	2	n/a	n/a	n/a	n/a	367.166	n/a
339.588	10.014	ITI	Fixation+	2.338	n/a	3	n/a	n/a	n/a	n/a	n/a	n/a	n/a	n/a	n/a	n/a	367.696	n/a
351.94	n/a	ConfirmRating	Rate	n/a	2.337	3	n/a	n/a	0	n/a	n/a	n/a	2	Happy	42	49	380.048	n/a
355.904	n/a	ConfirmRating	Rate	n/a	3.946	3	n/a	n/a	1	n/a	n/a	n/a	3	Happy	10	46	384.011	n/a
355.935	10.014	ITI	Fixation+	95.668	n/a	4	n/a	n/a	n/a	n/a	n/a	n/a	n/a	n/a	n/a	n/a	384.043	n/a
365.965	0.497	angry	Picture	95.154	n/a	4	10	1	n/a	61	119	3	n/a	n/a	n/a	n/a	394.073	BM28ANS.jpg
366.462	0.514	Blank	Blank	94.64	n/a	4	10	1	n/a	61	n/a	3	n/a	n/a	n/a	n/a	394.57	n/a
366.993	0.497	angry	Picture	94.126	n/a	4	10	2	n/a	62	100	3	n/a	n/a	n/a	n/a	395.101	AF32ANS.jpg
367.49	0.514	Blank	Blank	93.612	n/a	4	10	2	n/a	62	n/a	3	n/a	n/a	n/a	n/a	395.598	n/a
368.021	0.497	angry	Picture	93.098	n/a	4	10	3	n/a	63	118	3	n/a	n/a	n/a	n/a	396.129	BM26ANS.jpg
368.518	0.514	Blank	Blank	92.584	n/a	4	10	3	n/a	63	n/a	3	n/a	n/a	n/a	n/a	396.626	n/a
369.049	0.497	angry	Picture	92.07	n/a	4	10	4	n/a	64	89	3	n/a	n/a	n/a	n/a	397.157	AF17ANS.jpg
369.546	0.514	Blank	Blank	91.556	n/a	4	10	4	n/a	64	n/a	3	n/a	n/a	n/a	n/a	397.654	n/a
370.077	0.497	angry	Picture	91.042	n/a	4	10	5	n/a	65	116	3	n/a	n/a	n/a	n/a	398.185	BM24ANS.jpg
370.574	0.514	Blank	Blank	90.528	n/a	4	10	5	n/a	65	n/a	3	n/a	n/a	n/a	n/a	398.682	n/a
371.105	0.497	angry	Picture	90.014	n/a	4	10	6	n/a	66	105	3	n/a	n/a	n/a	n/a	399.212	BM06ANS.jpg
371.602	0.514	Blank	Blank	89.5	n/a	4	10	6	n/a	66	n/a	3	n/a	n/a	n/a	n/a	399.71	n/a
372.132	0.497	angry	Picture	88.986	n/a	4	10	7	n/a	67	106	3	n/a	n/a	n/a	n/a	400.24	AM07ANS.jpg
372.63	0.514	Blank	Blank	88.472	n/a	4	10	7	n/a	67	n/a	3	n/a	n/a	n/a	n/a	400.738	n/a
373.16	0.497	angry	Picture	87.958	n/a	4	10	8	n/a	68	94	3	n/a	n/a	n/a	n/a	401.268	AF23ANS.jpg
373.658	0.514	Blank	Blank	87.444	n/a	4	10	8	n/a	68	n/a	3	n/a	n/a	n/a	n/a	401.765	n/a
374.188	0.497	angry	Picture	86.93	n/a	4	10	9	n/a	69	117	3	n/a	n/a	n/a	n/a	402.296	BM25ANS.jpg
374.686	0.514	Blank	Blank	86.416	n/a	4	10	9	n/a	69	n/a	3	n/a	n/a	n/a	n/a	402.793	n/a
375.216	0.497	angry	Picture	85.903	n/a	4	10	10	n/a	70	90	3	n/a	n/a	n/a	n/a	403.324	AF18ANS.jpg
375.714	0.514	Blank	Blank	85.389	n/a	4	10	10	n/a	70	n/a	3	n/a	n/a	n/a	n/a	403.821	n/a
376.244	0.497	angry	Picture	84.875	n/a	4	10	11	n/a	71	83	3	n/a	n/a	n/a	n/a	404.352	BF04ANS.jpg
376.741	0.514	Blank	Blank	84.361	n/a	4	10	11	n/a	71	n/a	3	n/a	n/a	n/a	n/a	404.849	n/a
377.272	0.497	angry	Picture	83.847	n/a	4	10	12	n/a	72	112	3	n/a	n/a	n/a	n/a	405.38	AM14ANS.jpg
377.769	0.514	Blank	Blank	83.333	n/a	4	10	12	n/a	72	n/a	3	n/a	n/a	n/a	n/a	405.877	n/a
378.3	0.497	angry	Picture	82.819	n/a	4	10	13	n/a	73	102	3	n/a	n/a	n/a	n/a	406.408	BM03ANS.jpg
378.797	0.514	Blank	Blank	82.305	n/a	4	10	13	n/a	73	n/a	3	n/a	n/a	n/a	n/a	406.905	n/a
379.328	0.497	angry	Picture	81.791	n/a	4	10	14	n/a	74	95	3	n/a	n/a	n/a	n/a	407.435	AF25ANS.jpg
379.825	0.514	Blank	Blank	81.277	n/a	4	10	14	n/a	74	n/a	3	n/a	n/a	n/a	n/a	407.933	n/a
380.356	0.497	angry	Picture	80.763	n/a	4	10	15	n/a	75	113	3	n/a	n/a	n/a	n/a	408.463	AM21ANS.jpg
380.853	0.514	Blank	Blank	80.249	n/a	4	10	15	n/a	75	n/a	3	n/a	n/a	n/a	n/a	408.961	n/a
381.384	0.497	angry	Picture	79.735	n/a	4	10	16	n/a	76	88	3	n/a	n/a	n/a	n/a	409.491	AF14ANS.jpg
381.881	0.514	Blank	Blank	79.221	n/a	4	10	16	n/a	76	n/a	3	n/a	n/a	n/a	n/a	409.989	n/a
382.411	0.497	angry	Picture	78.707	n/a	4	10	17	n/a	77	93	3	n/a	n/a	n/a	n/a	410.519	BF22ANS.jpg
382.909	0.514	Blank	Blank	78.193	n/a	4	10	17	n/a	77	n/a	3	n/a	n/a	n/a	n/a	411.017	n/a
383.439	0.497	angry	Picture	77.679	n/a	4	10	18	n/a	78	86	3	n/a	n/a	n/a	n/a	411.547	AF09ANS.jpg
383.937	0.514	Blank	Blank	77.166	n/a	4	10	18	n/a	78	n/a	3	n/a	n/a	n/a	n/a	412.044	n/a
384.467	0.497	angry	Picture	76.652	n/a	4	10	19	n/a	79	92	3	n/a	n/a	n/a	n/a	412.575	AF21ANS.jpg
384.964	0.514	Blank	Blank	76.138	n/a	4	10	19	n/a	79	n/a	3	n/a	n/a	n/a	n/a	413.072	n/a
385.495	0.497	angry	Picture	75.624	n/a	4	10	20	n/a	80	84	3	n/a	n/a	n/a	n/a	413.603	AF05ANS.jpg
385.992	0.514	Blank	Blank	75.11	n/a	4	10	20	n/a	80	n/a	3	n/a	n/a	n/a	n/a	414.1	n/a
386.523	10.014	ITI	Fixation+	65.08	n/a	4	n/a	n/a	n/a	n/a	n/a	n/a	n/a	n/a	n/a	n/a	414.631	n/a
396.553	0.497	neutral	Picture	64.566	n/a	4	11	1	n/a	81	4	1	n/a	n/a	n/a	n/a	424.661	AF05NES.jpg
397.05	0.514	Blank	Blank	64.052	n/a	4	11	1	n/a	81	n/a	1	n/a	n/a	n/a	n/a	425.158	n/a
397.581	0.497	neutral	Picture	63.538	n/a	4	11	2	n/a	82	14	1	n/a	n/a	n/a	n/a	425.689	AF23NES.jpg
398.078	0.514	Blank	Blank	63.024	n/a	4	11	2	n/a	82	n/a	1	n/a	n/a	n/a	n/a	426.186	n/a
398.609	0.497	neutral	Picture	62.51	n/a	4	11	3	n/a	83	19	1	n/a	n/a	n/a	n/a	426.717	AF31NES.jpg
399.106	0.514	Blank	Blank	61.996	n/a	4	11	3	n/a	83	n/a	1	n/a	n/a	n/a	n/a	427.214	n/a
399.637	0.497	neutral	Picture	61.482	n/a	4	11	4	n/a	84	8	1	n/a	n/a	n/a	n/a	427.745	AF14NES.jpg
400.134	0.514	Blank	Blank	60.968	n/a	4	11	4	n/a	84	n/a	1	n/a	n/a	n/a	n/a	428.242	n/a
400.665	0.497	neutral	Picture	60.454	n/a	4	11	5	n/a	85	25	1	n/a	n/a	n/a	n/a	428.772	BM06NES.jpg
401.162	0.514	Blank	Blank	59.94	n/a	4	11	5	n/a	85	n/a	1	n/a	n/a	n/a	n/a	429.27	n/a
401.692	0.497	neutral	Picture	59.426	n/a	4	11	6	n/a	86	9	1	n/a	n/a	n/a	n/a	429.8	AF17NES.jpg
402.19	0.514	Blank	Blank	58.912	n/a	4	11	6	n/a	86	n/a	1	n/a	n/a	n/a	n/a	430.298	n/a
402.72	0.497	neutral	Picture	58.398	n/a	4	11	7	n/a	87	2	1	n/a	n/a	n/a	n/a	430.828	AF03NES.jpg
403.218	0.514	Blank	Blank	57.884	n/a	4	11	7	n/a	87	n/a	1	n/a	n/a	n/a	n/a	431.326	n/a
403.748	0.497	neutral	Picture	57.37	n/a	4	11	8	n/a	88	17	1	n/a	n/a	n/a	n/a	431.856	BF28NES.jpg
404.246	0.514	Blank	Blank	56.856	n/a	4	11	8	n/a	88	n/a	1	n/a	n/a	n/a	n/a	432.353	n/a
404.776	0.497	neutral	Picture	56.343	n/a	4	11	9	n/a	89	6	1	n/a	n/a	n/a	n/a	432.884	AF09NES.jpg
405.274	0.514	Blank	Blank	55.829	n/a	4	11	9	n/a	89	n/a	1	n/a	n/a	n/a	n/a	433.381	n/a
405.804	0.497	neutral	Picture	55.315	n/a	4	11	10	n/a	90	12	1	n/a	n/a	n/a	n/a	433.912	AF21NES.jpg
406.301	0.514	Blank	Blank	54.801	n/a	4	11	10	n/a	90	n/a	1	n/a	n/a	n/a	n/a	434.409	n/a
406.832	0.497	neutral	Picture	54.287	n/a	4	11	11	n/a	91	24	1	n/a	n/a	n/a	n/a	434.94	BM05NES.jpg
407.329	0.514	Blank	Blank	53.773	n/a	4	11	11	n/a	91	n/a	1	n/a	n/a	n/a	n/a	435.437	n/a
407.86	0.497	neutral	Picture	53.259	n/a	4	11	12	n/a	92	34	1	n/a	n/a	n/a	n/a	435.968	AM22NES.jpg
408.357	0.514	Blank	Blank	52.745	n/a	4	11	12	n/a	92	n/a	1	n/a	n/a	n/a	n/a	436.465	n/a
408.888	0.497	neutral	Picture	52.231	n/a	4	11	13	n/a	93	23	1	n/a	n/a	n/a	n/a	436.995	AM04NES.jpg
409.385	0.514	Blank	Blank	51.717	n/a	4	11	13	n/a	93	n/a	1	n/a	n/a	n/a	n/a	437.493	n/a
409.916	0.497	neutral	Picture	51.203	n/a	4	11	14	n/a	94	15	1	n/a	n/a	n/a	n/a	438.023	AF25NES.jpg
410.413	0.514	Blank	Blank	50.689	n/a	4	11	14	n/a	94	n/a	1	n/a	n/a	n/a	n/a	438.521	n/a
410.944	0.497	neutral	Picture	50.175	n/a	4	11	15	n/a	95	37	1	n/a	n/a	n/a	n/a	439.051	BM25NES.jpg
411.441	0.514	Blank	Blank	49.661	n/a	4	11	15	n/a	95	n/a	1	n/a	n/a	n/a	n/a	439.549	n/a
411.971	0.497	neutral	Picture	49.147	n/a	4	11	16	n/a	96	32	1	n/a	n/a	n/a	n/a	440.079	AM14NES.jpg
412.469	0.514	Blank	Blank	48.633	n/a	4	11	16	n/a	96	n/a	1	n/a	n/a	n/a	n/a	440.577	n/a
412.999	0.497	neutral	Picture	48.12	n/a	4	11	17	n/a	97	3	1	n/a	n/a	n/a	n/a	441.107	BF04NES.jpg
413.497	0.514	Blank	Blank	47.606	n/a	4	11	17	n/a	97	n/a	1	n/a	n/a	n/a	n/a	441.604	n/a
414.027	0.497	neutral	Picture	47.092	n/a	4	11	18	n/a	98	16	1	n/a	n/a	n/a	n/a	442.135	AF26NES.jpg
414.524	0.514	Blank	Blank	46.578	n/a	4	11	18	n/a	98	n/a	1	n/a	n/a	n/a	n/a	442.632	n/a
415.055	0.497	neutral	Picture	46.064	n/a	4	11	19	n/a	99	27	1	n/a	n/a	n/a	n/a	443.163	BM08NES.jpg
415.552	0.514	Blank	Blank	45.55	n/a	4	11	19	n/a	99	n/a	1	n/a	n/a	n/a	n/a	443.66	n/a
416.083	0.497	neutral	Picture	45.036	n/a	4	11	20	n/a	100	28	1	n/a	n/a	n/a	n/a	444.191	AM09NES.jpg
416.58	0.514	Blank	Blank	44.522	n/a	4	11	20	n/a	100	n/a	1	n/a	n/a	n/a	n/a	444.688	n/a
417.111	10.014	ITI	Fixation+	34.492	n/a	4	n/a	n/a	n/a	n/a	n/a	n/a	n/a	n/a	n/a	n/a	445.219	n/a
427.141	0.497	angry	Picture	33.978	n/a	4	12	1	n/a	101	81	3	n/a	n/a	n/a	n/a	455.249	AF01ANS.jpg
427.638	0.514	Blank	Blank	33.464	n/a	4	12	1	n/a	101	n/a	3	n/a	n/a	n/a	n/a	455.746	n/a
428.169	0.497	angry	Picture	32.95	n/a	4	12	2	n/a	102	120	3	n/a	n/a	n/a	n/a	456.277	AM35ANS.jpg
428.666	0.514	Blank	Blank	32.436	n/a	4	12	2	n/a	102	n/a	3	n/a	n/a	n/a	n/a	456.774	n/a
429.197	0.497	angry	Picture	31.922	n/a	4	12	3	n/a	103	114	3	n/a	n/a	n/a	n/a	457.305	AM22ANS.jpg
429.694	0.514	Blank	Blank	31.408	n/a	4	12	3	n/a	103	n/a	3	n/a	n/a	n/a	n/a	457.802	n/a
430.225	0.497	angry	Picture	30.894	n/a	4	12	4	n/a	104	109	3	n/a	n/a	n/a	n/a	458.332	AM10ANS.jpg
430.722	0.514	Blank	Blank	30.38	n/a	4	12	4	n/a	104	n/a	3	n/a	n/a	n/a	n/a	458.83	n/a
431.252	0.497	angry	Picture	29.866	n/a	4	12	5	n/a	105	96	3	n/a	n/a	n/a	n/a	459.36	AF26ANS.jpg
431.75	0.514	Blank	Blank	29.352	n/a	4	12	5	n/a	105	n/a	3	n/a	n/a	n/a	n/a	459.858	n/a
432.28	0.497	angry	Picture	28.838	n/a	4	12	6	n/a	106	82	3	n/a	n/a	n/a	n/a	460.388	AF03ANS.jpg
432.778	0.514	Blank	Blank	28.324	n/a	4	12	6	n/a	106	n/a	3	n/a	n/a	n/a	n/a	460.886	n/a
433.308	0.497	angry	Picture	27.81	n/a	4	12	7	n/a	107	97	3	n/a	n/a	n/a	n/a	461.416	BF28ANS.jpg
433.806	0.514	Blank	Blank	27.297	n/a	4	12	7	n/a	107	n/a	3	n/a	n/a	n/a	n/a	461.913	n/a
434.336	0.497	angry	Picture	26.783	n/a	4	12	8	n/a	108	115	3	n/a	n/a	n/a	n/a	462.444	AM23ANS.jpg
434.834	0.514	Blank	Blank	26.269	n/a	4	12	8	n/a	108	n/a	3	n/a	n/a	n/a	n/a	462.941	n/a
435.364	0.497	angry	Picture	25.755	n/a	4	12	9	n/a	109	91	3	n/a	n/a	n/a	n/a	463.472	AF20ANS.jpg
435.861	0.514	Blank	Blank	25.241	n/a	4	12	9	n/a	109	n/a	3	n/a	n/a	n/a	n/a	463.969	n/a
436.392	0.497	angry	Picture	24.727	n/a	4	12	10	n/a	110	87	3	n/a	n/a	n/a	n/a	464.5	BF11ANS.jpg
436.889	0.514	Blank	Blank	24.213	n/a	4	12	10	n/a	110	n/a	3	n/a	n/a	n/a	n/a	464.997	n/a
437.42	0.497	angry	Picture	23.699	n/a	4	12	11	n/a	111	85	3	n/a	n/a	n/a	n/a	465.528	BF07ANS.jpg
437.917	0.514	Blank	Blank	23.185	n/a	4	12	11	n/a	111	n/a	3	n/a	n/a	n/a	n/a	466.025	n/a
438.448	0.497	angry	Picture	22.671	n/a	4	12	12	n/a	112	110	3	n/a	n/a	n/a	n/a	466.555	AM11ANS.jpg
438.945	0.514	Blank	Blank	22.157	n/a	4	12	12	n/a	112	n/a	3	n/a	n/a	n/a	n/a	467.053	n/a
439.476	0.497	angry	Picture	21.643	n/a	4	12	13	n/a	113	111	3	n/a	n/a	n/a	n/a	467.583	BM12ANS.jpg
439.973	0.514	Blank	Blank	21.129	n/a	4	12	13	n/a	113	n/a	3	n/a	n/a	n/a	n/a	468.081	n/a
440.504	0.497	angry	Picture	20.615	n/a	4	12	14	n/a	114	103	3	n/a	n/a	n/a	n/a	468.611	AM04ANS.jpg
441.001	0.514	Blank	Blank	20.101	n/a	4	12	14	n/a	114	n/a	3	n/a	n/a	n/a	n/a	469.109	n/a
441.531	0.497	angry	Picture	19.587	n/a	4	12	15	n/a	115	101	3	n/a	n/a	n/a	n/a	469.639	AM01ANS.jpg
442.029	0.514	Blank	Blank	19.073	n/a	4	12	15	n/a	115	n/a	3	n/a	n/a	n/a	n/a	470.137	n/a
442.559	0.497	angry	Picture	18.56	n/a	4	12	16	n/a	116	104	3	n/a	n/a	n/a	n/a	470.667	BM05ANS.jpg
443.057	0.514	Blank	Blank	18.046	n/a	4	12	16	n/a	116	n/a	3	n/a	n/a	n/a	n/a	471.164	n/a
443.587	0.497	angry	Picture	17.532	n/a	4	12	17	n/a	117	107	3	n/a	n/a	n/a	n/a	471.695	BM08ANS.jpg
444.084	0.514	Blank	Blank	17.018	n/a	4	12	17	n/a	117	n/a	3	n/a	n/a	n/a	n/a	472.192	n/a
444.615	0.497	angry	Picture	16.504	n/a	4	12	18	n/a	118	98	3	n/a	n/a	n/a	n/a	472.723	BF29ANS.jpg
445.112	0.514	Blank	Blank	15.99	n/a	4	12	18	n/a	118	n/a	3	n/a	n/a	n/a	n/a	473.22	n/a
445.643	0.497	angry	Picture	15.476	n/a	4	12	19	n/a	119	99	3	n/a	n/a	n/a	n/a	473.751	AF31ANS.jpg
446.14	0.514	Blank	Blank	14.962	n/a	4	12	19	n/a	119	n/a	3	n/a	n/a	n/a	n/a	474.248	n/a
446.671	0.497	angry	Picture	14.448	n/a	4	12	20	n/a	120	108	3	n/a	n/a	n/a	n/a	474.779	AM09ANS.jpg
447.168	0.514	Blank	Blank	13.934	n/a	4	12	20	n/a	120	n/a	3	n/a	n/a	n/a	n/a	475.276	n/a
447.699	10.014	ITI	Fixation+	3.904	n/a	4	n/a	n/a	n/a	n/a	n/a	n/a	n/a	n/a	n/a	n/a	475.807	n/a
461.616	n/a	ConfirmRating	Rate	n/a	3.896	4	n/a	n/a	0	n/a	n/a	n/a	2	Angry	17	47	489.724	n/a
463.844	n/a	ConfirmRating	Rate	n/a	2.205	4	n/a	n/a	1	n/a	n/a	n/a	3	Angry	13	46	491.952	n/a
