onset	duration	trial_type	event_type	time_until_response	response_time	trial_number	block_num_within_trial	image_seq_num_within_block	question_seq_num_within_block	image_seq_num	picture_number	condition	question_type	block_type	rating	rating_computed	onset_uncorrected	KDEV_imagefile
0.016	10.014	ITI	Fixation+	99.119	n/a	1	n/a	n/a	n/a	n/a	n/a	n/a	n/a	n/a	n/a	n/a	40.811	n/a
10.046	0.497	happy	Picture	98.605	n/a	1	1	1	n/a	1	46	2	n/a	n/a	n/a	n/a	50.842	AF09HAS.jpg
10.543	0.514	Blank	Blank	98.091	n/a	1	1	1	n/a	1	n/a	2	n/a	n/a	n/a	n/a	51.339	n/a
11.074	0.497	happy	Picture	97.578	n/a	1	1	2	n/a	2	69	2	n/a	n/a	n/a	n/a	51.869	AM10HAS.jpg
11.571	0.514	Blank	Blank	97.064	n/a	1	1	2	n/a	2	n/a	2	n/a	n/a	n/a	n/a	52.367	n/a
12.102	0.497	happy	Picture	96.55	n/a	1	1	3	n/a	3	71	2	n/a	n/a	n/a	n/a	52.897	BM12HAS.jpg
12.599	0.514	Blank	Blank	96.036	n/a	1	1	3	n/a	3	n/a	2	n/a	n/a	n/a	n/a	53.395	n/a
13.129	0.497	happy	Picture	95.522	n/a	1	1	4	n/a	4	51	2	n/a	n/a	n/a	n/a	53.925	AF20HAS.jpg
13.627	0.514	Blank	Blank	95.008	n/a	1	1	4	n/a	4	n/a	2	n/a	n/a	n/a	n/a	54.422	n/a
14.157	0.497	happy	Picture	94.494	n/a	1	1	5	n/a	5	67	2	n/a	n/a	n/a	n/a	54.953	BM08HAS.jpg
14.655	0.514	Blank	Blank	93.98	n/a	1	1	5	n/a	5	n/a	2	n/a	n/a	n/a	n/a	55.45	n/a
15.185	0.497	happy	Picture	93.466	n/a	1	1	6	n/a	6	60	2	n/a	n/a	n/a	n/a	55.981	AF32HAS.jpg
15.683	0.514	Blank	Blank	92.952	n/a	1	1	6	n/a	6	n/a	2	n/a	n/a	n/a	n/a	56.478	n/a
16.213	0.497	happy	Picture	92.438	n/a	1	1	7	n/a	7	42	2	n/a	n/a	n/a	n/a	57.009	AF03HAS.jpg
16.71	0.514	Blank	Blank	91.924	n/a	1	1	7	n/a	7	n/a	2	n/a	n/a	n/a	n/a	57.506	n/a
17.24	0.498	happy	Picture	91.41	n/a	1	1	8	n/a	8	55	2	n/a	n/a	n/a	n/a	58.036	AF25HAS.jpg
17.738	0.514	Blank	Blank	90.896	n/a	1	1	8	n/a	8	n/a	2	n/a	n/a	n/a	n/a	58.534	n/a
18.269	0.497	happy	Picture	90.382	n/a	1	1	9	n/a	9	72	2	n/a	n/a	n/a	n/a	59.065	AM14HAS.jpg
18.766	0.514	Blank	Blank	89.868	n/a	1	1	9	n/a	9	n/a	2	n/a	n/a	n/a	n/a	59.562	n/a
19.297	0.497	happy	Picture	89.355	n/a	1	1	10	n/a	10	63	2	n/a	n/a	n/a	n/a	60.092	AM04HAS.jpg
19.794	0.514	Blank	Blank	88.841	n/a	1	1	10	n/a	10	n/a	2	n/a	n/a	n/a	n/a	60.59	n/a
20.325	0.497	happy	Picture	88.327	n/a	1	1	11	n/a	11	58	2	n/a	n/a	n/a	n/a	61.12	BF29HAS.jpg
20.822	0.514	Blank	Blank	87.813	n/a	1	1	11	n/a	11	n/a	2	n/a	n/a	n/a	n/a	61.618	n/a
21.353	0.497	happy	Picture	87.299	n/a	1	1	12	n/a	12	48	2	n/a	n/a	n/a	n/a	62.148	AF14HAS.jpg
21.85	0.514	Blank	Blank	86.785	n/a	1	1	12	n/a	12	n/a	2	n/a	n/a	n/a	n/a	62.645	n/a
22.38	0.497	happy	Picture	86.271	n/a	1	1	13	n/a	13	66	2	n/a	n/a	n/a	n/a	63.176	BM07HAS.jpg
22.878	0.514	Blank	Blank	85.757	n/a	1	1	13	n/a	13	n/a	2	n/a	n/a	n/a	n/a	63.673	n/a
23.408	0.497	happy	Picture	85.243	n/a	1	1	14	n/a	14	70	2	n/a	n/a	n/a	n/a	64.204	BM11HAS.jpg
23.906	0.514	Blank	Blank	84.729	n/a	1	1	14	n/a	14	n/a	2	n/a	n/a	n/a	n/a	64.701	n/a
24.436	0.497	happy	Picture	84.215	n/a	1	1	15	n/a	15	43	2	n/a	n/a	n/a	n/a	65.232	BF04HAS.jpg
24.934	0.514	Blank	Blank	83.701	n/a	1	1	15	n/a	15	n/a	2	n/a	n/a	n/a	n/a	65.729	n/a
25.464	0.497	happy	Picture	83.187	n/a	1	1	16	n/a	16	49	2	n/a	n/a	n/a	n/a	66.26	AF17HAS.jpg
25.961	0.514	Blank	Blank	82.673	n/a	1	1	16	n/a	16	n/a	2	n/a	n/a	n/a	n/a	66.757	n/a
26.492	0.497	happy	Picture	82.159	n/a	1	1	17	n/a	17	75	2	n/a	n/a	n/a	n/a	67.287	AM23HAS.jpg
26.989	0.514	Blank	Blank	81.645	n/a	1	1	17	n/a	17	n/a	2	n/a	n/a	n/a	n/a	67.785	n/a
27.52	0.497	happy	Picture	81.132	n/a	1	1	18	n/a	18	80	2	n/a	n/a	n/a	n/a	68.315	BM35HAS.jpg
28.017	0.514	Blank	Blank	80.618	n/a	1	1	18	n/a	18	n/a	2	n/a	n/a	n/a	n/a	68.813	n/a
28.548	0.497	happy	Picture	80.104	n/a	1	1	19	n/a	19	76	2	n/a	n/a	n/a	n/a	69.343	BM24HAS.jpg
29.045	0.514	Blank	Blank	79.59	n/a	1	1	19	n/a	19	n/a	2	n/a	n/a	n/a	n/a	69.841	n/a
29.576	0.497	happy	Picture	79.076	n/a	1	1	20	n/a	20	74	2	n/a	n/a	n/a	n/a	70.371	AM22HAS.jpg
30.073	0.514	Blank	Blank	78.562	n/a	1	1	20	n/a	20	n/a	2	n/a	n/a	n/a	n/a	70.868	n/a
30.603	10.014	ITI	Fixation+	68.532	n/a	1	n/a	n/a	n/a	n/a	n/a	n/a	n/a	n/a	n/a	n/a	71.399	n/a
40.633	0.497	neutral	Picture	68.018	n/a	1	2	1	n/a	21	33	1	n/a	n/a	n/a	n/a	81.429	AM21NES.jpg
41.131	0.514	Blank	Blank	67.504	n/a	1	2	1	n/a	21	n/a	1	n/a	n/a	n/a	n/a	81.927	n/a
41.661	0.497	neutral	Picture	66.99	n/a	1	2	2	n/a	22	39	1	n/a	n/a	n/a	n/a	82.457	AM28NES.jpg
42.159	0.514	Blank	Blank	66.476	n/a	1	2	2	n/a	22	n/a	1	n/a	n/a	n/a	n/a	82.954	n/a
42.689	0.497	neutral	Picture	65.962	n/a	1	2	3	n/a	23	25	1	n/a	n/a	n/a	n/a	83.485	BM06NES.jpg
43.187	0.514	Blank	Blank	65.448	n/a	1	2	3	n/a	23	n/a	1	n/a	n/a	n/a	n/a	83.982	n/a
43.717	0.497	neutral	Picture	64.934	n/a	1	2	4	n/a	24	5	1	n/a	n/a	n/a	n/a	84.513	BF07NES.jpg
44.215	0.514	Blank	Blank	64.42	n/a	1	2	4	n/a	24	n/a	1	n/a	n/a	n/a	n/a	85.01	n/a
44.745	0.497	neutral	Picture	63.907	n/a	1	2	5	n/a	25	10	1	n/a	n/a	n/a	n/a	85.541	AF18NES.jpg
45.242	0.515	Blank	Blank	63.392	n/a	1	2	5	n/a	25	n/a	1	n/a	n/a	n/a	n/a	86.037	n/a
45.773	0.497	neutral	Picture	62.878	n/a	1	2	6	n/a	26	34	1	n/a	n/a	n/a	n/a	86.569	AM22NES.jpg
46.27	0.514	Blank	Blank	62.364	n/a	1	2	6	n/a	26	n/a	1	n/a	n/a	n/a	n/a	87.066	n/a
46.801	0.497	neutral	Picture	61.85	n/a	1	2	7	n/a	27	36	1	n/a	n/a	n/a	n/a	87.596	BM24NES.jpg
47.298	0.514	Blank	Blank	61.337	n/a	1	2	7	n/a	27	n/a	1	n/a	n/a	n/a	n/a	88.094	n/a
47.829	0.497	neutral	Picture	60.823	n/a	1	2	8	n/a	28	14	1	n/a	n/a	n/a	n/a	88.624	AF23NES.jpg
48.326	0.514	Blank	Blank	60.309	n/a	1	2	8	n/a	28	n/a	1	n/a	n/a	n/a	n/a	89.122	n/a
48.856	0.497	neutral	Picture	59.795	n/a	1	2	9	n/a	29	9	1	n/a	n/a	n/a	n/a	89.652	AF17NES.jpg
49.354	0.514	Blank	Blank	59.281	n/a	1	2	9	n/a	29	n/a	1	n/a	n/a	n/a	n/a	90.15	n/a
49.884	0.497	neutral	Picture	58.767	n/a	1	2	10	n/a	30	19	1	n/a	n/a	n/a	n/a	90.68	AF31NES.jpg
50.382	0.514	Blank	Blank	58.253	n/a	1	2	10	n/a	30	n/a	1	n/a	n/a	n/a	n/a	91.177	n/a
50.912	0.497	neutral	Picture	57.739	n/a	1	2	11	n/a	31	15	1	n/a	n/a	n/a	n/a	91.708	AF25NES.jpg
51.41	0.514	Blank	Blank	57.225	n/a	1	2	11	n/a	31	n/a	1	n/a	n/a	n/a	n/a	92.205	n/a
51.94	0.497	neutral	Picture	56.711	n/a	1	2	12	n/a	32	22	1	n/a	n/a	n/a	n/a	92.736	BM03NES.jpg
52.438	0.514	Blank	Blank	56.197	n/a	1	2	12	n/a	32	n/a	1	n/a	n/a	n/a	n/a	93.233	n/a
52.968	0.497	neutral	Picture	55.683	n/a	1	2	13	n/a	33	11	1	n/a	n/a	n/a	n/a	93.764	AF20NES.jpg
53.465	0.514	Blank	Blank	55.169	n/a	1	2	13	n/a	33	n/a	1	n/a	n/a	n/a	n/a	94.261	n/a
53.996	0.497	neutral	Picture	54.655	n/a	1	2	14	n/a	34	4	1	n/a	n/a	n/a	n/a	94.792	AF05NES.jpg
54.493	0.514	Blank	Blank	54.141	n/a	1	2	14	n/a	34	n/a	1	n/a	n/a	n/a	n/a	95.289	n/a
55.024	0.497	neutral	Picture	53.627	n/a	1	2	15	n/a	35	17	1	n/a	n/a	n/a	n/a	95.82	BF28NES.jpg
55.521	0.514	Blank	Blank	53.113	n/a	1	2	15	n/a	35	n/a	1	n/a	n/a	n/a	n/a	96.317	n/a
56.052	0.497	neutral	Picture	52.6	n/a	1	2	16	n/a	36	13	1	n/a	n/a	n/a	n/a	96.847	BF22NES.jpg
56.549	0.514	Blank	Blank	52.086	n/a	1	2	16	n/a	36	n/a	1	n/a	n/a	n/a	n/a	97.345	n/a
57.08	0.497	neutral	Picture	51.572	n/a	1	2	17	n/a	37	12	1	n/a	n/a	n/a	n/a	97.875	AF21NES.jpg
57.577	0.514	Blank	Blank	51.058	n/a	1	2	17	n/a	37	n/a	1	n/a	n/a	n/a	n/a	98.373	n/a
58.107	0.497	neutral	Picture	50.544	n/a	1	2	18	n/a	38	24	1	n/a	n/a	n/a	n/a	98.903	BM05NES.jpg
58.605	0.514	Blank	Blank	50.03	n/a	1	2	18	n/a	38	n/a	1	n/a	n/a	n/a	n/a	99.4	n/a
59.135	0.497	neutral	Picture	49.516	n/a	1	2	19	n/a	39	29	1	n/a	n/a	n/a	n/a	99.931	AM10NES.jpg
59.633	0.514	Blank	Blank	49.002	n/a	1	2	19	n/a	39	n/a	1	n/a	n/a	n/a	n/a	100.428	n/a
60.163	0.497	neutral	Picture	48.488	n/a	1	2	20	n/a	40	23	1	n/a	n/a	n/a	n/a	100.959	AM04NES.jpg
60.66	0.514	Blank	Blank	47.974	n/a	1	2	20	n/a	40	n/a	1	n/a	n/a	n/a	n/a	101.456	n/a
61.191	10.014	ITI	Fixation+	37.944	n/a	1	n/a	n/a	n/a	n/a	n/a	n/a	n/a	n/a	n/a	n/a	101.987	n/a
71.221	0.497	happy	Picture	37.43	n/a	1	3	1	n/a	41	62	2	n/a	n/a	n/a	n/a	112.017	BM03HAS.jpg
71.719	0.514	Blank	Blank	36.916	n/a	1	3	1	n/a	41	n/a	2	n/a	n/a	n/a	n/a	112.514	n/a
72.249	0.497	happy	Picture	36.402	n/a	1	3	2	n/a	42	52	2	n/a	n/a	n/a	n/a	113.045	AF21HAS.jpg
72.746	0.514	Blank	Blank	35.888	n/a	1	3	2	n/a	42	n/a	2	n/a	n/a	n/a	n/a	113.542	n/a
73.277	0.497	happy	Picture	35.374	n/a	1	3	3	n/a	43	44	2	n/a	n/a	n/a	n/a	114.073	AF05HAS.jpg
73.774	0.514	Blank	Blank	34.86	n/a	1	3	3	n/a	43	n/a	2	n/a	n/a	n/a	n/a	114.57	n/a
74.305	0.497	happy	Picture	34.346	n/a	1	3	4	n/a	44	53	2	n/a	n/a	n/a	n/a	115.1	BF22HAS.jpg
74.802	0.514	Blank	Blank	33.832	n/a	1	3	4	n/a	44	n/a	2	n/a	n/a	n/a	n/a	115.598	n/a
75.333	0.497	happy	Picture	33.319	n/a	1	3	5	n/a	45	54	2	n/a	n/a	n/a	n/a	116.128	AF23HAS.jpg
75.83	0.514	Blank	Blank	32.805	n/a	1	3	5	n/a	45	n/a	2	n/a	n/a	n/a	n/a	116.626	n/a
76.361	0.497	happy	Picture	32.291	n/a	1	3	6	n/a	46	68	2	n/a	n/a	n/a	n/a	117.156	AM09HAS.jpg
76.858	0.514	Blank	Blank	31.777	n/a	1	3	6	n/a	46	n/a	2	n/a	n/a	n/a	n/a	117.654	n/a
77.388	0.497	happy	Picture	31.263	n/a	1	3	7	n/a	47	64	2	n/a	n/a	n/a	n/a	118.184	BM05HAS.jpg
77.886	0.514	Blank	Blank	30.749	n/a	1	3	7	n/a	47	n/a	2	n/a	n/a	n/a	n/a	118.681	n/a
78.416	0.497	happy	Picture	30.235	n/a	1	3	8	n/a	48	59	2	n/a	n/a	n/a	n/a	119.212	AF31HAS.jpg
78.914	0.514	Blank	Blank	29.721	n/a	1	3	8	n/a	48	n/a	2	n/a	n/a	n/a	n/a	119.709	n/a
79.444	0.497	happy	Picture	29.207	n/a	1	3	9	n/a	49	41	2	n/a	n/a	n/a	n/a	120.24	AF01HAS.jpg
79.942	0.514	Blank	Blank	28.693	n/a	1	3	9	n/a	49	n/a	2	n/a	n/a	n/a	n/a	120.737	n/a
80.472	0.497	happy	Picture	28.179	n/a	1	3	10	n/a	50	73	2	n/a	n/a	n/a	n/a	121.268	AM21HAS.jpg
80.969	0.514	Blank	Blank	27.665	n/a	1	3	10	n/a	50	n/a	2	n/a	n/a	n/a	n/a	121.765	n/a
81.5	0.497	happy	Picture	27.151	n/a	1	3	11	n/a	51	65	2	n/a	n/a	n/a	n/a	122.296	BM06HAS.jpg
81.997	0.514	Blank	Blank	26.637	n/a	1	3	11	n/a	51	n/a	2	n/a	n/a	n/a	n/a	122.793	n/a
82.528	0.497	happy	Picture	26.123	n/a	1	3	12	n/a	52	56	2	n/a	n/a	n/a	n/a	123.323	AF26HAS.jpg
83.025	0.514	Blank	Blank	25.609	n/a	1	3	12	n/a	52	n/a	2	n/a	n/a	n/a	n/a	123.821	n/a
83.556	0.497	happy	Picture	25.096	n/a	1	3	13	n/a	53	45	2	n/a	n/a	n/a	n/a	124.351	BF07HAS.jpg
84.053	0.514	Blank	Blank	24.582	n/a	1	3	13	n/a	53	n/a	2	n/a	n/a	n/a	n/a	124.849	n/a
84.584	0.497	happy	Picture	24.068	n/a	1	3	14	n/a	54	78	2	n/a	n/a	n/a	n/a	125.379	BM26HAS.jpg
85.081	0.514	Blank	Blank	23.554	n/a	1	3	14	n/a	54	n/a	2	n/a	n/a	n/a	n/a	125.877	n/a
85.612	0.497	happy	Picture	23.04	n/a	1	3	15	n/a	55	50	2	n/a	n/a	n/a	n/a	126.407	AF18HAS.jpg
86.109	0.514	Blank	Blank	22.526	n/a	1	3	15	n/a	55	n/a	2	n/a	n/a	n/a	n/a	126.904	n/a
86.639	0.497	happy	Picture	22.012	n/a	1	3	16	n/a	56	47	2	n/a	n/a	n/a	n/a	127.435	BF11HAS.jpg
87.137	0.514	Blank	Blank	21.498	n/a	1	3	16	n/a	56	n/a	2	n/a	n/a	n/a	n/a	127.932	n/a
87.667	0.497	happy	Picture	20.984	n/a	1	3	17	n/a	57	77	2	n/a	n/a	n/a	n/a	128.463	BM25HAS.jpg
88.165	0.514	Blank	Blank	20.47	n/a	1	3	17	n/a	57	n/a	2	n/a	n/a	n/a	n/a	128.96	n/a
88.695	0.497	happy	Picture	19.956	n/a	1	3	18	n/a	58	57	2	n/a	n/a	n/a	n/a	129.491	BF28HAS.jpg
89.193	0.514	Blank	Blank	19.442	n/a	1	3	18	n/a	58	n/a	2	n/a	n/a	n/a	n/a	129.988	n/a
89.723	0.497	happy	Picture	18.928	n/a	1	3	19	n/a	59	61	2	n/a	n/a	n/a	n/a	130.519	AM01HAS.jpg
90.22	0.514	Blank	Blank	18.414	n/a	1	3	19	n/a	59	n/a	2	n/a	n/a	n/a	n/a	131.016	n/a
90.751	0.497	happy	Picture	17.9	n/a	1	3	20	n/a	60	79	2	n/a	n/a	n/a	n/a	131.547	BM28HAS.jpg
91.248	0.514	Blank	Blank	17.386	n/a	1	3	20	n/a	60	n/a	2	n/a	n/a	n/a	n/a	132.044	n/a
91.779	10.014	ITI	Fixation+	7.356	n/a	1	n/a	n/a	n/a	n/a	n/a	n/a	n/a	n/a	n/a	n/a	132.574	n/a
109.149	n/a	ConfirmRating	Rate	n/a	7.344	1	n/a	n/a	0	n/a	n/a	n/a	2	Happy	58	51	149.944	n/a
115.933	n/a	ConfirmRating	Rate	n/a	6.764	1	n/a	n/a	1	n/a	n/a	n/a	3	Happy	19	47	156.729	n/a
115.95	10.014	ITI	Fixation+	95.799	n/a	2	n/a	n/a	n/a	n/a	n/a	n/a	n/a	n/a	n/a	n/a	156.746	n/a
125.981	0.497	angry	Picture	95.286	n/a	2	4	1	n/a	61	119	3	n/a	n/a	n/a	n/a	166.776	BM28ANS.jpg
126.478	0.514	Blank	Blank	94.772	n/a	2	4	1	n/a	61	n/a	3	n/a	n/a	n/a	n/a	167.274	n/a
127.009	0.497	angry	Picture	94.258	n/a	2	4	2	n/a	62	100	3	n/a	n/a	n/a	n/a	167.804	AF32ANS.jpg
127.506	0.514	Blank	Blank	93.744	n/a	2	4	2	n/a	62	n/a	3	n/a	n/a	n/a	n/a	168.302	n/a
128.036	0.497	angry	Picture	93.23	n/a	2	4	3	n/a	63	118	3	n/a	n/a	n/a	n/a	168.832	BM26ANS.jpg
128.534	0.514	Blank	Blank	92.716	n/a	2	4	3	n/a	63	n/a	3	n/a	n/a	n/a	n/a	169.329	n/a
129.064	0.497	angry	Picture	92.202	n/a	2	4	4	n/a	64	89	3	n/a	n/a	n/a	n/a	169.86	AF17ANS.jpg
129.562	0.514	Blank	Blank	91.688	n/a	2	4	4	n/a	64	n/a	3	n/a	n/a	n/a	n/a	170.357	n/a
130.092	0.497	angry	Picture	91.174	n/a	2	4	5	n/a	65	116	3	n/a	n/a	n/a	n/a	170.888	BM24ANS.jpg
130.589	0.514	Blank	Blank	90.66	n/a	2	4	5	n/a	65	n/a	3	n/a	n/a	n/a	n/a	171.385	n/a
131.12	0.497	angry	Picture	90.146	n/a	2	4	6	n/a	66	105	3	n/a	n/a	n/a	n/a	171.916	BM06ANS.jpg
131.617	0.514	Blank	Blank	89.632	n/a	2	4	6	n/a	66	n/a	3	n/a	n/a	n/a	n/a	172.413	n/a
132.148	0.497	angry	Picture	89.118	n/a	2	4	7	n/a	67	106	3	n/a	n/a	n/a	n/a	172.944	AM07ANS.jpg
132.645	0.514	Blank	Blank	88.604	n/a	2	4	7	n/a	67	n/a	3	n/a	n/a	n/a	n/a	173.441	n/a
133.176	0.497	angry	Picture	88.09	n/a	2	4	8	n/a	68	94	3	n/a	n/a	n/a	n/a	173.971	AF23ANS.jpg
133.673	0.514	Blank	Blank	87.576	n/a	2	4	8	n/a	68	n/a	3	n/a	n/a	n/a	n/a	174.469	n/a
134.204	0.497	angry	Picture	87.062	n/a	2	4	9	n/a	69	117	3	n/a	n/a	n/a	n/a	174.999	BM25ANS.jpg
134.701	0.514	Blank	Blank	86.549	n/a	2	4	9	n/a	69	n/a	3	n/a	n/a	n/a	n/a	175.497	n/a
135.231	0.497	angry	Picture	86.035	n/a	2	4	10	n/a	70	90	3	n/a	n/a	n/a	n/a	176.027	AF18ANS.jpg
135.729	0.514	Blank	Blank	85.521	n/a	2	4	10	n/a	70	n/a	3	n/a	n/a	n/a	n/a	176.525	n/a
136.259	0.497	angry	Picture	85.007	n/a	2	4	11	n/a	71	83	3	n/a	n/a	n/a	n/a	177.055	BF04ANS.jpg
136.757	0.514	Blank	Blank	84.493	n/a	2	4	11	n/a	71	n/a	3	n/a	n/a	n/a	n/a	177.552	n/a
137.287	0.497	angry	Picture	83.979	n/a	2	4	12	n/a	72	112	3	n/a	n/a	n/a	n/a	178.083	AM14ANS.jpg
137.785	0.514	Blank	Blank	83.465	n/a	2	4	12	n/a	72	n/a	3	n/a	n/a	n/a	n/a	178.58	n/a
138.315	0.497	angry	Picture	82.951	n/a	2	4	13	n/a	73	102	3	n/a	n/a	n/a	n/a	179.111	BM03ANS.jpg
138.813	0.514	Blank	Blank	82.437	n/a	2	4	13	n/a	73	n/a	3	n/a	n/a	n/a	n/a	179.608	n/a
139.343	0.497	angry	Picture	81.923	n/a	2	4	14	n/a	74	95	3	n/a	n/a	n/a	n/a	180.139	AF25ANS.jpg
139.84	0.514	Blank	Blank	81.409	n/a	2	4	14	n/a	74	n/a	3	n/a	n/a	n/a	n/a	180.636	n/a
140.371	0.497	angry	Picture	80.895	n/a	2	4	15	n/a	75	113	3	n/a	n/a	n/a	n/a	181.167	AM21ANS.jpg
140.868	0.514	Blank	Blank	80.381	n/a	2	4	15	n/a	75	n/a	3	n/a	n/a	n/a	n/a	181.664	n/a
141.399	0.497	angry	Picture	79.867	n/a	2	4	16	n/a	76	88	3	n/a	n/a	n/a	n/a	182.195	AF14ANS.jpg
141.896	0.514	Blank	Blank	79.353	n/a	2	4	16	n/a	76	n/a	3	n/a	n/a	n/a	n/a	182.692	n/a
142.427	0.497	angry	Picture	78.839	n/a	2	4	17	n/a	77	93	3	n/a	n/a	n/a	n/a	183.222	BF22ANS.jpg
142.924	0.514	Blank	Blank	78.326	n/a	2	4	17	n/a	77	n/a	3	n/a	n/a	n/a	n/a	183.72	n/a
143.454	0.497	angry	Picture	77.812	n/a	2	4	18	n/a	78	86	3	n/a	n/a	n/a	n/a	184.25	AF09ANS.jpg
143.952	0.514	Blank	Blank	77.298	n/a	2	4	18	n/a	78	n/a	3	n/a	n/a	n/a	n/a	184.748	n/a
144.482	0.497	angry	Picture	76.784	n/a	2	4	19	n/a	79	92	3	n/a	n/a	n/a	n/a	185.278	AF21ANS.jpg
144.98	0.514	Blank	Blank	76.27	n/a	2	4	19	n/a	79	n/a	3	n/a	n/a	n/a	n/a	185.775	n/a
145.51	0.497	angry	Picture	75.756	n/a	2	4	20	n/a	80	84	3	n/a	n/a	n/a	n/a	186.306	AF05ANS.jpg
146.008	0.514	Blank	Blank	75.242	n/a	2	4	20	n/a	80	n/a	3	n/a	n/a	n/a	n/a	186.803	n/a
146.538	10.014	ITI	Fixation+	65.212	n/a	2	n/a	n/a	n/a	n/a	n/a	n/a	n/a	n/a	n/a	n/a	187.334	n/a
156.568	0.497	neutral	Picture	64.698	n/a	2	5	1	n/a	81	4	1	n/a	n/a	n/a	n/a	197.364	AF05NES.jpg
157.066	0.514	Blank	Blank	64.184	n/a	2	5	1	n/a	81	n/a	1	n/a	n/a	n/a	n/a	197.861	n/a
157.596	0.497	neutral	Picture	63.67	n/a	2	5	2	n/a	82	14	1	n/a	n/a	n/a	n/a	198.392	AF23NES.jpg
158.094	0.514	Blank	Blank	63.156	n/a	2	5	2	n/a	82	n/a	1	n/a	n/a	n/a	n/a	198.889	n/a
158.624	0.497	neutral	Picture	62.642	n/a	2	5	3	n/a	83	19	1	n/a	n/a	n/a	n/a	199.42	AF31NES.jpg
159.121	0.514	Blank	Blank	62.128	n/a	2	5	3	n/a	83	n/a	1	n/a	n/a	n/a	n/a	199.917	n/a
159.652	0.497	neutral	Picture	61.614	n/a	2	5	4	n/a	84	8	1	n/a	n/a	n/a	n/a	200.448	AF14NES.jpg
160.149	0.514	Blank	Blank	61.1	n/a	2	5	4	n/a	84	n/a	1	n/a	n/a	n/a	n/a	200.945	n/a
160.68	0.497	neutral	Picture	60.586	n/a	2	5	5	n/a	85	25	1	n/a	n/a	n/a	n/a	201.476	BM06NES.jpg
161.177	0.514	Blank	Blank	60.072	n/a	2	5	5	n/a	85	n/a	1	n/a	n/a	n/a	n/a	201.973	n/a
161.708	0.497	neutral	Picture	59.558	n/a	2	5	6	n/a	86	9	1	n/a	n/a	n/a	n/a	202.503	AF17NES.jpg
162.205	0.514	Blank	Blank	59.044	n/a	2	5	6	n/a	86	n/a	1	n/a	n/a	n/a	n/a	203.001	n/a
162.736	0.497	neutral	Picture	58.531	n/a	2	5	7	n/a	87	2	1	n/a	n/a	n/a	n/a	203.531	AF03NES.jpg
163.233	0.514	Blank	Blank	58.017	n/a	2	5	7	n/a	87	n/a	1	n/a	n/a	n/a	n/a	204.029	n/a
163.763	0.497	neutral	Picture	57.503	n/a	2	5	8	n/a	88	17	1	n/a	n/a	n/a	n/a	204.559	BF28NES.jpg
164.261	0.514	Blank	Blank	56.989	n/a	2	5	8	n/a	88	n/a	1	n/a	n/a	n/a	n/a	205.056	n/a
164.791	0.497	neutral	Picture	56.475	n/a	2	5	9	n/a	89	6	1	n/a	n/a	n/a	n/a	205.587	AF09NES.jpg
165.289	0.514	Blank	Blank	55.961	n/a	2	5	9	n/a	89	n/a	1	n/a	n/a	n/a	n/a	206.084	n/a
165.819	0.497	neutral	Picture	55.447	n/a	2	5	10	n/a	90	12	1	n/a	n/a	n/a	n/a	206.615	AF21NES.jpg
166.317	0.514	Blank	Blank	54.933	n/a	2	5	10	n/a	90	n/a	1	n/a	n/a	n/a	n/a	207.112	n/a
166.847	0.497	neutral	Picture	54.419	n/a	2	5	11	n/a	91	24	1	n/a	n/a	n/a	n/a	207.643	BM05NES.jpg
167.344	0.514	Blank	Blank	53.905	n/a	2	5	11	n/a	91	n/a	1	n/a	n/a	n/a	n/a	208.14	n/a
167.875	0.497	neutral	Picture	53.391	n/a	2	5	12	n/a	92	34	1	n/a	n/a	n/a	n/a	208.671	AM22NES.jpg
168.372	0.514	Blank	Blank	52.877	n/a	2	5	12	n/a	92	n/a	1	n/a	n/a	n/a	n/a	209.168	n/a
168.903	0.497	neutral	Picture	52.363	n/a	2	5	13	n/a	93	23	1	n/a	n/a	n/a	n/a	209.698	AM04NES.jpg
169.4	0.514	Blank	Blank	51.849	n/a	2	5	13	n/a	93	n/a	1	n/a	n/a	n/a	n/a	210.196	n/a
169.931	0.497	neutral	Picture	51.335	n/a	2	5	14	n/a	94	15	1	n/a	n/a	n/a	n/a	210.726	AF25NES.jpg
170.428	0.514	Blank	Blank	50.821	n/a	2	5	14	n/a	94	n/a	1	n/a	n/a	n/a	n/a	211.224	n/a
170.959	0.497	neutral	Picture	50.308	n/a	2	5	15	n/a	95	37	1	n/a	n/a	n/a	n/a	211.754	BM25NES.jpg
171.456	0.514	Blank	Blank	49.794	n/a	2	5	15	n/a	95	n/a	1	n/a	n/a	n/a	n/a	212.252	n/a
171.986	0.497	neutral	Picture	49.28	n/a	2	5	16	n/a	96	32	1	n/a	n/a	n/a	n/a	212.782	AM14NES.jpg
172.484	0.514	Blank	Blank	48.766	n/a	2	5	16	n/a	96	n/a	1	n/a	n/a	n/a	n/a	213.28	n/a
173.014	0.497	neutral	Picture	48.252	n/a	2	5	17	n/a	97	3	1	n/a	n/a	n/a	n/a	213.81	BF04NES.jpg
173.512	0.514	Blank	Blank	47.738	n/a	2	5	17	n/a	97	n/a	1	n/a	n/a	n/a	n/a	214.307	n/a
174.042	0.497	neutral	Picture	47.224	n/a	2	5	18	n/a	98	16	1	n/a	n/a	n/a	n/a	214.838	AF26NES.jpg
174.54	0.514	Blank	Blank	46.71	n/a	2	5	18	n/a	98	n/a	1	n/a	n/a	n/a	n/a	215.335	n/a
175.07	0.497	neutral	Picture	46.196	n/a	2	5	19	n/a	99	27	1	n/a	n/a	n/a	n/a	215.866	BM08NES.jpg
175.567	0.514	Blank	Blank	45.682	n/a	2	5	19	n/a	99	n/a	1	n/a	n/a	n/a	n/a	216.363	n/a
176.098	0.497	neutral	Picture	45.168	n/a	2	5	20	n/a	100	28	1	n/a	n/a	n/a	n/a	216.894	AM09NES.jpg
176.595	0.514	Blank	Blank	44.654	n/a	2	5	20	n/a	100	n/a	1	n/a	n/a	n/a	n/a	217.391	n/a
177.126	10.014	ITI	Fixation+	34.624	n/a	2	n/a	n/a	n/a	n/a	n/a	n/a	n/a	n/a	n/a	n/a	217.922	n/a
187.156	0.497	angry	Picture	34.11	n/a	2	6	1	n/a	101	81	3	n/a	n/a	n/a	n/a	227.952	AF01ANS.jpg
187.653	0.514	Blank	Blank	33.596	n/a	2	6	1	n/a	101	n/a	3	n/a	n/a	n/a	n/a	228.449	n/a
188.184	0.497	angry	Picture	33.082	n/a	2	6	2	n/a	102	120	3	n/a	n/a	n/a	n/a	228.98	AM35ANS.jpg
188.681	0.514	Blank	Blank	32.568	n/a	2	6	2	n/a	102	n/a	3	n/a	n/a	n/a	n/a	229.477	n/a
189.212	0.497	angry	Picture	32.054	n/a	2	6	3	n/a	103	114	3	n/a	n/a	n/a	n/a	230.007	AM22ANS.jpg
189.709	0.514	Blank	Blank	31.54	n/a	2	6	3	n/a	103	n/a	3	n/a	n/a	n/a	n/a	230.505	n/a
190.24	0.497	angry	Picture	31.027	n/a	2	6	4	n/a	104	109	3	n/a	n/a	n/a	n/a	231.035	AM10ANS.jpg
190.737	0.514	Blank	Blank	30.513	n/a	2	6	4	n/a	104	n/a	3	n/a	n/a	n/a	n/a	231.533	n/a
191.267	0.497	angry	Picture	29.999	n/a	2	6	5	n/a	105	96	3	n/a	n/a	n/a	n/a	232.063	AF26ANS.jpg
191.765	0.514	Blank	Blank	29.485	n/a	2	6	5	n/a	105	n/a	3	n/a	n/a	n/a	n/a	232.56	n/a
192.295	0.497	angry	Picture	28.971	n/a	2	6	6	n/a	106	82	3	n/a	n/a	n/a	n/a	233.091	AF03ANS.jpg
192.793	0.514	Blank	Blank	28.457	n/a	2	6	6	n/a	106	n/a	3	n/a	n/a	n/a	n/a	233.588	n/a
193.323	0.497	angry	Picture	27.943	n/a	2	6	7	n/a	107	97	3	n/a	n/a	n/a	n/a	234.119	BF28ANS.jpg
193.821	0.514	Blank	Blank	27.429	n/a	2	6	7	n/a	107	n/a	3	n/a	n/a	n/a	n/a	234.616	n/a
194.351	0.497	angry	Picture	26.915	n/a	2	6	8	n/a	108	115	3	n/a	n/a	n/a	n/a	235.147	AM23ANS.jpg
194.849	0.514	Blank	Blank	26.401	n/a	2	6	8	n/a	108	n/a	3	n/a	n/a	n/a	n/a	235.644	n/a
195.379	0.497	angry	Picture	25.887	n/a	2	6	9	n/a	109	91	3	n/a	n/a	n/a	n/a	236.175	AF20ANS.jpg
195.876	0.514	Blank	Blank	25.373	n/a	2	6	9	n/a	109	n/a	3	n/a	n/a	n/a	n/a	236.672	n/a
196.407	0.497	angry	Picture	24.859	n/a	2	6	10	n/a	110	87	3	n/a	n/a	n/a	n/a	237.203	BF11ANS.jpg
196.904	0.514	Blank	Blank	24.345	n/a	2	6	10	n/a	110	n/a	3	n/a	n/a	n/a	n/a	237.7	n/a
197.435	0.497	angry	Picture	23.831	n/a	2	6	11	n/a	111	85	3	n/a	n/a	n/a	n/a	238.23	BF07ANS.jpg
197.932	0.514	Blank	Blank	23.317	n/a	2	6	11	n/a	111	n/a	3	n/a	n/a	n/a	n/a	238.728	n/a
198.463	0.497	angry	Picture	22.803	n/a	2	6	12	n/a	112	110	3	n/a	n/a	n/a	n/a	239.258	AM11ANS.jpg
198.96	0.514	Blank	Blank	22.29	n/a	2	6	12	n/a	112	n/a	3	n/a	n/a	n/a	n/a	239.756	n/a
199.49	0.497	angry	Picture	21.776	n/a	2	6	13	n/a	113	111	3	n/a	n/a	n/a	n/a	240.286	BM12ANS.jpg
199.988	0.514	Blank	Blank	21.262	n/a	2	6	13	n/a	113	n/a	3	n/a	n/a	n/a	n/a	240.784	n/a
200.518	0.497	angry	Picture	20.748	n/a	2	6	14	n/a	114	103	3	n/a	n/a	n/a	n/a	241.314	AM04ANS.jpg
201.016	0.514	Blank	Blank	20.234	n/a	2	6	14	n/a	114	n/a	3	n/a	n/a	n/a	n/a	241.811	n/a
201.546	0.497	angry	Picture	19.72	n/a	2	6	15	n/a	115	101	3	n/a	n/a	n/a	n/a	242.342	AM01ANS.jpg
202.044	0.514	Blank	Blank	19.206	n/a	2	6	15	n/a	115	n/a	3	n/a	n/a	n/a	n/a	242.839	n/a
202.574	0.497	angry	Picture	18.692	n/a	2	6	16	n/a	116	104	3	n/a	n/a	n/a	n/a	243.37	BM05ANS.jpg
203.072	0.514	Blank	Blank	18.178	n/a	2	6	16	n/a	116	n/a	3	n/a	n/a	n/a	n/a	243.867	n/a
203.602	0.497	angry	Picture	17.664	n/a	2	6	17	n/a	117	107	3	n/a	n/a	n/a	n/a	244.398	BM08ANS.jpg
204.099	0.514	Blank	Blank	17.15	n/a	2	6	17	n/a	117	n/a	3	n/a	n/a	n/a	n/a	244.895	n/a
204.63	0.497	angry	Picture	16.636	n/a	2	6	18	n/a	118	98	3	n/a	n/a	n/a	n/a	245.426	BF29ANS.jpg
205.127	0.514	Blank	Blank	16.122	n/a	2	6	18	n/a	118	n/a	3	n/a	n/a	n/a	n/a	245.923	n/a
205.658	0.497	angry	Picture	15.608	n/a	2	6	19	n/a	119	99	3	n/a	n/a	n/a	n/a	246.453	AF31ANS.jpg
206.155	0.514	Blank	Blank	15.094	n/a	2	6	19	n/a	119	n/a	3	n/a	n/a	n/a	n/a	246.951	n/a
206.686	0.497	angry	Picture	14.58	n/a	2	6	20	n/a	120	108	3	n/a	n/a	n/a	n/a	247.481	AM09ANS.jpg
207.183	0.514	Blank	Blank	14.066	n/a	2	6	20	n/a	120	n/a	3	n/a	n/a	n/a	n/a	247.979	n/a
207.714	10.014	ITI	Fixation+	4.036	n/a	2	n/a	n/a	n/a	n/a	n/a	n/a	n/a	n/a	n/a	n/a	248.509	n/a
221.763	n/a	ConfirmRating	Rate	n/a	4.029	2	n/a	n/a	0	n/a	n/a	n/a	2	Angry	22	47	262.559	n/a
228.676	n/a	ConfirmRating	Rate	n/a	6.897	2	n/a	n/a	1	n/a	n/a	n/a	3	Angry	22	49	269.472	n/a
228.702	15.004	Rest	Picture	n/a	n/a	n/a	n/a	n/a	n/a	n/a	n/a	n/a	0	n/a	0	0	269.498	n/a
243.722	10.014	ITI	Fixation+	95.413	n/a	3	n/a	n/a	n/a	n/a	n/a	n/a	n/a	n/a	n/a	n/a	284.518	n/a
253.753	0.497	happy	Picture	94.899	n/a	3	7	1	n/a	1	46	2	n/a	n/a	n/a	n/a	294.548	AF09HAS.jpg
254.25	0.514	Blank	Blank	94.385	n/a	3	7	1	n/a	1	n/a	2	n/a	n/a	n/a	n/a	295.046	n/a
254.78	0.497	happy	Picture	93.871	n/a	3	7	2	n/a	2	69	2	n/a	n/a	n/a	n/a	295.576	AM10HAS.jpg
255.278	0.514	Blank	Blank	93.357	n/a	3	7	2	n/a	2	n/a	2	n/a	n/a	n/a	n/a	296.074	n/a
255.808	0.497	happy	Picture	92.844	n/a	3	7	3	n/a	3	71	2	n/a	n/a	n/a	n/a	296.604	BM12HAS.jpg
256.306	0.514	Blank	Blank	92.33	n/a	3	7	3	n/a	3	n/a	2	n/a	n/a	n/a	n/a	297.101	n/a
256.836	0.497	happy	Picture	91.816	n/a	3	7	4	n/a	4	51	2	n/a	n/a	n/a	n/a	297.632	AF20HAS.jpg
257.334	0.514	Blank	Blank	91.302	n/a	3	7	4	n/a	4	n/a	2	n/a	n/a	n/a	n/a	298.129	n/a
257.864	0.497	happy	Picture	90.788	n/a	3	7	5	n/a	5	67	2	n/a	n/a	n/a	n/a	298.66	BM08HAS.jpg
258.361	0.514	Blank	Blank	90.274	n/a	3	7	5	n/a	5	n/a	2	n/a	n/a	n/a	n/a	299.157	n/a
258.892	0.497	happy	Picture	89.76	n/a	3	7	6	n/a	6	60	2	n/a	n/a	n/a	n/a	299.688	AF32HAS.jpg
259.389	0.514	Blank	Blank	89.246	n/a	3	7	6	n/a	6	n/a	2	n/a	n/a	n/a	n/a	300.185	n/a
259.92	0.497	happy	Picture	88.732	n/a	3	7	7	n/a	7	42	2	n/a	n/a	n/a	n/a	300.716	AF03HAS.jpg
260.417	0.514	Blank	Blank	88.218	n/a	3	7	7	n/a	7	n/a	2	n/a	n/a	n/a	n/a	301.213	n/a
260.948	0.497	happy	Picture	87.704	n/a	3	7	8	n/a	8	55	2	n/a	n/a	n/a	n/a	301.743	AF25HAS.jpg
261.445	0.514	Blank	Blank	87.19	n/a	3	7	8	n/a	8	n/a	2	n/a	n/a	n/a	n/a	302.241	n/a
261.976	0.497	happy	Picture	86.676	n/a	3	7	9	n/a	9	72	2	n/a	n/a	n/a	n/a	302.771	AM14HAS.jpg
262.473	0.514	Blank	Blank	86.162	n/a	3	7	9	n/a	9	n/a	2	n/a	n/a	n/a	n/a	303.269	n/a
263.003	0.497	happy	Picture	85.648	n/a	3	7	10	n/a	10	63	2	n/a	n/a	n/a	n/a	303.799	AM04HAS.jpg
263.501	0.514	Blank	Blank	85.135	n/a	3	7	10	n/a	10	n/a	2	n/a	n/a	n/a	n/a	304.296	n/a
264.031	0.497	happy	Picture	84.62	n/a	3	7	11	n/a	11	58	2	n/a	n/a	n/a	n/a	304.827	BF29HAS.jpg
264.529	0.514	Blank	Blank	84.106	n/a	3	7	11	n/a	11	n/a	2	n/a	n/a	n/a	n/a	305.324	n/a
265.059	0.497	happy	Picture	83.593	n/a	3	7	12	n/a	12	48	2	n/a	n/a	n/a	n/a	305.855	AF14HAS.jpg
265.557	0.514	Blank	Blank	83.079	n/a	3	7	12	n/a	12	n/a	2	n/a	n/a	n/a	n/a	306.352	n/a
266.087	0.497	happy	Picture	82.565	n/a	3	7	13	n/a	13	66	2	n/a	n/a	n/a	n/a	306.883	BM07HAS.jpg
266.584	0.514	Blank	Blank	82.051	n/a	3	7	13	n/a	13	n/a	2	n/a	n/a	n/a	n/a	307.38	n/a
267.115	0.497	happy	Picture	81.537	n/a	3	7	14	n/a	14	70	2	n/a	n/a	n/a	n/a	307.911	BM11HAS.jpg
267.612	0.514	Blank	Blank	81.023	n/a	3	7	14	n/a	14	n/a	2	n/a	n/a	n/a	n/a	308.408	n/a
268.143	0.497	happy	Picture	80.509	n/a	3	7	15	n/a	15	43	2	n/a	n/a	n/a	n/a	308.939	BF04HAS.jpg
268.64	0.514	Blank	Blank	79.995	n/a	3	7	15	n/a	15	n/a	2	n/a	n/a	n/a	n/a	309.436	n/a
269.171	0.497	happy	Picture	79.481	n/a	3	7	16	n/a	16	49	2	n/a	n/a	n/a	n/a	309.966	AF17HAS.jpg
269.668	0.514	Blank	Blank	78.967	n/a	3	7	16	n/a	16	n/a	2	n/a	n/a	n/a	n/a	310.464	n/a
270.199	0.497	happy	Picture	78.453	n/a	3	7	17	n/a	17	75	2	n/a	n/a	n/a	n/a	310.994	AM23HAS.jpg
270.696	0.514	Blank	Blank	77.939	n/a	3	7	17	n/a	17	n/a	2	n/a	n/a	n/a	n/a	311.492	n/a
271.226	0.497	happy	Picture	77.425	n/a	3	7	18	n/a	18	80	2	n/a	n/a	n/a	n/a	312.022	BM35HAS.jpg
271.724	0.514	Blank	Blank	76.911	n/a	3	7	18	n/a	18	n/a	2	n/a	n/a	n/a	n/a	312.52	n/a
272.254	0.497	happy	Picture	76.398	n/a	3	7	19	n/a	19	76	2	n/a	n/a	n/a	n/a	313.05	BM24HAS.jpg
272.752	0.514	Blank	Blank	75.884	n/a	3	7	19	n/a	19	n/a	2	n/a	n/a	n/a	n/a	313.547	n/a
273.282	0.497	happy	Picture	75.37	n/a	3	7	20	n/a	20	74	2	n/a	n/a	n/a	n/a	314.078	AM22HAS.jpg
273.78	0.514	Blank	Blank	74.856	n/a	3	7	20	n/a	20	n/a	2	n/a	n/a	n/a	n/a	314.575	n/a
274.31	10.014	ITI	Fixation+	64.826	n/a	3	n/a	n/a	n/a	n/a	n/a	n/a	n/a	n/a	n/a	n/a	315.106	n/a
284.34	0.497	neutral	Picture	64.312	n/a	3	8	1	n/a	21	33	1	n/a	n/a	n/a	n/a	325.136	AM21NES.jpg
284.838	0.514	Blank	Blank	63.798	n/a	3	8	1	n/a	21	n/a	1	n/a	n/a	n/a	n/a	325.633	n/a
285.368	0.497	neutral	Picture	63.284	n/a	3	8	2	n/a	22	39	1	n/a	n/a	n/a	n/a	326.164	AM28NES.jpg
285.865	0.514	Blank	Blank	62.77	n/a	3	8	2	n/a	22	n/a	1	n/a	n/a	n/a	n/a	326.661	n/a
286.396	0.497	neutral	Picture	62.256	n/a	3	8	3	n/a	23	25	1	n/a	n/a	n/a	n/a	327.192	BM06NES.jpg
286.893	0.514	Blank	Blank	61.742	n/a	3	8	3	n/a	23	n/a	1	n/a	n/a	n/a	n/a	327.689	n/a
287.424	0.497	neutral	Picture	61.228	n/a	3	8	4	n/a	24	5	1	n/a	n/a	n/a	n/a	328.22	BF07NES.jpg
287.921	0.514	Blank	Blank	60.714	n/a	3	8	4	n/a	24	n/a	1	n/a	n/a	n/a	n/a	328.717	n/a
288.452	0.497	neutral	Picture	60.2	n/a	3	8	5	n/a	25	10	1	n/a	n/a	n/a	n/a	329.248	AF18NES.jpg
288.949	0.514	Blank	Blank	59.686	n/a	3	8	5	n/a	25	n/a	1	n/a	n/a	n/a	n/a	329.745	n/a
289.48	0.497	neutral	Picture	59.172	n/a	3	8	6	n/a	26	34	1	n/a	n/a	n/a	n/a	330.275	AM22NES.jpg
289.977	0.514	Blank	Blank	58.658	n/a	3	8	6	n/a	26	n/a	1	n/a	n/a	n/a	n/a	330.773	n/a
290.507	0.497	neutral	Picture	58.144	n/a	3	8	7	n/a	27	36	1	n/a	n/a	n/a	n/a	331.303	BM24NES.jpg
291.005	0.514	Blank	Blank	57.63	n/a	3	8	7	n/a	27	n/a	1	n/a	n/a	n/a	n/a	331.801	n/a
291.535	0.497	neutral	Picture	57.116	n/a	3	8	8	n/a	28	14	1	n/a	n/a	n/a	n/a	332.331	AF23NES.jpg
292.033	0.514	Blank	Blank	56.603	n/a	3	8	8	n/a	28	n/a	1	n/a	n/a	n/a	n/a	332.829	n/a
292.563	0.497	neutral	Picture	56.089	n/a	3	8	9	n/a	29	9	1	n/a	n/a	n/a	n/a	333.359	AF17NES.jpg
293.061	0.514	Blank	Blank	55.575	n/a	3	8	9	n/a	29	n/a	1	n/a	n/a	n/a	n/a	333.856	n/a
293.591	0.497	neutral	Picture	55.061	n/a	3	8	10	n/a	30	19	1	n/a	n/a	n/a	n/a	334.387	AF31NES.jpg
294.089	0.514	Blank	Blank	54.547	n/a	3	8	10	n/a	30	n/a	1	n/a	n/a	n/a	n/a	334.884	n/a
294.619	0.497	neutral	Picture	54.033	n/a	3	8	11	n/a	31	15	1	n/a	n/a	n/a	n/a	335.415	AF25NES.jpg
295.116	0.514	Blank	Blank	53.519	n/a	3	8	11	n/a	31	n/a	1	n/a	n/a	n/a	n/a	335.912	n/a
295.647	0.497	neutral	Picture	53.005	n/a	3	8	12	n/a	32	22	1	n/a	n/a	n/a	n/a	336.443	BM03NES.jpg
296.144	0.514	Blank	Blank	52.491	n/a	3	8	12	n/a	32	n/a	1	n/a	n/a	n/a	n/a	336.94	n/a
296.675	0.497	neutral	Picture	51.977	n/a	3	8	13	n/a	33	11	1	n/a	n/a	n/a	n/a	337.471	AF20NES.jpg
297.172	0.514	Blank	Blank	51.463	n/a	3	8	13	n/a	33	n/a	1	n/a	n/a	n/a	n/a	337.968	n/a
297.703	0.497	neutral	Picture	50.949	n/a	3	8	14	n/a	34	4	1	n/a	n/a	n/a	n/a	338.498	AF05NES.jpg
298.2	0.514	Blank	Blank	50.435	n/a	3	8	14	n/a	34	n/a	1	n/a	n/a	n/a	n/a	338.996	n/a
298.731	0.497	neutral	Picture	49.921	n/a	3	8	15	n/a	35	17	1	n/a	n/a	n/a	n/a	339.526	BF28NES.jpg
299.228	0.514	Blank	Blank	49.407	n/a	3	8	15	n/a	35	n/a	1	n/a	n/a	n/a	n/a	340.024	n/a
299.758	0.497	neutral	Picture	48.893	n/a	3	8	16	n/a	36	13	1	n/a	n/a	n/a	n/a	340.554	BF22NES.jpg
300.256	0.514	Blank	Blank	48.38	n/a	3	8	16	n/a	36	n/a	1	n/a	n/a	n/a	n/a	341.051	n/a
300.786	0.497	neutral	Picture	47.865	n/a	3	8	17	n/a	37	12	1	n/a	n/a	n/a	n/a	341.582	AF21NES.jpg
301.284	0.514	Blank	Blank	47.352	n/a	3	8	17	n/a	37	n/a	1	n/a	n/a	n/a	n/a	342.079	n/a
301.814	0.497	neutral	Picture	46.838	n/a	3	8	18	n/a	38	24	1	n/a	n/a	n/a	n/a	342.61	BM05NES.jpg
302.311	0.514	Blank	Blank	46.324	n/a	3	8	18	n/a	38	n/a	1	n/a	n/a	n/a	n/a	343.107	n/a
302.842	0.497	neutral	Picture	45.81	n/a	3	8	19	n/a	39	29	1	n/a	n/a	n/a	n/a	343.638	AM10NES.jpg
303.339	0.514	Blank	Blank	45.296	n/a	3	8	19	n/a	39	n/a	1	n/a	n/a	n/a	n/a	344.135	n/a
303.87	0.497	neutral	Picture	44.782	n/a	3	8	20	n/a	40	23	1	n/a	n/a	n/a	n/a	344.666	AM04NES.jpg
304.367	0.514	Blank	Blank	44.268	n/a	3	8	20	n/a	40	n/a	1	n/a	n/a	n/a	n/a	345.163	n/a
304.898	10.014	ITI	Fixation+	34.238	n/a	3	n/a	n/a	n/a	n/a	n/a	n/a	n/a	n/a	n/a	n/a	345.693	n/a
314.928	0.497	happy	Picture	33.724	n/a	3	9	1	n/a	41	62	2	n/a	n/a	n/a	n/a	355.724	BM03HAS.jpg
315.425	0.514	Blank	Blank	33.21	n/a	3	9	1	n/a	41	n/a	2	n/a	n/a	n/a	n/a	356.221	n/a
315.956	0.497	happy	Picture	32.696	n/a	3	9	2	n/a	42	52	2	n/a	n/a	n/a	n/a	356.752	AF21HAS.jpg
316.453	0.514	Blank	Blank	32.182	n/a	3	9	2	n/a	42	n/a	2	n/a	n/a	n/a	n/a	357.249	n/a
316.984	0.497	happy	Picture	31.668	n/a	3	9	3	n/a	43	44	2	n/a	n/a	n/a	n/a	357.779	AF05HAS.jpg
317.481	0.514	Blank	Blank	31.154	n/a	3	9	3	n/a	43	n/a	2	n/a	n/a	n/a	n/a	358.277	n/a
318.012	0.497	happy	Picture	30.64	n/a	3	9	4	n/a	44	53	2	n/a	n/a	n/a	n/a	358.807	BF22HAS.jpg
318.509	0.514	Blank	Blank	30.126	n/a	3	9	4	n/a	44	n/a	2	n/a	n/a	n/a	n/a	359.305	n/a
319.039	0.497	happy	Picture	29.612	n/a	3	9	5	n/a	45	54	2	n/a	n/a	n/a	n/a	359.835	AF23HAS.jpg
319.537	0.514	Blank	Blank	29.099	n/a	3	9	5	n/a	45	n/a	2	n/a	n/a	n/a	n/a	360.332	n/a
320.067	0.497	happy	Picture	28.584	n/a	3	9	6	n/a	46	68	2	n/a	n/a	n/a	n/a	360.863	AM09HAS.jpg
320.565	0.514	Blank	Blank	28.071	n/a	3	9	6	n/a	46	n/a	2	n/a	n/a	n/a	n/a	361.36	n/a
321.095	0.497	happy	Picture	27.557	n/a	3	9	7	n/a	47	64	2	n/a	n/a	n/a	n/a	361.891	BM05HAS.jpg
321.593	0.514	Blank	Blank	27.043	n/a	3	9	7	n/a	47	n/a	2	n/a	n/a	n/a	n/a	362.388	n/a
322.123	0.497	happy	Picture	26.529	n/a	3	9	8	n/a	48	59	2	n/a	n/a	n/a	n/a	362.919	AF31HAS.jpg
322.62	0.514	Blank	Blank	26.015	n/a	3	9	8	n/a	48	n/a	2	n/a	n/a	n/a	n/a	363.416	n/a
323.151	0.497	happy	Picture	25.501	n/a	3	9	9	n/a	49	41	2	n/a	n/a	n/a	n/a	363.947	AF01HAS.jpg
323.648	0.514	Blank	Blank	24.987	n/a	3	9	9	n/a	49	n/a	2	n/a	n/a	n/a	n/a	364.444	n/a
324.179	0.497	happy	Picture	24.473	n/a	3	9	10	n/a	50	73	2	n/a	n/a	n/a	n/a	364.974	AM21HAS.jpg
324.676	0.514	Blank	Blank	23.959	n/a	3	9	10	n/a	50	n/a	2	n/a	n/a	n/a	n/a	365.472	n/a
325.207	0.497	happy	Picture	23.445	n/a	3	9	11	n/a	51	65	2	n/a	n/a	n/a	n/a	366.002	BM06HAS.jpg
325.704	0.514	Blank	Blank	22.931	n/a	3	9	11	n/a	51	n/a	2	n/a	n/a	n/a	n/a	366.5	n/a
326.235	0.497	happy	Picture	22.417	n/a	3	9	12	n/a	52	56	2	n/a	n/a	n/a	n/a	367.03	AF26HAS.jpg
326.732	0.514	Blank	Blank	21.903	n/a	3	9	12	n/a	52	n/a	2	n/a	n/a	n/a	n/a	367.528	n/a
327.262	0.497	happy	Picture	21.389	n/a	3	9	13	n/a	53	45	2	n/a	n/a	n/a	n/a	368.058	BF07HAS.jpg
327.76	0.514	Blank	Blank	20.875	n/a	3	9	13	n/a	53	n/a	2	n/a	n/a	n/a	n/a	368.555	n/a
328.29	0.497	happy	Picture	20.362	n/a	3	9	14	n/a	54	78	2	n/a	n/a	n/a	n/a	369.086	BM26HAS.jpg
328.788	0.514	Blank	Blank	19.848	n/a	3	9	14	n/a	54	n/a	2	n/a	n/a	n/a	n/a	369.583	n/a
329.318	0.497	happy	Picture	19.334	n/a	3	9	15	n/a	55	50	2	n/a	n/a	n/a	n/a	370.114	AF18HAS.jpg
329.816	0.514	Blank	Blank	18.82	n/a	3	9	15	n/a	55	n/a	2	n/a	n/a	n/a	n/a	370.611	n/a
330.346	0.497	happy	Picture	18.306	n/a	3	9	16	n/a	56	47	2	n/a	n/a	n/a	n/a	371.142	BF11HAS.jpg
330.844	0.514	Blank	Blank	17.792	n/a	3	9	16	n/a	56	n/a	2	n/a	n/a	n/a	n/a	371.639	n/a
331.374	0.497	happy	Picture	17.278	n/a	3	9	17	n/a	57	77	2	n/a	n/a	n/a	n/a	372.17	BM25HAS.jpg
331.871	0.514	Blank	Blank	16.764	n/a	3	9	17	n/a	57	n/a	2	n/a	n/a	n/a	n/a	372.667	n/a
332.402	0.497	happy	Picture	16.25	n/a	3	9	18	n/a	58	57	2	n/a	n/a	n/a	n/a	373.198	BF28HAS.jpg
332.899	0.514	Blank	Blank	15.736	n/a	3	9	18	n/a	58	n/a	2	n/a	n/a	n/a	n/a	373.695	n/a
333.43	0.497	happy	Picture	15.222	n/a	3	9	19	n/a	59	61	2	n/a	n/a	n/a	n/a	374.225	AM01HAS.jpg
333.927	0.514	Blank	Blank	14.708	n/a	3	9	19	n/a	59	n/a	2	n/a	n/a	n/a	n/a	374.723	n/a
334.458	0.497	happy	Picture	14.194	n/a	3	9	20	n/a	60	79	2	n/a	n/a	n/a	n/a	375.253	BM28HAS.jpg
334.955	0.514	Blank	Blank	13.68	n/a	3	9	20	n/a	60	n/a	2	n/a	n/a	n/a	n/a	375.751	n/a
335.486	10.014	ITI	Fixation+	3.65	n/a	3	n/a	n/a	n/a	n/a	n/a	n/a	n/a	n/a	n/a	n/a	376.281	n/a
349.149	n/a	ConfirmRating	Rate	n/a	3.647	3	n/a	n/a	0	n/a	n/a	n/a	2	Happy	80	53	389.945	n/a
352.204	n/a	ConfirmRating	Rate	n/a	3.034	3	n/a	n/a	1	n/a	n/a	n/a	3	Happy	0	48	393.0	n/a
352.229	10.014	ITI	Fixation+	99.763	n/a	4	n/a	n/a	n/a	n/a	n/a	n/a	n/a	n/a	n/a	n/a	393.025	n/a
362.26	0.497	angry	Picture	99.249	n/a	4	10	1	n/a	61	119	3	n/a	n/a	n/a	n/a	403.056	BM28ANS.jpg
362.757	0.514	Blank	Blank	98.735	n/a	4	10	1	n/a	61	n/a	3	n/a	n/a	n/a	n/a	403.553	n/a
363.288	0.497	angry	Picture	98.221	n/a	4	10	2	n/a	62	100	3	n/a	n/a	n/a	n/a	404.084	AF32ANS.jpg
363.785	0.514	Blank	Blank	97.707	n/a	4	10	2	n/a	62	n/a	3	n/a	n/a	n/a	n/a	404.581	n/a
364.316	0.497	angry	Picture	97.193	n/a	4	10	3	n/a	63	118	3	n/a	n/a	n/a	n/a	405.111	BM26ANS.jpg
364.813	0.514	Blank	Blank	96.679	n/a	4	10	3	n/a	63	n/a	3	n/a	n/a	n/a	n/a	405.609	n/a
365.344	0.497	angry	Picture	96.165	n/a	4	10	4	n/a	64	89	3	n/a	n/a	n/a	n/a	406.139	AF17ANS.jpg
365.841	0.514	Blank	Blank	95.651	n/a	4	10	4	n/a	64	n/a	3	n/a	n/a	n/a	n/a	406.637	n/a
366.372	0.497	angry	Picture	95.137	n/a	4	10	5	n/a	65	116	3	n/a	n/a	n/a	n/a	407.167	BM24ANS.jpg
366.869	0.514	Blank	Blank	94.623	n/a	4	10	5	n/a	65	n/a	3	n/a	n/a	n/a	n/a	407.665	n/a
367.399	0.497	angry	Picture	94.109	n/a	4	10	6	n/a	66	105	3	n/a	n/a	n/a	n/a	408.195	BM06ANS.jpg
367.897	0.514	Blank	Blank	93.595	n/a	4	10	6	n/a	66	n/a	3	n/a	n/a	n/a	n/a	408.692	n/a
368.427	0.497	angry	Picture	93.082	n/a	4	10	7	n/a	67	106	3	n/a	n/a	n/a	n/a	409.223	AM07ANS.jpg
368.925	0.514	Blank	Blank	92.567	n/a	4	10	7	n/a	67	n/a	3	n/a	n/a	n/a	n/a	409.72	n/a
369.455	0.497	angry	Picture	92.054	n/a	4	10	8	n/a	68	94	3	n/a	n/a	n/a	n/a	410.251	AF23ANS.jpg
369.953	0.514	Blank	Blank	91.54	n/a	4	10	8	n/a	68	n/a	3	n/a	n/a	n/a	n/a	410.748	n/a
370.483	0.497	angry	Picture	91.026	n/a	4	10	9	n/a	69	117	3	n/a	n/a	n/a	n/a	411.279	BM25ANS.jpg
370.981	0.514	Blank	Blank	90.512	n/a	4	10	9	n/a	69	n/a	3	n/a	n/a	n/a	n/a	411.776	n/a
371.511	0.497	angry	Picture	89.998	n/a	4	10	10	n/a	70	90	3	n/a	n/a	n/a	n/a	412.307	AF18ANS.jpg
372.008	0.514	Blank	Blank	89.484	n/a	4	10	10	n/a	70	n/a	3	n/a	n/a	n/a	n/a	412.804	n/a
372.539	0.497	angry	Picture	88.97	n/a	4	10	11	n/a	71	83	3	n/a	n/a	n/a	n/a	413.335	BF04ANS.jpg
373.036	0.514	Blank	Blank	88.456	n/a	4	10	11	n/a	71	n/a	3	n/a	n/a	n/a	n/a	413.832	n/a
373.567	0.497	angry	Picture	87.942	n/a	4	10	12	n/a	72	112	3	n/a	n/a	n/a	n/a	414.363	AM14ANS.jpg
374.064	0.514	Blank	Blank	87.428	n/a	4	10	12	n/a	72	n/a	3	n/a	n/a	n/a	n/a	414.86	n/a
374.595	0.497	angry	Picture	86.914	n/a	4	10	13	n/a	73	102	3	n/a	n/a	n/a	n/a	415.39	BM03ANS.jpg
375.092	0.514	Blank	Blank	86.4	n/a	4	10	13	n/a	73	n/a	3	n/a	n/a	n/a	n/a	415.888	n/a
375.623	0.497	angry	Picture	85.886	n/a	4	10	14	n/a	74	95	3	n/a	n/a	n/a	n/a	416.418	AF25ANS.jpg
376.12	0.514	Blank	Blank	85.372	n/a	4	10	14	n/a	74	n/a	3	n/a	n/a	n/a	n/a	416.916	n/a
376.65	0.497	angry	Picture	84.858	n/a	4	10	15	n/a	75	113	3	n/a	n/a	n/a	n/a	417.446	AM21ANS.jpg
377.148	0.514	Blank	Blank	84.345	n/a	4	10	15	n/a	75	n/a	3	n/a	n/a	n/a	n/a	417.943	n/a
377.678	0.497	angry	Picture	83.831	n/a	4	10	16	n/a	76	88	3	n/a	n/a	n/a	n/a	418.474	AF14ANS.jpg
378.176	0.514	Blank	Blank	83.317	n/a	4	10	16	n/a	76	n/a	3	n/a	n/a	n/a	n/a	418.971	n/a
378.706	0.497	angry	Picture	82.803	n/a	4	10	17	n/a	77	93	3	n/a	n/a	n/a	n/a	419.502	BF22ANS.jpg
379.203	0.514	Blank	Blank	82.289	n/a	4	10	17	n/a	77	n/a	3	n/a	n/a	n/a	n/a	419.999	n/a
379.734	0.497	angry	Picture	81.775	n/a	4	10	18	n/a	78	86	3	n/a	n/a	n/a	n/a	420.53	AF09ANS.jpg
380.231	0.514	Blank	Blank	81.261	n/a	4	10	18	n/a	78	n/a	3	n/a	n/a	n/a	n/a	421.027	n/a
380.762	0.497	angry	Picture	80.747	n/a	4	10	19	n/a	79	92	3	n/a	n/a	n/a	n/a	421.558	AF21ANS.jpg
381.259	0.514	Blank	Blank	80.233	n/a	4	10	19	n/a	79	n/a	3	n/a	n/a	n/a	n/a	422.055	n/a
381.79	0.497	angry	Picture	79.719	n/a	4	10	20	n/a	80	84	3	n/a	n/a	n/a	n/a	422.586	AF05ANS.jpg
382.287	0.514	Blank	Blank	79.205	n/a	4	10	20	n/a	80	n/a	3	n/a	n/a	n/a	n/a	423.083	n/a
382.818	10.014	ITI	Fixation+	69.175	n/a	4	n/a	n/a	n/a	n/a	n/a	n/a	n/a	n/a	n/a	n/a	423.613	n/a
392.848	0.497	neutral	Picture	68.661	n/a	4	11	1	n/a	81	4	1	n/a	n/a	n/a	n/a	433.644	AF05NES.jpg
393.345	0.514	Blank	Blank	68.147	n/a	4	11	1	n/a	81	n/a	1	n/a	n/a	n/a	n/a	434.141	n/a
393.876	0.497	neutral	Picture	67.633	n/a	4	11	2	n/a	82	14	1	n/a	n/a	n/a	n/a	434.671	AF23NES.jpg
394.373	0.514	Blank	Blank	67.119	n/a	4	11	2	n/a	82	n/a	1	n/a	n/a	n/a	n/a	435.169	n/a
394.904	0.497	neutral	Picture	66.605	n/a	4	11	3	n/a	83	19	1	n/a	n/a	n/a	n/a	435.699	AF31NES.jpg
395.401	0.514	Blank	Blank	66.091	n/a	4	11	3	n/a	83	n/a	1	n/a	n/a	n/a	n/a	436.197	n/a
395.931	0.497	neutral	Picture	65.577	n/a	4	11	4	n/a	84	8	1	n/a	n/a	n/a	n/a	436.727	AF14NES.jpg
396.429	0.514	Blank	Blank	65.064	n/a	4	11	4	n/a	84	n/a	1	n/a	n/a	n/a	n/a	437.224	n/a
396.959	0.497	neutral	Picture	64.549	n/a	4	11	5	n/a	85	25	1	n/a	n/a	n/a	n/a	437.755	BM06NES.jpg
397.457	0.514	Blank	Blank	64.036	n/a	4	11	5	n/a	85	n/a	1	n/a	n/a	n/a	n/a	438.252	n/a
397.987	0.497	neutral	Picture	63.522	n/a	4	11	6	n/a	86	9	1	n/a	n/a	n/a	n/a	438.783	AF17NES.jpg
398.484	0.514	Blank	Blank	63.008	n/a	4	11	6	n/a	86	n/a	1	n/a	n/a	n/a	n/a	439.28	n/a
399.015	0.497	neutral	Picture	62.494	n/a	4	11	7	n/a	87	2	1	n/a	n/a	n/a	n/a	439.811	AF03NES.jpg
399.512	0.514	Blank	Blank	61.98	n/a	4	11	7	n/a	87	n/a	1	n/a	n/a	n/a	n/a	440.308	n/a
400.043	0.497	neutral	Picture	61.466	n/a	4	11	8	n/a	88	17	1	n/a	n/a	n/a	n/a	440.839	BF28NES.jpg
400.54	0.514	Blank	Blank	60.952	n/a	4	11	8	n/a	88	n/a	1	n/a	n/a	n/a	n/a	441.336	n/a
401.071	0.497	neutral	Picture	60.438	n/a	4	11	9	n/a	89	6	1	n/a	n/a	n/a	n/a	441.866	AF09NES.jpg
401.568	0.514	Blank	Blank	59.924	n/a	4	11	9	n/a	89	n/a	1	n/a	n/a	n/a	n/a	442.364	n/a
402.099	0.497	neutral	Picture	59.41	n/a	4	11	10	n/a	90	12	1	n/a	n/a	n/a	n/a	442.894	AF21NES.jpg
402.596	0.514	Blank	Blank	58.896	n/a	4	11	10	n/a	90	n/a	1	n/a	n/a	n/a	n/a	443.392	n/a
403.127	0.497	neutral	Picture	58.382	n/a	4	11	11	n/a	91	24	1	n/a	n/a	n/a	n/a	443.922	BM05NES.jpg
403.624	0.514	Blank	Blank	57.868	n/a	4	11	11	n/a	91	n/a	1	n/a	n/a	n/a	n/a	444.42	n/a
404.154	0.497	neutral	Picture	57.354	n/a	4	11	12	n/a	92	34	1	n/a	n/a	n/a	n/a	444.95	AM22NES.jpg
404.652	0.514	Blank	Blank	56.841	n/a	4	11	12	n/a	92	n/a	1	n/a	n/a	n/a	n/a	445.447	n/a
405.182	0.497	neutral	Picture	56.326	n/a	4	11	13	n/a	93	23	1	n/a	n/a	n/a	n/a	445.978	AM04NES.jpg
405.68	0.514	Blank	Blank	55.813	n/a	4	11	13	n/a	93	n/a	1	n/a	n/a	n/a	n/a	446.475	n/a
406.21	0.497	neutral	Picture	55.299	n/a	4	11	14	n/a	94	15	1	n/a	n/a	n/a	n/a	447.006	AF25NES.jpg
406.708	0.514	Blank	Blank	54.785	n/a	4	11	14	n/a	94	n/a	1	n/a	n/a	n/a	n/a	447.503	n/a
407.238	0.497	neutral	Picture	54.271	n/a	4	11	15	n/a	95	37	1	n/a	n/a	n/a	n/a	448.034	BM25NES.jpg
407.735	0.514	Blank	Blank	53.757	n/a	4	11	15	n/a	95	n/a	1	n/a	n/a	n/a	n/a	448.531	n/a
408.266	0.497	neutral	Picture	53.243	n/a	4	11	16	n/a	96	32	1	n/a	n/a	n/a	n/a	449.062	AM14NES.jpg
408.763	0.514	Blank	Blank	52.729	n/a	4	11	16	n/a	96	n/a	1	n/a	n/a	n/a	n/a	449.559	n/a
409.294	0.497	neutral	Picture	52.215	n/a	4	11	17	n/a	97	3	1	n/a	n/a	n/a	n/a	450.089	BF04NES.jpg
409.791	0.514	Blank	Blank	51.701	n/a	4	11	17	n/a	97	n/a	1	n/a	n/a	n/a	n/a	450.587	n/a
410.322	0.497	neutral	Picture	51.187	n/a	4	11	18	n/a	98	16	1	n/a	n/a	n/a	n/a	451.117	AF26NES.jpg
410.819	0.514	Blank	Blank	50.673	n/a	4	11	18	n/a	98	n/a	1	n/a	n/a	n/a	n/a	451.615	n/a
411.35	0.497	neutral	Picture	50.159	n/a	4	11	19	n/a	99	27	1	n/a	n/a	n/a	n/a	452.145	BM08NES.jpg
411.847	0.514	Blank	Blank	49.645	n/a	4	11	19	n/a	99	n/a	1	n/a	n/a	n/a	n/a	452.643	n/a
412.377	0.497	neutral	Picture	49.131	n/a	4	11	20	n/a	100	28	1	n/a	n/a	n/a	n/a	453.173	AM09NES.jpg
412.875	0.514	Blank	Blank	48.617	n/a	4	11	20	n/a	100	n/a	1	n/a	n/a	n/a	n/a	453.671	n/a
413.405	10.014	ITI	Fixation+	38.587	n/a	4	n/a	n/a	n/a	n/a	n/a	n/a	n/a	n/a	n/a	n/a	454.201	n/a
423.435	0.497	angry	Picture	38.073	n/a	4	12	1	n/a	101	81	3	n/a	n/a	n/a	n/a	464.231	AF01ANS.jpg
423.933	0.514	Blank	Blank	37.559	n/a	4	12	1	n/a	101	n/a	3	n/a	n/a	n/a	n/a	464.728	n/a
424.463	0.497	angry	Picture	37.045	n/a	4	12	2	n/a	102	120	3	n/a	n/a	n/a	n/a	465.259	AM35ANS.jpg
424.961	0.514	Blank	Blank	36.532	n/a	4	12	2	n/a	102	n/a	3	n/a	n/a	n/a	n/a	465.756	n/a
425.491	0.497	angry	Picture	36.018	n/a	4	12	3	n/a	103	114	3	n/a	n/a	n/a	n/a	466.287	AM22ANS.jpg
425.989	0.514	Blank	Blank	35.504	n/a	4	12	3	n/a	103	n/a	3	n/a	n/a	n/a	n/a	466.784	n/a
426.519	0.497	angry	Picture	34.99	n/a	4	12	4	n/a	104	109	3	n/a	n/a	n/a	n/a	467.315	AM10ANS.jpg
427.017	0.514	Blank	Blank	34.476	n/a	4	12	4	n/a	104	n/a	3	n/a	n/a	n/a	n/a	467.812	n/a
427.547	0.497	angry	Picture	33.962	n/a	4	12	5	n/a	105	96	3	n/a	n/a	n/a	n/a	468.343	AF26ANS.jpg
428.044	0.514	Blank	Blank	33.448	n/a	4	12	5	n/a	105	n/a	3	n/a	n/a	n/a	n/a	468.84	n/a
428.575	0.497	angry	Picture	32.934	n/a	4	12	6	n/a	106	82	3	n/a	n/a	n/a	n/a	469.371	AF03ANS.jpg
429.072	0.514	Blank	Blank	32.42	n/a	4	12	6	n/a	106	n/a	3	n/a	n/a	n/a	n/a	469.868	n/a
429.603	0.497	angry	Picture	31.906	n/a	4	12	7	n/a	107	97	3	n/a	n/a	n/a	n/a	470.398	BF28ANS.jpg
430.1	0.514	Blank	Blank	31.392	n/a	4	12	7	n/a	107	n/a	3	n/a	n/a	n/a	n/a	470.896	n/a
430.631	0.497	angry	Picture	30.878	n/a	4	12	8	n/a	108	115	3	n/a	n/a	n/a	n/a	471.426	AM23ANS.jpg
431.128	0.514	Blank	Blank	30.364	n/a	4	12	8	n/a	108	n/a	3	n/a	n/a	n/a	n/a	471.924	n/a
431.659	0.497	angry	Picture	29.85	n/a	4	12	9	n/a	109	91	3	n/a	n/a	n/a	n/a	472.454	AF20ANS.jpg
432.156	0.514	Blank	Blank	29.336	n/a	4	12	9	n/a	109	n/a	3	n/a	n/a	n/a	n/a	472.952	n/a
432.686	0.497	angry	Picture	28.822	n/a	4	12	10	n/a	110	87	3	n/a	n/a	n/a	n/a	473.482	BF11ANS.jpg
433.184	0.514	Blank	Blank	28.308	n/a	4	12	10	n/a	110	n/a	3	n/a	n/a	n/a	n/a	473.979	n/a
433.714	0.497	angry	Picture	27.795	n/a	4	12	11	n/a	111	85	3	n/a	n/a	n/a	n/a	474.51	BF07ANS.jpg
434.212	0.514	Blank	Blank	27.281	n/a	4	12	11	n/a	111	n/a	3	n/a	n/a	n/a	n/a	475.007	n/a
434.742	0.497	angry	Picture	26.767	n/a	4	12	12	n/a	112	110	3	n/a	n/a	n/a	n/a	475.538	AM11ANS.jpg
435.239	0.514	Blank	Blank	26.253	n/a	4	12	12	n/a	112	n/a	3	n/a	n/a	n/a	n/a	476.035	n/a
435.77	0.497	angry	Picture	25.739	n/a	4	12	13	n/a	113	111	3	n/a	n/a	n/a	n/a	476.566	BM12ANS.jpg
436.267	0.514	Blank	Blank	25.225	n/a	4	12	13	n/a	113	n/a	3	n/a	n/a	n/a	n/a	477.063	n/a
436.798	0.497	angry	Picture	24.711	n/a	4	12	14	n/a	114	103	3	n/a	n/a	n/a	n/a	477.594	AM04ANS.jpg
437.295	0.514	Blank	Blank	24.197	n/a	4	12	14	n/a	114	n/a	3	n/a	n/a	n/a	n/a	478.091	n/a
437.826	0.497	angry	Picture	23.683	n/a	4	12	15	n/a	115	101	3	n/a	n/a	n/a	n/a	478.622	AM01ANS.jpg
438.323	0.514	Blank	Blank	23.169	n/a	4	12	15	n/a	115	n/a	3	n/a	n/a	n/a	n/a	479.119	n/a
438.854	0.497	angry	Picture	22.655	n/a	4	12	16	n/a	116	104	3	n/a	n/a	n/a	n/a	479.649	BM05ANS.jpg
439.351	0.514	Blank	Blank	22.141	n/a	4	12	16	n/a	116	n/a	3	n/a	n/a	n/a	n/a	480.147	n/a
439.882	0.497	angry	Picture	21.627	n/a	4	12	17	n/a	117	107	3	n/a	n/a	n/a	n/a	480.677	BM08ANS.jpg
440.379	0.514	Blank	Blank	21.113	n/a	4	12	17	n/a	117	n/a	3	n/a	n/a	n/a	n/a	481.175	n/a
440.909	0.497	angry	Picture	20.599	n/a	4	12	18	n/a	118	98	3	n/a	n/a	n/a	n/a	481.705	BF29ANS.jpg
441.407	0.514	Blank	Blank	20.086	n/a	4	12	18	n/a	118	n/a	3	n/a	n/a	n/a	n/a	482.202	n/a
441.937	0.497	angry	Picture	19.572	n/a	4	12	19	n/a	119	99	3	n/a	n/a	n/a	n/a	482.733	AF31ANS.jpg
442.435	0.514	Blank	Blank	19.058	n/a	4	12	19	n/a	119	n/a	3	n/a	n/a	n/a	n/a	483.23	n/a
442.965	0.497	angry	Picture	18.544	n/a	4	12	20	n/a	120	108	3	n/a	n/a	n/a	n/a	483.761	AM09ANS.jpg
443.462	0.514	Blank	Blank	18.03	n/a	4	12	20	n/a	120	n/a	3	n/a	n/a	n/a	n/a	484.258	n/a
443.993	10.014	ITI	Fixation+	8.0	n/a	4	n/a	n/a	n/a	n/a	n/a	n/a	n/a	n/a	n/a	n/a	484.789	n/a
462.006	n/a	ConfirmRating	Rate	n/a	7.991	4	n/a	n/a	0	n/a	n/a	n/a	2	Angry	24	49	502.802	n/a
464.644	n/a	ConfirmRating	Rate	n/a	2.619	4	n/a	n/a	1	n/a	n/a	n/a	3	Angry	50	50	505.44	n/a
