onset	duration	trial_type	event_type	time_until_response	response_time	trial_number	block_num_within_trial	image_seq_num_within_block	question_seq_num_within_block	image_seq_num	picture_number	condition	question_type	block_type	rating	rating_computed	onset_uncorrected	KDEV_imagefile
0.005	10.014	ITI	Fixation+	101.623	n/a	1	n/a	n/a	n/a	n/a	n/a	n/a	n/a	n/a	n/a	n/a	25.327	n/a
10.035	0.497	angry	Picture	101.109	n/a	1	1	1	n/a	1	46	2	n/a	n/a	n/a	n/a	35.357	AF09HAS.jpg
10.533	0.514	Blank	Blank	100.595	n/a	1	1	1	n/a	1	n/a	2	n/a	n/a	n/a	n/a	35.855	n/a
11.063	0.497	angry	Picture	100.081	n/a	1	1	2	n/a	2	69	2	n/a	n/a	n/a	n/a	36.385	AM10HAS.jpg
11.561	0.514	Blank	Blank	99.567	n/a	1	1	2	n/a	2	n/a	2	n/a	n/a	n/a	n/a	36.883	n/a
12.091	0.497	angry	Picture	99.053	n/a	1	1	3	n/a	3	71	2	n/a	n/a	n/a	n/a	37.413	BM12HAS.jpg
12.588	0.514	Blank	Blank	98.539	n/a	1	1	3	n/a	3	n/a	2	n/a	n/a	n/a	n/a	37.91	n/a
13.119	0.497	angry	Picture	98.025	n/a	1	1	4	n/a	4	51	2	n/a	n/a	n/a	n/a	38.441	AF20HAS.jpg
13.616	0.514	Blank	Blank	97.511	n/a	1	1	4	n/a	4	n/a	2	n/a	n/a	n/a	n/a	38.938	n/a
14.147	0.497	angry	Picture	96.997	n/a	1	1	5	n/a	5	67	2	n/a	n/a	n/a	n/a	39.469	BM08HAS.jpg
14.644	0.514	Blank	Blank	96.483	n/a	1	1	5	n/a	5	n/a	2	n/a	n/a	n/a	n/a	39.966	n/a
15.175	0.497	angry	Picture	95.969	n/a	1	1	6	n/a	6	60	2	n/a	n/a	n/a	n/a	40.497	AF32HAS.jpg
15.672	0.514	Blank	Blank	95.455	n/a	1	1	6	n/a	6	n/a	2	n/a	n/a	n/a	n/a	40.994	n/a
16.203	0.497	angry	Picture	94.941	n/a	1	1	7	n/a	7	42	2	n/a	n/a	n/a	n/a	41.525	AF03HAS.jpg
16.7	0.514	Blank	Blank	94.427	n/a	1	1	7	n/a	7	n/a	2	n/a	n/a	n/a	n/a	42.022	n/a
17.231	0.497	angry	Picture	93.913	n/a	1	1	8	n/a	8	55	2	n/a	n/a	n/a	n/a	42.553	AF25HAS.jpg
17.728	0.514	Blank	Blank	93.399	n/a	1	1	8	n/a	8	n/a	2	n/a	n/a	n/a	n/a	43.05	n/a
18.258	0.497	angry	Picture	92.886	n/a	1	1	9	n/a	9	72	2	n/a	n/a	n/a	n/a	43.58	AM14HAS.jpg
18.756	0.514	Blank	Blank	92.371	n/a	1	1	9	n/a	9	n/a	2	n/a	n/a	n/a	n/a	44.078	n/a
19.286	0.497	angry	Picture	91.858	n/a	1	1	10	n/a	10	63	2	n/a	n/a	n/a	n/a	44.608	AM04HAS.jpg
19.784	0.514	Blank	Blank	91.344	n/a	1	1	10	n/a	10	n/a	2	n/a	n/a	n/a	n/a	45.106	n/a
20.314	0.497	angry	Picture	90.83	n/a	1	1	11	n/a	11	58	2	n/a	n/a	n/a	n/a	45.636	BF29HAS.jpg
20.811	0.514	Blank	Blank	90.316	n/a	1	1	11	n/a	11	n/a	2	n/a	n/a	n/a	n/a	46.133	n/a
21.342	0.497	angry	Picture	89.802	n/a	1	1	12	n/a	12	48	2	n/a	n/a	n/a	n/a	46.664	AF14HAS.jpg
21.839	0.514	Blank	Blank	89.288	n/a	1	1	12	n/a	12	n/a	2	n/a	n/a	n/a	n/a	47.161	n/a
22.37	0.497	angry	Picture	88.774	n/a	1	1	13	n/a	13	66	2	n/a	n/a	n/a	n/a	47.692	BM07HAS.jpg
22.867	0.514	Blank	Blank	88.26	n/a	1	1	13	n/a	13	n/a	2	n/a	n/a	n/a	n/a	48.189	n/a
23.398	0.497	angry	Picture	87.746	n/a	1	1	14	n/a	14	70	2	n/a	n/a	n/a	n/a	48.72	BM11HAS.jpg
23.895	0.514	Blank	Blank	87.232	n/a	1	1	14	n/a	14	n/a	2	n/a	n/a	n/a	n/a	49.217	n/a
24.426	0.497	angry	Picture	86.718	n/a	1	1	15	n/a	15	43	2	n/a	n/a	n/a	n/a	49.748	BF04HAS.jpg
24.923	0.514	Blank	Blank	86.204	n/a	1	1	15	n/a	15	n/a	2	n/a	n/a	n/a	n/a	50.245	n/a
25.454	0.497	angry	Picture	85.69	n/a	1	1	16	n/a	16	49	2	n/a	n/a	n/a	n/a	50.776	AF17HAS.jpg
25.951	0.514	Blank	Blank	85.176	n/a	1	1	16	n/a	16	n/a	2	n/a	n/a	n/a	n/a	51.273	n/a
26.482	0.497	angry	Picture	84.662	n/a	1	1	17	n/a	17	75	2	n/a	n/a	n/a	n/a	51.803	AM23HAS.jpg
26.979	0.514	Blank	Blank	84.148	n/a	1	1	17	n/a	17	n/a	2	n/a	n/a	n/a	n/a	52.301	n/a
27.509	0.497	angry	Picture	83.635	n/a	1	1	18	n/a	18	80	2	n/a	n/a	n/a	n/a	52.831	BM35HAS.jpg
28.007	0.514	Blank	Blank	83.121	n/a	1	1	18	n/a	18	n/a	2	n/a	n/a	n/a	n/a	53.329	n/a
28.537	0.497	angry	Picture	82.607	n/a	1	1	19	n/a	19	76	2	n/a	n/a	n/a	n/a	53.859	BM24HAS.jpg
29.035	0.514	Blank	Blank	82.093	n/a	1	1	19	n/a	19	n/a	2	n/a	n/a	n/a	n/a	54.357	n/a
29.565	0.497	angry	Picture	81.579	n/a	1	1	20	n/a	20	74	2	n/a	n/a	n/a	n/a	54.887	AM22HAS.jpg
30.063	0.514	Blank	Blank	81.065	n/a	1	1	20	n/a	20	n/a	2	n/a	n/a	n/a	n/a	55.385	n/a
30.593	10.014	ITI	Fixation+	71.035	n/a	1	n/a	n/a	n/a	n/a	n/a	n/a	n/a	n/a	n/a	n/a	55.915	n/a
40.623	0.497	neutral	Picture	70.521	n/a	1	2	1	n/a	21	33	1	n/a	n/a	n/a	n/a	65.945	AM21NES.jpg
41.12	0.514	Blank	Blank	70.007	n/a	1	2	1	n/a	21	n/a	1	n/a	n/a	n/a	n/a	66.442	n/a
41.651	0.497	neutral	Picture	69.493	n/a	1	2	2	n/a	22	39	1	n/a	n/a	n/a	n/a	66.973	AM28NES.jpg
42.148	0.514	Blank	Blank	68.979	n/a	1	2	2	n/a	22	n/a	1	n/a	n/a	n/a	n/a	67.47	n/a
42.679	0.497	neutral	Picture	68.465	n/a	1	2	3	n/a	23	25	1	n/a	n/a	n/a	n/a	68.001	BM06NES.jpg
43.176	0.514	Blank	Blank	67.951	n/a	1	2	3	n/a	23	n/a	1	n/a	n/a	n/a	n/a	68.498	n/a
43.707	0.497	neutral	Picture	67.437	n/a	1	2	4	n/a	24	5	1	n/a	n/a	n/a	n/a	69.029	BF07NES.jpg
44.204	0.514	Blank	Blank	66.923	n/a	1	2	4	n/a	24	n/a	1	n/a	n/a	n/a	n/a	69.526	n/a
44.735	0.497	neutral	Picture	66.409	n/a	1	2	5	n/a	25	10	1	n/a	n/a	n/a	n/a	70.057	AF18NES.jpg
45.232	0.514	Blank	Blank	65.895	n/a	1	2	5	n/a	25	n/a	1	n/a	n/a	n/a	n/a	70.554	n/a
45.763	0.497	neutral	Picture	65.381	n/a	1	2	6	n/a	26	34	1	n/a	n/a	n/a	n/a	71.085	AM22NES.jpg
46.26	0.514	Blank	Blank	64.867	n/a	1	2	6	n/a	26	n/a	1	n/a	n/a	n/a	n/a	71.582	n/a
46.79	0.497	neutral	Picture	64.353	n/a	1	2	7	n/a	27	36	1	n/a	n/a	n/a	n/a	72.112	BM24NES.jpg
47.288	0.514	Blank	Blank	63.839	n/a	1	2	7	n/a	27	n/a	1	n/a	n/a	n/a	n/a	72.61	n/a
47.818	0.497	neutral	Picture	63.325	n/a	1	2	8	n/a	28	14	1	n/a	n/a	n/a	n/a	73.14	AF23NES.jpg
48.316	0.514	Blank	Blank	62.812	n/a	1	2	8	n/a	28	n/a	1	n/a	n/a	n/a	n/a	73.638	n/a
48.846	0.497	neutral	Picture	62.298	n/a	1	2	9	n/a	29	9	1	n/a	n/a	n/a	n/a	74.168	AF17NES.jpg
49.344	0.514	Blank	Blank	61.784	n/a	1	2	9	n/a	29	n/a	1	n/a	n/a	n/a	n/a	74.666	n/a
49.874	0.497	neutral	Picture	61.27	n/a	1	2	10	n/a	30	19	1	n/a	n/a	n/a	n/a	75.196	AF31NES.jpg
50.371	0.514	Blank	Blank	60.756	n/a	1	2	10	n/a	30	n/a	1	n/a	n/a	n/a	n/a	75.694	n/a
50.902	0.497	neutral	Picture	60.242	n/a	1	2	11	n/a	31	15	1	n/a	n/a	n/a	n/a	76.224	AF25NES.jpg
51.399	0.514	Blank	Blank	59.728	n/a	1	2	11	n/a	31	n/a	1	n/a	n/a	n/a	n/a	76.721	n/a
51.93	0.497	neutral	Picture	59.214	n/a	1	2	12	n/a	32	22	1	n/a	n/a	n/a	n/a	77.252	BM03NES.jpg
52.427	0.514	Blank	Blank	58.7	n/a	1	2	12	n/a	32	n/a	1	n/a	n/a	n/a	n/a	77.749	n/a
52.958	0.497	neutral	Picture	58.186	n/a	1	2	13	n/a	33	11	1	n/a	n/a	n/a	n/a	78.28	AF20NES.jpg
53.455	0.514	Blank	Blank	57.672	n/a	1	2	13	n/a	33	n/a	1	n/a	n/a	n/a	n/a	78.777	n/a
53.986	0.497	neutral	Picture	57.158	n/a	1	2	14	n/a	34	4	1	n/a	n/a	n/a	n/a	79.308	AF05NES.jpg
54.483	0.514	Blank	Blank	56.644	n/a	1	2	14	n/a	34	n/a	1	n/a	n/a	n/a	n/a	79.805	n/a
55.014	0.497	neutral	Picture	56.13	n/a	1	2	15	n/a	35	17	1	n/a	n/a	n/a	n/a	80.336	BF28NES.jpg
55.511	0.514	Blank	Blank	55.616	n/a	1	2	15	n/a	35	n/a	1	n/a	n/a	n/a	n/a	80.833	n/a
56.041	0.497	neutral	Picture	55.102	n/a	1	2	16	n/a	36	13	1	n/a	n/a	n/a	n/a	81.364	BF22NES.jpg
56.539	0.514	Blank	Blank	54.588	n/a	1	2	16	n/a	36	n/a	1	n/a	n/a	n/a	n/a	81.861	n/a
57.069	0.497	neutral	Picture	54.074	n/a	1	2	17	n/a	37	12	1	n/a	n/a	n/a	n/a	82.391	AF21NES.jpg
57.567	0.514	Blank	Blank	53.56	n/a	1	2	17	n/a	37	n/a	1	n/a	n/a	n/a	n/a	82.889	n/a
58.097	0.497	neutral	Picture	53.047	n/a	1	2	18	n/a	38	24	1	n/a	n/a	n/a	n/a	83.419	BM05NES.jpg
58.595	0.514	Blank	Blank	52.533	n/a	1	2	18	n/a	38	n/a	1	n/a	n/a	n/a	n/a	83.917	n/a
59.125	0.497	neutral	Picture	52.019	n/a	1	2	19	n/a	39	29	1	n/a	n/a	n/a	n/a	84.447	AM10NES.jpg
59.623	0.514	Blank	Blank	51.505	n/a	1	2	19	n/a	39	n/a	1	n/a	n/a	n/a	n/a	84.945	n/a
60.153	0.497	neutral	Picture	50.991	n/a	1	2	20	n/a	40	23	1	n/a	n/a	n/a	n/a	85.475	AM04NES.jpg
60.65	0.514	Blank	Blank	50.477	n/a	1	2	20	n/a	40	n/a	1	n/a	n/a	n/a	n/a	85.972	n/a
61.181	10.014	ITI	Fixation+	40.447	n/a	1	n/a	n/a	n/a	n/a	n/a	n/a	n/a	n/a	n/a	n/a	86.503	n/a
71.211	0.497	angry	Picture	39.933	n/a	1	3	1	n/a	41	62	2	n/a	n/a	n/a	n/a	96.533	BM03HAS.jpg
71.709	0.514	Blank	Blank	39.419	n/a	1	3	1	n/a	41	n/a	2	n/a	n/a	n/a	n/a	97.031	n/a
72.239	0.497	angry	Picture	38.905	n/a	1	3	2	n/a	42	52	2	n/a	n/a	n/a	n/a	97.561	AF21HAS.jpg
72.736	0.514	Blank	Blank	38.391	n/a	1	3	2	n/a	42	n/a	2	n/a	n/a	n/a	n/a	98.058	n/a
73.267	0.497	angry	Picture	37.877	n/a	1	3	3	n/a	43	44	2	n/a	n/a	n/a	n/a	98.589	AF05HAS.jpg
73.764	0.514	Blank	Blank	37.363	n/a	1	3	3	n/a	43	n/a	2	n/a	n/a	n/a	n/a	99.086	n/a
74.295	0.497	angry	Picture	36.849	n/a	1	3	4	n/a	44	53	2	n/a	n/a	n/a	n/a	99.617	BF22HAS.jpg
74.792	0.514	Blank	Blank	36.335	n/a	1	3	4	n/a	44	n/a	2	n/a	n/a	n/a	n/a	100.114	n/a
75.323	0.497	angry	Picture	35.821	n/a	1	3	5	n/a	45	54	2	n/a	n/a	n/a	n/a	100.645	AF23HAS.jpg
75.82	0.514	Blank	Blank	35.307	n/a	1	3	5	n/a	45	n/a	2	n/a	n/a	n/a	n/a	101.142	n/a
76.35	0.497	angry	Picture	34.793	n/a	1	3	6	n/a	46	68	2	n/a	n/a	n/a	n/a	101.672	AM09HAS.jpg
76.848	0.514	Blank	Blank	34.279	n/a	1	3	6	n/a	46	n/a	2	n/a	n/a	n/a	n/a	102.17	n/a
77.378	0.497	angry	Picture	33.765	n/a	1	3	7	n/a	47	64	2	n/a	n/a	n/a	n/a	102.7	BM05HAS.jpg
77.876	0.514	Blank	Blank	33.251	n/a	1	3	7	n/a	47	n/a	2	n/a	n/a	n/a	n/a	103.198	n/a
78.406	0.497	angry	Picture	32.737	n/a	1	3	8	n/a	48	59	2	n/a	n/a	n/a	n/a	103.728	AF31HAS.jpg
78.904	0.514	Blank	Blank	32.224	n/a	1	3	8	n/a	48	n/a	2	n/a	n/a	n/a	n/a	104.226	n/a
79.434	0.497	angry	Picture	31.71	n/a	1	3	9	n/a	49	41	2	n/a	n/a	n/a	n/a	104.756	AF01HAS.jpg
79.931	0.514	Blank	Blank	31.196	n/a	1	3	9	n/a	49	n/a	2	n/a	n/a	n/a	n/a	105.254	n/a
80.462	0.497	angry	Picture	30.682	n/a	1	3	10	n/a	50	73	2	n/a	n/a	n/a	n/a	105.784	AM21HAS.jpg
80.959	0.514	Blank	Blank	30.168	n/a	1	3	10	n/a	50	n/a	2	n/a	n/a	n/a	n/a	106.281	n/a
81.49	0.497	angry	Picture	29.654	n/a	1	3	11	n/a	51	65	2	n/a	n/a	n/a	n/a	106.812	BM06HAS.jpg
81.987	0.514	Blank	Blank	29.14	n/a	1	3	11	n/a	51	n/a	2	n/a	n/a	n/a	n/a	107.309	n/a
82.518	0.497	angry	Picture	28.626	n/a	1	3	12	n/a	52	56	2	n/a	n/a	n/a	n/a	107.84	AF26HAS.jpg
83.015	0.514	Blank	Blank	28.112	n/a	1	3	12	n/a	52	n/a	2	n/a	n/a	n/a	n/a	108.337	n/a
83.546	0.497	angry	Picture	27.598	n/a	1	3	13	n/a	53	45	2	n/a	n/a	n/a	n/a	108.868	BF07HAS.jpg
84.043	0.514	Blank	Blank	27.084	n/a	1	3	13	n/a	53	n/a	2	n/a	n/a	n/a	n/a	109.365	n/a
84.574	0.497	angry	Picture	26.57	n/a	1	3	14	n/a	54	78	2	n/a	n/a	n/a	n/a	109.896	BM26HAS.jpg
85.071	0.514	Blank	Blank	26.056	n/a	1	3	14	n/a	54	n/a	2	n/a	n/a	n/a	n/a	110.393	n/a
85.602	0.497	angry	Picture	25.542	n/a	1	3	15	n/a	55	50	2	n/a	n/a	n/a	n/a	110.924	AF18HAS.jpg
86.099	0.514	Blank	Blank	25.028	n/a	1	3	15	n/a	55	n/a	2	n/a	n/a	n/a	n/a	111.421	n/a
86.629	0.497	angry	Picture	24.514	n/a	1	3	16	n/a	56	47	2	n/a	n/a	n/a	n/a	111.951	BF11HAS.jpg
87.127	0.514	Blank	Blank	24.0	n/a	1	3	16	n/a	56	n/a	2	n/a	n/a	n/a	n/a	112.449	n/a
87.657	0.497	angry	Picture	23.487	n/a	1	3	17	n/a	57	77	2	n/a	n/a	n/a	n/a	112.979	BM25HAS.jpg
88.155	0.514	Blank	Blank	22.973	n/a	1	3	17	n/a	57	n/a	2	n/a	n/a	n/a	n/a	113.477	n/a
88.685	0.497	angry	Picture	22.459	n/a	1	3	18	n/a	58	57	2	n/a	n/a	n/a	n/a	114.007	BF28HAS.jpg
89.182	0.514	Blank	Blank	21.945	n/a	1	3	18	n/a	58	n/a	2	n/a	n/a	n/a	n/a	114.504	n/a
89.713	0.497	angry	Picture	21.431	n/a	1	3	19	n/a	59	61	2	n/a	n/a	n/a	n/a	115.035	AM01HAS.jpg
90.21	0.514	Blank	Blank	20.917	n/a	1	3	19	n/a	59	n/a	2	n/a	n/a	n/a	n/a	115.532	n/a
90.741	0.497	angry	Picture	20.403	n/a	1	3	20	n/a	60	79	2	n/a	n/a	n/a	n/a	116.063	BM28HAS.jpg
91.238	0.514	Blank	Blank	19.889	n/a	1	3	20	n/a	60	n/a	2	n/a	n/a	n/a	n/a	116.56	n/a
91.769	10.014	ITI	Fixation+	9.859	n/a	1	n/a	n/a	n/a	n/a	n/a	n/a	n/a	n/a	n/a	n/a	117.091	n/a
111.641	n/a	ConfirmRating	Rate	n/a	9.831	1	n/a	n/a	0	n/a	n/a	n/a	2	Angry	20	49	136.963	n/a
117.683	n/a	ConfirmRating	Rate	n/a	6.035	1	n/a	n/a	1	n/a	n/a	n/a	3	Angry	18	49	143.005	n/a
117.715	10.014	ITI	Fixation+	100.888	n/a	2	n/a	n/a	n/a	n/a	n/a	n/a	n/a	n/a	n/a	n/a	143.037	n/a
127.745	0.497	happy	Picture	100.374	n/a	2	4	1	n/a	61	119	3	n/a	n/a	n/a	n/a	153.067	BM28ANS.jpg
128.242	0.514	Blank	Blank	99.86	n/a	2	4	1	n/a	61	n/a	3	n/a	n/a	n/a	n/a	153.564	n/a
128.773	0.497	happy	Picture	99.346	n/a	2	4	2	n/a	62	100	3	n/a	n/a	n/a	n/a	154.095	AF32ANS.jpg
129.27	0.514	Blank	Blank	98.832	n/a	2	4	2	n/a	62	n/a	3	n/a	n/a	n/a	n/a	154.592	n/a
129.801	0.497	happy	Picture	98.318	n/a	2	4	3	n/a	63	118	3	n/a	n/a	n/a	n/a	155.123	BM26ANS.jpg
130.298	0.514	Blank	Blank	97.804	n/a	2	4	3	n/a	63	n/a	3	n/a	n/a	n/a	n/a	155.62	n/a
130.828	0.497	happy	Picture	97.291	n/a	2	4	4	n/a	64	89	3	n/a	n/a	n/a	n/a	156.15	AF17ANS.jpg
131.326	0.514	Blank	Blank	96.777	n/a	2	4	4	n/a	64	n/a	3	n/a	n/a	n/a	n/a	156.648	n/a
131.856	0.497	happy	Picture	96.263	n/a	2	4	5	n/a	65	116	3	n/a	n/a	n/a	n/a	157.178	BM24ANS.jpg
132.354	0.514	Blank	Blank	95.749	n/a	2	4	5	n/a	65	n/a	3	n/a	n/a	n/a	n/a	157.676	n/a
132.884	0.497	happy	Picture	95.235	n/a	2	4	6	n/a	66	105	3	n/a	n/a	n/a	n/a	158.206	BM06ANS.jpg
133.382	0.514	Blank	Blank	94.721	n/a	2	4	6	n/a	66	n/a	3	n/a	n/a	n/a	n/a	158.704	n/a
133.912	0.497	happy	Picture	94.207	n/a	2	4	7	n/a	67	106	3	n/a	n/a	n/a	n/a	159.234	AM07ANS.jpg
134.41	0.514	Blank	Blank	93.693	n/a	2	4	7	n/a	67	n/a	3	n/a	n/a	n/a	n/a	159.732	n/a
134.94	0.497	happy	Picture	93.179	n/a	2	4	8	n/a	68	94	3	n/a	n/a	n/a	n/a	160.262	AF23ANS.jpg
135.437	0.514	Blank	Blank	92.665	n/a	2	4	8	n/a	68	n/a	3	n/a	n/a	n/a	n/a	160.759	n/a
135.968	0.497	happy	Picture	92.151	n/a	2	4	9	n/a	69	117	3	n/a	n/a	n/a	n/a	161.29	BM25ANS.jpg
136.465	0.514	Blank	Blank	91.637	n/a	2	4	9	n/a	69	n/a	3	n/a	n/a	n/a	n/a	161.787	n/a
136.996	0.497	happy	Picture	91.123	n/a	2	4	10	n/a	70	90	3	n/a	n/a	n/a	n/a	162.318	AF18ANS.jpg
137.493	0.514	Blank	Blank	90.609	n/a	2	4	10	n/a	70	n/a	3	n/a	n/a	n/a	n/a	162.815	n/a
138.024	0.497	happy	Picture	90.095	n/a	2	4	11	n/a	71	83	3	n/a	n/a	n/a	n/a	163.346	BF04ANS.jpg
138.521	0.514	Blank	Blank	89.581	n/a	2	4	11	n/a	71	n/a	3	n/a	n/a	n/a	n/a	163.843	n/a
139.052	0.497	happy	Picture	89.067	n/a	2	4	12	n/a	72	112	3	n/a	n/a	n/a	n/a	164.374	AM14ANS.jpg
139.549	0.514	Blank	Blank	88.553	n/a	2	4	12	n/a	72	n/a	3	n/a	n/a	n/a	n/a	164.871	n/a
140.079	0.497	happy	Picture	88.04	n/a	2	4	13	n/a	73	102	3	n/a	n/a	n/a	n/a	165.401	BM03ANS.jpg
140.577	0.514	Blank	Blank	87.526	n/a	2	4	13	n/a	73	n/a	3	n/a	n/a	n/a	n/a	165.899	n/a
141.107	0.497	happy	Picture	87.012	n/a	2	4	14	n/a	74	95	3	n/a	n/a	n/a	n/a	166.429	AF25ANS.jpg
141.605	0.514	Blank	Blank	86.498	n/a	2	4	14	n/a	74	n/a	3	n/a	n/a	n/a	n/a	166.927	n/a
142.135	0.497	happy	Picture	85.984	n/a	2	4	15	n/a	75	113	3	n/a	n/a	n/a	n/a	167.457	AM21ANS.jpg
142.633	0.514	Blank	Blank	85.47	n/a	2	4	15	n/a	75	n/a	3	n/a	n/a	n/a	n/a	167.955	n/a
143.163	0.497	happy	Picture	84.956	n/a	2	4	16	n/a	76	88	3	n/a	n/a	n/a	n/a	168.485	AF14ANS.jpg
143.66	0.514	Blank	Blank	84.442	n/a	2	4	16	n/a	76	n/a	3	n/a	n/a	n/a	n/a	168.982	n/a
144.191	0.497	happy	Picture	83.928	n/a	2	4	17	n/a	77	93	3	n/a	n/a	n/a	n/a	169.513	BF22ANS.jpg
144.688	0.514	Blank	Blank	83.414	n/a	2	4	17	n/a	77	n/a	3	n/a	n/a	n/a	n/a	170.01	n/a
145.219	0.497	happy	Picture	82.9	n/a	2	4	18	n/a	78	86	3	n/a	n/a	n/a	n/a	170.541	AF09ANS.jpg
145.716	0.514	Blank	Blank	82.386	n/a	2	4	18	n/a	78	n/a	3	n/a	n/a	n/a	n/a	171.038	n/a
146.247	0.497	happy	Picture	81.872	n/a	2	4	19	n/a	79	92	3	n/a	n/a	n/a	n/a	171.569	AF21ANS.jpg
146.744	0.514	Blank	Blank	81.358	n/a	2	4	19	n/a	79	n/a	3	n/a	n/a	n/a	n/a	172.066	n/a
147.275	0.497	happy	Picture	80.844	n/a	2	4	20	n/a	80	84	3	n/a	n/a	n/a	n/a	172.597	AF05ANS.jpg
147.772	0.514	Blank	Blank	80.33	n/a	2	4	20	n/a	80	n/a	3	n/a	n/a	n/a	n/a	173.094	n/a
148.303	10.014	ITI	Fixation+	70.3	n/a	2	n/a	n/a	n/a	n/a	n/a	n/a	n/a	n/a	n/a	n/a	173.625	n/a
158.333	0.497	neutral	Picture	69.786	n/a	2	5	1	n/a	81	4	1	n/a	n/a	n/a	n/a	183.655	AF05NES.jpg
158.83	0.514	Blank	Blank	69.272	n/a	2	5	1	n/a	81	n/a	1	n/a	n/a	n/a	n/a	184.152	n/a
159.361	0.497	neutral	Picture	68.758	n/a	2	5	2	n/a	82	14	1	n/a	n/a	n/a	n/a	184.683	AF23NES.jpg
159.858	0.514	Blank	Blank	68.244	n/a	2	5	2	n/a	82	n/a	1	n/a	n/a	n/a	n/a	185.18	n/a
160.388	0.497	neutral	Picture	67.731	n/a	2	5	3	n/a	83	19	1	n/a	n/a	n/a	n/a	185.71	AF31NES.jpg
160.886	0.514	Blank	Blank	67.217	n/a	2	5	3	n/a	83	n/a	1	n/a	n/a	n/a	n/a	186.208	n/a
161.416	0.497	neutral	Picture	66.703	n/a	2	5	4	n/a	84	8	1	n/a	n/a	n/a	n/a	186.738	AF14NES.jpg
161.914	0.514	Blank	Blank	66.189	n/a	2	5	4	n/a	84	n/a	1	n/a	n/a	n/a	n/a	187.236	n/a
162.444	0.497	neutral	Picture	65.675	n/a	2	5	5	n/a	85	25	1	n/a	n/a	n/a	n/a	187.766	BM06NES.jpg
162.942	0.514	Blank	Blank	65.161	n/a	2	5	5	n/a	85	n/a	1	n/a	n/a	n/a	n/a	188.264	n/a
163.472	0.497	neutral	Picture	64.647	n/a	2	5	6	n/a	86	9	1	n/a	n/a	n/a	n/a	188.794	AF17NES.jpg
163.97	0.514	Blank	Blank	64.133	n/a	2	5	6	n/a	86	n/a	1	n/a	n/a	n/a	n/a	189.292	n/a
164.5	0.497	neutral	Picture	63.619	n/a	2	5	7	n/a	87	2	1	n/a	n/a	n/a	n/a	189.822	AF03NES.jpg
164.997	0.514	Blank	Blank	63.105	n/a	2	5	7	n/a	87	n/a	1	n/a	n/a	n/a	n/a	190.319	n/a
165.528	0.497	neutral	Picture	62.591	n/a	2	5	8	n/a	88	17	1	n/a	n/a	n/a	n/a	190.85	BF28NES.jpg
166.025	0.514	Blank	Blank	62.077	n/a	2	5	8	n/a	88	n/a	1	n/a	n/a	n/a	n/a	191.347	n/a
166.556	0.497	neutral	Picture	61.563	n/a	2	5	9	n/a	89	6	1	n/a	n/a	n/a	n/a	191.878	AF09NES.jpg
167.053	0.514	Blank	Blank	61.049	n/a	2	5	9	n/a	89	n/a	1	n/a	n/a	n/a	n/a	192.375	n/a
167.584	0.497	neutral	Picture	60.535	n/a	2	5	10	n/a	90	12	1	n/a	n/a	n/a	n/a	192.906	AF21NES.jpg
168.081	0.514	Blank	Blank	60.021	n/a	2	5	10	n/a	90	n/a	1	n/a	n/a	n/a	n/a	193.403	n/a
168.612	0.497	neutral	Picture	59.507	n/a	2	5	11	n/a	91	24	1	n/a	n/a	n/a	n/a	193.934	BM05NES.jpg
169.109	0.514	Blank	Blank	58.993	n/a	2	5	11	n/a	91	n/a	1	n/a	n/a	n/a	n/a	194.431	n/a
169.639	0.497	neutral	Picture	58.48	n/a	2	5	12	n/a	92	34	1	n/a	n/a	n/a	n/a	194.962	AM22NES.jpg
170.137	0.514	Blank	Blank	57.966	n/a	2	5	12	n/a	92	n/a	1	n/a	n/a	n/a	n/a	195.459	n/a
170.667	0.497	neutral	Picture	57.452	n/a	2	5	13	n/a	93	23	1	n/a	n/a	n/a	n/a	195.989	AM04NES.jpg
171.165	0.514	Blank	Blank	56.938	n/a	2	5	13	n/a	93	n/a	1	n/a	n/a	n/a	n/a	196.487	n/a
171.695	0.497	neutral	Picture	56.424	n/a	2	5	14	n/a	94	15	1	n/a	n/a	n/a	n/a	197.017	AF25NES.jpg
172.193	0.514	Blank	Blank	55.91	n/a	2	5	14	n/a	94	n/a	1	n/a	n/a	n/a	n/a	197.515	n/a
172.723	0.497	neutral	Picture	55.396	n/a	2	5	15	n/a	95	37	1	n/a	n/a	n/a	n/a	198.045	BM25NES.jpg
173.22	0.514	Blank	Blank	54.882	n/a	2	5	15	n/a	95	n/a	1	n/a	n/a	n/a	n/a	198.542	n/a
173.751	0.497	neutral	Picture	54.368	n/a	2	5	16	n/a	96	32	1	n/a	n/a	n/a	n/a	199.073	AM14NES.jpg
174.248	0.514	Blank	Blank	53.854	n/a	2	5	16	n/a	96	n/a	1	n/a	n/a	n/a	n/a	199.57	n/a
174.779	0.497	neutral	Picture	53.34	n/a	2	5	17	n/a	97	3	1	n/a	n/a	n/a	n/a	200.101	BF04NES.jpg
175.276	0.514	Blank	Blank	52.826	n/a	2	5	17	n/a	97	n/a	1	n/a	n/a	n/a	n/a	200.598	n/a
175.807	0.497	neutral	Picture	52.312	n/a	2	5	18	n/a	98	16	1	n/a	n/a	n/a	n/a	201.129	AF26NES.jpg
176.304	0.514	Blank	Blank	51.798	n/a	2	5	18	n/a	98	n/a	1	n/a	n/a	n/a	n/a	201.626	n/a
176.835	0.497	neutral	Picture	51.284	n/a	2	5	19	n/a	99	27	1	n/a	n/a	n/a	n/a	202.157	BM08NES.jpg
177.332	0.514	Blank	Blank	50.77	n/a	2	5	19	n/a	99	n/a	1	n/a	n/a	n/a	n/a	202.654	n/a
177.863	0.497	neutral	Picture	50.256	n/a	2	5	20	n/a	100	28	1	n/a	n/a	n/a	n/a	203.185	AM09NES.jpg
178.36	0.514	Blank	Blank	49.743	n/a	2	5	20	n/a	100	n/a	1	n/a	n/a	n/a	n/a	203.682	n/a
178.891	10.014	ITI	Fixation+	39.712	n/a	2	n/a	n/a	n/a	n/a	n/a	n/a	n/a	n/a	n/a	n/a	204.213	n/a
188.921	0.497	happy	Picture	39.198	n/a	2	6	1	n/a	101	81	3	n/a	n/a	n/a	n/a	214.243	AF01ANS.jpg
189.418	0.514	Blank	Blank	38.684	n/a	2	6	1	n/a	101	n/a	3	n/a	n/a	n/a	n/a	214.74	n/a
189.949	0.497	happy	Picture	38.171	n/a	2	6	2	n/a	102	120	3	n/a	n/a	n/a	n/a	215.271	AM35ANS.jpg
190.446	0.514	Blank	Blank	37.656	n/a	2	6	2	n/a	102	n/a	3	n/a	n/a	n/a	n/a	215.768	n/a
190.976	0.497	happy	Picture	37.143	n/a	2	6	3	n/a	103	114	3	n/a	n/a	n/a	n/a	216.298	AM22ANS.jpg
191.474	0.514	Blank	Blank	36.629	n/a	2	6	3	n/a	103	n/a	3	n/a	n/a	n/a	n/a	216.796	n/a
192.004	0.497	happy	Picture	36.115	n/a	2	6	4	n/a	104	109	3	n/a	n/a	n/a	n/a	217.326	AM10ANS.jpg
192.502	0.514	Blank	Blank	35.601	n/a	2	6	4	n/a	104	n/a	3	n/a	n/a	n/a	n/a	217.824	n/a
193.032	0.497	happy	Picture	35.087	n/a	2	6	5	n/a	105	96	3	n/a	n/a	n/a	n/a	218.354	AF26ANS.jpg
193.53	0.514	Blank	Blank	34.573	n/a	2	6	5	n/a	105	n/a	3	n/a	n/a	n/a	n/a	218.852	n/a
194.06	0.497	happy	Picture	34.059	n/a	2	6	6	n/a	106	82	3	n/a	n/a	n/a	n/a	219.382	AF03ANS.jpg
194.558	0.514	Blank	Blank	33.545	n/a	2	6	6	n/a	106	n/a	3	n/a	n/a	n/a	n/a	219.88	n/a
195.088	0.497	happy	Picture	33.031	n/a	2	6	7	n/a	107	97	3	n/a	n/a	n/a	n/a	220.41	BF28ANS.jpg
195.585	0.514	Blank	Blank	32.517	n/a	2	6	7	n/a	107	n/a	3	n/a	n/a	n/a	n/a	220.907	n/a
196.116	0.497	happy	Picture	32.003	n/a	2	6	8	n/a	108	115	3	n/a	n/a	n/a	n/a	221.438	AM23ANS.jpg
196.613	0.514	Blank	Blank	31.489	n/a	2	6	8	n/a	108	n/a	3	n/a	n/a	n/a	n/a	221.935	n/a
197.144	0.497	happy	Picture	30.975	n/a	2	6	9	n/a	109	91	3	n/a	n/a	n/a	n/a	222.466	AF20ANS.jpg
197.641	0.514	Blank	Blank	30.461	n/a	2	6	9	n/a	109	n/a	3	n/a	n/a	n/a	n/a	222.963	n/a
198.172	0.497	happy	Picture	29.947	n/a	2	6	10	n/a	110	87	3	n/a	n/a	n/a	n/a	223.494	BF11ANS.jpg
198.669	0.514	Blank	Blank	29.433	n/a	2	6	10	n/a	110	n/a	3	n/a	n/a	n/a	n/a	223.991	n/a
199.2	0.497	happy	Picture	28.919	n/a	2	6	11	n/a	111	85	3	n/a	n/a	n/a	n/a	224.522	BF07ANS.jpg
199.697	0.514	Blank	Blank	28.406	n/a	2	6	11	n/a	111	n/a	3	n/a	n/a	n/a	n/a	225.019	n/a
200.227	0.497	happy	Picture	27.892	n/a	2	6	12	n/a	112	110	3	n/a	n/a	n/a	n/a	225.549	AM11ANS.jpg
200.725	0.514	Blank	Blank	27.378	n/a	2	6	12	n/a	112	n/a	3	n/a	n/a	n/a	n/a	226.047	n/a
201.255	0.497	happy	Picture	26.864	n/a	2	6	13	n/a	113	111	3	n/a	n/a	n/a	n/a	226.577	BM12ANS.jpg
201.753	0.514	Blank	Blank	26.35	n/a	2	6	13	n/a	113	n/a	3	n/a	n/a	n/a	n/a	227.075	n/a
202.283	0.497	happy	Picture	25.836	n/a	2	6	14	n/a	114	103	3	n/a	n/a	n/a	n/a	227.605	AM04ANS.jpg
202.781	0.514	Blank	Blank	25.322	n/a	2	6	14	n/a	114	n/a	3	n/a	n/a	n/a	n/a	228.103	n/a
203.311	0.497	happy	Picture	24.808	n/a	2	6	15	n/a	115	101	3	n/a	n/a	n/a	n/a	228.633	AM01ANS.jpg
203.808	0.514	Blank	Blank	24.294	n/a	2	6	15	n/a	115	n/a	3	n/a	n/a	n/a	n/a	229.13	n/a
204.339	0.497	happy	Picture	23.78	n/a	2	6	16	n/a	116	104	3	n/a	n/a	n/a	n/a	229.661	BM05ANS.jpg
204.836	0.514	Blank	Blank	23.266	n/a	2	6	16	n/a	116	n/a	3	n/a	n/a	n/a	n/a	230.158	n/a
205.367	0.497	happy	Picture	22.752	n/a	2	6	17	n/a	117	107	3	n/a	n/a	n/a	n/a	230.689	BM08ANS.jpg
205.864	0.514	Blank	Blank	22.238	n/a	2	6	17	n/a	117	n/a	3	n/a	n/a	n/a	n/a	231.186	n/a
206.395	0.497	happy	Picture	21.724	n/a	2	6	18	n/a	118	98	3	n/a	n/a	n/a	n/a	231.717	BF29ANS.jpg
206.892	0.514	Blank	Blank	21.21	n/a	2	6	18	n/a	118	n/a	3	n/a	n/a	n/a	n/a	232.214	n/a
207.423	0.497	happy	Picture	20.696	n/a	2	6	19	n/a	119	99	3	n/a	n/a	n/a	n/a	232.745	AF31ANS.jpg
207.92	0.514	Blank	Blank	20.183	n/a	2	6	19	n/a	119	n/a	3	n/a	n/a	n/a	n/a	233.242	n/a
208.451	0.497	happy	Picture	19.668	n/a	2	6	20	n/a	120	108	3	n/a	n/a	n/a	n/a	233.773	AM09ANS.jpg
208.948	0.514	Blank	Blank	19.155	n/a	2	6	20	n/a	120	n/a	3	n/a	n/a	n/a	n/a	234.27	n/a
209.478	10.014	ITI	Fixation+	9.124	n/a	2	n/a	n/a	n/a	n/a	n/a	n/a	n/a	n/a	n/a	n/a	234.8	n/a
228.616	n/a	ConfirmRating	Rate	n/a	9.118	2	n/a	n/a	0	n/a	n/a	n/a	2	Happy	86	52	253.938	n/a
239.54	n/a	ConfirmRating	Rate	n/a	10.909	2	n/a	n/a	1	n/a	n/a	n/a	3	Happy	31	49	264.862	n/a
239.569	15.004	Rest	Picture	n/a	n/a	n/a	n/a	n/a	n/a	n/a	n/a	n/a	0	n/a	0	0	264.891	n/a
254.589	10.014	ITI	Fixation+	99.185	n/a	3	n/a	n/a	n/a	n/a	n/a	n/a	n/a	n/a	n/a	n/a	279.911	n/a
264.62	0.497	angry	Picture	98.671	n/a	3	7	1	n/a	1	46	2	n/a	n/a	n/a	n/a	289.942	AF09HAS.jpg
265.117	0.514	Blank	Blank	98.157	n/a	3	7	1	n/a	1	n/a	2	n/a	n/a	n/a	n/a	290.439	n/a
265.647	0.497	angry	Picture	97.643	n/a	3	7	2	n/a	2	69	2	n/a	n/a	n/a	n/a	290.969	AM10HAS.jpg
266.145	0.514	Blank	Blank	97.129	n/a	3	7	2	n/a	2	n/a	2	n/a	n/a	n/a	n/a	291.467	n/a
266.675	0.497	angry	Picture	96.615	n/a	3	7	3	n/a	3	71	2	n/a	n/a	n/a	n/a	291.997	BM12HAS.jpg
267.173	0.514	Blank	Blank	96.101	n/a	3	7	3	n/a	3	n/a	2	n/a	n/a	n/a	n/a	292.495	n/a
267.703	0.497	angry	Picture	95.587	n/a	3	7	4	n/a	4	51	2	n/a	n/a	n/a	n/a	293.025	AF20HAS.jpg
268.201	0.514	Blank	Blank	95.073	n/a	3	7	4	n/a	4	n/a	2	n/a	n/a	n/a	n/a	293.523	n/a
268.731	0.497	angry	Picture	94.559	n/a	3	7	5	n/a	5	67	2	n/a	n/a	n/a	n/a	294.053	BM08HAS.jpg
269.228	0.514	Blank	Blank	94.045	n/a	3	7	5	n/a	5	n/a	2	n/a	n/a	n/a	n/a	294.55	n/a
269.759	0.497	angry	Picture	93.531	n/a	3	7	6	n/a	6	60	2	n/a	n/a	n/a	n/a	295.081	AF32HAS.jpg
270.256	0.514	Blank	Blank	93.017	n/a	3	7	6	n/a	6	n/a	2	n/a	n/a	n/a	n/a	295.578	n/a
270.787	0.497	angry	Picture	92.503	n/a	3	7	7	n/a	7	42	2	n/a	n/a	n/a	n/a	296.109	AF03HAS.jpg
271.284	0.514	Blank	Blank	91.989	n/a	3	7	7	n/a	7	n/a	2	n/a	n/a	n/a	n/a	296.606	n/a
271.815	0.497	angry	Picture	91.475	n/a	3	7	8	n/a	8	55	2	n/a	n/a	n/a	n/a	297.137	AF25HAS.jpg
272.312	0.514	Blank	Blank	90.961	n/a	3	7	8	n/a	8	n/a	2	n/a	n/a	n/a	n/a	297.634	n/a
272.843	0.497	angry	Picture	90.447	n/a	3	7	9	n/a	9	72	2	n/a	n/a	n/a	n/a	298.165	AM14HAS.jpg
273.34	0.514	Blank	Blank	89.934	n/a	3	7	9	n/a	9	n/a	2	n/a	n/a	n/a	n/a	298.662	n/a
273.87	0.497	angry	Picture	89.42	n/a	3	7	10	n/a	10	63	2	n/a	n/a	n/a	n/a	299.192	AM04HAS.jpg
274.368	0.514	Blank	Blank	88.906	n/a	3	7	10	n/a	10	n/a	2	n/a	n/a	n/a	n/a	299.69	n/a
274.898	0.497	angry	Picture	88.392	n/a	3	7	11	n/a	11	58	2	n/a	n/a	n/a	n/a	300.22	BF29HAS.jpg
275.396	0.514	Blank	Blank	87.878	n/a	3	7	11	n/a	11	n/a	2	n/a	n/a	n/a	n/a	300.718	n/a
275.926	0.497	angry	Picture	87.364	n/a	3	7	12	n/a	12	48	2	n/a	n/a	n/a	n/a	301.248	AF14HAS.jpg
276.424	0.514	Blank	Blank	86.85	n/a	3	7	12	n/a	12	n/a	2	n/a	n/a	n/a	n/a	301.746	n/a
276.954	0.497	angry	Picture	86.336	n/a	3	7	13	n/a	13	66	2	n/a	n/a	n/a	n/a	302.276	BM07HAS.jpg
277.452	0.514	Blank	Blank	85.822	n/a	3	7	13	n/a	13	n/a	2	n/a	n/a	n/a	n/a	302.774	n/a
277.982	0.497	angry	Picture	85.308	n/a	3	7	14	n/a	14	70	2	n/a	n/a	n/a	n/a	303.304	BM11HAS.jpg
278.479	0.514	Blank	Blank	84.794	n/a	3	7	14	n/a	14	n/a	2	n/a	n/a	n/a	n/a	303.801	n/a
279.01	0.497	angry	Picture	84.28	n/a	3	7	15	n/a	15	43	2	n/a	n/a	n/a	n/a	304.332	BF04HAS.jpg
279.507	0.514	Blank	Blank	83.766	n/a	3	7	15	n/a	15	n/a	2	n/a	n/a	n/a	n/a	304.829	n/a
280.038	0.497	angry	Picture	83.252	n/a	3	7	16	n/a	16	49	2	n/a	n/a	n/a	n/a	305.36	AF17HAS.jpg
280.535	0.514	Blank	Blank	82.738	n/a	3	7	16	n/a	16	n/a	2	n/a	n/a	n/a	n/a	305.857	n/a
281.066	0.497	angry	Picture	82.224	n/a	3	7	17	n/a	17	75	2	n/a	n/a	n/a	n/a	306.388	AM23HAS.jpg
281.563	0.514	Blank	Blank	81.711	n/a	3	7	17	n/a	17	n/a	2	n/a	n/a	n/a	n/a	306.885	n/a
282.094	0.497	angry	Picture	81.197	n/a	3	7	18	n/a	18	80	2	n/a	n/a	n/a	n/a	307.416	BM35HAS.jpg
282.591	0.514	Blank	Blank	80.683	n/a	3	7	18	n/a	18	n/a	2	n/a	n/a	n/a	n/a	307.913	n/a
283.121	0.497	angry	Picture	80.169	n/a	3	7	19	n/a	19	76	2	n/a	n/a	n/a	n/a	308.443	BM24HAS.jpg
283.619	0.514	Blank	Blank	79.655	n/a	3	7	19	n/a	19	n/a	2	n/a	n/a	n/a	n/a	308.941	n/a
284.149	0.497	angry	Picture	79.141	n/a	3	7	20	n/a	20	74	2	n/a	n/a	n/a	n/a	309.471	AM22HAS.jpg
284.647	0.514	Blank	Blank	78.627	n/a	3	7	20	n/a	20	n/a	2	n/a	n/a	n/a	n/a	309.969	n/a
285.177	10.014	ITI	Fixation+	68.597	n/a	3	n/a	n/a	n/a	n/a	n/a	n/a	n/a	n/a	n/a	n/a	310.499	n/a
295.207	0.497	neutral	Picture	68.083	n/a	3	8	1	n/a	21	33	1	n/a	n/a	n/a	n/a	320.529	AM21NES.jpg
295.705	0.514	Blank	Blank	67.569	n/a	3	8	1	n/a	21	n/a	1	n/a	n/a	n/a	n/a	321.027	n/a
296.235	0.497	neutral	Picture	67.055	n/a	3	8	2	n/a	22	39	1	n/a	n/a	n/a	n/a	321.557	AM28NES.jpg
296.733	0.514	Blank	Blank	66.541	n/a	3	8	2	n/a	22	n/a	1	n/a	n/a	n/a	n/a	322.055	n/a
297.263	0.497	neutral	Picture	66.027	n/a	3	8	3	n/a	23	25	1	n/a	n/a	n/a	n/a	322.585	BM06NES.jpg
297.761	0.514	Blank	Blank	65.513	n/a	3	8	3	n/a	23	n/a	1	n/a	n/a	n/a	n/a	323.083	n/a
298.291	0.497	neutral	Picture	64.999	n/a	3	8	4	n/a	24	5	1	n/a	n/a	n/a	n/a	323.613	BF07NES.jpg
298.788	0.514	Blank	Blank	64.485	n/a	3	8	4	n/a	24	n/a	1	n/a	n/a	n/a	n/a	324.111	n/a
299.319	0.497	neutral	Picture	63.971	n/a	3	8	5	n/a	25	10	1	n/a	n/a	n/a	n/a	324.641	AF18NES.jpg
299.816	0.514	Blank	Blank	63.457	n/a	3	8	5	n/a	25	n/a	1	n/a	n/a	n/a	n/a	325.138	n/a
300.347	0.497	neutral	Picture	62.943	n/a	3	8	6	n/a	26	34	1	n/a	n/a	n/a	n/a	325.669	AM22NES.jpg
300.844	0.514	Blank	Blank	62.429	n/a	3	8	6	n/a	26	n/a	1	n/a	n/a	n/a	n/a	326.166	n/a
301.375	0.497	neutral	Picture	61.915	n/a	3	8	7	n/a	27	36	1	n/a	n/a	n/a	n/a	326.697	BM24NES.jpg
301.872	0.514	Blank	Blank	61.401	n/a	3	8	7	n/a	27	n/a	1	n/a	n/a	n/a	n/a	327.194	n/a
302.403	0.497	neutral	Picture	60.887	n/a	3	8	8	n/a	28	14	1	n/a	n/a	n/a	n/a	327.725	AF23NES.jpg
302.9	0.514	Blank	Blank	60.374	n/a	3	8	8	n/a	28	n/a	1	n/a	n/a	n/a	n/a	328.222	n/a
303.43	0.497	neutral	Picture	59.86	n/a	3	8	9	n/a	29	9	1	n/a	n/a	n/a	n/a	328.752	AF17NES.jpg
303.928	0.514	Blank	Blank	59.346	n/a	3	8	9	n/a	29	n/a	1	n/a	n/a	n/a	n/a	329.25	n/a
304.458	0.497	neutral	Picture	58.832	n/a	3	8	10	n/a	30	19	1	n/a	n/a	n/a	n/a	329.78	AF31NES.jpg
304.956	0.514	Blank	Blank	58.318	n/a	3	8	10	n/a	30	n/a	1	n/a	n/a	n/a	n/a	330.278	n/a
305.486	0.497	neutral	Picture	57.804	n/a	3	8	11	n/a	31	15	1	n/a	n/a	n/a	n/a	330.808	AF25NES.jpg
305.984	0.514	Blank	Blank	57.29	n/a	3	8	11	n/a	31	n/a	1	n/a	n/a	n/a	n/a	331.306	n/a
306.514	0.497	neutral	Picture	56.776	n/a	3	8	12	n/a	32	22	1	n/a	n/a	n/a	n/a	331.836	BM03NES.jpg
307.012	0.514	Blank	Blank	56.262	n/a	3	8	12	n/a	32	n/a	1	n/a	n/a	n/a	n/a	332.334	n/a
307.542	0.497	neutral	Picture	55.748	n/a	3	8	13	n/a	33	11	1	n/a	n/a	n/a	n/a	332.864	AF20NES.jpg
308.039	0.514	Blank	Blank	55.234	n/a	3	8	13	n/a	33	n/a	1	n/a	n/a	n/a	n/a	333.361	n/a
308.57	0.497	neutral	Picture	54.72	n/a	3	8	14	n/a	34	4	1	n/a	n/a	n/a	n/a	333.892	AF05NES.jpg
309.067	0.514	Blank	Blank	54.206	n/a	3	8	14	n/a	34	n/a	1	n/a	n/a	n/a	n/a	334.389	n/a
309.598	0.497	neutral	Picture	53.692	n/a	3	8	15	n/a	35	17	1	n/a	n/a	n/a	n/a	334.92	BF28NES.jpg
310.095	0.514	Blank	Blank	53.178	n/a	3	8	15	n/a	35	n/a	1	n/a	n/a	n/a	n/a	335.417	n/a
310.626	0.497	neutral	Picture	52.664	n/a	3	8	16	n/a	36	13	1	n/a	n/a	n/a	n/a	335.948	BF22NES.jpg
311.123	0.514	Blank	Blank	52.151	n/a	3	8	16	n/a	36	n/a	1	n/a	n/a	n/a	n/a	336.445	n/a
311.654	0.497	neutral	Picture	51.637	n/a	3	8	17	n/a	37	12	1	n/a	n/a	n/a	n/a	336.976	AF21NES.jpg
312.151	0.514	Blank	Blank	51.123	n/a	3	8	17	n/a	37	n/a	1	n/a	n/a	n/a	n/a	337.473	n/a
312.681	0.497	neutral	Picture	50.609	n/a	3	8	18	n/a	38	24	1	n/a	n/a	n/a	n/a	338.003	BM05NES.jpg
313.179	0.514	Blank	Blank	50.095	n/a	3	8	18	n/a	38	n/a	1	n/a	n/a	n/a	n/a	338.501	n/a
313.709	0.497	neutral	Picture	49.581	n/a	3	8	19	n/a	39	29	1	n/a	n/a	n/a	n/a	339.031	AM10NES.jpg
314.207	0.514	Blank	Blank	49.067	n/a	3	8	19	n/a	39	n/a	1	n/a	n/a	n/a	n/a	339.529	n/a
314.737	0.497	neutral	Picture	48.553	n/a	3	8	20	n/a	40	23	1	n/a	n/a	n/a	n/a	340.059	AM04NES.jpg
315.235	0.514	Blank	Blank	48.039	n/a	3	8	20	n/a	40	n/a	1	n/a	n/a	n/a	n/a	340.557	n/a
315.765	10.014	ITI	Fixation+	38.009	n/a	3	n/a	n/a	n/a	n/a	n/a	n/a	n/a	n/a	n/a	n/a	341.087	n/a
325.795	0.497	angry	Picture	37.495	n/a	3	9	1	n/a	41	62	2	n/a	n/a	n/a	n/a	351.117	BM03HAS.jpg
326.293	0.514	Blank	Blank	36.981	n/a	3	9	1	n/a	41	n/a	2	n/a	n/a	n/a	n/a	351.615	n/a
326.823	0.497	angry	Picture	36.467	n/a	3	9	2	n/a	42	52	2	n/a	n/a	n/a	n/a	352.145	AF21HAS.jpg
327.321	0.514	Blank	Blank	35.953	n/a	3	9	2	n/a	42	n/a	2	n/a	n/a	n/a	n/a	352.643	n/a
327.851	0.497	angry	Picture	35.439	n/a	3	9	3	n/a	43	44	2	n/a	n/a	n/a	n/a	353.173	AF05HAS.jpg
328.349	0.514	Blank	Blank	34.925	n/a	3	9	3	n/a	43	n/a	2	n/a	n/a	n/a	n/a	353.671	n/a
328.879	0.497	angry	Picture	34.411	n/a	3	9	4	n/a	44	53	2	n/a	n/a	n/a	n/a	354.201	BF22HAS.jpg
329.376	0.514	Blank	Blank	33.897	n/a	3	9	4	n/a	44	n/a	2	n/a	n/a	n/a	n/a	354.698	n/a
329.907	0.497	angry	Picture	33.383	n/a	3	9	5	n/a	45	54	2	n/a	n/a	n/a	n/a	355.229	AF23HAS.jpg
330.404	0.514	Blank	Blank	32.869	n/a	3	9	5	n/a	45	n/a	2	n/a	n/a	n/a	n/a	355.726	n/a
330.935	0.497	angry	Picture	32.355	n/a	3	9	6	n/a	46	68	2	n/a	n/a	n/a	n/a	356.257	AM09HAS.jpg
331.432	0.514	Blank	Blank	31.841	n/a	3	9	6	n/a	46	n/a	2	n/a	n/a	n/a	n/a	356.754	n/a
331.963	0.497	angry	Picture	31.328	n/a	3	9	7	n/a	47	64	2	n/a	n/a	n/a	n/a	357.285	BM05HAS.jpg
332.46	0.514	Blank	Blank	30.814	n/a	3	9	7	n/a	47	n/a	2	n/a	n/a	n/a	n/a	357.782	n/a
332.991	0.497	angry	Picture	30.3	n/a	3	9	8	n/a	48	59	2	n/a	n/a	n/a	n/a	358.313	AF31HAS.jpg
333.488	0.514	Blank	Blank	29.786	n/a	3	9	8	n/a	48	n/a	2	n/a	n/a	n/a	n/a	358.81	n/a
334.019	0.497	angry	Picture	29.272	n/a	3	9	9	n/a	49	41	2	n/a	n/a	n/a	n/a	359.341	AF01HAS.jpg
334.516	0.514	Blank	Blank	28.758	n/a	3	9	9	n/a	49	n/a	2	n/a	n/a	n/a	n/a	359.838	n/a
335.046	0.497	angry	Picture	28.244	n/a	3	9	10	n/a	50	73	2	n/a	n/a	n/a	n/a	360.368	AM21HAS.jpg
335.544	0.514	Blank	Blank	27.73	n/a	3	9	10	n/a	50	n/a	2	n/a	n/a	n/a	n/a	360.866	n/a
336.074	0.497	angry	Picture	27.216	n/a	3	9	11	n/a	51	65	2	n/a	n/a	n/a	n/a	361.396	BM06HAS.jpg
336.572	0.514	Blank	Blank	26.702	n/a	3	9	11	n/a	51	n/a	2	n/a	n/a	n/a	n/a	361.894	n/a
337.102	0.497	angry	Picture	26.188	n/a	3	9	12	n/a	52	56	2	n/a	n/a	n/a	n/a	362.424	AF26HAS.jpg
337.599	0.514	Blank	Blank	25.674	n/a	3	9	12	n/a	52	n/a	2	n/a	n/a	n/a	n/a	362.921	n/a
338.13	0.497	angry	Picture	25.16	n/a	3	9	13	n/a	53	45	2	n/a	n/a	n/a	n/a	363.452	BF07HAS.jpg
338.627	0.514	Blank	Blank	24.646	n/a	3	9	13	n/a	53	n/a	2	n/a	n/a	n/a	n/a	363.949	n/a
339.158	0.497	angry	Picture	24.132	n/a	3	9	14	n/a	54	78	2	n/a	n/a	n/a	n/a	364.48	BM26HAS.jpg
339.655	0.514	Blank	Blank	23.618	n/a	3	9	14	n/a	54	n/a	2	n/a	n/a	n/a	n/a	364.977	n/a
340.186	0.497	angry	Picture	23.104	n/a	3	9	15	n/a	55	50	2	n/a	n/a	n/a	n/a	365.508	AF18HAS.jpg
340.683	0.514	Blank	Blank	22.59	n/a	3	9	15	n/a	55	n/a	2	n/a	n/a	n/a	n/a	366.005	n/a
341.214	0.497	angry	Picture	22.077	n/a	3	9	16	n/a	56	47	2	n/a	n/a	n/a	n/a	366.536	BF11HAS.jpg
341.711	0.514	Blank	Blank	21.563	n/a	3	9	16	n/a	56	n/a	2	n/a	n/a	n/a	n/a	367.033	n/a
342.241	0.497	angry	Picture	21.049	n/a	3	9	17	n/a	57	77	2	n/a	n/a	n/a	n/a	367.563	BM25HAS.jpg
342.739	0.514	Blank	Blank	20.535	n/a	3	9	17	n/a	57	n/a	2	n/a	n/a	n/a	n/a	368.061	n/a
343.269	0.497	angry	Picture	20.021	n/a	3	9	18	n/a	58	57	2	n/a	n/a	n/a	n/a	368.591	BF28HAS.jpg
343.767	0.514	Blank	Blank	19.507	n/a	3	9	18	n/a	58	n/a	2	n/a	n/a	n/a	n/a	369.089	n/a
344.297	0.497	angry	Picture	18.993	n/a	3	9	19	n/a	59	61	2	n/a	n/a	n/a	n/a	369.619	AM01HAS.jpg
344.795	0.514	Blank	Blank	18.479	n/a	3	9	19	n/a	59	n/a	2	n/a	n/a	n/a	n/a	370.117	n/a
345.325	0.497	angry	Picture	17.965	n/a	3	9	20	n/a	60	79	2	n/a	n/a	n/a	n/a	370.647	BM28HAS.jpg
345.823	0.514	Blank	Blank	17.451	n/a	3	9	20	n/a	60	n/a	2	n/a	n/a	n/a	n/a	371.145	n/a
346.353	10.014	ITI	Fixation+	7.421	n/a	3	n/a	n/a	n/a	n/a	n/a	n/a	n/a	n/a	n/a	n/a	371.675	n/a
363.788	n/a	ConfirmRating	Rate	n/a	7.411	3	n/a	n/a	0	n/a	n/a	n/a	2	Angry	30	49	389.11	n/a
377.797	n/a	ConfirmRating	Rate	n/a	13.993	3	n/a	n/a	1	n/a	n/a	n/a	3	Angry	76	52	403.119	n/a
377.82	10.014	ITI	Fixation+	98.984	n/a	4	n/a	n/a	n/a	n/a	n/a	n/a	n/a	n/a	n/a	n/a	403.142	n/a
387.85	0.497	happy	Picture	98.47	n/a	4	10	1	n/a	61	119	3	n/a	n/a	n/a	n/a	413.172	BM28ANS.jpg
388.347	0.514	Blank	Blank	97.956	n/a	4	10	1	n/a	61	n/a	3	n/a	n/a	n/a	n/a	413.669	n/a
388.878	0.497	happy	Picture	97.443	n/a	4	10	2	n/a	62	100	3	n/a	n/a	n/a	n/a	414.2	AF32ANS.jpg
389.375	0.514	Blank	Blank	96.929	n/a	4	10	2	n/a	62	n/a	3	n/a	n/a	n/a	n/a	414.697	n/a
389.906	0.497	happy	Picture	96.415	n/a	4	10	3	n/a	63	118	3	n/a	n/a	n/a	n/a	415.228	BM26ANS.jpg
390.403	0.514	Blank	Blank	95.901	n/a	4	10	3	n/a	63	n/a	3	n/a	n/a	n/a	n/a	415.725	n/a
390.933	0.497	happy	Picture	95.387	n/a	4	10	4	n/a	64	89	3	n/a	n/a	n/a	n/a	416.255	AF17ANS.jpg
391.431	0.514	Blank	Blank	94.873	n/a	4	10	4	n/a	64	n/a	3	n/a	n/a	n/a	n/a	416.753	n/a
391.961	0.497	happy	Picture	94.359	n/a	4	10	5	n/a	65	116	3	n/a	n/a	n/a	n/a	417.283	BM24ANS.jpg
392.459	0.514	Blank	Blank	93.845	n/a	4	10	5	n/a	65	n/a	3	n/a	n/a	n/a	n/a	417.781	n/a
392.989	0.497	happy	Picture	93.331	n/a	4	10	6	n/a	66	105	3	n/a	n/a	n/a	n/a	418.311	BM06ANS.jpg
393.487	0.514	Blank	Blank	92.817	n/a	4	10	6	n/a	66	n/a	3	n/a	n/a	n/a	n/a	418.809	n/a
394.017	0.497	happy	Picture	92.303	n/a	4	10	7	n/a	67	106	3	n/a	n/a	n/a	n/a	419.339	AM07ANS.jpg
394.514	0.514	Blank	Blank	91.789	n/a	4	10	7	n/a	67	n/a	3	n/a	n/a	n/a	n/a	419.837	n/a
395.045	0.497	happy	Picture	91.275	n/a	4	10	8	n/a	68	94	3	n/a	n/a	n/a	n/a	420.367	AF23ANS.jpg
395.542	0.514	Blank	Blank	90.761	n/a	4	10	8	n/a	68	n/a	3	n/a	n/a	n/a	n/a	420.864	n/a
396.073	0.497	happy	Picture	90.247	n/a	4	10	9	n/a	69	117	3	n/a	n/a	n/a	n/a	421.395	BM25ANS.jpg
396.57	0.514	Blank	Blank	89.733	n/a	4	10	9	n/a	69	n/a	3	n/a	n/a	n/a	n/a	421.892	n/a
397.101	0.497	happy	Picture	89.219	n/a	4	10	10	n/a	70	90	3	n/a	n/a	n/a	n/a	422.423	AF18ANS.jpg
397.598	0.514	Blank	Blank	88.706	n/a	4	10	10	n/a	70	n/a	3	n/a	n/a	n/a	n/a	422.92	n/a
398.129	0.497	happy	Picture	88.192	n/a	4	10	11	n/a	71	83	3	n/a	n/a	n/a	n/a	423.451	BF04ANS.jpg
398.626	0.514	Blank	Blank	87.678	n/a	4	10	11	n/a	71	n/a	3	n/a	n/a	n/a	n/a	423.948	n/a
399.157	0.497	happy	Picture	87.164	n/a	4	10	12	n/a	72	112	3	n/a	n/a	n/a	n/a	424.479	AM14ANS.jpg
399.654	0.514	Blank	Blank	86.65	n/a	4	10	12	n/a	72	n/a	3	n/a	n/a	n/a	n/a	424.976	n/a
400.185	0.497	happy	Picture	86.136	n/a	4	10	13	n/a	73	102	3	n/a	n/a	n/a	n/a	425.507	BM03ANS.jpg
400.682	0.514	Blank	Blank	85.622	n/a	4	10	13	n/a	73	n/a	3	n/a	n/a	n/a	n/a	426.004	n/a
401.212	0.497	happy	Picture	85.108	n/a	4	10	14	n/a	74	95	3	n/a	n/a	n/a	n/a	426.534	AF25ANS.jpg
401.71	0.514	Blank	Blank	84.594	n/a	4	10	14	n/a	74	n/a	3	n/a	n/a	n/a	n/a	427.032	n/a
402.24	0.497	happy	Picture	84.08	n/a	4	10	15	n/a	75	113	3	n/a	n/a	n/a	n/a	427.562	AM21ANS.jpg
402.738	0.514	Blank	Blank	83.566	n/a	4	10	15	n/a	75	n/a	3	n/a	n/a	n/a	n/a	428.06	n/a
403.268	0.497	happy	Picture	83.052	n/a	4	10	16	n/a	76	88	3	n/a	n/a	n/a	n/a	428.59	AF14ANS.jpg
403.765	0.514	Blank	Blank	82.538	n/a	4	10	16	n/a	76	n/a	3	n/a	n/a	n/a	n/a	429.087	n/a
404.296	0.497	happy	Picture	82.024	n/a	4	10	17	n/a	77	93	3	n/a	n/a	n/a	n/a	429.618	BF22ANS.jpg
404.793	0.514	Blank	Blank	81.51	n/a	4	10	17	n/a	77	n/a	3	n/a	n/a	n/a	n/a	430.115	n/a
405.324	0.497	happy	Picture	80.996	n/a	4	10	18	n/a	78	86	3	n/a	n/a	n/a	n/a	430.646	AF09ANS.jpg
405.821	0.514	Blank	Blank	80.482	n/a	4	10	18	n/a	78	n/a	3	n/a	n/a	n/a	n/a	431.143	n/a
406.352	0.497	happy	Picture	79.968	n/a	4	10	19	n/a	79	92	3	n/a	n/a	n/a	n/a	431.674	AF21ANS.jpg
406.849	0.514	Blank	Blank	79.455	n/a	4	10	19	n/a	79	n/a	3	n/a	n/a	n/a	n/a	432.171	n/a
407.38	0.497	happy	Picture	78.941	n/a	4	10	20	n/a	80	84	3	n/a	n/a	n/a	n/a	432.702	AF05ANS.jpg
407.877	0.514	Blank	Blank	78.427	n/a	4	10	20	n/a	80	n/a	3	n/a	n/a	n/a	n/a	433.199	n/a
408.408	10.014	ITI	Fixation+	68.396	n/a	4	n/a	n/a	n/a	n/a	n/a	n/a	n/a	n/a	n/a	n/a	433.73	n/a
418.438	0.497	neutral	Picture	67.883	n/a	4	11	1	n/a	81	4	1	n/a	n/a	n/a	n/a	443.76	AF05NES.jpg
418.935	0.514	Blank	Blank	67.369	n/a	4	11	1	n/a	81	n/a	1	n/a	n/a	n/a	n/a	444.257	n/a
419.466	0.497	neutral	Picture	66.855	n/a	4	11	2	n/a	82	14	1	n/a	n/a	n/a	n/a	444.788	AF23NES.jpg
419.963	0.514	Blank	Blank	66.341	n/a	4	11	2	n/a	82	n/a	1	n/a	n/a	n/a	n/a	445.285	n/a
420.493	0.497	neutral	Picture	65.827	n/a	4	11	3	n/a	83	19	1	n/a	n/a	n/a	n/a	445.815	AF31NES.jpg
420.991	0.514	Blank	Blank	65.313	n/a	4	11	3	n/a	83	n/a	1	n/a	n/a	n/a	n/a	446.313	n/a
421.521	0.497	neutral	Picture	64.799	n/a	4	11	4	n/a	84	8	1	n/a	n/a	n/a	n/a	446.843	AF14NES.jpg
422.019	0.514	Blank	Blank	64.285	n/a	4	11	4	n/a	84	n/a	1	n/a	n/a	n/a	n/a	447.341	n/a
422.549	0.497	neutral	Picture	63.771	n/a	4	11	5	n/a	85	25	1	n/a	n/a	n/a	n/a	447.871	BM06NES.jpg
423.047	0.514	Blank	Blank	63.257	n/a	4	11	5	n/a	85	n/a	1	n/a	n/a	n/a	n/a	448.369	n/a
423.577	0.497	neutral	Picture	62.743	n/a	4	11	6	n/a	86	9	1	n/a	n/a	n/a	n/a	448.899	AF17NES.jpg
424.075	0.514	Blank	Blank	62.229	n/a	4	11	6	n/a	86	n/a	1	n/a	n/a	n/a	n/a	449.397	n/a
424.605	0.497	neutral	Picture	61.715	n/a	4	11	7	n/a	87	2	1	n/a	n/a	n/a	n/a	449.927	AF03NES.jpg
425.103	0.514	Blank	Blank	61.201	n/a	4	11	7	n/a	87	n/a	1	n/a	n/a	n/a	n/a	450.425	n/a
425.633	0.497	neutral	Picture	60.687	n/a	4	11	8	n/a	88	17	1	n/a	n/a	n/a	n/a	450.955	BF28NES.jpg
426.13	0.514	Blank	Blank	60.173	n/a	4	11	8	n/a	88	n/a	1	n/a	n/a	n/a	n/a	451.452	n/a
426.661	0.497	neutral	Picture	59.659	n/a	4	11	9	n/a	89	6	1	n/a	n/a	n/a	n/a	451.983	AF09NES.jpg
427.158	0.514	Blank	Blank	59.145	n/a	4	11	9	n/a	89	n/a	1	n/a	n/a	n/a	n/a	452.48	n/a
427.689	0.497	neutral	Picture	58.632	n/a	4	11	10	n/a	90	12	1	n/a	n/a	n/a	n/a	453.011	AF21NES.jpg
428.186	0.514	Blank	Blank	58.118	n/a	4	11	10	n/a	90	n/a	1	n/a	n/a	n/a	n/a	453.508	n/a
428.717	0.497	neutral	Picture	57.604	n/a	4	11	11	n/a	91	24	1	n/a	n/a	n/a	n/a	454.039	BM05NES.jpg
429.214	0.514	Blank	Blank	57.09	n/a	4	11	11	n/a	91	n/a	1	n/a	n/a	n/a	n/a	454.536	n/a
429.745	0.497	neutral	Picture	56.576	n/a	4	11	12	n/a	92	34	1	n/a	n/a	n/a	n/a	455.067	AM22NES.jpg
430.242	0.514	Blank	Blank	56.062	n/a	4	11	12	n/a	92	n/a	1	n/a	n/a	n/a	n/a	455.564	n/a
430.772	0.497	neutral	Picture	55.548	n/a	4	11	13	n/a	93	23	1	n/a	n/a	n/a	n/a	456.094	AM04NES.jpg
431.27	0.514	Blank	Blank	55.034	n/a	4	11	13	n/a	93	n/a	1	n/a	n/a	n/a	n/a	456.592	n/a
431.8	0.497	neutral	Picture	54.52	n/a	4	11	14	n/a	94	15	1	n/a	n/a	n/a	n/a	457.122	AF25NES.jpg
432.298	0.514	Blank	Blank	54.006	n/a	4	11	14	n/a	94	n/a	1	n/a	n/a	n/a	n/a	457.62	n/a
432.828	0.497	neutral	Picture	53.492	n/a	4	11	15	n/a	95	37	1	n/a	n/a	n/a	n/a	458.15	BM25NES.jpg
433.325	0.514	Blank	Blank	52.978	n/a	4	11	15	n/a	95	n/a	1	n/a	n/a	n/a	n/a	458.647	n/a
433.856	0.497	neutral	Picture	52.464	n/a	4	11	16	n/a	96	32	1	n/a	n/a	n/a	n/a	459.178	AM14NES.jpg
434.353	0.514	Blank	Blank	51.95	n/a	4	11	16	n/a	96	n/a	1	n/a	n/a	n/a	n/a	459.675	n/a
434.884	0.497	neutral	Picture	51.436	n/a	4	11	17	n/a	97	3	1	n/a	n/a	n/a	n/a	460.206	BF04NES.jpg
435.381	0.514	Blank	Blank	50.922	n/a	4	11	17	n/a	97	n/a	1	n/a	n/a	n/a	n/a	460.703	n/a
435.912	0.497	neutral	Picture	50.408	n/a	4	11	18	n/a	98	16	1	n/a	n/a	n/a	n/a	461.234	AF26NES.jpg
436.409	0.514	Blank	Blank	49.895	n/a	4	11	18	n/a	98	n/a	1	n/a	n/a	n/a	n/a	461.731	n/a
436.94	0.497	neutral	Picture	49.381	n/a	4	11	19	n/a	99	27	1	n/a	n/a	n/a	n/a	462.262	BM08NES.jpg
437.437	0.514	Blank	Blank	48.867	n/a	4	11	19	n/a	99	n/a	1	n/a	n/a	n/a	n/a	462.759	n/a
437.968	0.497	neutral	Picture	48.353	n/a	4	11	20	n/a	100	28	1	n/a	n/a	n/a	n/a	463.29	AM09NES.jpg
438.465	0.514	Blank	Blank	47.839	n/a	4	11	20	n/a	100	n/a	1	n/a	n/a	n/a	n/a	463.787	n/a
438.995	10.014	ITI	Fixation+	37.809	n/a	4	n/a	n/a	n/a	n/a	n/a	n/a	n/a	n/a	n/a	n/a	464.317	n/a
449.026	0.497	happy	Picture	37.295	n/a	4	12	1	n/a	101	81	3	n/a	n/a	n/a	n/a	474.348	AF01ANS.jpg
449.523	0.514	Blank	Blank	36.781	n/a	4	12	1	n/a	101	n/a	3	n/a	n/a	n/a	n/a	474.845	n/a
450.054	0.497	happy	Picture	36.267	n/a	4	12	2	n/a	102	120	3	n/a	n/a	n/a	n/a	475.376	AM35ANS.jpg
450.551	0.514	Blank	Blank	35.753	n/a	4	12	2	n/a	102	n/a	3	n/a	n/a	n/a	n/a	475.873	n/a
451.082	0.497	happy	Picture	35.239	n/a	4	12	3	n/a	103	114	3	n/a	n/a	n/a	n/a	476.404	AM22ANS.jpg
451.579	0.514	Blank	Blank	34.725	n/a	4	12	3	n/a	103	n/a	3	n/a	n/a	n/a	n/a	476.901	n/a
452.109	0.497	happy	Picture	34.211	n/a	4	12	4	n/a	104	109	3	n/a	n/a	n/a	n/a	477.431	AM10ANS.jpg
452.607	0.514	Blank	Blank	33.697	n/a	4	12	4	n/a	104	n/a	3	n/a	n/a	n/a	n/a	477.929	n/a
453.137	0.497	happy	Picture	33.183	n/a	4	12	5	n/a	105	96	3	n/a	n/a	n/a	n/a	478.459	AF26ANS.jpg
453.635	0.514	Blank	Blank	32.669	n/a	4	12	5	n/a	105	n/a	3	n/a	n/a	n/a	n/a	478.957	n/a
454.165	0.497	happy	Picture	32.155	n/a	4	12	6	n/a	106	82	3	n/a	n/a	n/a	n/a	479.487	AF03ANS.jpg
454.663	0.514	Blank	Blank	31.641	n/a	4	12	6	n/a	106	n/a	3	n/a	n/a	n/a	n/a	479.985	n/a
455.193	0.497	happy	Picture	31.127	n/a	4	12	7	n/a	107	97	3	n/a	n/a	n/a	n/a	480.515	BF28ANS.jpg
455.69	0.514	Blank	Blank	30.613	n/a	4	12	7	n/a	107	n/a	3	n/a	n/a	n/a	n/a	481.012	n/a
456.221	0.497	happy	Picture	30.099	n/a	4	12	8	n/a	108	115	3	n/a	n/a	n/a	n/a	481.543	AM23ANS.jpg
456.718	0.514	Blank	Blank	29.585	n/a	4	12	8	n/a	108	n/a	3	n/a	n/a	n/a	n/a	482.04	n/a
457.249	0.497	happy	Picture	29.072	n/a	4	12	9	n/a	109	91	3	n/a	n/a	n/a	n/a	482.571	AF20ANS.jpg
457.746	0.514	Blank	Blank	28.558	n/a	4	12	9	n/a	109	n/a	3	n/a	n/a	n/a	n/a	483.068	n/a
458.277	0.497	happy	Picture	28.044	n/a	4	12	10	n/a	110	87	3	n/a	n/a	n/a	n/a	483.599	BF11ANS.jpg
458.774	0.514	Blank	Blank	27.53	n/a	4	12	10	n/a	110	n/a	3	n/a	n/a	n/a	n/a	484.096	n/a
459.305	0.497	happy	Picture	27.016	n/a	4	12	11	n/a	111	85	3	n/a	n/a	n/a	n/a	484.627	BF07ANS.jpg
459.802	0.514	Blank	Blank	26.502	n/a	4	12	11	n/a	111	n/a	3	n/a	n/a	n/a	n/a	485.124	n/a
460.332	0.497	happy	Picture	25.988	n/a	4	12	12	n/a	112	110	3	n/a	n/a	n/a	n/a	485.654	AM11ANS.jpg
460.83	0.514	Blank	Blank	25.474	n/a	4	12	12	n/a	112	n/a	3	n/a	n/a	n/a	n/a	486.152	n/a
461.36	0.497	happy	Picture	24.96	n/a	4	12	13	n/a	113	111	3	n/a	n/a	n/a	n/a	486.682	BM12ANS.jpg
461.858	0.514	Blank	Blank	24.446	n/a	4	12	13	n/a	113	n/a	3	n/a	n/a	n/a	n/a	487.18	n/a
462.388	0.497	happy	Picture	23.932	n/a	4	12	14	n/a	114	103	3	n/a	n/a	n/a	n/a	487.71	AM04ANS.jpg
462.886	0.514	Blank	Blank	23.418	n/a	4	12	14	n/a	114	n/a	3	n/a	n/a	n/a	n/a	488.208	n/a
463.416	0.497	happy	Picture	22.904	n/a	4	12	15	n/a	115	101	3	n/a	n/a	n/a	n/a	488.738	AM01ANS.jpg
463.913	0.514	Blank	Blank	22.39	n/a	4	12	15	n/a	115	n/a	3	n/a	n/a	n/a	n/a	489.236	n/a
464.444	0.497	happy	Picture	21.876	n/a	4	12	16	n/a	116	104	3	n/a	n/a	n/a	n/a	489.766	BM05ANS.jpg
464.941	0.514	Blank	Blank	21.362	n/a	4	12	16	n/a	116	n/a	3	n/a	n/a	n/a	n/a	490.263	n/a
465.472	0.497	happy	Picture	20.848	n/a	4	12	17	n/a	117	107	3	n/a	n/a	n/a	n/a	490.794	BM08ANS.jpg
465.969	0.514	Blank	Blank	20.334	n/a	4	12	17	n/a	117	n/a	3	n/a	n/a	n/a	n/a	491.291	n/a
466.5	0.497	happy	Picture	19.821	n/a	4	12	18	n/a	118	98	3	n/a	n/a	n/a	n/a	491.822	BF29ANS.jpg
466.997	0.514	Blank	Blank	19.307	n/a	4	12	18	n/a	118	n/a	3	n/a	n/a	n/a	n/a	492.319	n/a
467.528	0.497	happy	Picture	18.793	n/a	4	12	19	n/a	119	99	3	n/a	n/a	n/a	n/a	492.85	AF31ANS.jpg
468.025	0.514	Blank	Blank	18.279	n/a	4	12	19	n/a	119	n/a	3	n/a	n/a	n/a	n/a	493.347	n/a
468.555	0.497	happy	Picture	17.765	n/a	4	12	20	n/a	120	108	3	n/a	n/a	n/a	n/a	493.877	AM09ANS.jpg
469.053	0.514	Blank	Blank	17.251	n/a	4	12	20	n/a	120	n/a	3	n/a	n/a	n/a	n/a	494.375	n/a
469.583	10.014	ITI	Fixation+	7.221	n/a	4	n/a	n/a	n/a	n/a	n/a	n/a	n/a	n/a	n/a	n/a	494.905	n/a
486.818	n/a	ConfirmRating	Rate	n/a	7.212	4	n/a	n/a	0	n/a	n/a	n/a	2	Happy	82	52	512.14	n/a
495.74	n/a	ConfirmRating	Rate	n/a	8.902	4	n/a	n/a	1	n/a	n/a	n/a	3	Happy	4	47	521.062	n/a
