onset	duration	trial_type	trial_number	event_type	cue_to_participant	stimulus_type	time_until_response	rated_success_of_regulation	onset_uncorrected
0.009	10.014	Instruction	-1	Picture	Instruction	n/a	n/a	n/a	26.919
10.039	5.007	ITI	0	Picture	Fixation+	1	14.062	n/a	36.949
15.062	2.006	Cue	0	Picture	Maintain	1	12.039	n/a	41.972
17.068	4.99	Pic	0	Picture	IAPS_26	1	7.049	n/a	43.978
22.059	2.006	Blank	0	Picture	BLANK	1	5.043	n/a	48.968
29.107	n/a	ConfirmRating	0	Response	n/a	1	n/a	7	56.017
29.138	6.002	ITI	1	Picture	Fixation+	2	15.857	n/a	56.048
35.156	2.006	Cue	1	Picture	Enhance	2	13.834	n/a	62.066
37.162	4.99	Pic	1	Picture	IAPS_36	2	8.844	n/a	64.072
42.152	2.006	Blank	1	Picture	BLANK	2	6.838	n/a	69.062
50.996	n/a	ConfirmRating	1	Response	n/a	2	n/a	2	77.906
51.022	4.012	ITI	2	Picture	Fixation+	3	13.373	n/a	77.932
55.05	2.006	Cue	2	Picture	Suppress	3	11.35	n/a	81.96
57.057	4.99	Pic	2	Picture	IAPS_01	3	6.36	n/a	83.966
62.047	2.006	Blank	2	Picture	BLANK	3	4.354	n/a	88.957
68.407	n/a	ConfirmRating	2	Response	n/a	3	n/a	7	95.317
68.43	5.007	ITI	3	Picture	Fixation+	4	12.197	n/a	95.339
73.453	2.006	Cue	3	Picture	Maintain	4	10.174	n/a	100.363
75.459	4.99	Pic	3	Picture	IAPS_46	4	5.184	n/a	102.369
80.449	2.006	Blank	3	Picture	BLANK	4	3.178	n/a	107.359
85.633	n/a	ConfirmRating	3	Response	n/a	4	n/a	7	112.543
85.655	5.007	ITI	4	Picture	Fixation+	4	12.413	n/a	112.565
90.678	2.006	Cue	4	Picture	Maintain	4	10.39	n/a	117.588
92.684	4.99	Pic	4	Picture	IAPS_49	4	5.4	n/a	119.594
97.675	2.006	Blank	4	Picture	BLANK	4	3.394	n/a	124.585
103.074	n/a	ConfirmRating	4	Response	n/a	4	n/a	6	129.984
103.096	6.002	ITI	5	Picture	Fixation+	2	10.887	n/a	130.006
109.114	2.006	Cue	5	Picture	Enhance	2	8.864	n/a	136.024
111.12	4.99	Pic	5	Picture	IAPS_37	2	3.874	n/a	138.03
116.11	2.006	Blank	5	Picture	BLANK	2	1.868	n/a	143.02
119.984	n/a	ConfirmRating	5	Response	n/a	2	n/a	2	146.894
120.006	4.012	ITI	6	Picture	Fixation+	1	11.464	n/a	146.916
124.035	2.006	Cue	6	Picture	Maintain	1	9.442	n/a	150.945
126.041	4.99	Pic	6	Picture	IAPS_27	1	4.452	n/a	152.951
131.031	2.006	Blank	6	Picture	BLANK	1	2.445	n/a	157.941
135.483	n/a	ConfirmRating	6	Response	n/a	1	n/a	0	162.393
135.508	6.002	ITI	7	Picture	Fixation+	3	16.429	n/a	162.417
141.526	2.006	Cue	7	Picture	Suppress	3	14.407	n/a	168.435
143.532	4.99	Pic	7	Picture	IAPS_02	3	9.417	n/a	170.441
148.522	2.006	Blank	7	Picture	BLANK	3	7.411	n/a	175.432
157.939	n/a	ConfirmRating	7	Response	n/a	3	n/a	7	184.848
157.955	5.007	ITI	8	Picture	Fixation+	4	11.51	n/a	184.865
162.979	2.006	Cue	8	Picture	Maintain	4	9.488	n/a	189.888
164.985	4.99	Pic	8	Picture	IAPS_52	4	4.497	n/a	191.894
169.975	2.006	Blank	8	Picture	BLANK	4	2.491	n/a	196.885
174.472	n/a	ConfirmRating	8	Response	n/a	4	n/a	7	201.382
174.501	6.002	ITI	9	Picture	Fixation+	1	15.735	n/a	201.411
180.519	2.006	Cue	9	Picture	Maintain	1	13.712	n/a	207.429
182.525	4.99	Pic	9	Picture	IAPS_28	1	8.722	n/a	209.435
187.515	2.006	Blank	9	Picture	BLANK	1	6.716	n/a	214.425
196.237	n/a	ConfirmRating	9	Response	n/a	1	n/a	3	223.147
196.269	5.007	ITI	10	Picture	Fixation+	2	10.869	n/a	223.179
201.292	2.006	Cue	10	Picture	Enhance	2	8.846	n/a	228.202
203.298	4.99	Pic	10	Picture	IAPS_38	2	3.856	n/a	230.208
208.288	2.006	Blank	10	Picture	BLANK	2	1.85	n/a	235.198
212.145	n/a	ConfirmRating	10	Response	n/a	2	n/a	2	239.054
212.168	4.012	ITI	11	Picture	Fixation+	3	11.09	n/a	239.078
216.197	2.006	Cue	11	Picture	Suppress	3	9.068	n/a	243.106
218.203	4.99	Pic	11	Picture	IAPS_03	3	4.078	n/a	245.113
223.193	2.006	Blank	11	Picture	BLANK	3	2.072	n/a	250.103
227.27	n/a	ConfirmRating	11	Response	n/a	3	n/a	7	254.18
227.288	6.002	ITI	12	Picture	Fixation+	2	11.468	n/a	254.198
233.306	2.006	Cue	12	Picture	Enhance	2	9.445	n/a	260.216
235.312	4.99	Pic	12	Picture	IAPS_39	2	4.455	n/a	262.222
240.302	2.006	Blank	12	Picture	BLANK	2	2.449	n/a	267.212
244.757	n/a	ConfirmRating	12	Response	n/a	2	n/a	2	271.667
244.779	5.007	ITI	13	Picture	Fixation+	1	10.964	n/a	271.688
249.802	2.006	Cue	13	Picture	Maintain	1	8.941	n/a	276.712
251.808	4.99	Pic	13	Picture	IAPS_29	1	3.951	n/a	278.718
256.798	2.006	Blank	13	Picture	BLANK	1	1.945	n/a	283.708
260.749	n/a	ConfirmRating	13	Response	n/a	1	n/a	2	287.659
260.777	4.012	ITI	14	Picture	Fixation+	4	11.985	n/a	287.687
264.806	2.006	Cue	14	Picture	Maintain	4	9.962	n/a	291.716
266.812	4.99	Pic	14	Picture	IAPS_55	4	4.972	n/a	293.722
271.802	2.006	Blank	14	Picture	BLANK	4	2.966	n/a	298.712
276.774	n/a	ConfirmRating	14	Response	n/a	4	n/a	7	303.684
276.792	5.007	ITI	15	Picture	Fixation+	3	11.571	n/a	303.702
281.816	2.006	Cue	15	Picture	Suppress	3	9.548	n/a	308.725
283.822	4.99	Pic	15	Picture	IAPS_04	3	4.558	n/a	310.731
288.812	2.006	Blank	15	Picture	BLANK	3	2.552	n/a	315.722
293.37	n/a	ConfirmRating	15	Response	n/a	3	n/a	6	320.279
293.388	6.002	ITI	16	Picture	Fixation+	2	11.113	n/a	320.297
299.406	2.006	Cue	16	Picture	Enhance	2	9.091	n/a	326.315
301.412	4.99	Pic	16	Picture	IAPS_40	2	4.1	n/a	328.322
306.402	2.006	Blank	16	Picture	BLANK	2	2.094	n/a	333.312
310.502	n/a	ConfirmRating	16	Response	n/a	2	n/a	1	337.412
310.53	6.002	ITI	17	Picture	Fixation+	1	10.91	n/a	337.44
316.548	2.006	Cue	17	Picture	Maintain	1	8.888	n/a	343.458
318.554	4.99	Pic	17	Picture	IAPS_30	1	3.898	n/a	345.464
323.544	2.006	Blank	17	Picture	BLANK	1	1.892	n/a	350.454
327.442	n/a	ConfirmRating	17	Response	n/a	1	n/a	2	354.352
327.474	4.012	ITI	18	Picture	Fixation+	3	11.538	n/a	354.383
331.502	2.006	Cue	18	Picture	Suppress	3	9.516	n/a	358.412
333.508	4.99	Pic	18	Picture	IAPS_05	3	4.525	n/a	360.418
338.498	2.006	Blank	18	Picture	BLANK	3	2.519	n/a	365.408
343.024	n/a	ConfirmRating	18	Response	n/a	3	n/a	7	369.934
343.041	5.007	ITI	19	Picture	Fixation+	4	12.838	n/a	369.951
348.065	2.006	Cue	19	Picture	Maintain	4	10.815	n/a	374.974
350.071	4.99	Pic	19	Picture	IAPS_58	4	5.825	n/a	376.98
355.061	2.006	Blank	19	Picture	BLANK	4	3.819	n/a	381.971
360.886	n/a	ConfirmRating	19	Response	n/a	4	n/a	7	387.795
360.913	6.002	ITI	20	Picture	Fixation+	4	11.552	n/a	387.823
366.931	2.006	Cue	20	Picture	Maintain	4	9.529	n/a	393.841
368.937	4.99	Pic	20	Picture	IAPS_47	4	4.539	n/a	395.847
373.928	2.006	Blank	20	Picture	BLANK	4	2.533	n/a	400.837
378.466	n/a	ConfirmRating	20	Response	n/a	4	n/a	7	405.376
378.487	5.007	ITI	21	Picture	Fixation+	3	10.451	n/a	405.397
383.51	2.006	Cue	21	Picture	Suppress	3	8.428	n/a	410.42
385.516	4.99	Pic	21	Picture	IAPS_06	3	3.438	n/a	412.426
390.506	2.006	Blank	21	Picture	BLANK	3	1.432	n/a	417.416
393.944	n/a	ConfirmRating	21	Response	n/a	3	n/a	0	420.854
393.971	4.012	ITI	22	Picture	Fixation+	1	11.385	n/a	420.881
398.0	2.006	Cue	22	Picture	Maintain	1	9.362	n/a	424.91
400.006	4.99	Pic	22	Picture	IAPS_16	1	4.372	n/a	426.916
404.996	2.006	Blank	22	Picture	BLANK	1	2.366	n/a	431.906
409.368	n/a	ConfirmRating	22	Response	n/a	1	n/a	1	436.278
409.39	4.012	ITI	23	Picture	Fixation+	2	10.486	n/a	436.299
413.418	2.006	Cue	23	Picture	Enhance	2	8.463	n/a	440.328
415.424	4.99	Pic	23	Picture	IAPS_41	2	3.473	n/a	442.334
420.414	2.006	Blank	23	Picture	BLANK	2	1.467	n/a	447.324
423.888	n/a	ConfirmRating	23	Response	n/a	2	n/a	3	450.798
423.913	5.007	ITI	24	Picture	Fixation+	1	11.132	n/a	450.822
428.936	2.006	Cue	24	Picture	Maintain	1	9.109	n/a	455.846
430.942	4.99	Pic	24	Picture	IAPS_17	1	4.119	n/a	457.852
435.932	2.006	Blank	24	Picture	BLANK	1	2.113	n/a	462.842
440.051	n/a	ConfirmRating	24	Response	n/a	1	n/a	1	466.961
440.077	4.012	ITI	25	Picture	Fixation+	2	10.834	n/a	466.987
444.106	2.006	Cue	25	Picture	Enhance	2	8.812	n/a	471.015
446.112	4.99	Pic	25	Picture	IAPS_42	2	3.821	n/a	473.021
451.102	2.006	Blank	25	Picture	BLANK	2	1.815	n/a	478.012
454.923	n/a	ConfirmRating	25	Response	n/a	2	n/a	3	481.833
454.948	6.002	ITI	26	Picture	Fixation+	4	11.824	n/a	481.858
460.966	2.006	Cue	26	Picture	Maintain	4	9.802	n/a	487.876
462.972	4.99	Pic	26	Picture	IAPS_50	4	4.811	n/a	489.882
467.962	2.006	Blank	26	Picture	BLANK	4	2.805	n/a	494.872
472.774	n/a	ConfirmRating	26	Response	n/a	4	n/a	7	499.684
472.803	5.007	ITI	27	Picture	Fixation+	3	11.4	n/a	499.713
477.827	2.006	Cue	27	Picture	Suppress	3	9.378	n/a	504.737
479.833	4.99	Pic	27	Picture	IAPS_07	3	4.387	n/a	506.743
484.823	2.006	Blank	27	Picture	BLANK	3	2.382	n/a	511.733
489.211	n/a	ConfirmRating	27	Response	n/a	3	n/a	1	516.12
489.233	5.007	ITI	28	Picture	Fixation+	2	10.554	n/a	516.143
494.256	2.006	Cue	28	Picture	Enhance	2	8.531	n/a	521.166
496.263	4.99	Pic	28	Picture	IAPS_43	2	3.541	n/a	523.172
501.253	2.006	Blank	28	Picture	BLANK	2	1.535	n/a	528.163
504.793	n/a	ConfirmRating	28	Response	n/a	2	n/a	3	531.703
504.817	4.012	ITI	29	Picture	Fixation+	3	10.782	n/a	531.727
508.846	2.006	Cue	29	Picture	Suppress	3	8.759	n/a	535.756
510.852	4.99	Pic	29	Picture	IAPS_08	3	3.769	n/a	537.762
515.842	2.006	Blank	29	Picture	BLANK	3	1.763	n/a	542.752
519.611	n/a	ConfirmRating	29	Response	n/a	3	n/a	6	546.521
519.639	15.004	Rest	29	Picture	Rest	n/a	-15.031	n/a	546.548
534.659	5.007	ITI	30	Picture	Fixation+	4	11.389	n/a	561.569
539.683	2.006	Cue	30	Picture	Maintain	4	9.366	n/a	566.592
541.688	4.99	Pic	30	Picture	IAPS_53	4	4.376	n/a	568.598
546.679	2.006	Blank	30	Picture	BLANK	4	2.37	n/a	573.588
551.055	n/a	ConfirmRating	30	Response	n/a	4	n/a	7	577.965
551.072	6.002	ITI	31	Picture	Fixation+	1	11.024	n/a	577.982
557.09	2.006	Cue	31	Picture	Maintain	1	9.001	n/a	584.0
559.096	4.99	Pic	31	Picture	IAPS_18	1	4.011	n/a	586.006
564.087	2.006	Blank	31	Picture	BLANK	1	2.005	n/a	590.996
568.097	n/a	ConfirmRating	31	Response	n/a	1	n/a	1	595.007
568.115	4.012	ITI	32	Picture	Fixation+	3	11.058	n/a	595.025
572.144	2.006	Cue	32	Picture	Suppress	3	9.036	n/a	599.054
574.15	4.99	Pic	32	Picture	IAPS_09	3	4.045	n/a	601.06
579.14	2.006	Blank	32	Picture	BLANK	3	2.039	n/a	606.05
583.185	0.017	ConfirmRating	32	Response	n/a	3	-0.017	7	610.095
583.218	5.007	ITI	33	Picture	Fixation+	1	11.063	n/a	610.128
588.242	2.006	Cue	33	Picture	Maintain	1	9.04	n/a	615.152
590.248	4.99	Pic	33	Picture	IAPS_19	1	4.05	n/a	617.158
595.238	2.006	Blank	33	Picture	BLANK	1	2.044	n/a	622.148
599.288	n/a	ConfirmRating	33	Response	n/a	1	n/a	1	626.198
599.317	4.012	ITI	34	Picture	Fixation+	2	10.871	n/a	626.226
603.345	2.006	Cue	34	Picture	Enhance	2	8.849	n/a	630.255
605.351	4.99	Pic	34	Picture	IAPS_44	2	3.859	n/a	632.261
610.341	2.006	Blank	34	Picture	BLANK	2	1.852	n/a	637.251
614.2	n/a	ConfirmRating	34	Response	n/a	2	n/a	1	641.11
614.221	6.002	ITI	35	Picture	Fixation+	4	11.174	n/a	641.131
620.239	2.006	Cue	35	Picture	Maintain	4	9.152	n/a	647.149
622.245	4.99	Pic	35	Picture	IAPS_56	4	4.162	n/a	649.155
627.235	2.006	Blank	35	Picture	BLANK	4	2.156	n/a	654.145
631.397	n/a	ConfirmRating	35	Response	n/a	4	n/a	7	658.307
631.43	5.007	ITI	36	Picture	Fixation+	3	10.958	n/a	658.339
636.453	2.006	Cue	36	Picture	Suppress	3	8.935	n/a	663.363
638.459	4.99	Pic	36	Picture	IAPS_10	3	3.945	n/a	665.369
643.449	2.006	Blank	36	Picture	BLANK	3	1.939	n/a	670.359
647.394	n/a	ConfirmRating	36	Response	n/a	3	n/a	7	674.304
647.412	6.002	ITI	37	Picture	Fixation+	4	11.037	n/a	674.321
653.43	2.006	Cue	37	Picture	Maintain	4	9.014	n/a	680.34
655.436	4.99	Pic	37	Picture	IAPS_59	4	4.024	n/a	682.346
660.426	2.006	Blank	37	Picture	BLANK	4	2.018	n/a	687.336
664.45	n/a	ConfirmRating	37	Response	n/a	4	n/a	7	691.36
664.471	5.007	ITI	38	Picture	Fixation+	2	10.802	n/a	691.381
669.495	2.006	Cue	38	Picture	Enhance	2	8.779	n/a	696.404
671.501	4.99	Pic	38	Picture	IAPS_45	2	3.789	n/a	698.41
676.491	2.006	Blank	38	Picture	BLANK	2	1.783	n/a	703.401
680.28	n/a	ConfirmRating	38	Response	n/a	2	n/a	1	707.19
680.304	4.012	ITI	39	Picture	Fixation+	1	10.701	n/a	707.214
684.333	2.006	Cue	39	Picture	Maintain	1	8.678	n/a	711.242
686.339	4.99	Pic	39	Picture	IAPS_20	1	3.688	n/a	713.249
691.329	2.006	Blank	39	Picture	BLANK	1	1.682	n/a	718.239
695.017	n/a	ConfirmRating	39	Response	n/a	1	n/a	2	721.927
695.043	6.002	ITI	40	Picture	Fixation+	4	10.876	n/a	721.952
701.061	2.006	Cue	40	Picture	Maintain	4	8.854	n/a	727.971
703.067	4.99	Pic	40	Picture	IAPS_48	4	3.864	n/a	729.976
708.057	2.006	Blank	40	Picture	BLANK	4	1.858	n/a	734.967
711.92	n/a	ConfirmRating	40	Response	n/a	4	n/a	7	738.83
711.953	5.007	ITI	41	Picture	Fixation+	3	11.519	n/a	738.863
716.976	2.006	Cue	41	Picture	Suppress	3	9.497	n/a	743.886
718.982	4.99	Pic	41	Picture	IAPS_11	3	4.507	n/a	745.892
723.973	2.006	Blank	41	Picture	BLANK	3	2.501	n/a	750.882
728.479	n/a	ConfirmRating	41	Response	n/a	3	n/a	7	755.389
728.499	6.002	ITI	42	Picture	Fixation+	2	11.271	n/a	755.408
734.517	2.006	Cue	42	Picture	Enhance	2	9.248	n/a	761.427
736.523	4.99	Pic	42	Picture	IAPS_31	2	4.258	n/a	763.433
741.513	2.006	Blank	42	Picture	BLANK	2	2.252	n/a	768.423
745.771	n/a	ConfirmRating	42	Response	n/a	2	n/a	1	772.681
745.79	4.012	ITI	43	Picture	Fixation+	1	10.898	n/a	772.7
749.819	2.006	Cue	43	Picture	Maintain	1	8.876	n/a	776.729
751.825	4.99	Pic	43	Picture	IAPS_21	1	3.886	n/a	778.735
756.815	2.006	Blank	43	Picture	BLANK	1	1.88	n/a	783.725
760.701	n/a	ConfirmRating	43	Response	n/a	1	n/a	1	787.611
760.728	5.007	ITI	44	Picture	Fixation+	2	11.011	n/a	787.638
765.751	2.006	Cue	44	Picture	Enhance	2	8.988	n/a	792.661
767.757	4.99	Pic	44	Picture	IAPS_32	2	3.998	n/a	794.667
772.747	2.006	Blank	44	Picture	BLANK	2	1.992	n/a	799.657
776.746	n/a	ConfirmRating	44	Response	n/a	2	n/a	1	803.655
776.776	5.007	ITI	45	Picture	Fixation+	4	11.04	n/a	803.686
781.799	2.006	Cue	45	Picture	Maintain	4	9.018	n/a	808.709
783.805	4.99	Pic	45	Picture	IAPS_51	4	4.028	n/a	810.715
788.796	2.006	Blank	45	Picture	BLANK	4	2.022	n/a	815.706
792.823	n/a	ConfirmRating	45	Response	n/a	4	n/a	7	819.733
792.841	4.012	ITI	46	Picture	Fixation+	3	10.505	n/a	819.751
796.87	2.006	Cue	46	Picture	Suppress	3	8.482	n/a	823.779
798.876	4.99	Pic	46	Picture	IAPS_12	3	3.492	n/a	825.785
803.866	2.006	Blank	46	Picture	BLANK	3	1.486	n/a	830.776
807.358	n/a	ConfirmRating	46	Response	n/a	3	n/a	2	834.268
807.381	5.007	ITI	47	Picture	Fixation+	1	11.769	n/a	834.29
812.404	2.006	Cue	47	Picture	Maintain	1	9.747	n/a	839.314
814.41	4.99	Pic	47	Picture	IAPS_22	1	4.757	n/a	841.32
819.4	2.006	Blank	47	Picture	BLANK	1	2.751	n/a	846.31
824.157	n/a	ConfirmRating	47	Response	n/a	1	n/a	1	851.067
824.175	4.012	ITI	48	Picture	Fixation+	3	14.364	n/a	851.085
828.204	2.006	Cue	48	Picture	Suppress	3	12.341	n/a	855.113
830.21	4.99	Pic	48	Picture	IAPS_13	3	7.351	n/a	857.119
835.2	2.006	Blank	48	Picture	BLANK	3	5.345	n/a	862.11
842.551	n/a	ConfirmRating	48	Response	n/a	3	n/a	1	869.46
842.577	5.007	ITI	49	Picture	Fixation+	4	11.205	n/a	869.487
847.601	2.006	Cue	49	Picture	Maintain	4	9.183	n/a	874.511
849.607	4.99	Pic	49	Picture	IAPS_54	4	4.192	n/a	876.517
854.597	2.006	Blank	49	Picture	BLANK	4	2.186	n/a	881.507
858.789	n/a	ConfirmRating	49	Response	n/a	4	n/a	7	885.699
858.808	5.007	ITI	50	Picture	Fixation+	1	11.596	n/a	885.718
863.832	2.006	Cue	50	Picture	Maintain	1	9.574	n/a	890.741
865.837	4.99	Pic	50	Picture	IAPS_23	1	4.583	n/a	892.747
870.828	2.006	Blank	50	Picture	BLANK	1	2.577	n/a	897.737
875.411	n/a	ConfirmRating	50	Response	n/a	1	n/a	1	902.321
875.437	4.012	ITI	51	Picture	Fixation+	2	10.877	n/a	902.346
879.465	2.006	Cue	51	Picture	Enhance	2	8.855	n/a	906.375
881.471	4.99	Pic	51	Picture	IAPS_33	2	3.864	n/a	908.381
886.462	2.006	Blank	51	Picture	BLANK	2	1.858	n/a	913.371
890.326	n/a	ConfirmRating	51	Response	n/a	2	n/a	1	917.236
890.358	5.007	ITI	52	Picture	Fixation+	1	10.996	n/a	917.267
895.381	2.006	Cue	52	Picture	Maintain	1	8.974	n/a	922.291
897.387	4.99	Pic	52	Picture	IAPS_24	1	3.983	n/a	924.297
902.377	2.006	Blank	52	Picture	BLANK	1	1.977	n/a	929.287
906.361	n/a	ConfirmRating	52	Response	n/a	1	n/a	1	933.27
906.389	5.007	ITI	53	Picture	Fixation+	4	11.07	n/a	933.299
911.413	2.006	Cue	53	Picture	Maintain	4	9.048	n/a	938.322
913.419	4.99	Pic	53	Picture	IAPS_57	4	4.058	n/a	940.328
918.409	2.006	Blank	53	Picture	BLANK	4	2.051	n/a	945.319
922.466	n/a	ConfirmRating	53	Response	n/a	4	n/a	7	949.376
922.487	6.002	ITI	54	Picture	Fixation+	3	10.591	n/a	949.397
928.505	2.006	Cue	54	Picture	Suppress	3	8.569	n/a	955.415
930.511	4.99	Pic	54	Picture	IAPS_14	3	3.579	n/a	957.421
935.502	2.006	Blank	54	Picture	BLANK	3	1.572	n/a	962.412
939.08	n/a	ConfirmRating	54	Response	n/a	3	n/a	6	965.99
939.099	5.007	ITI	55	Picture	Fixation+	2	11.117	n/a	966.009
944.123	2.006	Cue	55	Picture	Enhance	2	9.094	n/a	971.033
946.129	4.99	Pic	55	Picture	IAPS_34	2	4.104	n/a	973.038
951.119	2.006	Blank	55	Picture	BLANK	2	2.098	n/a	978.029
955.223	n/a	ConfirmRating	55	Response	n/a	2	n/a	1	982.133
955.247	5.007	ITI	56	Picture	Fixation+	1	11.916	n/a	982.157
960.27	2.006	Cue	56	Picture	Maintain	1	9.893	n/a	987.18
962.276	4.99	Pic	56	Picture	IAPS_25	1	4.903	n/a	989.186
967.267	2.006	Blank	56	Picture	BLANK	1	2.897	n/a	994.177
972.17	n/a	ConfirmRating	56	Response	n/a	1	n/a	2	999.08
972.191	6.002	ITI	57	Picture	Fixation+	3	10.926	n/a	999.1
978.209	2.006	Cue	57	Picture	Suppress	3	8.904	n/a	1005.119
980.215	4.99	Pic	57	Picture	IAPS_15	3	3.913	n/a	1007.125
985.205	2.006	Blank	57	Picture	BLANK	3	1.908	n/a	1012.115
989.118	n/a	ConfirmRating	57	Response	n/a	3	n/a	7	1016.028
989.151	4.012	ITI	58	Picture	Fixation+	4	10.928	n/a	1016.061
993.179	2.006	Cue	58	Picture	Maintain	4	8.906	n/a	1020.089
995.185	4.99	Pic	58	Picture	IAPS_60	4	3.916	n/a	1022.095
1000.176	2.006	Blank	58	Picture	BLANK	4	1.91	n/a	1027.085
1004.091	n/a	ConfirmRating	58	Response	n/a	4	n/a	7	1031.001
1004.121	6.002	ITI	59	Picture	Fixation+	2	10.871	n/a	1031.031
1010.139	2.006	Cue	59	Picture	Enhance	2	8.848	n/a	1037.049
1012.146	4.99	Pic	59	Picture	IAPS_35	2	3.858	n/a	1039.055
1017.136	2.006	Blank	59	Picture	BLANK	2	1.852	n/a	1044.046
1020.994	n/a	ConfirmRating	59	Response	n/a	2	n/a	1	1047.904
