onset	duration	trial_type	event_type	time_until_response	response_time	trial_number	block_num_within_trial	image_seq_num_within_block	question_seq_num_within_block	image_seq_num	picture_number	condition	question_type	block_type	rating	rating_computed	onset_uncorrected	KDEV_imagefile
0.005	10.014	ITI	Fixation+	96.931	n/a	1	n/a	n/a	n/a	n/a	n/a	n/a	n/a	n/a	n/a	n/a	28.41	n/a
10.035	0.497	happy	Picture	96.417	n/a	1	1	1	n/a	1	108	3	n/a	n/a	n/a	n/a	38.441	AM09ANS.jpg
10.532	0.514	Blank	Blank	95.903	n/a	1	1	1	n/a	1	n/a	3	n/a	n/a	n/a	n/a	38.938	n/a
11.063	0.497	happy	Picture	95.389	n/a	1	1	2	n/a	2	99	3	n/a	n/a	n/a	n/a	39.468	AF31ANS.jpg
11.56	0.514	Blank	Blank	94.875	n/a	1	1	2	n/a	2	n/a	3	n/a	n/a	n/a	n/a	39.966	n/a
12.09	0.497	happy	Picture	94.361	n/a	1	1	3	n/a	3	98	3	n/a	n/a	n/a	n/a	40.496	BF29ANS.jpg
12.588	0.514	Blank	Blank	93.847	n/a	1	1	3	n/a	3	n/a	3	n/a	n/a	n/a	n/a	40.994	n/a
13.118	0.497	happy	Picture	93.333	n/a	1	1	4	n/a	4	107	3	n/a	n/a	n/a	n/a	41.524	BM08ANS.jpg
13.616	0.514	Blank	Blank	92.819	n/a	1	1	4	n/a	4	n/a	3	n/a	n/a	n/a	n/a	42.022	n/a
14.146	0.497	happy	Picture	92.305	n/a	1	1	5	n/a	5	104	3	n/a	n/a	n/a	n/a	42.552	BM05ANS.jpg
14.644	0.514	Blank	Blank	91.791	n/a	1	1	5	n/a	5	n/a	3	n/a	n/a	n/a	n/a	43.05	n/a
15.174	0.497	happy	Picture	91.278	n/a	1	1	6	n/a	6	101	3	n/a	n/a	n/a	n/a	43.58	AM01ANS.jpg
15.671	0.514	Blank	Blank	90.764	n/a	1	1	6	n/a	6	n/a	3	n/a	n/a	n/a	n/a	44.077	n/a
16.202	0.497	happy	Picture	90.25	n/a	1	1	7	n/a	7	103	3	n/a	n/a	n/a	n/a	44.608	AM04ANS.jpg
16.699	0.514	Blank	Blank	89.736	n/a	1	1	7	n/a	7	n/a	3	n/a	n/a	n/a	n/a	45.105	n/a
17.23	0.497	happy	Picture	89.222	n/a	1	1	8	n/a	8	111	3	n/a	n/a	n/a	n/a	45.636	BM12ANS.jpg
17.727	0.514	Blank	Blank	88.708	n/a	1	1	8	n/a	8	n/a	3	n/a	n/a	n/a	n/a	46.133	n/a
18.258	0.497	happy	Picture	88.194	n/a	1	1	9	n/a	9	110	3	n/a	n/a	n/a	n/a	46.664	AM11ANS.jpg
18.755	0.514	Blank	Blank	87.68	n/a	1	1	9	n/a	9	n/a	3	n/a	n/a	n/a	n/a	47.161	n/a
19.286	0.497	happy	Picture	87.166	n/a	1	1	10	n/a	10	85	3	n/a	n/a	n/a	n/a	47.691	BF07ANS.jpg
19.783	0.514	Blank	Blank	86.652	n/a	1	1	10	n/a	10	n/a	3	n/a	n/a	n/a	n/a	48.189	n/a
20.314	0.497	happy	Picture	86.138	n/a	1	1	11	n/a	11	87	3	n/a	n/a	n/a	n/a	48.719	BF11ANS.jpg
20.811	0.514	Blank	Blank	85.624	n/a	1	1	11	n/a	11	n/a	3	n/a	n/a	n/a	n/a	49.217	n/a
21.341	0.497	happy	Picture	85.11	n/a	1	1	12	n/a	12	91	3	n/a	n/a	n/a	n/a	49.747	AF20ANS.jpg
21.839	0.514	Blank	Blank	84.596	n/a	1	1	12	n/a	12	n/a	3	n/a	n/a	n/a	n/a	50.245	n/a
22.369	0.497	happy	Picture	84.082	n/a	1	1	13	n/a	13	115	3	n/a	n/a	n/a	n/a	50.775	AM23ANS.jpg
22.867	0.514	Blank	Blank	83.568	n/a	1	1	13	n/a	13	n/a	3	n/a	n/a	n/a	n/a	51.273	n/a
23.397	0.497	happy	Picture	83.054	n/a	1	1	14	n/a	14	97	3	n/a	n/a	n/a	n/a	51.803	BF28ANS.jpg
23.895	0.514	Blank	Blank	82.541	n/a	1	1	14	n/a	14	n/a	3	n/a	n/a	n/a	n/a	52.3	n/a
24.425	0.497	happy	Picture	82.027	n/a	1	1	15	n/a	15	82	3	n/a	n/a	n/a	n/a	52.831	AF03ANS.jpg
24.922	0.514	Blank	Blank	81.513	n/a	1	1	15	n/a	15	n/a	3	n/a	n/a	n/a	n/a	53.328	n/a
25.453	0.497	happy	Picture	80.999	n/a	1	1	16	n/a	16	96	3	n/a	n/a	n/a	n/a	53.859	AF26ANS.jpg
25.95	0.514	Blank	Blank	80.485	n/a	1	1	16	n/a	16	n/a	3	n/a	n/a	n/a	n/a	54.356	n/a
26.481	0.497	happy	Picture	79.971	n/a	1	1	17	n/a	17	109	3	n/a	n/a	n/a	n/a	54.887	AM10ANS.jpg
26.978	0.514	Blank	Blank	79.457	n/a	1	1	17	n/a	17	n/a	3	n/a	n/a	n/a	n/a	55.384	n/a
27.509	0.497	happy	Picture	78.943	n/a	1	1	18	n/a	18	114	3	n/a	n/a	n/a	n/a	55.914	AM22ANS.jpg
28.006	0.514	Blank	Blank	78.429	n/a	1	1	18	n/a	18	n/a	3	n/a	n/a	n/a	n/a	56.412	n/a
28.537	0.497	happy	Picture	77.915	n/a	1	1	19	n/a	19	120	3	n/a	n/a	n/a	n/a	56.942	AM35ANS.jpg
29.034	0.514	Blank	Blank	77.401	n/a	1	1	19	n/a	19	n/a	3	n/a	n/a	n/a	n/a	57.44	n/a
29.564	0.497	happy	Picture	76.887	n/a	1	1	20	n/a	20	81	3	n/a	n/a	n/a	n/a	57.97	AF01ANS.jpg
30.062	0.514	Blank	Blank	76.373	n/a	1	1	20	n/a	20	n/a	3	n/a	n/a	n/a	n/a	58.468	n/a
30.592	10.014	ITI	Fixation+	66.343	n/a	1	n/a	n/a	n/a	n/a	n/a	n/a	n/a	n/a	n/a	n/a	58.998	n/a
40.622	0.497	neutral	Picture	65.829	n/a	1	2	1	n/a	21	28	1	n/a	n/a	n/a	n/a	69.028	AM09NES.jpg
41.12	0.514	Blank	Blank	65.315	n/a	1	2	1	n/a	21	n/a	1	n/a	n/a	n/a	n/a	69.526	n/a
41.65	0.497	neutral	Picture	64.801	n/a	1	2	2	n/a	22	27	1	n/a	n/a	n/a	n/a	70.056	BM08NES.jpg
42.148	0.514	Blank	Blank	64.287	n/a	1	2	2	n/a	22	n/a	1	n/a	n/a	n/a	n/a	70.553	n/a
42.678	0.497	neutral	Picture	63.773	n/a	1	2	3	n/a	23	16	1	n/a	n/a	n/a	n/a	71.084	AF26NES.jpg
43.175	0.514	Blank	Blank	63.26	n/a	1	2	3	n/a	23	n/a	1	n/a	n/a	n/a	n/a	71.581	n/a
43.706	0.497	neutral	Picture	62.746	n/a	1	2	4	n/a	24	3	1	n/a	n/a	n/a	n/a	72.112	BF04NES.jpg
44.203	0.514	Blank	Blank	62.232	n/a	1	2	4	n/a	24	n/a	1	n/a	n/a	n/a	n/a	72.609	n/a
44.734	0.497	neutral	Picture	61.718	n/a	1	2	5	n/a	25	32	1	n/a	n/a	n/a	n/a	73.14	AM14NES.jpg
45.231	0.514	Blank	Blank	61.204	n/a	1	2	5	n/a	25	n/a	1	n/a	n/a	n/a	n/a	73.637	n/a
45.762	0.497	neutral	Picture	60.69	n/a	1	2	6	n/a	26	37	1	n/a	n/a	n/a	n/a	74.168	BM25NES.jpg
46.259	0.514	Blank	Blank	60.176	n/a	1	2	6	n/a	26	n/a	1	n/a	n/a	n/a	n/a	74.665	n/a
46.79	0.497	neutral	Picture	59.662	n/a	1	2	7	n/a	27	15	1	n/a	n/a	n/a	n/a	75.195	AF25NES.jpg
47.287	0.514	Blank	Blank	59.148	n/a	1	2	7	n/a	27	n/a	1	n/a	n/a	n/a	n/a	75.693	n/a
47.817	0.497	neutral	Picture	58.634	n/a	1	2	8	n/a	28	23	1	n/a	n/a	n/a	n/a	76.223	AM04NES.jpg
48.315	0.514	Blank	Blank	58.12	n/a	1	2	8	n/a	28	n/a	1	n/a	n/a	n/a	n/a	76.721	n/a
48.845	0.497	neutral	Picture	57.606	n/a	1	2	9	n/a	29	34	1	n/a	n/a	n/a	n/a	77.251	AM22NES.jpg
49.343	0.514	Blank	Blank	57.092	n/a	1	2	9	n/a	29	n/a	1	n/a	n/a	n/a	n/a	77.749	n/a
49.873	0.497	neutral	Picture	56.578	n/a	1	2	10	n/a	30	24	1	n/a	n/a	n/a	n/a	78.279	BM05NES.jpg
50.371	0.514	Blank	Blank	56.064	n/a	1	2	10	n/a	30	n/a	1	n/a	n/a	n/a	n/a	78.776	n/a
50.901	0.497	neutral	Picture	55.55	n/a	1	2	11	n/a	31	12	1	n/a	n/a	n/a	n/a	79.307	AF21NES.jpg
51.398	0.514	Blank	Blank	55.037	n/a	1	2	11	n/a	31	n/a	1	n/a	n/a	n/a	n/a	79.804	n/a
51.929	0.497	neutral	Picture	54.523	n/a	1	2	12	n/a	32	6	1	n/a	n/a	n/a	n/a	80.335	AF09NES.jpg
52.426	0.514	Blank	Blank	54.009	n/a	1	2	12	n/a	32	n/a	1	n/a	n/a	n/a	n/a	80.832	n/a
52.957	0.497	neutral	Picture	53.495	n/a	1	2	13	n/a	33	17	1	n/a	n/a	n/a	n/a	81.363	BF28NES.jpg
53.454	0.514	Blank	Blank	52.981	n/a	1	2	13	n/a	33	n/a	1	n/a	n/a	n/a	n/a	81.86	n/a
53.985	0.497	neutral	Picture	52.467	n/a	1	2	14	n/a	34	2	1	n/a	n/a	n/a	n/a	82.391	AF03NES.jpg
54.482	0.514	Blank	Blank	51.953	n/a	1	2	14	n/a	34	n/a	1	n/a	n/a	n/a	n/a	82.888	n/a
55.013	0.497	neutral	Picture	51.439	n/a	1	2	15	n/a	35	9	1	n/a	n/a	n/a	n/a	83.418	AF17NES.jpg
55.51	0.514	Blank	Blank	50.925	n/a	1	2	15	n/a	35	n/a	1	n/a	n/a	n/a	n/a	83.916	n/a
56.04	0.497	neutral	Picture	50.411	n/a	1	2	16	n/a	36	25	1	n/a	n/a	n/a	n/a	84.446	BM06NES.jpg
56.538	0.514	Blank	Blank	49.897	n/a	1	2	16	n/a	36	n/a	1	n/a	n/a	n/a	n/a	84.944	n/a
57.068	0.497	neutral	Picture	49.383	n/a	1	2	17	n/a	37	8	1	n/a	n/a	n/a	n/a	85.474	AF14NES.jpg
57.566	0.514	Blank	Blank	48.869	n/a	1	2	17	n/a	37	n/a	1	n/a	n/a	n/a	n/a	85.972	n/a
58.096	0.497	neutral	Picture	48.355	n/a	1	2	18	n/a	38	19	1	n/a	n/a	n/a	n/a	86.502	AF31NES.jpg
58.594	0.514	Blank	Blank	47.841	n/a	1	2	18	n/a	38	n/a	1	n/a	n/a	n/a	n/a	86.999	n/a
59.124	0.497	neutral	Picture	47.327	n/a	1	2	19	n/a	39	14	1	n/a	n/a	n/a	n/a	87.53	AF23NES.jpg
59.621	0.514	Blank	Blank	46.814	n/a	1	2	19	n/a	39	n/a	1	n/a	n/a	n/a	n/a	88.027	n/a
60.152	0.497	neutral	Picture	46.3	n/a	1	2	20	n/a	40	4	1	n/a	n/a	n/a	n/a	88.558	AF05NES.jpg
60.649	0.514	Blank	Blank	45.786	n/a	1	2	20	n/a	40	n/a	1	n/a	n/a	n/a	n/a	89.055	n/a
61.18	10.014	ITI	Fixation+	35.756	n/a	1	n/a	n/a	n/a	n/a	n/a	n/a	n/a	n/a	n/a	n/a	89.586	n/a
71.21	0.497	happy	Picture	35.242	n/a	1	3	1	n/a	41	84	3	n/a	n/a	n/a	n/a	99.616	AF05ANS.jpg
71.707	0.514	Blank	Blank	34.728	n/a	1	3	1	n/a	41	n/a	3	n/a	n/a	n/a	n/a	100.113	n/a
72.238	0.497	happy	Picture	34.214	n/a	1	3	2	n/a	42	92	3	n/a	n/a	n/a	n/a	100.644	AF21ANS.jpg
72.735	0.514	Blank	Blank	33.7	n/a	1	3	2	n/a	42	n/a	3	n/a	n/a	n/a	n/a	101.141	n/a
73.266	0.497	happy	Picture	33.186	n/a	1	3	3	n/a	43	86	3	n/a	n/a	n/a	n/a	101.672	AF09ANS.jpg
73.763	0.514	Blank	Blank	32.672	n/a	1	3	3	n/a	43	n/a	3	n/a	n/a	n/a	n/a	102.169	n/a
74.294	0.497	happy	Picture	32.158	n/a	1	3	4	n/a	44	93	3	n/a	n/a	n/a	n/a	102.7	BF22ANS.jpg
74.791	0.514	Blank	Blank	31.644	n/a	1	3	4	n/a	44	n/a	3	n/a	n/a	n/a	n/a	103.197	n/a
75.322	0.497	happy	Picture	31.13	n/a	1	3	5	n/a	45	88	3	n/a	n/a	n/a	n/a	103.727	AF14ANS.jpg
75.819	0.514	Blank	Blank	30.616	n/a	1	3	5	n/a	45	n/a	3	n/a	n/a	n/a	n/a	104.225	n/a
76.349	0.497	happy	Picture	30.102	n/a	1	3	6	n/a	46	113	3	n/a	n/a	n/a	n/a	104.755	AM21ANS.jpg
76.847	0.514	Blank	Blank	29.588	n/a	1	3	6	n/a	46	n/a	3	n/a	n/a	n/a	n/a	105.253	n/a
77.377	0.497	happy	Picture	29.074	n/a	1	3	7	n/a	47	95	3	n/a	n/a	n/a	n/a	105.783	AF25ANS.jpg
77.875	0.514	Blank	Blank	28.56	n/a	1	3	7	n/a	47	n/a	3	n/a	n/a	n/a	n/a	106.281	n/a
78.405	0.497	happy	Picture	28.046	n/a	1	3	8	n/a	48	102	3	n/a	n/a	n/a	n/a	106.811	BM03ANS.jpg
78.903	0.514	Blank	Blank	27.533	n/a	1	3	8	n/a	48	n/a	3	n/a	n/a	n/a	n/a	107.308	n/a
79.433	0.497	happy	Picture	27.019	n/a	1	3	9	n/a	49	112	3	n/a	n/a	n/a	n/a	107.839	AM14ANS.jpg
79.93	0.514	Blank	Blank	26.505	n/a	1	3	9	n/a	49	n/a	3	n/a	n/a	n/a	n/a	108.336	n/a
80.461	0.497	happy	Picture	25.991	n/a	1	3	10	n/a	50	83	3	n/a	n/a	n/a	n/a	108.867	BF04ANS.jpg
80.958	0.514	Blank	Blank	25.477	n/a	1	3	10	n/a	50	n/a	3	n/a	n/a	n/a	n/a	109.364	n/a
81.489	0.497	happy	Picture	24.963	n/a	1	3	11	n/a	51	90	3	n/a	n/a	n/a	n/a	109.895	AF18ANS.jpg
81.986	0.514	Blank	Blank	24.449	n/a	1	3	11	n/a	51	n/a	3	n/a	n/a	n/a	n/a	110.392	n/a
82.517	0.497	happy	Picture	23.935	n/a	1	3	12	n/a	52	117	3	n/a	n/a	n/a	n/a	110.923	BM25ANS.jpg
83.014	0.514	Blank	Blank	23.421	n/a	1	3	12	n/a	52	n/a	3	n/a	n/a	n/a	n/a	111.42	n/a
83.544	0.497	happy	Picture	22.907	n/a	1	3	13	n/a	53	94	3	n/a	n/a	n/a	n/a	111.95	AF23ANS.jpg
84.042	0.514	Blank	Blank	22.393	n/a	1	3	13	n/a	53	n/a	3	n/a	n/a	n/a	n/a	112.448	n/a
84.572	0.497	happy	Picture	21.879	n/a	1	3	14	n/a	54	106	3	n/a	n/a	n/a	n/a	112.978	AM07ANS.jpg
85.07	0.514	Blank	Blank	21.365	n/a	1	3	14	n/a	54	n/a	3	n/a	n/a	n/a	n/a	113.476	n/a
85.6	0.497	happy	Picture	20.851	n/a	1	3	15	n/a	55	105	3	n/a	n/a	n/a	n/a	114.006	BM06ANS.jpg
86.098	0.514	Blank	Blank	20.337	n/a	1	3	15	n/a	55	n/a	3	n/a	n/a	n/a	n/a	114.504	n/a
86.628	0.497	happy	Picture	19.823	n/a	1	3	16	n/a	56	116	3	n/a	n/a	n/a	n/a	115.034	BM24ANS.jpg
87.126	0.514	Blank	Blank	19.309	n/a	1	3	16	n/a	56	n/a	3	n/a	n/a	n/a	n/a	115.531	n/a
87.656	0.497	happy	Picture	18.796	n/a	1	3	17	n/a	57	89	3	n/a	n/a	n/a	n/a	116.062	AF17ANS.jpg
88.153	0.514	Blank	Blank	18.282	n/a	1	3	17	n/a	57	n/a	3	n/a	n/a	n/a	n/a	116.559	n/a
88.684	0.497	happy	Picture	17.768	n/a	1	3	18	n/a	58	118	3	n/a	n/a	n/a	n/a	117.09	BM26ANS.jpg
89.181	0.514	Blank	Blank	17.254	n/a	1	3	18	n/a	58	n/a	3	n/a	n/a	n/a	n/a	117.587	n/a
89.712	0.497	happy	Picture	16.74	n/a	1	3	19	n/a	59	100	3	n/a	n/a	n/a	n/a	118.118	AF32ANS.jpg
90.209	0.514	Blank	Blank	16.226	n/a	1	3	19	n/a	59	n/a	3	n/a	n/a	n/a	n/a	118.615	n/a
90.74	0.497	happy	Picture	15.712	n/a	1	3	20	n/a	60	119	3	n/a	n/a	n/a	n/a	119.146	BM28ANS.jpg
91.237	0.514	Blank	Blank	15.198	n/a	1	3	20	n/a	60	n/a	3	n/a	n/a	n/a	n/a	119.643	n/a
91.768	10.014	ITI	Fixation+	5.168	n/a	1	n/a	n/a	n/a	n/a	n/a	n/a	n/a	n/a	n/a	n/a	120.174	n/a
106.949	n/a	ConfirmRating	Rate	n/a	5.156	1	n/a	n/a	0	n/a	n/a	n/a	2	Happy	96	56	135.355	n/a
114.472	n/a	ConfirmRating	Rate	n/a	7.51	1	n/a	n/a	1	n/a	n/a	n/a	3	Happy	7	44	142.878	n/a
114.497	10.014	ITI	Fixation+	95.129	n/a	2	n/a	n/a	n/a	n/a	n/a	n/a	n/a	n/a	n/a	n/a	142.903	n/a
124.527	0.497	angry	Picture	94.615	n/a	2	4	1	n/a	61	79	2	n/a	n/a	n/a	n/a	152.933	BM28HAS.jpg
125.024	0.514	Blank	Blank	94.101	n/a	2	4	1	n/a	61	n/a	2	n/a	n/a	n/a	n/a	153.43	n/a
125.555	0.497	angry	Picture	93.587	n/a	2	4	2	n/a	62	61	2	n/a	n/a	n/a	n/a	153.961	AM01HAS.jpg
126.052	0.514	Blank	Blank	93.073	n/a	2	4	2	n/a	62	n/a	2	n/a	n/a	n/a	n/a	154.458	n/a
126.583	0.497	angry	Picture	92.559	n/a	2	4	3	n/a	63	57	2	n/a	n/a	n/a	n/a	154.989	BF28HAS.jpg
127.08	0.514	Blank	Blank	92.045	n/a	2	4	3	n/a	63	n/a	2	n/a	n/a	n/a	n/a	155.486	n/a
127.611	0.497	angry	Picture	91.531	n/a	2	4	4	n/a	64	77	2	n/a	n/a	n/a	n/a	156.017	BM25HAS.jpg
128.108	0.514	Blank	Blank	91.017	n/a	2	4	4	n/a	64	n/a	2	n/a	n/a	n/a	n/a	156.514	n/a
128.638	0.497	angry	Picture	90.504	n/a	2	4	5	n/a	65	47	2	n/a	n/a	n/a	n/a	157.044	BF11HAS.jpg
129.136	0.514	Blank	Blank	89.99	n/a	2	4	5	n/a	65	n/a	2	n/a	n/a	n/a	n/a	157.542	n/a
129.666	0.497	angry	Picture	89.476	n/a	2	4	6	n/a	66	50	2	n/a	n/a	n/a	n/a	158.072	AF18HAS.jpg
130.164	0.514	Blank	Blank	88.962	n/a	2	4	6	n/a	66	n/a	2	n/a	n/a	n/a	n/a	158.57	n/a
130.694	0.497	angry	Picture	88.448	n/a	2	4	7	n/a	67	78	2	n/a	n/a	n/a	n/a	159.1	BM26HAS.jpg
131.192	0.514	Blank	Blank	87.934	n/a	2	4	7	n/a	67	n/a	2	n/a	n/a	n/a	n/a	159.598	n/a
131.722	0.497	angry	Picture	87.42	n/a	2	4	8	n/a	68	45	2	n/a	n/a	n/a	n/a	160.128	BF07HAS.jpg
132.22	0.514	Blank	Blank	86.906	n/a	2	4	8	n/a	68	n/a	2	n/a	n/a	n/a	n/a	160.625	n/a
132.75	0.497	angry	Picture	86.392	n/a	2	4	9	n/a	69	56	2	n/a	n/a	n/a	n/a	161.156	AF26HAS.jpg
133.247	0.514	Blank	Blank	85.878	n/a	2	4	9	n/a	69	n/a	2	n/a	n/a	n/a	n/a	161.653	n/a
133.778	0.497	angry	Picture	85.364	n/a	2	4	10	n/a	70	65	2	n/a	n/a	n/a	n/a	162.184	BM06HAS.jpg
134.275	0.514	Blank	Blank	84.85	n/a	2	4	10	n/a	70	n/a	2	n/a	n/a	n/a	n/a	162.681	n/a
134.806	0.497	angry	Picture	84.336	n/a	2	4	11	n/a	71	73	2	n/a	n/a	n/a	n/a	163.212	AM21HAS.jpg
135.303	0.514	Blank	Blank	83.822	n/a	2	4	11	n/a	71	n/a	2	n/a	n/a	n/a	n/a	163.709	n/a
135.834	0.497	angry	Picture	83.308	n/a	2	4	12	n/a	72	41	2	n/a	n/a	n/a	n/a	164.24	AF01HAS.jpg
136.331	0.514	Blank	Blank	82.794	n/a	2	4	12	n/a	72	n/a	2	n/a	n/a	n/a	n/a	164.737	n/a
136.862	0.497	angry	Picture	82.281	n/a	2	4	13	n/a	73	59	2	n/a	n/a	n/a	n/a	165.268	AF31HAS.jpg
137.359	0.514	Blank	Blank	81.767	n/a	2	4	13	n/a	73	n/a	2	n/a	n/a	n/a	n/a	165.765	n/a
137.889	0.497	angry	Picture	81.253	n/a	2	4	14	n/a	74	64	2	n/a	n/a	n/a	n/a	166.295	BM05HAS.jpg
138.387	0.514	Blank	Blank	80.739	n/a	2	4	14	n/a	74	n/a	2	n/a	n/a	n/a	n/a	166.793	n/a
138.917	0.497	angry	Picture	80.225	n/a	2	4	15	n/a	75	68	2	n/a	n/a	n/a	n/a	167.323	AM09HAS.jpg
139.415	0.514	Blank	Blank	79.711	n/a	2	4	15	n/a	75	n/a	2	n/a	n/a	n/a	n/a	167.821	n/a
139.945	0.497	angry	Picture	79.197	n/a	2	4	16	n/a	76	54	2	n/a	n/a	n/a	n/a	168.351	AF23HAS.jpg
140.443	0.514	Blank	Blank	78.683	n/a	2	4	16	n/a	76	n/a	2	n/a	n/a	n/a	n/a	168.849	n/a
140.973	0.497	angry	Picture	78.169	n/a	2	4	17	n/a	77	53	2	n/a	n/a	n/a	n/a	169.379	BF22HAS.jpg
141.47	0.514	Blank	Blank	77.655	n/a	2	4	17	n/a	77	n/a	2	n/a	n/a	n/a	n/a	169.876	n/a
142.001	0.497	angry	Picture	77.141	n/a	2	4	18	n/a	78	44	2	n/a	n/a	n/a	n/a	170.407	AF05HAS.jpg
142.498	0.514	Blank	Blank	76.627	n/a	2	4	18	n/a	78	n/a	2	n/a	n/a	n/a	n/a	170.904	n/a
143.029	0.497	angry	Picture	76.113	n/a	2	4	19	n/a	79	52	2	n/a	n/a	n/a	n/a	171.435	AF21HAS.jpg
143.526	0.514	Blank	Blank	75.599	n/a	2	4	19	n/a	79	n/a	2	n/a	n/a	n/a	n/a	171.932	n/a
144.057	0.497	angry	Picture	75.085	n/a	2	4	20	n/a	80	62	2	n/a	n/a	n/a	n/a	172.463	BM03HAS.jpg
144.554	0.514	Blank	Blank	74.571	n/a	2	4	20	n/a	80	n/a	2	n/a	n/a	n/a	n/a	172.96	n/a
145.085	10.014	ITI	Fixation+	64.541	n/a	2	n/a	n/a	n/a	n/a	n/a	n/a	n/a	n/a	n/a	n/a	173.49	n/a
155.115	0.497	neutral	Picture	64.027	n/a	2	5	1	n/a	81	23	1	n/a	n/a	n/a	n/a	183.521	AM04NES.jpg
155.612	0.514	Blank	Blank	63.513	n/a	2	5	1	n/a	81	n/a	1	n/a	n/a	n/a	n/a	184.018	n/a
156.143	0.497	neutral	Picture	63.0	n/a	2	5	2	n/a	82	29	1	n/a	n/a	n/a	n/a	184.548	AM10NES.jpg
156.64	0.514	Blank	Blank	62.486	n/a	2	5	2	n/a	82	n/a	1	n/a	n/a	n/a	n/a	185.046	n/a
157.171	0.497	neutral	Picture	61.972	n/a	2	5	3	n/a	83	24	1	n/a	n/a	n/a	n/a	185.576	BM05NES.jpg
157.668	0.514	Blank	Blank	61.458	n/a	2	5	3	n/a	83	n/a	1	n/a	n/a	n/a	n/a	186.074	n/a
158.198	0.497	neutral	Picture	60.944	n/a	2	5	4	n/a	84	12	1	n/a	n/a	n/a	n/a	186.604	AF21NES.jpg
158.696	0.514	Blank	Blank	60.43	n/a	2	5	4	n/a	84	n/a	1	n/a	n/a	n/a	n/a	187.102	n/a
159.226	0.497	neutral	Picture	59.916	n/a	2	5	5	n/a	85	13	1	n/a	n/a	n/a	n/a	187.632	BF22NES.jpg
159.724	0.514	Blank	Blank	59.402	n/a	2	5	5	n/a	85	n/a	1	n/a	n/a	n/a	n/a	188.13	n/a
160.254	0.497	neutral	Picture	58.888	n/a	2	5	6	n/a	86	17	1	n/a	n/a	n/a	n/a	188.66	BF28NES.jpg
160.751	0.514	Blank	Blank	58.374	n/a	2	5	6	n/a	86	n/a	1	n/a	n/a	n/a	n/a	189.157	n/a
161.282	0.497	neutral	Picture	57.86	n/a	2	5	7	n/a	87	4	1	n/a	n/a	n/a	n/a	189.688	AF05NES.jpg
161.779	0.514	Blank	Blank	57.346	n/a	2	5	7	n/a	87	n/a	1	n/a	n/a	n/a	n/a	190.185	n/a
162.31	0.497	neutral	Picture	56.832	n/a	2	5	8	n/a	88	11	1	n/a	n/a	n/a	n/a	190.716	AF20NES.jpg
162.807	0.514	Blank	Blank	56.318	n/a	2	5	8	n/a	88	n/a	1	n/a	n/a	n/a	n/a	191.213	n/a
163.338	0.497	neutral	Picture	55.804	n/a	2	5	9	n/a	89	22	1	n/a	n/a	n/a	n/a	191.744	BM03NES.jpg
163.835	0.514	Blank	Blank	55.29	n/a	2	5	9	n/a	89	n/a	1	n/a	n/a	n/a	n/a	192.241	n/a
164.366	0.497	neutral	Picture	54.776	n/a	2	5	10	n/a	90	15	1	n/a	n/a	n/a	n/a	192.772	AF25NES.jpg
164.863	0.514	Blank	Blank	54.263	n/a	2	5	10	n/a	90	n/a	1	n/a	n/a	n/a	n/a	193.269	n/a
165.393	0.497	neutral	Picture	53.749	n/a	2	5	11	n/a	91	19	1	n/a	n/a	n/a	n/a	193.799	AF31NES.jpg
165.891	0.514	Blank	Blank	53.235	n/a	2	5	11	n/a	91	n/a	1	n/a	n/a	n/a	n/a	194.297	n/a
166.421	0.497	neutral	Picture	52.721	n/a	2	5	12	n/a	92	9	1	n/a	n/a	n/a	n/a	194.827	AF17NES.jpg
166.919	0.514	Blank	Blank	52.207	n/a	2	5	12	n/a	92	n/a	1	n/a	n/a	n/a	n/a	195.325	n/a
167.449	0.497	neutral	Picture	51.693	n/a	2	5	13	n/a	93	14	1	n/a	n/a	n/a	n/a	195.855	AF23NES.jpg
167.947	0.514	Blank	Blank	51.179	n/a	2	5	13	n/a	93	n/a	1	n/a	n/a	n/a	n/a	196.352	n/a
168.477	0.497	neutral	Picture	50.665	n/a	2	5	14	n/a	94	36	1	n/a	n/a	n/a	n/a	196.883	BM24NES.jpg
168.975	0.514	Blank	Blank	50.151	n/a	2	5	14	n/a	94	n/a	1	n/a	n/a	n/a	n/a	197.38	n/a
169.505	0.497	neutral	Picture	49.637	n/a	2	5	15	n/a	95	34	1	n/a	n/a	n/a	n/a	197.911	AM22NES.jpg
170.002	0.514	Blank	Blank	49.123	n/a	2	5	15	n/a	95	n/a	1	n/a	n/a	n/a	n/a	198.408	n/a
170.533	0.497	neutral	Picture	48.609	n/a	2	5	16	n/a	96	10	1	n/a	n/a	n/a	n/a	198.939	AF18NES.jpg
171.03	0.514	Blank	Blank	48.095	n/a	2	5	16	n/a	96	n/a	1	n/a	n/a	n/a	n/a	199.436	n/a
171.561	0.497	neutral	Picture	47.581	n/a	2	5	17	n/a	97	5	1	n/a	n/a	n/a	n/a	199.967	BF07NES.jpg
172.058	0.514	Blank	Blank	47.067	n/a	2	5	17	n/a	97	n/a	1	n/a	n/a	n/a	n/a	200.464	n/a
172.589	0.497	neutral	Picture	46.554	n/a	2	5	18	n/a	98	25	1	n/a	n/a	n/a	n/a	200.994	BM06NES.jpg
173.086	0.514	Blank	Blank	46.04	n/a	2	5	18	n/a	98	n/a	1	n/a	n/a	n/a	n/a	201.492	n/a
173.617	0.497	neutral	Picture	45.526	n/a	2	5	19	n/a	99	39	1	n/a	n/a	n/a	n/a	202.022	AM28NES.jpg
174.114	0.514	Blank	Blank	45.012	n/a	2	5	19	n/a	99	n/a	1	n/a	n/a	n/a	n/a	202.52	n/a
174.644	0.497	neutral	Picture	44.498	n/a	2	5	20	n/a	100	33	1	n/a	n/a	n/a	n/a	203.05	AM21NES.jpg
175.142	0.514	Blank	Blank	43.984	n/a	2	5	20	n/a	100	n/a	1	n/a	n/a	n/a	n/a	203.548	n/a
175.672	10.014	ITI	Fixation+	33.954	n/a	2	n/a	n/a	n/a	n/a	n/a	n/a	n/a	n/a	n/a	n/a	204.078	n/a
185.702	0.497	angry	Picture	33.44	n/a	2	6	1	n/a	101	74	2	n/a	n/a	n/a	n/a	214.108	AM22HAS.jpg
186.2	0.514	Blank	Blank	32.926	n/a	2	6	1	n/a	101	n/a	2	n/a	n/a	n/a	n/a	214.606	n/a
186.73	0.497	angry	Picture	32.412	n/a	2	6	2	n/a	102	76	2	n/a	n/a	n/a	n/a	215.136	BM24HAS.jpg
187.228	0.514	Blank	Blank	31.898	n/a	2	6	2	n/a	102	n/a	2	n/a	n/a	n/a	n/a	215.633	n/a
187.758	0.497	angry	Picture	31.384	n/a	2	6	3	n/a	103	80	2	n/a	n/a	n/a	n/a	216.164	BM35HAS.jpg
188.255	0.514	Blank	Blank	30.87	n/a	2	6	3	n/a	103	n/a	2	n/a	n/a	n/a	n/a	216.661	n/a
188.786	0.497	angry	Picture	30.356	n/a	2	6	4	n/a	104	75	2	n/a	n/a	n/a	n/a	217.192	AM23HAS.jpg
189.283	0.514	Blank	Blank	29.842	n/a	2	6	4	n/a	104	n/a	2	n/a	n/a	n/a	n/a	217.689	n/a
189.814	0.497	angry	Picture	29.328	n/a	2	6	5	n/a	105	49	2	n/a	n/a	n/a	n/a	218.22	AF17HAS.jpg
190.311	0.514	Blank	Blank	28.814	n/a	2	6	5	n/a	105	n/a	2	n/a	n/a	n/a	n/a	218.717	n/a
190.842	0.497	angry	Picture	28.3	n/a	2	6	6	n/a	106	43	2	n/a	n/a	n/a	n/a	219.248	BF04HAS.jpg
191.339	0.514	Blank	Blank	27.786	n/a	2	6	6	n/a	106	n/a	2	n/a	n/a	n/a	n/a	219.745	n/a
191.87	0.497	angry	Picture	27.273	n/a	2	6	7	n/a	107	70	2	n/a	n/a	n/a	n/a	220.275	BM11HAS.jpg
192.367	0.514	Blank	Blank	26.759	n/a	2	6	7	n/a	107	n/a	2	n/a	n/a	n/a	n/a	220.773	n/a
192.898	0.497	angry	Picture	26.245	n/a	2	6	8	n/a	108	66	2	n/a	n/a	n/a	n/a	221.303	BM07HAS.jpg
193.395	0.514	Blank	Blank	25.731	n/a	2	6	8	n/a	108	n/a	2	n/a	n/a	n/a	n/a	221.801	n/a
193.925	0.497	angry	Picture	25.217	n/a	2	6	9	n/a	109	48	2	n/a	n/a	n/a	n/a	222.331	AF14HAS.jpg
194.423	0.514	Blank	Blank	24.703	n/a	2	6	9	n/a	109	n/a	2	n/a	n/a	n/a	n/a	222.829	n/a
194.953	0.497	angry	Picture	24.189	n/a	2	6	10	n/a	110	58	2	n/a	n/a	n/a	n/a	223.359	BF29HAS.jpg
195.451	0.514	Blank	Blank	23.675	n/a	2	6	10	n/a	110	n/a	2	n/a	n/a	n/a	n/a	223.857	n/a
195.981	0.497	angry	Picture	23.161	n/a	2	6	11	n/a	111	63	2	n/a	n/a	n/a	n/a	224.387	AM04HAS.jpg
196.478	0.514	Blank	Blank	22.647	n/a	2	6	11	n/a	111	n/a	2	n/a	n/a	n/a	n/a	224.884	n/a
197.009	0.497	angry	Picture	22.133	n/a	2	6	12	n/a	112	72	2	n/a	n/a	n/a	n/a	225.415	AM14HAS.jpg
197.506	0.514	Blank	Blank	21.619	n/a	2	6	12	n/a	112	n/a	2	n/a	n/a	n/a	n/a	225.912	n/a
198.037	0.497	angry	Picture	21.105	n/a	2	6	13	n/a	113	55	2	n/a	n/a	n/a	n/a	226.443	AF25HAS.jpg
198.534	0.514	Blank	Blank	20.591	n/a	2	6	13	n/a	113	n/a	2	n/a	n/a	n/a	n/a	226.94	n/a
199.065	0.497	angry	Picture	20.077	n/a	2	6	14	n/a	114	42	2	n/a	n/a	n/a	n/a	227.471	AF03HAS.jpg
199.562	0.514	Blank	Blank	19.563	n/a	2	6	14	n/a	114	n/a	2	n/a	n/a	n/a	n/a	227.968	n/a
200.093	0.497	angry	Picture	19.049	n/a	2	6	15	n/a	115	60	2	n/a	n/a	n/a	n/a	228.499	AF32HAS.jpg
200.59	0.514	Blank	Blank	18.536	n/a	2	6	15	n/a	115	n/a	2	n/a	n/a	n/a	n/a	228.996	n/a
201.12	0.497	angry	Picture	18.022	n/a	2	6	16	n/a	116	67	2	n/a	n/a	n/a	n/a	229.526	BM08HAS.jpg
201.618	0.514	Blank	Blank	17.508	n/a	2	6	16	n/a	116	n/a	2	n/a	n/a	n/a	n/a	230.024	n/a
202.148	0.497	angry	Picture	16.994	n/a	2	6	17	n/a	117	51	2	n/a	n/a	n/a	n/a	230.554	AF20HAS.jpg
202.646	0.514	Blank	Blank	16.48	n/a	2	6	17	n/a	117	n/a	2	n/a	n/a	n/a	n/a	231.052	n/a
203.176	0.497	angry	Picture	15.966	n/a	2	6	18	n/a	118	71	2	n/a	n/a	n/a	n/a	231.582	BM12HAS.jpg
203.674	0.514	Blank	Blank	15.452	n/a	2	6	18	n/a	118	n/a	2	n/a	n/a	n/a	n/a	232.079	n/a
204.204	0.497	angry	Picture	14.938	n/a	2	6	19	n/a	119	69	2	n/a	n/a	n/a	n/a	232.61	AM10HAS.jpg
204.702	0.514	Blank	Blank	14.424	n/a	2	6	19	n/a	119	n/a	2	n/a	n/a	n/a	n/a	233.107	n/a
205.232	0.497	angry	Picture	13.91	n/a	2	6	20	n/a	120	46	2	n/a	n/a	n/a	n/a	233.638	AF09HAS.jpg
205.729	0.514	Blank	Blank	13.396	n/a	2	6	20	n/a	120	n/a	2	n/a	n/a	n/a	n/a	234.135	n/a
206.26	10.014	ITI	Fixation+	3.366	n/a	2	n/a	n/a	n/a	n/a	n/a	n/a	n/a	n/a	n/a	n/a	234.666	n/a
219.639	n/a	ConfirmRating	Rate	n/a	3.366	2	n/a	n/a	0	n/a	n/a	n/a	2	Angry	2	44	248.045	n/a
222.517	n/a	ConfirmRating	Rate	n/a	2.851	2	n/a	n/a	1	n/a	n/a	n/a	3	Angry	71	52	250.923	n/a
222.54	15.004	Rest	Picture	n/a	n/a	n/a	n/a	n/a	n/a	n/a	n/a	n/a	0	n/a	0	0	250.946	n/a
237.561	10.014	ITI	Fixation+	96.549	n/a	3	n/a	n/a	n/a	n/a	n/a	n/a	n/a	n/a	n/a	n/a	265.966	n/a
247.591	0.497	happy	Picture	96.035	n/a	3	7	1	n/a	1	108	3	n/a	n/a	n/a	n/a	275.997	AM09ANS.jpg
248.088	0.514	Blank	Blank	95.521	n/a	3	7	1	n/a	1	n/a	3	n/a	n/a	n/a	n/a	276.494	n/a
248.618	0.497	happy	Picture	95.007	n/a	3	7	2	n/a	2	99	3	n/a	n/a	n/a	n/a	277.024	AF31ANS.jpg
249.116	0.514	Blank	Blank	94.493	n/a	3	7	2	n/a	2	n/a	3	n/a	n/a	n/a	n/a	277.522	n/a
249.646	0.497	happy	Picture	93.979	n/a	3	7	3	n/a	3	98	3	n/a	n/a	n/a	n/a	278.052	BF29ANS.jpg
250.144	0.514	Blank	Blank	93.465	n/a	3	7	3	n/a	3	n/a	3	n/a	n/a	n/a	n/a	278.55	n/a
250.674	0.497	happy	Picture	92.951	n/a	3	7	4	n/a	4	107	3	n/a	n/a	n/a	n/a	279.08	BM08ANS.jpg
251.172	0.514	Blank	Blank	92.437	n/a	3	7	4	n/a	4	n/a	3	n/a	n/a	n/a	n/a	279.577	n/a
251.702	0.497	happy	Picture	91.923	n/a	3	7	5	n/a	5	104	3	n/a	n/a	n/a	n/a	280.108	BM05ANS.jpg
252.199	0.514	Blank	Blank	91.409	n/a	3	7	5	n/a	5	n/a	3	n/a	n/a	n/a	n/a	280.605	n/a
252.73	0.497	happy	Picture	90.895	n/a	3	7	6	n/a	6	101	3	n/a	n/a	n/a	n/a	281.136	AM01ANS.jpg
253.227	0.514	Blank	Blank	90.381	n/a	3	7	6	n/a	6	n/a	3	n/a	n/a	n/a	n/a	281.633	n/a
253.758	0.497	happy	Picture	89.868	n/a	3	7	7	n/a	7	103	3	n/a	n/a	n/a	n/a	282.164	AM04ANS.jpg
254.255	0.514	Blank	Blank	89.354	n/a	3	7	7	n/a	7	n/a	3	n/a	n/a	n/a	n/a	282.661	n/a
254.786	0.497	happy	Picture	88.84	n/a	3	7	8	n/a	8	111	3	n/a	n/a	n/a	n/a	283.192	BM12ANS.jpg
255.283	0.514	Blank	Blank	88.326	n/a	3	7	8	n/a	8	n/a	3	n/a	n/a	n/a	n/a	283.689	n/a
255.814	0.497	happy	Picture	87.812	n/a	3	7	9	n/a	9	110	3	n/a	n/a	n/a	n/a	284.219	AM11ANS.jpg
256.311	0.514	Blank	Blank	87.298	n/a	3	7	9	n/a	9	n/a	3	n/a	n/a	n/a	n/a	284.717	n/a
256.842	0.497	happy	Picture	86.784	n/a	3	7	10	n/a	10	85	3	n/a	n/a	n/a	n/a	285.247	BF07ANS.jpg
257.339	0.514	Blank	Blank	86.27	n/a	3	7	10	n/a	10	n/a	3	n/a	n/a	n/a	n/a	285.745	n/a
257.869	0.497	happy	Picture	85.756	n/a	3	7	11	n/a	11	87	3	n/a	n/a	n/a	n/a	286.275	BF11ANS.jpg
258.367	0.514	Blank	Blank	85.242	n/a	3	7	11	n/a	11	n/a	3	n/a	n/a	n/a	n/a	286.773	n/a
258.897	0.497	happy	Picture	84.728	n/a	3	7	12	n/a	12	91	3	n/a	n/a	n/a	n/a	287.303	AF20ANS.jpg
259.395	0.514	Blank	Blank	84.214	n/a	3	7	12	n/a	12	n/a	3	n/a	n/a	n/a	n/a	287.8	n/a
259.925	0.497	happy	Picture	83.7	n/a	3	7	13	n/a	13	115	3	n/a	n/a	n/a	n/a	288.331	AM23ANS.jpg
260.423	0.514	Blank	Blank	83.186	n/a	3	7	13	n/a	13	n/a	3	n/a	n/a	n/a	n/a	288.828	n/a
260.953	0.497	happy	Picture	82.672	n/a	3	7	14	n/a	14	97	3	n/a	n/a	n/a	n/a	289.359	BF28ANS.jpg
261.45	0.514	Blank	Blank	82.158	n/a	3	7	14	n/a	14	n/a	3	n/a	n/a	n/a	n/a	289.856	n/a
261.981	0.497	happy	Picture	81.644	n/a	3	7	15	n/a	15	82	3	n/a	n/a	n/a	n/a	290.387	AF03ANS.jpg
262.478	0.514	Blank	Blank	81.13	n/a	3	7	15	n/a	15	n/a	3	n/a	n/a	n/a	n/a	290.884	n/a
263.009	0.497	happy	Picture	80.617	n/a	3	7	16	n/a	16	96	3	n/a	n/a	n/a	n/a	291.415	AF26ANS.jpg
263.506	0.514	Blank	Blank	80.103	n/a	3	7	16	n/a	16	n/a	3	n/a	n/a	n/a	n/a	291.912	n/a
264.037	0.497	happy	Picture	79.589	n/a	3	7	17	n/a	17	109	3	n/a	n/a	n/a	n/a	292.442	AM10ANS.jpg
264.534	0.514	Blank	Blank	79.075	n/a	3	7	17	n/a	17	n/a	3	n/a	n/a	n/a	n/a	292.94	n/a
265.065	0.497	happy	Picture	78.561	n/a	3	7	18	n/a	18	114	3	n/a	n/a	n/a	n/a	293.47	AM22ANS.jpg
265.562	0.514	Blank	Blank	78.047	n/a	3	7	18	n/a	18	n/a	3	n/a	n/a	n/a	n/a	293.968	n/a
266.092	0.497	happy	Picture	77.533	n/a	3	7	19	n/a	19	120	3	n/a	n/a	n/a	n/a	294.498	AM35ANS.jpg
266.59	0.514	Blank	Blank	77.019	n/a	3	7	19	n/a	19	n/a	3	n/a	n/a	n/a	n/a	294.996	n/a
267.12	0.497	happy	Picture	76.505	n/a	3	7	20	n/a	20	81	3	n/a	n/a	n/a	n/a	295.526	AF01ANS.jpg
267.618	0.514	Blank	Blank	75.991	n/a	3	7	20	n/a	20	n/a	3	n/a	n/a	n/a	n/a	296.024	n/a
268.148	10.014	ITI	Fixation+	65.961	n/a	3	n/a	n/a	n/a	n/a	n/a	n/a	n/a	n/a	n/a	n/a	296.554	n/a
278.178	0.497	neutral	Picture	65.447	n/a	3	8	1	n/a	21	28	1	n/a	n/a	n/a	n/a	306.584	AM09NES.jpg
278.676	0.514	Blank	Blank	64.933	n/a	3	8	1	n/a	21	n/a	1	n/a	n/a	n/a	n/a	307.082	n/a
279.206	0.497	neutral	Picture	64.419	n/a	3	8	2	n/a	22	27	1	n/a	n/a	n/a	n/a	307.612	BM08NES.jpg
279.704	0.514	Blank	Blank	63.905	n/a	3	8	2	n/a	22	n/a	1	n/a	n/a	n/a	n/a	308.109	n/a
280.234	0.497	neutral	Picture	63.391	n/a	3	8	3	n/a	23	16	1	n/a	n/a	n/a	n/a	308.64	AF26NES.jpg
280.731	0.514	Blank	Blank	62.877	n/a	3	8	3	n/a	23	n/a	1	n/a	n/a	n/a	n/a	309.137	n/a
281.262	0.497	neutral	Picture	62.363	n/a	3	8	4	n/a	24	3	1	n/a	n/a	n/a	n/a	309.668	BF04NES.jpg
281.759	0.514	Blank	Blank	61.849	n/a	3	8	4	n/a	24	n/a	1	n/a	n/a	n/a	n/a	310.165	n/a
282.29	0.497	neutral	Picture	61.336	n/a	3	8	5	n/a	25	32	1	n/a	n/a	n/a	n/a	310.696	AM14NES.jpg
282.787	0.514	Blank	Blank	60.822	n/a	3	8	5	n/a	25	n/a	1	n/a	n/a	n/a	n/a	311.193	n/a
283.318	0.497	neutral	Picture	60.308	n/a	3	8	6	n/a	26	37	1	n/a	n/a	n/a	n/a	311.724	BM25NES.jpg
283.815	0.514	Blank	Blank	59.794	n/a	3	8	6	n/a	26	n/a	1	n/a	n/a	n/a	n/a	312.221	n/a
284.346	0.497	neutral	Picture	59.28	n/a	3	8	7	n/a	27	15	1	n/a	n/a	n/a	n/a	312.751	AF25NES.jpg
284.843	0.514	Blank	Blank	58.766	n/a	3	8	7	n/a	27	n/a	1	n/a	n/a	n/a	n/a	313.249	n/a
285.373	0.497	neutral	Picture	58.252	n/a	3	8	8	n/a	28	23	1	n/a	n/a	n/a	n/a	313.779	AM04NES.jpg
285.871	0.514	Blank	Blank	57.738	n/a	3	8	8	n/a	28	n/a	1	n/a	n/a	n/a	n/a	314.277	n/a
286.401	0.497	neutral	Picture	57.224	n/a	3	8	9	n/a	29	34	1	n/a	n/a	n/a	n/a	314.807	AM22NES.jpg
286.899	0.514	Blank	Blank	56.71	n/a	3	8	9	n/a	29	n/a	1	n/a	n/a	n/a	n/a	315.305	n/a
287.429	0.497	neutral	Picture	56.196	n/a	3	8	10	n/a	30	24	1	n/a	n/a	n/a	n/a	315.835	BM05NES.jpg
287.927	0.514	Blank	Blank	55.682	n/a	3	8	10	n/a	30	n/a	1	n/a	n/a	n/a	n/a	316.332	n/a
288.457	0.497	neutral	Picture	55.168	n/a	3	8	11	n/a	31	12	1	n/a	n/a	n/a	n/a	316.863	AF21NES.jpg
288.954	0.514	Blank	Blank	54.654	n/a	3	8	11	n/a	31	n/a	1	n/a	n/a	n/a	n/a	317.36	n/a
289.485	0.497	neutral	Picture	54.14	n/a	3	8	12	n/a	32	6	1	n/a	n/a	n/a	n/a	317.891	AF09NES.jpg
289.982	0.514	Blank	Blank	53.626	n/a	3	8	12	n/a	32	n/a	1	n/a	n/a	n/a	n/a	318.388	n/a
290.513	0.497	neutral	Picture	53.113	n/a	3	8	13	n/a	33	17	1	n/a	n/a	n/a	n/a	318.919	BF28NES.jpg
291.01	0.514	Blank	Blank	52.599	n/a	3	8	13	n/a	33	n/a	1	n/a	n/a	n/a	n/a	319.416	n/a
291.541	0.497	neutral	Picture	52.085	n/a	3	8	14	n/a	34	2	1	n/a	n/a	n/a	n/a	319.947	AF03NES.jpg
292.038	0.514	Blank	Blank	51.571	n/a	3	8	14	n/a	34	n/a	1	n/a	n/a	n/a	n/a	320.444	n/a
292.569	0.497	neutral	Picture	51.057	n/a	3	8	15	n/a	35	9	1	n/a	n/a	n/a	n/a	320.974	AF17NES.jpg
293.066	0.514	Blank	Blank	50.543	n/a	3	8	15	n/a	35	n/a	1	n/a	n/a	n/a	n/a	321.472	n/a
293.596	0.497	neutral	Picture	50.029	n/a	3	8	16	n/a	36	25	1	n/a	n/a	n/a	n/a	322.002	BM06NES.jpg
294.094	0.514	Blank	Blank	49.515	n/a	3	8	16	n/a	36	n/a	1	n/a	n/a	n/a	n/a	322.5	n/a
294.624	0.497	neutral	Picture	49.001	n/a	3	8	17	n/a	37	8	1	n/a	n/a	n/a	n/a	323.03	AF14NES.jpg
295.122	0.514	Blank	Blank	48.487	n/a	3	8	17	n/a	37	n/a	1	n/a	n/a	n/a	n/a	323.527	n/a
295.652	0.497	neutral	Picture	47.973	n/a	3	8	18	n/a	38	19	1	n/a	n/a	n/a	n/a	324.058	AF31NES.jpg
296.15	0.514	Blank	Blank	47.459	n/a	3	8	18	n/a	38	n/a	1	n/a	n/a	n/a	n/a	324.555	n/a
296.68	0.497	neutral	Picture	46.945	n/a	3	8	19	n/a	39	14	1	n/a	n/a	n/a	n/a	325.086	AF23NES.jpg
297.177	0.514	Blank	Blank	46.431	n/a	3	8	19	n/a	39	n/a	1	n/a	n/a	n/a	n/a	325.583	n/a
297.708	0.497	neutral	Picture	45.917	n/a	3	8	20	n/a	40	4	1	n/a	n/a	n/a	n/a	326.114	AF05NES.jpg
298.205	0.514	Blank	Blank	45.404	n/a	3	8	20	n/a	40	n/a	1	n/a	n/a	n/a	n/a	326.611	n/a
298.736	10.014	ITI	Fixation+	35.373	n/a	3	n/a	n/a	n/a	n/a	n/a	n/a	n/a	n/a	n/a	n/a	327.142	n/a
308.766	0.497	happy	Picture	34.859	n/a	3	9	1	n/a	41	84	3	n/a	n/a	n/a	n/a	337.172	AF05ANS.jpg
309.263	0.514	Blank	Blank	34.346	n/a	3	9	1	n/a	41	n/a	3	n/a	n/a	n/a	n/a	337.669	n/a
309.794	0.497	happy	Picture	33.832	n/a	3	9	2	n/a	42	92	3	n/a	n/a	n/a	n/a	338.2	AF21ANS.jpg
310.291	0.514	Blank	Blank	33.318	n/a	3	9	2	n/a	42	n/a	3	n/a	n/a	n/a	n/a	338.697	n/a
310.822	0.497	happy	Picture	32.804	n/a	3	9	3	n/a	43	86	3	n/a	n/a	n/a	n/a	339.228	AF09ANS.jpg
311.319	0.514	Blank	Blank	32.29	n/a	3	9	3	n/a	43	n/a	3	n/a	n/a	n/a	n/a	339.725	n/a
311.85	0.497	happy	Picture	31.776	n/a	3	9	4	n/a	44	93	3	n/a	n/a	n/a	n/a	340.255	BF22ANS.jpg
312.347	0.514	Blank	Blank	31.262	n/a	3	9	4	n/a	44	n/a	3	n/a	n/a	n/a	n/a	340.753	n/a
312.877	0.497	happy	Picture	30.748	n/a	3	9	5	n/a	45	88	3	n/a	n/a	n/a	n/a	341.283	AF14ANS.jpg
313.375	0.514	Blank	Blank	30.234	n/a	3	9	5	n/a	45	n/a	3	n/a	n/a	n/a	n/a	341.781	n/a
313.905	0.497	happy	Picture	29.72	n/a	3	9	6	n/a	46	113	3	n/a	n/a	n/a	n/a	342.311	AM21ANS.jpg
314.403	0.514	Blank	Blank	29.206	n/a	3	9	6	n/a	46	n/a	3	n/a	n/a	n/a	n/a	342.808	n/a
314.933	0.497	happy	Picture	28.692	n/a	3	9	7	n/a	47	95	3	n/a	n/a	n/a	n/a	343.339	AF25ANS.jpg
315.431	0.514	Blank	Blank	28.178	n/a	3	9	7	n/a	47	n/a	3	n/a	n/a	n/a	n/a	343.836	n/a
315.961	0.497	happy	Picture	27.664	n/a	3	9	8	n/a	48	102	3	n/a	n/a	n/a	n/a	344.367	BM03ANS.jpg
316.458	0.514	Blank	Blank	27.15	n/a	3	9	8	n/a	48	n/a	3	n/a	n/a	n/a	n/a	344.864	n/a
316.989	0.497	happy	Picture	26.636	n/a	3	9	9	n/a	49	112	3	n/a	n/a	n/a	n/a	345.395	AM14ANS.jpg
317.486	0.514	Blank	Blank	26.123	n/a	3	9	9	n/a	49	n/a	3	n/a	n/a	n/a	n/a	345.892	n/a
318.017	0.497	happy	Picture	25.608	n/a	3	9	10	n/a	50	83	3	n/a	n/a	n/a	n/a	346.423	BF04ANS.jpg
318.514	0.514	Blank	Blank	25.095	n/a	3	9	10	n/a	50	n/a	3	n/a	n/a	n/a	n/a	346.92	n/a
319.045	0.497	happy	Picture	24.581	n/a	3	9	11	n/a	51	90	3	n/a	n/a	n/a	n/a	347.451	AF18ANS.jpg
319.542	0.514	Blank	Blank	24.067	n/a	3	9	11	n/a	51	n/a	3	n/a	n/a	n/a	n/a	347.948	n/a
320.073	0.497	happy	Picture	23.553	n/a	3	9	12	n/a	52	117	3	n/a	n/a	n/a	n/a	348.478	BM25ANS.jpg
320.57	0.514	Blank	Blank	23.039	n/a	3	9	12	n/a	52	n/a	3	n/a	n/a	n/a	n/a	348.976	n/a
321.1	0.497	happy	Picture	22.525	n/a	3	9	13	n/a	53	94	3	n/a	n/a	n/a	n/a	349.506	AF23ANS.jpg
321.598	0.514	Blank	Blank	22.011	n/a	3	9	13	n/a	53	n/a	3	n/a	n/a	n/a	n/a	350.004	n/a
322.128	0.497	happy	Picture	21.497	n/a	3	9	14	n/a	54	106	3	n/a	n/a	n/a	n/a	350.534	AM07ANS.jpg
322.626	0.514	Blank	Blank	20.983	n/a	3	9	14	n/a	54	n/a	3	n/a	n/a	n/a	n/a	351.032	n/a
323.156	0.497	happy	Picture	20.469	n/a	3	9	15	n/a	55	105	3	n/a	n/a	n/a	n/a	351.562	BM06ANS.jpg
323.654	0.514	Blank	Blank	19.955	n/a	3	9	15	n/a	55	n/a	3	n/a	n/a	n/a	n/a	352.059	n/a
324.184	0.497	happy	Picture	19.441	n/a	3	9	16	n/a	56	116	3	n/a	n/a	n/a	n/a	352.59	BM24ANS.jpg
324.681	0.514	Blank	Blank	18.927	n/a	3	9	16	n/a	56	n/a	3	n/a	n/a	n/a	n/a	353.087	n/a
325.212	0.497	happy	Picture	18.413	n/a	3	9	17	n/a	57	89	3	n/a	n/a	n/a	n/a	353.618	AF17ANS.jpg
325.709	0.514	Blank	Blank	17.899	n/a	3	9	17	n/a	57	n/a	3	n/a	n/a	n/a	n/a	354.115	n/a
326.24	0.497	happy	Picture	17.385	n/a	3	9	18	n/a	58	118	3	n/a	n/a	n/a	n/a	354.646	BM26ANS.jpg
326.737	0.514	Blank	Blank	16.872	n/a	3	9	18	n/a	58	n/a	3	n/a	n/a	n/a	n/a	355.143	n/a
327.268	0.497	happy	Picture	16.358	n/a	3	9	19	n/a	59	100	3	n/a	n/a	n/a	n/a	355.674	AF32ANS.jpg
327.765	0.514	Blank	Blank	15.844	n/a	3	9	19	n/a	59	n/a	3	n/a	n/a	n/a	n/a	356.171	n/a
328.296	0.497	happy	Picture	15.33	n/a	3	9	20	n/a	60	119	3	n/a	n/a	n/a	n/a	356.702	BM28ANS.jpg
328.793	0.514	Blank	Blank	14.816	n/a	3	9	20	n/a	60	n/a	3	n/a	n/a	n/a	n/a	357.199	n/a
329.324	10.014	ITI	Fixation+	4.786	n/a	3	n/a	n/a	n/a	n/a	n/a	n/a	n/a	n/a	n/a	n/a	357.729	n/a
344.123	n/a	ConfirmRating	Rate	n/a	4.775	3	n/a	n/a	0	n/a	n/a	n/a	2	Happy	93	55	372.529	n/a
347.035	n/a	ConfirmRating	Rate	n/a	2.902	3	n/a	n/a	1	n/a	n/a	n/a	3	Happy	0	56	375.441	n/a
347.063	10.014	ITI	Fixation+	94.699	n/a	4	n/a	n/a	n/a	n/a	n/a	n/a	n/a	n/a	n/a	n/a	375.469	n/a
357.093	0.497	angry	Picture	94.185	n/a	4	10	1	n/a	61	79	2	n/a	n/a	n/a	n/a	385.499	BM28HAS.jpg
357.59	0.514	Blank	Blank	93.671	n/a	4	10	1	n/a	61	n/a	2	n/a	n/a	n/a	n/a	385.996	n/a
358.121	0.497	angry	Picture	93.157	n/a	4	10	2	n/a	62	61	2	n/a	n/a	n/a	n/a	386.526	AM01HAS.jpg
358.618	0.514	Blank	Blank	92.643	n/a	4	10	2	n/a	62	n/a	2	n/a	n/a	n/a	n/a	387.024	n/a
359.149	0.497	angry	Picture	92.129	n/a	4	10	3	n/a	63	57	2	n/a	n/a	n/a	n/a	387.554	BF28HAS.jpg
359.646	0.514	Blank	Blank	91.615	n/a	4	10	3	n/a	63	n/a	2	n/a	n/a	n/a	n/a	388.052	n/a
360.176	0.497	angry	Picture	91.102	n/a	4	10	4	n/a	64	77	2	n/a	n/a	n/a	n/a	388.582	BM25HAS.jpg
360.674	0.514	Blank	Blank	90.588	n/a	4	10	4	n/a	64	n/a	2	n/a	n/a	n/a	n/a	389.08	n/a
361.204	0.497	angry	Picture	90.074	n/a	4	10	5	n/a	65	47	2	n/a	n/a	n/a	n/a	389.61	BF11HAS.jpg
361.702	0.514	Blank	Blank	89.56	n/a	4	10	5	n/a	65	n/a	2	n/a	n/a	n/a	n/a	390.108	n/a
362.232	0.497	angry	Picture	89.046	n/a	4	10	6	n/a	66	50	2	n/a	n/a	n/a	n/a	390.638	AF18HAS.jpg
362.73	0.514	Blank	Blank	88.532	n/a	4	10	6	n/a	66	n/a	2	n/a	n/a	n/a	n/a	391.135	n/a
363.26	0.497	angry	Picture	88.018	n/a	4	10	7	n/a	67	78	2	n/a	n/a	n/a	n/a	391.666	BM26HAS.jpg
363.757	0.514	Blank	Blank	87.504	n/a	4	10	7	n/a	67	n/a	2	n/a	n/a	n/a	n/a	392.163	n/a
364.288	0.497	angry	Picture	86.99	n/a	4	10	8	n/a	68	45	2	n/a	n/a	n/a	n/a	392.694	BF07HAS.jpg
364.785	0.514	Blank	Blank	86.476	n/a	4	10	8	n/a	68	n/a	2	n/a	n/a	n/a	n/a	393.191	n/a
365.316	0.497	angry	Picture	85.962	n/a	4	10	9	n/a	69	56	2	n/a	n/a	n/a	n/a	393.722	AF26HAS.jpg
365.813	0.514	Blank	Blank	85.448	n/a	4	10	9	n/a	69	n/a	2	n/a	n/a	n/a	n/a	394.219	n/a
366.344	0.497	angry	Picture	84.934	n/a	4	10	10	n/a	70	65	2	n/a	n/a	n/a	n/a	394.75	BM06HAS.jpg
366.841	0.514	Blank	Blank	84.42	n/a	4	10	10	n/a	70	n/a	2	n/a	n/a	n/a	n/a	395.247	n/a
367.372	0.497	angry	Picture	83.906	n/a	4	10	11	n/a	71	73	2	n/a	n/a	n/a	n/a	395.777	AM21HAS.jpg
367.869	0.514	Blank	Blank	83.392	n/a	4	10	11	n/a	71	n/a	2	n/a	n/a	n/a	n/a	396.275	n/a
368.399	0.497	angry	Picture	82.878	n/a	4	10	12	n/a	72	41	2	n/a	n/a	n/a	n/a	396.805	AF01HAS.jpg
368.897	0.514	Blank	Blank	82.365	n/a	4	10	12	n/a	72	n/a	2	n/a	n/a	n/a	n/a	397.303	n/a
369.427	0.497	angry	Picture	81.851	n/a	4	10	13	n/a	73	59	2	n/a	n/a	n/a	n/a	397.833	AF31HAS.jpg
369.925	0.514	Blank	Blank	81.337	n/a	4	10	13	n/a	73	n/a	2	n/a	n/a	n/a	n/a	398.33	n/a
370.455	0.497	angry	Picture	80.823	n/a	4	10	14	n/a	74	64	2	n/a	n/a	n/a	n/a	398.861	BM05HAS.jpg
370.953	0.514	Blank	Blank	80.309	n/a	4	10	14	n/a	74	n/a	2	n/a	n/a	n/a	n/a	399.358	n/a
371.483	0.497	angry	Picture	79.795	n/a	4	10	15	n/a	75	68	2	n/a	n/a	n/a	n/a	399.889	AM09HAS.jpg
371.98	0.514	Blank	Blank	79.281	n/a	4	10	15	n/a	75	n/a	2	n/a	n/a	n/a	n/a	400.386	n/a
372.511	0.497	angry	Picture	78.767	n/a	4	10	16	n/a	76	54	2	n/a	n/a	n/a	n/a	400.917	AF23HAS.jpg
373.008	0.514	Blank	Blank	78.253	n/a	4	10	16	n/a	76	n/a	2	n/a	n/a	n/a	n/a	401.414	n/a
373.539	0.497	angry	Picture	77.739	n/a	4	10	17	n/a	77	53	2	n/a	n/a	n/a	n/a	401.945	BF22HAS.jpg
374.036	0.514	Blank	Blank	77.225	n/a	4	10	17	n/a	77	n/a	2	n/a	n/a	n/a	n/a	402.442	n/a
374.567	0.497	angry	Picture	76.711	n/a	4	10	18	n/a	78	44	2	n/a	n/a	n/a	n/a	402.973	AF05HAS.jpg
375.064	0.514	Blank	Blank	76.197	n/a	4	10	18	n/a	78	n/a	2	n/a	n/a	n/a	n/a	403.47	n/a
375.595	0.497	angry	Picture	75.683	n/a	4	10	19	n/a	79	52	2	n/a	n/a	n/a	n/a	404.0	AF21HAS.jpg
376.092	0.514	Blank	Blank	75.17	n/a	4	10	19	n/a	79	n/a	2	n/a	n/a	n/a	n/a	404.498	n/a
376.622	0.497	angry	Picture	74.655	n/a	4	10	20	n/a	80	62	2	n/a	n/a	n/a	n/a	405.028	BM03HAS.jpg
377.12	0.514	Blank	Blank	74.142	n/a	4	10	20	n/a	80	n/a	2	n/a	n/a	n/a	n/a	405.526	n/a
377.65	10.014	ITI	Fixation+	64.111	n/a	4	n/a	n/a	n/a	n/a	n/a	n/a	n/a	n/a	n/a	n/a	406.056	n/a
387.68	0.497	neutral	Picture	63.597	n/a	4	11	1	n/a	81	23	1	n/a	n/a	n/a	n/a	416.086	AM04NES.jpg
388.178	0.514	Blank	Blank	63.084	n/a	4	11	1	n/a	81	n/a	1	n/a	n/a	n/a	n/a	416.584	n/a
388.708	0.497	neutral	Picture	62.57	n/a	4	11	2	n/a	82	29	1	n/a	n/a	n/a	n/a	417.114	AM10NES.jpg
389.206	0.514	Blank	Blank	62.056	n/a	4	11	2	n/a	82	n/a	1	n/a	n/a	n/a	n/a	417.611	n/a
389.736	0.497	neutral	Picture	61.542	n/a	4	11	3	n/a	83	24	1	n/a	n/a	n/a	n/a	418.142	BM05NES.jpg
390.234	0.514	Blank	Blank	61.028	n/a	4	11	3	n/a	83	n/a	1	n/a	n/a	n/a	n/a	418.639	n/a
390.764	0.497	neutral	Picture	60.514	n/a	4	11	4	n/a	84	12	1	n/a	n/a	n/a	n/a	419.17	AF21NES.jpg
391.261	0.514	Blank	Blank	60.0	n/a	4	11	4	n/a	84	n/a	1	n/a	n/a	n/a	n/a	419.667	n/a
391.792	0.497	neutral	Picture	59.486	n/a	4	11	5	n/a	85	13	1	n/a	n/a	n/a	n/a	420.198	BF22NES.jpg
392.289	0.514	Blank	Blank	58.972	n/a	4	11	5	n/a	85	n/a	1	n/a	n/a	n/a	n/a	420.695	n/a
392.82	0.497	neutral	Picture	58.458	n/a	4	11	6	n/a	86	17	1	n/a	n/a	n/a	n/a	421.226	BF28NES.jpg
393.317	0.514	Blank	Blank	57.944	n/a	4	11	6	n/a	86	n/a	1	n/a	n/a	n/a	n/a	421.723	n/a
393.848	0.497	neutral	Picture	57.43	n/a	4	11	7	n/a	87	4	1	n/a	n/a	n/a	n/a	422.254	AF05NES.jpg
394.345	0.514	Blank	Blank	56.916	n/a	4	11	7	n/a	87	n/a	1	n/a	n/a	n/a	n/a	422.751	n/a
394.876	0.497	neutral	Picture	56.402	n/a	4	11	8	n/a	88	11	1	n/a	n/a	n/a	n/a	423.281	AF20NES.jpg
395.373	0.514	Blank	Blank	55.888	n/a	4	11	8	n/a	88	n/a	1	n/a	n/a	n/a	n/a	423.779	n/a
395.903	0.497	neutral	Picture	55.374	n/a	4	11	9	n/a	89	22	1	n/a	n/a	n/a	n/a	424.309	BM03NES.jpg
396.401	0.514	Blank	Blank	54.861	n/a	4	11	9	n/a	89	n/a	1	n/a	n/a	n/a	n/a	424.807	n/a
396.931	0.497	neutral	Picture	54.347	n/a	4	11	10	n/a	90	15	1	n/a	n/a	n/a	n/a	425.337	AF25NES.jpg
397.429	0.514	Blank	Blank	53.833	n/a	4	11	10	n/a	90	n/a	1	n/a	n/a	n/a	n/a	425.835	n/a
397.959	0.497	neutral	Picture	53.319	n/a	4	11	11	n/a	91	19	1	n/a	n/a	n/a	n/a	426.365	AF31NES.jpg
398.457	0.514	Blank	Blank	52.805	n/a	4	11	11	n/a	91	n/a	1	n/a	n/a	n/a	n/a	426.862	n/a
398.987	0.497	neutral	Picture	52.291	n/a	4	11	12	n/a	92	9	1	n/a	n/a	n/a	n/a	427.393	AF17NES.jpg
399.484	0.514	Blank	Blank	51.777	n/a	4	11	12	n/a	92	n/a	1	n/a	n/a	n/a	n/a	427.89	n/a
400.015	0.497	neutral	Picture	51.263	n/a	4	11	13	n/a	93	14	1	n/a	n/a	n/a	n/a	428.421	AF23NES.jpg
400.512	0.514	Blank	Blank	50.749	n/a	4	11	13	n/a	93	n/a	1	n/a	n/a	n/a	n/a	428.918	n/a
401.043	0.497	neutral	Picture	50.235	n/a	4	11	14	n/a	94	36	1	n/a	n/a	n/a	n/a	429.449	BM24NES.jpg
401.54	0.514	Blank	Blank	49.721	n/a	4	11	14	n/a	94	n/a	1	n/a	n/a	n/a	n/a	429.946	n/a
402.071	0.497	neutral	Picture	49.207	n/a	4	11	15	n/a	95	34	1	n/a	n/a	n/a	n/a	430.477	AM22NES.jpg
402.568	0.514	Blank	Blank	48.693	n/a	4	11	15	n/a	95	n/a	1	n/a	n/a	n/a	n/a	430.974	n/a
403.099	0.497	neutral	Picture	48.179	n/a	4	11	16	n/a	96	10	1	n/a	n/a	n/a	n/a	431.505	AF18NES.jpg
403.596	0.514	Blank	Blank	47.665	n/a	4	11	16	n/a	96	n/a	1	n/a	n/a	n/a	n/a	432.002	n/a
404.127	0.497	neutral	Picture	47.151	n/a	4	11	17	n/a	97	5	1	n/a	n/a	n/a	n/a	432.532	BF07NES.jpg
404.624	0.514	Blank	Blank	46.637	n/a	4	11	17	n/a	97	n/a	1	n/a	n/a	n/a	n/a	433.03	n/a
405.154	0.497	neutral	Picture	46.124	n/a	4	11	18	n/a	98	25	1	n/a	n/a	n/a	n/a	433.56	BM06NES.jpg
405.652	0.514	Blank	Blank	45.61	n/a	4	11	18	n/a	98	n/a	1	n/a	n/a	n/a	n/a	434.058	n/a
406.182	0.497	neutral	Picture	45.096	n/a	4	11	19	n/a	99	39	1	n/a	n/a	n/a	n/a	434.588	AM28NES.jpg
406.68	0.514	Blank	Blank	44.582	n/a	4	11	19	n/a	99	n/a	1	n/a	n/a	n/a	n/a	435.086	n/a
407.21	0.497	neutral	Picture	44.068	n/a	4	11	20	n/a	100	33	1	n/a	n/a	n/a	n/a	435.616	AM21NES.jpg
407.707	0.514	Blank	Blank	43.554	n/a	4	11	20	n/a	100	n/a	1	n/a	n/a	n/a	n/a	436.113	n/a
408.238	10.014	ITI	Fixation+	33.524	n/a	4	n/a	n/a	n/a	n/a	n/a	n/a	n/a	n/a	n/a	n/a	436.644	n/a
418.268	0.497	angry	Picture	33.01	n/a	4	12	1	n/a	101	74	2	n/a	n/a	n/a	n/a	446.674	AM22HAS.jpg
418.765	0.514	Blank	Blank	32.496	n/a	4	12	1	n/a	101	n/a	2	n/a	n/a	n/a	n/a	447.171	n/a
419.296	0.497	angry	Picture	31.982	n/a	4	12	2	n/a	102	76	2	n/a	n/a	n/a	n/a	447.702	BM24HAS.jpg
419.793	0.514	Blank	Blank	31.468	n/a	4	12	2	n/a	102	n/a	2	n/a	n/a	n/a	n/a	448.199	n/a
420.324	0.497	angry	Picture	30.954	n/a	4	12	3	n/a	103	80	2	n/a	n/a	n/a	n/a	448.73	BM35HAS.jpg
420.821	0.514	Blank	Blank	30.44	n/a	4	12	3	n/a	103	n/a	2	n/a	n/a	n/a	n/a	449.227	n/a
421.352	0.497	angry	Picture	29.926	n/a	4	12	4	n/a	104	75	2	n/a	n/a	n/a	n/a	449.758	AM23HAS.jpg
421.849	0.514	Blank	Blank	29.412	n/a	4	12	4	n/a	104	n/a	2	n/a	n/a	n/a	n/a	450.255	n/a
422.38	0.497	angry	Picture	28.898	n/a	4	12	5	n/a	105	49	2	n/a	n/a	n/a	n/a	450.786	AF17HAS.jpg
422.877	0.514	Blank	Blank	28.384	n/a	4	12	5	n/a	105	n/a	2	n/a	n/a	n/a	n/a	451.283	n/a
423.408	0.497	angry	Picture	27.87	n/a	4	12	6	n/a	106	43	2	n/a	n/a	n/a	n/a	451.813	BF04HAS.jpg
423.905	0.514	Blank	Blank	27.356	n/a	4	12	6	n/a	106	n/a	2	n/a	n/a	n/a	n/a	452.311	n/a
424.435	0.497	angry	Picture	26.843	n/a	4	12	7	n/a	107	70	2	n/a	n/a	n/a	n/a	452.841	BM11HAS.jpg
424.933	0.514	Blank	Blank	26.329	n/a	4	12	7	n/a	107	n/a	2	n/a	n/a	n/a	n/a	453.339	n/a
425.463	0.497	angry	Picture	25.815	n/a	4	12	8	n/a	108	66	2	n/a	n/a	n/a	n/a	453.869	BM07HAS.jpg
425.961	0.514	Blank	Blank	25.301	n/a	4	12	8	n/a	108	n/a	2	n/a	n/a	n/a	n/a	454.366	n/a
426.491	0.497	angry	Picture	24.787	n/a	4	12	9	n/a	109	48	2	n/a	n/a	n/a	n/a	454.897	AF14HAS.jpg
426.989	0.514	Blank	Blank	24.273	n/a	4	12	9	n/a	109	n/a	2	n/a	n/a	n/a	n/a	455.394	n/a
427.519	0.497	angry	Picture	23.759	n/a	4	12	10	n/a	110	58	2	n/a	n/a	n/a	n/a	455.925	BF29HAS.jpg
428.016	0.514	Blank	Blank	23.245	n/a	4	12	10	n/a	110	n/a	2	n/a	n/a	n/a	n/a	456.422	n/a
428.547	0.497	angry	Picture	22.731	n/a	4	12	11	n/a	111	63	2	n/a	n/a	n/a	n/a	456.953	AM04HAS.jpg
429.044	0.514	Blank	Blank	22.217	n/a	4	12	11	n/a	111	n/a	2	n/a	n/a	n/a	n/a	457.45	n/a
429.575	0.497	angry	Picture	21.703	n/a	4	12	12	n/a	112	72	2	n/a	n/a	n/a	n/a	457.981	AM14HAS.jpg
430.072	0.514	Blank	Blank	21.189	n/a	4	12	12	n/a	112	n/a	2	n/a	n/a	n/a	n/a	458.478	n/a
430.603	0.497	angry	Picture	20.675	n/a	4	12	13	n/a	113	55	2	n/a	n/a	n/a	n/a	459.009	AF25HAS.jpg
431.1	0.514	Blank	Blank	20.161	n/a	4	12	13	n/a	113	n/a	2	n/a	n/a	n/a	n/a	459.506	n/a
431.631	0.497	angry	Picture	19.647	n/a	4	12	14	n/a	114	42	2	n/a	n/a	n/a	n/a	460.036	AF03HAS.jpg
432.128	0.514	Blank	Blank	19.133	n/a	4	12	14	n/a	114	n/a	2	n/a	n/a	n/a	n/a	460.534	n/a
432.658	0.497	angry	Picture	18.62	n/a	4	12	15	n/a	115	60	2	n/a	n/a	n/a	n/a	461.064	AF32HAS.jpg
433.156	0.514	Blank	Blank	18.106	n/a	4	12	15	n/a	115	n/a	2	n/a	n/a	n/a	n/a	461.562	n/a
433.686	0.497	angry	Picture	17.592	n/a	4	12	16	n/a	116	67	2	n/a	n/a	n/a	n/a	462.092	BM08HAS.jpg
434.184	0.514	Blank	Blank	17.078	n/a	4	12	16	n/a	116	n/a	2	n/a	n/a	n/a	n/a	462.589	n/a
434.714	0.497	angry	Picture	16.564	n/a	4	12	17	n/a	117	51	2	n/a	n/a	n/a	n/a	463.12	AF20HAS.jpg
435.212	0.514	Blank	Blank	16.05	n/a	4	12	17	n/a	117	n/a	2	n/a	n/a	n/a	n/a	463.617	n/a
435.742	0.497	angry	Picture	15.536	n/a	4	12	18	n/a	118	71	2	n/a	n/a	n/a	n/a	464.148	BM12HAS.jpg
436.239	0.514	Blank	Blank	15.022	n/a	4	12	18	n/a	118	n/a	2	n/a	n/a	n/a	n/a	464.645	n/a
436.77	0.497	angry	Picture	14.508	n/a	4	12	19	n/a	119	69	2	n/a	n/a	n/a	n/a	465.176	AM10HAS.jpg
437.267	0.514	Blank	Blank	13.994	n/a	4	12	19	n/a	119	n/a	2	n/a	n/a	n/a	n/a	465.673	n/a
437.798	0.497	angry	Picture	13.48	n/a	4	12	20	n/a	120	46	2	n/a	n/a	n/a	n/a	466.204	AF09HAS.jpg
438.295	0.514	Blank	Blank	12.966	n/a	4	12	20	n/a	120	n/a	2	n/a	n/a	n/a	n/a	466.701	n/a
438.826	10.014	ITI	Fixation+	2.936	n/a	4	n/a	n/a	n/a	n/a	n/a	n/a	n/a	n/a	n/a	n/a	467.231	n/a
451.775	n/a	ConfirmRating	Rate	n/a	2.935	4	n/a	n/a	0	n/a	n/a	n/a	2	Angry	7	47	480.181	n/a
455.403	n/a	ConfirmRating	Rate	n/a	3.598	4	n/a	n/a	1	n/a	n/a	n/a	3	Angry	80	53	483.809	n/a
