onset	duration	trial_type	event_type	time_until_response	response_time	trial_number	block_num_within_trial	image_seq_num_within_block	question_seq_num_within_block	image_seq_num	picture_number	condition	question_type	block_type	rating	rating_computed	onset_uncorrected	KDEV_imagefile
0.008	10.014	ITI	Fixation+	126.319	n/a	1	n/a	n/a	n/a	n/a	n/a	n/a	n/a	n/a	n/a	n/a	33.7	n/a
10.038	0.497	happy	Picture	125.805	n/a	1	1	1	n/a	1	46	2	n/a	n/a	n/a	n/a	43.73	AF09HAS.jpg
10.535	0.514	Blank	Blank	125.291	n/a	1	1	1	n/a	1	n/a	2	n/a	n/a	n/a	n/a	44.227	n/a
11.066	0.497	happy	Picture	124.777	n/a	1	1	2	n/a	2	69	2	n/a	n/a	n/a	n/a	44.758	AM10HAS.jpg
11.563	0.514	Blank	Blank	124.263	n/a	1	1	2	n/a	2	n/a	2	n/a	n/a	n/a	n/a	45.255	n/a
12.094	0.497	happy	Picture	123.749	n/a	1	1	3	n/a	3	71	2	n/a	n/a	n/a	n/a	45.785	BM12HAS.jpg
12.591	0.514	Blank	Blank	123.235	n/a	1	1	3	n/a	3	n/a	2	n/a	n/a	n/a	n/a	46.283	n/a
13.122	0.497	happy	Picture	122.721	n/a	1	1	4	n/a	4	51	2	n/a	n/a	n/a	n/a	46.813	AF20HAS.jpg
13.619	0.514	Blank	Blank	122.207	n/a	1	1	4	n/a	4	n/a	2	n/a	n/a	n/a	n/a	47.311	n/a
14.149	0.497	happy	Picture	121.693	n/a	1	1	5	n/a	5	67	2	n/a	n/a	n/a	n/a	47.841	BM08HAS.jpg
14.647	0.514	Blank	Blank	121.179	n/a	1	1	5	n/a	5	n/a	2	n/a	n/a	n/a	n/a	48.339	n/a
15.177	0.497	happy	Picture	120.665	n/a	1	1	6	n/a	6	60	2	n/a	n/a	n/a	n/a	48.869	AF32HAS.jpg
15.675	0.514	Blank	Blank	120.151	n/a	1	1	6	n/a	6	n/a	2	n/a	n/a	n/a	n/a	49.367	n/a
16.205	0.497	happy	Picture	119.637	n/a	1	1	7	n/a	7	42	2	n/a	n/a	n/a	n/a	49.897	AF03HAS.jpg
16.703	0.514	Blank	Blank	119.123	n/a	1	1	7	n/a	7	n/a	2	n/a	n/a	n/a	n/a	50.394	n/a
17.233	0.497	happy	Picture	118.609	n/a	1	1	8	n/a	8	55	2	n/a	n/a	n/a	n/a	50.925	AF25HAS.jpg
17.73	0.514	Blank	Blank	118.096	n/a	1	1	8	n/a	8	n/a	2	n/a	n/a	n/a	n/a	51.422	n/a
18.261	0.497	happy	Picture	117.582	n/a	1	1	9	n/a	9	72	2	n/a	n/a	n/a	n/a	51.953	AM14HAS.jpg
18.758	0.514	Blank	Blank	117.068	n/a	1	1	9	n/a	9	n/a	2	n/a	n/a	n/a	n/a	52.45	n/a
19.289	0.497	happy	Picture	116.554	n/a	1	1	10	n/a	10	63	2	n/a	n/a	n/a	n/a	52.981	AM04HAS.jpg
19.786	0.514	Blank	Blank	116.04	n/a	1	1	10	n/a	10	n/a	2	n/a	n/a	n/a	n/a	53.478	n/a
20.317	0.497	happy	Picture	115.526	n/a	1	1	11	n/a	11	58	2	n/a	n/a	n/a	n/a	54.009	BF29HAS.jpg
20.814	0.514	Blank	Blank	115.012	n/a	1	1	11	n/a	11	n/a	2	n/a	n/a	n/a	n/a	54.506	n/a
21.345	0.497	happy	Picture	114.498	n/a	1	1	12	n/a	12	48	2	n/a	n/a	n/a	n/a	55.036	AF14HAS.jpg
21.842	0.514	Blank	Blank	113.984	n/a	1	1	12	n/a	12	n/a	2	n/a	n/a	n/a	n/a	55.534	n/a
22.373	0.497	happy	Picture	113.47	n/a	1	1	13	n/a	13	66	2	n/a	n/a	n/a	n/a	56.064	BM07HAS.jpg
22.87	0.514	Blank	Blank	112.956	n/a	1	1	13	n/a	13	n/a	2	n/a	n/a	n/a	n/a	56.562	n/a
23.4	0.497	happy	Picture	112.442	n/a	1	1	14	n/a	14	70	2	n/a	n/a	n/a	n/a	57.092	BM11HAS.jpg
23.898	0.514	Blank	Blank	111.928	n/a	1	1	14	n/a	14	n/a	2	n/a	n/a	n/a	n/a	57.59	n/a
24.428	0.497	happy	Picture	111.414	n/a	1	1	15	n/a	15	43	2	n/a	n/a	n/a	n/a	58.12	BF04HAS.jpg
24.926	0.514	Blank	Blank	110.9	n/a	1	1	15	n/a	15	n/a	2	n/a	n/a	n/a	n/a	58.618	n/a
25.456	0.497	happy	Picture	110.386	n/a	1	1	16	n/a	16	49	2	n/a	n/a	n/a	n/a	59.148	AF17HAS.jpg
25.954	0.514	Blank	Blank	109.872	n/a	1	1	16	n/a	16	n/a	2	n/a	n/a	n/a	n/a	59.645	n/a
26.484	0.497	happy	Picture	109.358	n/a	1	1	17	n/a	17	75	2	n/a	n/a	n/a	n/a	60.176	AM23HAS.jpg
26.981	0.514	Blank	Blank	108.844	n/a	1	1	17	n/a	17	n/a	2	n/a	n/a	n/a	n/a	60.673	n/a
27.512	0.497	happy	Picture	108.331	n/a	1	1	18	n/a	18	80	2	n/a	n/a	n/a	n/a	61.204	BM35HAS.jpg
28.009	0.514	Blank	Blank	107.817	n/a	1	1	18	n/a	18	n/a	2	n/a	n/a	n/a	n/a	61.701	n/a
28.54	0.497	happy	Picture	107.303	n/a	1	1	19	n/a	19	76	2	n/a	n/a	n/a	n/a	62.232	BM24HAS.jpg
29.037	0.514	Blank	Blank	106.789	n/a	1	1	19	n/a	19	n/a	2	n/a	n/a	n/a	n/a	62.729	n/a
29.568	0.497	happy	Picture	106.275	n/a	1	1	20	n/a	20	74	2	n/a	n/a	n/a	n/a	63.26	AM22HAS.jpg
30.065	0.514	Blank	Blank	105.761	n/a	1	1	20	n/a	20	n/a	2	n/a	n/a	n/a	n/a	63.757	n/a
30.596	10.014	ITI	Fixation+	95.731	n/a	1	n/a	n/a	n/a	n/a	n/a	n/a	n/a	n/a	n/a	n/a	64.287	n/a
40.626	0.497	neutral	Picture	95.217	n/a	1	2	1	n/a	21	33	1	n/a	n/a	n/a	n/a	74.318	AM21NES.jpg
41.123	0.514	Blank	Blank	94.703	n/a	1	2	1	n/a	21	n/a	1	n/a	n/a	n/a	n/a	74.815	n/a
41.654	0.497	neutral	Picture	94.189	n/a	1	2	2	n/a	22	39	1	n/a	n/a	n/a	n/a	75.346	AM28NES.jpg
42.151	0.514	Blank	Blank	93.675	n/a	1	2	2	n/a	22	n/a	1	n/a	n/a	n/a	n/a	75.843	n/a
42.682	0.497	neutral	Picture	93.161	n/a	1	2	3	n/a	23	25	1	n/a	n/a	n/a	n/a	76.374	BM06NES.jpg
43.179	0.514	Blank	Blank	92.647	n/a	1	2	3	n/a	23	n/a	1	n/a	n/a	n/a	n/a	76.871	n/a
43.709	0.497	neutral	Picture	92.133	n/a	1	2	4	n/a	24	5	1	n/a	n/a	n/a	n/a	77.401	BF07NES.jpg
44.207	0.514	Blank	Blank	91.619	n/a	1	2	4	n/a	24	n/a	1	n/a	n/a	n/a	n/a	77.899	n/a
44.737	0.497	neutral	Picture	91.105	n/a	1	2	5	n/a	25	10	1	n/a	n/a	n/a	n/a	78.429	AF18NES.jpg
45.235	0.514	Blank	Blank	90.591	n/a	1	2	5	n/a	25	n/a	1	n/a	n/a	n/a	n/a	78.927	n/a
45.765	0.497	neutral	Picture	90.077	n/a	1	2	6	n/a	26	34	1	n/a	n/a	n/a	n/a	79.457	AM22NES.jpg
46.263	0.514	Blank	Blank	89.563	n/a	1	2	6	n/a	26	n/a	1	n/a	n/a	n/a	n/a	79.955	n/a
46.793	0.497	neutral	Picture	89.049	n/a	1	2	7	n/a	27	36	1	n/a	n/a	n/a	n/a	80.485	BM24NES.jpg
47.291	0.514	Blank	Blank	88.535	n/a	1	2	7	n/a	27	n/a	1	n/a	n/a	n/a	n/a	80.983	n/a
47.821	0.497	neutral	Picture	88.021	n/a	1	2	8	n/a	28	14	1	n/a	n/a	n/a	n/a	81.513	AF23NES.jpg
48.318	0.514	Blank	Blank	87.507	n/a	1	2	8	n/a	28	n/a	1	n/a	n/a	n/a	n/a	82.01	n/a
48.849	0.497	neutral	Picture	86.994	n/a	1	2	9	n/a	29	9	1	n/a	n/a	n/a	n/a	82.541	AF17NES.jpg
49.346	0.514	Blank	Blank	86.48	n/a	1	2	9	n/a	29	n/a	1	n/a	n/a	n/a	n/a	83.038	n/a
49.877	0.497	neutral	Picture	85.966	n/a	1	2	10	n/a	30	19	1	n/a	n/a	n/a	n/a	83.569	AF31NES.jpg
50.374	0.514	Blank	Blank	85.452	n/a	1	2	10	n/a	30	n/a	1	n/a	n/a	n/a	n/a	84.066	n/a
50.905	0.497	neutral	Picture	84.938	n/a	1	2	11	n/a	31	15	1	n/a	n/a	n/a	n/a	84.597	AF25NES.jpg
51.402	0.514	Blank	Blank	84.424	n/a	1	2	11	n/a	31	n/a	1	n/a	n/a	n/a	n/a	85.094	n/a
51.933	0.497	neutral	Picture	83.91	n/a	1	2	12	n/a	32	22	1	n/a	n/a	n/a	n/a	85.624	BM03NES.jpg
52.43	0.514	Blank	Blank	83.396	n/a	1	2	12	n/a	32	n/a	1	n/a	n/a	n/a	n/a	86.122	n/a
52.961	0.497	neutral	Picture	82.882	n/a	1	2	13	n/a	33	11	1	n/a	n/a	n/a	n/a	86.652	AF20NES.jpg
53.458	0.514	Blank	Blank	82.368	n/a	1	2	13	n/a	33	n/a	1	n/a	n/a	n/a	n/a	87.15	n/a
53.988	0.497	neutral	Picture	81.854	n/a	1	2	14	n/a	34	4	1	n/a	n/a	n/a	n/a	87.68	AF05NES.jpg
54.486	0.514	Blank	Blank	81.34	n/a	1	2	14	n/a	34	n/a	1	n/a	n/a	n/a	n/a	88.178	n/a
55.016	0.497	neutral	Picture	80.826	n/a	1	2	15	n/a	35	17	1	n/a	n/a	n/a	n/a	88.708	BF28NES.jpg
55.514	0.514	Blank	Blank	80.312	n/a	1	2	15	n/a	35	n/a	1	n/a	n/a	n/a	n/a	89.206	n/a
56.044	0.497	neutral	Picture	79.798	n/a	1	2	16	n/a	36	13	1	n/a	n/a	n/a	n/a	89.736	BF22NES.jpg
56.542	0.514	Blank	Blank	79.284	n/a	1	2	16	n/a	36	n/a	1	n/a	n/a	n/a	n/a	90.234	n/a
57.072	0.497	neutral	Picture	78.77	n/a	1	2	17	n/a	37	12	1	n/a	n/a	n/a	n/a	90.764	AF21NES.jpg
57.569	0.514	Blank	Blank	78.257	n/a	1	2	17	n/a	37	n/a	1	n/a	n/a	n/a	n/a	91.261	n/a
58.1	0.497	neutral	Picture	77.743	n/a	1	2	18	n/a	38	24	1	n/a	n/a	n/a	n/a	91.792	BM05NES.jpg
58.597	0.514	Blank	Blank	77.229	n/a	1	2	18	n/a	38	n/a	1	n/a	n/a	n/a	n/a	92.289	n/a
59.128	0.497	neutral	Picture	76.715	n/a	1	2	19	n/a	39	29	1	n/a	n/a	n/a	n/a	92.82	AM10NES.jpg
59.625	0.514	Blank	Blank	76.201	n/a	1	2	19	n/a	39	n/a	1	n/a	n/a	n/a	n/a	93.317	n/a
60.156	0.497	neutral	Picture	75.687	n/a	1	2	20	n/a	40	23	1	n/a	n/a	n/a	n/a	93.848	AM04NES.jpg
60.653	0.514	Blank	Blank	75.173	n/a	1	2	20	n/a	40	n/a	1	n/a	n/a	n/a	n/a	94.345	n/a
61.184	10.014	ITI	Fixation+	65.143	n/a	1	n/a	n/a	n/a	n/a	n/a	n/a	n/a	n/a	n/a	n/a	94.876	n/a
71.214	0.497	happy	Picture	64.629	n/a	1	3	1	n/a	41	62	2	n/a	n/a	n/a	n/a	104.906	BM03HAS.jpg
71.711	0.514	Blank	Blank	64.115	n/a	1	3	1	n/a	41	n/a	2	n/a	n/a	n/a	n/a	105.403	n/a
72.242	0.497	happy	Picture	63.601	n/a	1	3	2	n/a	42	52	2	n/a	n/a	n/a	n/a	105.934	AF21HAS.jpg
72.739	0.514	Blank	Blank	63.087	n/a	1	3	2	n/a	42	n/a	2	n/a	n/a	n/a	n/a	106.431	n/a
73.27	0.497	happy	Picture	62.573	n/a	1	3	3	n/a	43	44	2	n/a	n/a	n/a	n/a	106.962	AF05HAS.jpg
73.767	0.514	Blank	Blank	62.059	n/a	1	3	3	n/a	43	n/a	2	n/a	n/a	n/a	n/a	107.459	n/a
74.298	0.497	happy	Picture	61.545	n/a	1	3	4	n/a	44	53	2	n/a	n/a	n/a	n/a	107.989	BF22HAS.jpg
74.795	0.514	Blank	Blank	61.031	n/a	1	3	4	n/a	44	n/a	2	n/a	n/a	n/a	n/a	108.487	n/a
75.325	0.497	happy	Picture	60.517	n/a	1	3	5	n/a	45	54	2	n/a	n/a	n/a	n/a	109.017	AF23HAS.jpg
75.823	0.514	Blank	Blank	60.003	n/a	1	3	5	n/a	45	n/a	2	n/a	n/a	n/a	n/a	109.515	n/a
76.353	0.497	happy	Picture	59.489	n/a	1	3	6	n/a	46	68	2	n/a	n/a	n/a	n/a	110.045	AM09HAS.jpg
76.851	0.514	Blank	Blank	58.975	n/a	1	3	6	n/a	46	n/a	2	n/a	n/a	n/a	n/a	110.543	n/a
77.381	0.497	happy	Picture	58.461	n/a	1	3	7	n/a	47	64	2	n/a	n/a	n/a	n/a	111.073	BM05HAS.jpg
77.879	0.514	Blank	Blank	57.947	n/a	1	3	7	n/a	47	n/a	2	n/a	n/a	n/a	n/a	111.57	n/a
78.409	0.497	happy	Picture	57.433	n/a	1	3	8	n/a	48	59	2	n/a	n/a	n/a	n/a	112.101	AF31HAS.jpg
78.906	0.514	Blank	Blank	56.919	n/a	1	3	8	n/a	48	n/a	2	n/a	n/a	n/a	n/a	112.598	n/a
79.437	0.497	happy	Picture	56.405	n/a	1	3	9	n/a	49	41	2	n/a	n/a	n/a	n/a	113.129	AF01HAS.jpg
79.934	0.514	Blank	Blank	55.892	n/a	1	3	9	n/a	49	n/a	2	n/a	n/a	n/a	n/a	113.626	n/a
80.465	0.497	happy	Picture	55.378	n/a	1	3	10	n/a	50	73	2	n/a	n/a	n/a	n/a	114.157	AM21HAS.jpg
80.962	0.514	Blank	Blank	54.864	n/a	1	3	10	n/a	50	n/a	2	n/a	n/a	n/a	n/a	114.654	n/a
81.493	0.497	happy	Picture	54.35	n/a	1	3	11	n/a	51	65	2	n/a	n/a	n/a	n/a	115.185	BM06HAS.jpg
81.99	0.514	Blank	Blank	53.836	n/a	1	3	11	n/a	51	n/a	2	n/a	n/a	n/a	n/a	115.682	n/a
82.521	0.497	happy	Picture	53.322	n/a	1	3	12	n/a	52	56	2	n/a	n/a	n/a	n/a	116.213	AF26HAS.jpg
83.018	0.514	Blank	Blank	52.808	n/a	1	3	12	n/a	52	n/a	2	n/a	n/a	n/a	n/a	116.71	n/a
83.548	0.497	happy	Picture	52.294	n/a	1	3	13	n/a	53	45	2	n/a	n/a	n/a	n/a	117.24	BF07HAS.jpg
84.046	0.514	Blank	Blank	51.78	n/a	1	3	13	n/a	53	n/a	2	n/a	n/a	n/a	n/a	117.738	n/a
84.576	0.497	happy	Picture	51.266	n/a	1	3	14	n/a	54	78	2	n/a	n/a	n/a	n/a	118.268	BM26HAS.jpg
85.074	0.514	Blank	Blank	50.752	n/a	1	3	14	n/a	54	n/a	2	n/a	n/a	n/a	n/a	118.766	n/a
85.604	0.497	happy	Picture	50.238	n/a	1	3	15	n/a	55	50	2	n/a	n/a	n/a	n/a	119.296	AF18HAS.jpg
86.102	0.514	Blank	Blank	49.724	n/a	1	3	15	n/a	55	n/a	2	n/a	n/a	n/a	n/a	119.794	n/a
86.632	0.497	happy	Picture	49.21	n/a	1	3	16	n/a	56	47	2	n/a	n/a	n/a	n/a	120.324	BF11HAS.jpg
87.13	0.514	Blank	Blank	48.696	n/a	1	3	16	n/a	56	n/a	2	n/a	n/a	n/a	n/a	120.822	n/a
87.66	0.497	happy	Picture	48.182	n/a	1	3	17	n/a	57	77	2	n/a	n/a	n/a	n/a	121.352	BM25HAS.jpg
88.157	0.514	Blank	Blank	47.668	n/a	1	3	17	n/a	57	n/a	2	n/a	n/a	n/a	n/a	121.849	n/a
88.688	0.497	happy	Picture	47.154	n/a	1	3	18	n/a	58	57	2	n/a	n/a	n/a	n/a	122.38	BF28HAS.jpg
89.185	0.514	Blank	Blank	46.641	n/a	1	3	18	n/a	58	n/a	2	n/a	n/a	n/a	n/a	122.877	n/a
89.716	0.497	happy	Picture	46.127	n/a	1	3	19	n/a	59	61	2	n/a	n/a	n/a	n/a	123.408	AM01HAS.jpg
90.213	0.514	Blank	Blank	45.613	n/a	1	3	19	n/a	59	n/a	2	n/a	n/a	n/a	n/a	123.905	n/a
90.744	0.497	happy	Picture	45.099	n/a	1	3	20	n/a	60	79	2	n/a	n/a	n/a	n/a	124.436	BM28HAS.jpg
91.241	0.514	Blank	Blank	44.585	n/a	1	3	20	n/a	60	n/a	2	n/a	n/a	n/a	n/a	124.933	n/a
91.772	10.014	ITI	Fixation+	34.555	n/a	1	n/a	n/a	n/a	n/a	n/a	n/a	n/a	n/a	n/a	n/a	125.464	n/a
136.34	n/a	ConfirmRating	Rate	n/a	34.551	1	n/a	n/a	0	n/a	n/a	n/a	2	Happy	26	26	170.032	n/a
149.331	n/a	ConfirmRating	Rate	n/a	12.965	1	n/a	n/a	1	n/a	n/a	n/a	3	Happy	61	61	183.023	n/a
149.35	10.014	ITI	Fixation+	95.698	n/a	2	n/a	n/a	n/a	n/a	n/a	n/a	n/a	n/a	n/a	n/a	183.042	n/a
159.38	0.497	angry	Picture	95.184	n/a	2	4	1	n/a	61	119	3	n/a	n/a	n/a	n/a	193.072	BM28ANS.jpg
159.878	0.514	Blank	Blank	94.67	n/a	2	4	1	n/a	61	n/a	3	n/a	n/a	n/a	n/a	193.57	n/a
160.408	0.497	angry	Picture	94.156	n/a	2	4	2	n/a	62	100	3	n/a	n/a	n/a	n/a	194.1	AF32ANS.jpg
160.906	0.514	Blank	Blank	93.642	n/a	2	4	2	n/a	62	n/a	3	n/a	n/a	n/a	n/a	194.597	n/a
161.436	0.497	angry	Picture	93.128	n/a	2	4	3	n/a	63	118	3	n/a	n/a	n/a	n/a	195.128	BM26ANS.jpg
161.934	0.514	Blank	Blank	92.614	n/a	2	4	3	n/a	63	n/a	3	n/a	n/a	n/a	n/a	195.625	n/a
162.464	0.497	angry	Picture	92.1	n/a	2	4	4	n/a	64	89	3	n/a	n/a	n/a	n/a	196.156	AF17ANS.jpg
162.961	0.514	Blank	Blank	91.586	n/a	2	4	4	n/a	64	n/a	3	n/a	n/a	n/a	n/a	196.653	n/a
163.492	0.497	angry	Picture	91.073	n/a	2	4	5	n/a	65	116	3	n/a	n/a	n/a	n/a	197.184	BM24ANS.jpg
163.989	0.514	Blank	Blank	90.559	n/a	2	4	5	n/a	65	n/a	3	n/a	n/a	n/a	n/a	197.681	n/a
164.52	0.497	angry	Picture	90.045	n/a	2	4	6	n/a	66	105	3	n/a	n/a	n/a	n/a	198.212	BM06ANS.jpg
165.017	0.514	Blank	Blank	89.531	n/a	2	4	6	n/a	66	n/a	3	n/a	n/a	n/a	n/a	198.709	n/a
165.548	0.497	angry	Picture	89.017	n/a	2	4	7	n/a	67	106	3	n/a	n/a	n/a	n/a	199.24	AM07ANS.jpg
166.045	0.514	Blank	Blank	88.503	n/a	2	4	7	n/a	67	n/a	3	n/a	n/a	n/a	n/a	199.737	n/a
166.576	0.497	angry	Picture	87.989	n/a	2	4	8	n/a	68	94	3	n/a	n/a	n/a	n/a	200.267	AF23ANS.jpg
167.073	0.514	Blank	Blank	87.475	n/a	2	4	8	n/a	68	n/a	3	n/a	n/a	n/a	n/a	200.765	n/a
167.603	0.497	angry	Picture	86.961	n/a	2	4	9	n/a	69	117	3	n/a	n/a	n/a	n/a	201.295	BM25ANS.jpg
168.101	0.514	Blank	Blank	86.447	n/a	2	4	9	n/a	69	n/a	3	n/a	n/a	n/a	n/a	201.793	n/a
168.631	0.497	angry	Picture	85.933	n/a	2	4	10	n/a	70	90	3	n/a	n/a	n/a	n/a	202.323	AF18ANS.jpg
169.129	0.514	Blank	Blank	85.419	n/a	2	4	10	n/a	70	n/a	3	n/a	n/a	n/a	n/a	202.821	n/a
169.659	0.497	angry	Picture	84.905	n/a	2	4	11	n/a	71	83	3	n/a	n/a	n/a	n/a	203.351	BF04ANS.jpg
170.157	0.514	Blank	Blank	84.391	n/a	2	4	11	n/a	71	n/a	3	n/a	n/a	n/a	n/a	203.849	n/a
170.687	0.497	angry	Picture	83.877	n/a	2	4	12	n/a	72	112	3	n/a	n/a	n/a	n/a	204.379	AM14ANS.jpg
171.184	0.514	Blank	Blank	83.363	n/a	2	4	12	n/a	72	n/a	3	n/a	n/a	n/a	n/a	204.876	n/a
171.715	0.497	angry	Picture	82.849	n/a	2	4	13	n/a	73	102	3	n/a	n/a	n/a	n/a	205.407	BM03ANS.jpg
172.212	0.514	Blank	Blank	82.335	n/a	2	4	13	n/a	73	n/a	3	n/a	n/a	n/a	n/a	205.904	n/a
172.743	0.497	angry	Picture	81.822	n/a	2	4	14	n/a	74	95	3	n/a	n/a	n/a	n/a	206.435	AF25ANS.jpg
173.24	0.514	Blank	Blank	81.308	n/a	2	4	14	n/a	74	n/a	3	n/a	n/a	n/a	n/a	206.932	n/a
173.771	0.497	angry	Picture	80.794	n/a	2	4	15	n/a	75	113	3	n/a	n/a	n/a	n/a	207.463	AM21ANS.jpg
174.268	0.514	Blank	Blank	80.28	n/a	2	4	15	n/a	75	n/a	3	n/a	n/a	n/a	n/a	207.96	n/a
174.799	0.497	angry	Picture	79.766	n/a	2	4	16	n/a	76	88	3	n/a	n/a	n/a	n/a	208.491	AF14ANS.jpg
175.296	0.514	Blank	Blank	79.252	n/a	2	4	16	n/a	76	n/a	3	n/a	n/a	n/a	n/a	208.988	n/a
175.827	0.497	angry	Picture	78.738	n/a	2	4	17	n/a	77	93	3	n/a	n/a	n/a	n/a	209.518	BF22ANS.jpg
176.324	0.514	Blank	Blank	78.224	n/a	2	4	17	n/a	77	n/a	3	n/a	n/a	n/a	n/a	210.016	n/a
176.854	0.497	angry	Picture	77.71	n/a	2	4	18	n/a	78	86	3	n/a	n/a	n/a	n/a	210.546	AF09ANS.jpg
177.352	0.514	Blank	Blank	77.196	n/a	2	4	18	n/a	78	n/a	3	n/a	n/a	n/a	n/a	211.044	n/a
177.882	0.497	angry	Picture	76.682	n/a	2	4	19	n/a	79	92	3	n/a	n/a	n/a	n/a	211.574	AF21ANS.jpg
178.38	0.514	Blank	Blank	76.168	n/a	2	4	19	n/a	79	n/a	3	n/a	n/a	n/a	n/a	212.072	n/a
178.91	0.497	angry	Picture	75.654	n/a	2	4	20	n/a	80	84	3	n/a	n/a	n/a	n/a	212.602	AF05ANS.jpg
179.408	0.514	Blank	Blank	75.14	n/a	2	4	20	n/a	80	n/a	3	n/a	n/a	n/a	n/a	213.1	n/a
179.938	10.014	ITI	Fixation+	65.11	n/a	2	n/a	n/a	n/a	n/a	n/a	n/a	n/a	n/a	n/a	n/a	213.63	n/a
189.968	0.497	neutral	Picture	64.596	n/a	2	5	1	n/a	81	4	1	n/a	n/a	n/a	n/a	223.66	AF05NES.jpg
190.466	0.514	Blank	Blank	64.082	n/a	2	5	1	n/a	81	n/a	1	n/a	n/a	n/a	n/a	224.158	n/a
190.996	0.497	neutral	Picture	63.568	n/a	2	5	2	n/a	82	14	1	n/a	n/a	n/a	n/a	224.688	AF23NES.jpg
191.494	0.514	Blank	Blank	63.054	n/a	2	5	2	n/a	82	n/a	1	n/a	n/a	n/a	n/a	225.185	n/a
192.024	0.497	neutral	Picture	62.54	n/a	2	5	3	n/a	83	19	1	n/a	n/a	n/a	n/a	225.716	AF31NES.jpg
192.522	0.514	Blank	Blank	62.026	n/a	2	5	3	n/a	83	n/a	1	n/a	n/a	n/a	n/a	226.213	n/a
193.052	0.497	neutral	Picture	61.512	n/a	2	5	4	n/a	84	8	1	n/a	n/a	n/a	n/a	226.744	AF14NES.jpg
193.549	0.514	Blank	Blank	60.998	n/a	2	5	4	n/a	84	n/a	1	n/a	n/a	n/a	n/a	227.241	n/a
194.08	0.497	neutral	Picture	60.484	n/a	2	5	5	n/a	85	25	1	n/a	n/a	n/a	n/a	227.772	BM06NES.jpg
194.577	0.514	Blank	Blank	59.97	n/a	2	5	5	n/a	85	n/a	1	n/a	n/a	n/a	n/a	228.269	n/a
195.108	0.497	neutral	Picture	59.457	n/a	2	5	6	n/a	86	9	1	n/a	n/a	n/a	n/a	228.8	AF17NES.jpg
195.605	0.514	Blank	Blank	58.943	n/a	2	5	6	n/a	86	n/a	1	n/a	n/a	n/a	n/a	229.297	n/a
196.136	0.497	neutral	Picture	58.429	n/a	2	5	7	n/a	87	2	1	n/a	n/a	n/a	n/a	229.828	AF03NES.jpg
196.633	0.514	Blank	Blank	57.915	n/a	2	5	7	n/a	87	n/a	1	n/a	n/a	n/a	n/a	230.325	n/a
197.164	0.497	neutral	Picture	57.401	n/a	2	5	8	n/a	88	17	1	n/a	n/a	n/a	n/a	230.856	BF28NES.jpg
197.661	0.514	Blank	Blank	56.887	n/a	2	5	8	n/a	88	n/a	1	n/a	n/a	n/a	n/a	231.353	n/a
198.191	0.497	neutral	Picture	56.373	n/a	2	5	9	n/a	89	6	1	n/a	n/a	n/a	n/a	231.883	AF09NES.jpg
198.689	0.514	Blank	Blank	55.859	n/a	2	5	9	n/a	89	n/a	1	n/a	n/a	n/a	n/a	232.381	n/a
199.219	0.497	neutral	Picture	55.345	n/a	2	5	10	n/a	90	12	1	n/a	n/a	n/a	n/a	232.911	AF21NES.jpg
199.717	0.514	Blank	Blank	54.831	n/a	2	5	10	n/a	90	n/a	1	n/a	n/a	n/a	n/a	233.409	n/a
200.247	0.497	neutral	Picture	54.317	n/a	2	5	11	n/a	91	24	1	n/a	n/a	n/a	n/a	233.939	BM05NES.jpg
200.745	0.514	Blank	Blank	53.803	n/a	2	5	11	n/a	91	n/a	1	n/a	n/a	n/a	n/a	234.436	n/a
201.275	0.497	neutral	Picture	53.289	n/a	2	5	12	n/a	92	34	1	n/a	n/a	n/a	n/a	234.967	AM22NES.jpg
201.773	0.514	Blank	Blank	52.775	n/a	2	5	12	n/a	92	n/a	1	n/a	n/a	n/a	n/a	235.464	n/a
202.303	0.497	neutral	Picture	52.261	n/a	2	5	13	n/a	93	23	1	n/a	n/a	n/a	n/a	235.995	AM04NES.jpg
202.8	0.514	Blank	Blank	51.747	n/a	2	5	13	n/a	93	n/a	1	n/a	n/a	n/a	n/a	236.492	n/a
203.331	0.497	neutral	Picture	51.233	n/a	2	5	14	n/a	94	15	1	n/a	n/a	n/a	n/a	237.023	AF25NES.jpg
203.828	0.514	Blank	Blank	50.72	n/a	2	5	14	n/a	94	n/a	1	n/a	n/a	n/a	n/a	237.52	n/a
204.359	0.497	neutral	Picture	50.206	n/a	2	5	15	n/a	95	37	1	n/a	n/a	n/a	n/a	238.051	BM25NES.jpg
204.856	0.514	Blank	Blank	49.692	n/a	2	5	15	n/a	95	n/a	1	n/a	n/a	n/a	n/a	238.548	n/a
205.387	0.497	neutral	Picture	49.178	n/a	2	5	16	n/a	96	32	1	n/a	n/a	n/a	n/a	239.079	AM14NES.jpg
205.884	0.514	Blank	Blank	48.664	n/a	2	5	16	n/a	96	n/a	1	n/a	n/a	n/a	n/a	239.576	n/a
206.415	0.497	neutral	Picture	48.15	n/a	2	5	17	n/a	97	3	1	n/a	n/a	n/a	n/a	240.107	BF04NES.jpg
206.912	0.514	Blank	Blank	47.636	n/a	2	5	17	n/a	97	n/a	1	n/a	n/a	n/a	n/a	240.604	n/a
207.442	0.497	neutral	Picture	47.122	n/a	2	5	18	n/a	98	16	1	n/a	n/a	n/a	n/a	241.134	AF26NES.jpg
207.94	0.514	Blank	Blank	46.608	n/a	2	5	18	n/a	98	n/a	1	n/a	n/a	n/a	n/a	241.632	n/a
208.47	0.497	neutral	Picture	46.094	n/a	2	5	19	n/a	99	27	1	n/a	n/a	n/a	n/a	242.162	BM08NES.jpg
208.968	0.514	Blank	Blank	45.58	n/a	2	5	19	n/a	99	n/a	1	n/a	n/a	n/a	n/a	242.66	n/a
209.498	0.497	neutral	Picture	45.066	n/a	2	5	20	n/a	100	28	1	n/a	n/a	n/a	n/a	243.19	AM09NES.jpg
209.996	0.514	Blank	Blank	44.552	n/a	2	5	20	n/a	100	n/a	1	n/a	n/a	n/a	n/a	243.688	n/a
210.526	10.014	ITI	Fixation+	34.522	n/a	2	n/a	n/a	n/a	n/a	n/a	n/a	n/a	n/a	n/a	n/a	244.218	n/a
220.556	0.497	angry	Picture	34.008	n/a	2	6	1	n/a	101	81	3	n/a	n/a	n/a	n/a	254.248	AF01ANS.jpg
221.054	0.514	Blank	Blank	33.494	n/a	2	6	1	n/a	101	n/a	3	n/a	n/a	n/a	n/a	254.746	n/a
221.584	0.497	angry	Picture	32.98	n/a	2	6	2	n/a	102	120	3	n/a	n/a	n/a	n/a	255.276	AM35ANS.jpg
222.082	0.514	Blank	Blank	32.466	n/a	2	6	2	n/a	102	n/a	3	n/a	n/a	n/a	n/a	255.774	n/a
222.612	0.497	angry	Picture	31.952	n/a	2	6	3	n/a	103	114	3	n/a	n/a	n/a	n/a	256.304	AM22ANS.jpg
223.109	0.514	Blank	Blank	31.438	n/a	2	6	3	n/a	103	n/a	3	n/a	n/a	n/a	n/a	256.801	n/a
223.64	0.497	angry	Picture	30.924	n/a	2	6	4	n/a	104	109	3	n/a	n/a	n/a	n/a	257.332	AM10ANS.jpg
224.137	0.514	Blank	Blank	30.41	n/a	2	6	4	n/a	104	n/a	3	n/a	n/a	n/a	n/a	257.829	n/a
224.668	0.497	angry	Picture	29.896	n/a	2	6	5	n/a	105	96	3	n/a	n/a	n/a	n/a	258.36	AF26ANS.jpg
225.165	0.514	Blank	Blank	29.383	n/a	2	6	5	n/a	105	n/a	3	n/a	n/a	n/a	n/a	258.857	n/a
225.696	0.497	angry	Picture	28.869	n/a	2	6	6	n/a	106	82	3	n/a	n/a	n/a	n/a	259.388	AF03ANS.jpg
226.193	0.514	Blank	Blank	28.355	n/a	2	6	6	n/a	106	n/a	3	n/a	n/a	n/a	n/a	259.885	n/a
226.724	0.497	angry	Picture	27.841	n/a	2	6	7	n/a	107	97	3	n/a	n/a	n/a	n/a	260.416	BF28ANS.jpg
227.221	0.514	Blank	Blank	27.327	n/a	2	6	7	n/a	107	n/a	3	n/a	n/a	n/a	n/a	260.913	n/a
227.752	0.497	angry	Picture	26.813	n/a	2	6	8	n/a	108	115	3	n/a	n/a	n/a	n/a	261.443	AM23ANS.jpg
228.249	0.514	Blank	Blank	26.299	n/a	2	6	8	n/a	108	n/a	3	n/a	n/a	n/a	n/a	261.941	n/a
228.78	0.497	angry	Picture	25.785	n/a	2	6	9	n/a	109	91	3	n/a	n/a	n/a	n/a	262.471	AF20ANS.jpg
229.277	0.514	Blank	Blank	25.271	n/a	2	6	9	n/a	109	n/a	3	n/a	n/a	n/a	n/a	262.969	n/a
229.807	0.497	angry	Picture	24.757	n/a	2	6	10	n/a	110	87	3	n/a	n/a	n/a	n/a	263.499	BF11ANS.jpg
230.305	0.514	Blank	Blank	24.243	n/a	2	6	10	n/a	110	n/a	3	n/a	n/a	n/a	n/a	263.997	n/a
230.835	0.497	angry	Picture	23.729	n/a	2	6	11	n/a	111	85	3	n/a	n/a	n/a	n/a	264.527	BF07ANS.jpg
231.333	0.514	Blank	Blank	23.215	n/a	2	6	11	n/a	111	n/a	3	n/a	n/a	n/a	n/a	265.024	n/a
231.863	0.497	angry	Picture	22.701	n/a	2	6	12	n/a	112	110	3	n/a	n/a	n/a	n/a	265.555	AM11ANS.jpg
232.36	0.514	Blank	Blank	22.187	n/a	2	6	12	n/a	112	n/a	3	n/a	n/a	n/a	n/a	266.052	n/a
232.891	0.497	angry	Picture	21.673	n/a	2	6	13	n/a	113	111	3	n/a	n/a	n/a	n/a	266.583	BM12ANS.jpg
233.388	0.514	Blank	Blank	21.159	n/a	2	6	13	n/a	113	n/a	3	n/a	n/a	n/a	n/a	267.08	n/a
233.919	0.497	angry	Picture	20.645	n/a	2	6	14	n/a	114	103	3	n/a	n/a	n/a	n/a	267.611	AM04ANS.jpg
234.416	0.514	Blank	Blank	20.131	n/a	2	6	14	n/a	114	n/a	3	n/a	n/a	n/a	n/a	268.108	n/a
234.947	0.497	angry	Picture	19.618	n/a	2	6	15	n/a	115	101	3	n/a	n/a	n/a	n/a	268.639	AM01ANS.jpg
235.444	0.514	Blank	Blank	19.104	n/a	2	6	15	n/a	115	n/a	3	n/a	n/a	n/a	n/a	269.136	n/a
235.975	0.497	angry	Picture	18.59	n/a	2	6	16	n/a	116	104	3	n/a	n/a	n/a	n/a	269.667	BM05ANS.jpg
236.472	0.514	Blank	Blank	18.076	n/a	2	6	16	n/a	116	n/a	3	n/a	n/a	n/a	n/a	270.164	n/a
237.003	0.497	angry	Picture	17.562	n/a	2	6	17	n/a	117	107	3	n/a	n/a	n/a	n/a	270.695	BM08ANS.jpg
237.5	0.514	Blank	Blank	17.048	n/a	2	6	17	n/a	117	n/a	3	n/a	n/a	n/a	n/a	271.192	n/a
238.03	0.497	angry	Picture	16.534	n/a	2	6	18	n/a	118	98	3	n/a	n/a	n/a	n/a	271.722	BF29ANS.jpg
238.528	0.514	Blank	Blank	16.02	n/a	2	6	18	n/a	118	n/a	3	n/a	n/a	n/a	n/a	272.22	n/a
239.058	0.497	angry	Picture	15.506	n/a	2	6	19	n/a	119	99	3	n/a	n/a	n/a	n/a	272.75	AF31ANS.jpg
239.556	0.514	Blank	Blank	14.992	n/a	2	6	19	n/a	119	n/a	3	n/a	n/a	n/a	n/a	273.248	n/a
240.086	0.497	angry	Picture	14.478	n/a	2	6	20	n/a	120	108	3	n/a	n/a	n/a	n/a	273.778	AM09ANS.jpg
240.584	0.514	Blank	Blank	13.964	n/a	2	6	20	n/a	120	n/a	3	n/a	n/a	n/a	n/a	274.276	n/a
241.114	10.014	ITI	Fixation+	3.934	n/a	2	n/a	n/a	n/a	n/a	n/a	n/a	n/a	n/a	n/a	n/a	274.806	n/a
255.062	n/a	ConfirmRating	Rate	n/a	3.929	2	n/a	n/a	0	n/a	n/a	n/a	2	Angry	50	50	288.754	n/a
256.788	n/a	ConfirmRating	Rate	n/a	1.707	2	n/a	n/a	1	n/a	n/a	n/a	3	Angry	50	50	290.48	n/a
256.814	15.004	Rest	Picture	n/a	n/a	n/a	n/a	n/a	n/a	n/a	n/a	n/a	0	n/a	0	0	290.506	n/a
271.835	10.014	ITI	Fixation+	106.251	n/a	3	n/a	n/a	n/a	n/a	n/a	n/a	n/a	n/a	n/a	n/a	305.527	n/a
281.865	0.497	happy	Picture	105.737	n/a	3	7	1	n/a	1	46	2	n/a	n/a	n/a	n/a	315.557	AF09HAS.jpg
282.362	0.514	Blank	Blank	105.223	n/a	3	7	1	n/a	1	n/a	2	n/a	n/a	n/a	n/a	316.054	n/a
282.893	0.497	happy	Picture	104.709	n/a	3	7	2	n/a	2	69	2	n/a	n/a	n/a	n/a	316.585	AM10HAS.jpg
283.39	0.514	Blank	Blank	104.195	n/a	3	7	2	n/a	2	n/a	2	n/a	n/a	n/a	n/a	317.082	n/a
283.921	0.497	happy	Picture	103.681	n/a	3	7	3	n/a	3	71	2	n/a	n/a	n/a	n/a	317.613	BM12HAS.jpg
284.418	0.514	Blank	Blank	103.167	n/a	3	7	3	n/a	3	n/a	2	n/a	n/a	n/a	n/a	318.11	n/a
284.949	0.497	happy	Picture	102.653	n/a	3	7	4	n/a	4	51	2	n/a	n/a	n/a	n/a	318.641	AF20HAS.jpg
285.446	0.514	Blank	Blank	102.139	n/a	3	7	4	n/a	4	n/a	2	n/a	n/a	n/a	n/a	319.138	n/a
285.977	0.497	happy	Picture	101.625	n/a	3	7	5	n/a	5	67	2	n/a	n/a	n/a	n/a	319.668	BM08HAS.jpg
286.474	0.514	Blank	Blank	101.111	n/a	3	7	5	n/a	5	n/a	2	n/a	n/a	n/a	n/a	320.166	n/a
287.005	0.497	happy	Picture	100.598	n/a	3	7	6	n/a	6	60	2	n/a	n/a	n/a	n/a	320.696	AF32HAS.jpg
287.502	0.514	Blank	Blank	100.084	n/a	3	7	6	n/a	6	n/a	2	n/a	n/a	n/a	n/a	321.194	n/a
288.032	0.497	happy	Picture	99.57	n/a	3	7	7	n/a	7	42	2	n/a	n/a	n/a	n/a	321.724	AF03HAS.jpg
288.53	0.514	Blank	Blank	99.056	n/a	3	7	7	n/a	7	n/a	2	n/a	n/a	n/a	n/a	322.222	n/a
289.06	0.497	happy	Picture	98.542	n/a	3	7	8	n/a	8	55	2	n/a	n/a	n/a	n/a	322.752	AF25HAS.jpg
289.558	0.514	Blank	Blank	98.028	n/a	3	7	8	n/a	8	n/a	2	n/a	n/a	n/a	n/a	323.25	n/a
290.088	0.497	happy	Picture	97.514	n/a	3	7	9	n/a	9	72	2	n/a	n/a	n/a	n/a	323.78	AM14HAS.jpg
290.586	0.514	Blank	Blank	97.0	n/a	3	7	9	n/a	9	n/a	2	n/a	n/a	n/a	n/a	324.277	n/a
291.116	0.497	happy	Picture	96.486	n/a	3	7	10	n/a	10	63	2	n/a	n/a	n/a	n/a	324.808	AM04HAS.jpg
291.613	0.514	Blank	Blank	95.972	n/a	3	7	10	n/a	10	n/a	2	n/a	n/a	n/a	n/a	325.305	n/a
292.144	0.497	happy	Picture	95.458	n/a	3	7	11	n/a	11	58	2	n/a	n/a	n/a	n/a	325.836	BF29HAS.jpg
292.641	0.514	Blank	Blank	94.944	n/a	3	7	11	n/a	11	n/a	2	n/a	n/a	n/a	n/a	326.333	n/a
293.172	0.497	happy	Picture	94.43	n/a	3	7	12	n/a	12	48	2	n/a	n/a	n/a	n/a	326.864	AF14HAS.jpg
293.669	0.514	Blank	Blank	93.916	n/a	3	7	12	n/a	12	n/a	2	n/a	n/a	n/a	n/a	327.361	n/a
294.2	0.497	happy	Picture	93.402	n/a	3	7	13	n/a	13	66	2	n/a	n/a	n/a	n/a	327.892	BM07HAS.jpg
294.697	0.514	Blank	Blank	92.888	n/a	3	7	13	n/a	13	n/a	2	n/a	n/a	n/a	n/a	328.389	n/a
295.228	0.497	happy	Picture	92.374	n/a	3	7	14	n/a	14	70	2	n/a	n/a	n/a	n/a	328.92	BM11HAS.jpg
295.725	0.514	Blank	Blank	91.86	n/a	3	7	14	n/a	14	n/a	2	n/a	n/a	n/a	n/a	329.417	n/a
296.256	0.497	happy	Picture	91.346	n/a	3	7	15	n/a	15	43	2	n/a	n/a	n/a	n/a	329.947	BF04HAS.jpg
296.753	0.514	Blank	Blank	90.832	n/a	3	7	15	n/a	15	n/a	2	n/a	n/a	n/a	n/a	330.445	n/a
297.283	0.497	happy	Picture	90.319	n/a	3	7	16	n/a	16	49	2	n/a	n/a	n/a	n/a	330.975	AF17HAS.jpg
297.781	0.514	Blank	Blank	89.805	n/a	3	7	16	n/a	16	n/a	2	n/a	n/a	n/a	n/a	331.473	n/a
298.311	0.497	happy	Picture	89.291	n/a	3	7	17	n/a	17	75	2	n/a	n/a	n/a	n/a	332.003	AM23HAS.jpg
298.809	0.514	Blank	Blank	88.777	n/a	3	7	17	n/a	17	n/a	2	n/a	n/a	n/a	n/a	332.5	n/a
299.339	0.497	happy	Picture	88.263	n/a	3	7	18	n/a	18	80	2	n/a	n/a	n/a	n/a	333.031	BM35HAS.jpg
299.837	0.514	Blank	Blank	87.749	n/a	3	7	18	n/a	18	n/a	2	n/a	n/a	n/a	n/a	333.528	n/a
300.367	0.497	happy	Picture	87.235	n/a	3	7	19	n/a	19	76	2	n/a	n/a	n/a	n/a	334.059	BM24HAS.jpg
300.864	0.514	Blank	Blank	86.721	n/a	3	7	19	n/a	19	n/a	2	n/a	n/a	n/a	n/a	334.556	n/a
301.395	0.497	happy	Picture	86.207	n/a	3	7	20	n/a	20	74	2	n/a	n/a	n/a	n/a	335.087	AM22HAS.jpg
301.892	0.514	Blank	Blank	85.693	n/a	3	7	20	n/a	20	n/a	2	n/a	n/a	n/a	n/a	335.584	n/a
302.423	10.014	ITI	Fixation+	75.663	n/a	3	n/a	n/a	n/a	n/a	n/a	n/a	n/a	n/a	n/a	n/a	336.115	n/a
312.453	0.497	neutral	Picture	75.149	n/a	3	8	1	n/a	21	33	1	n/a	n/a	n/a	n/a	346.145	AM21NES.jpg
312.95	0.514	Blank	Blank	74.635	n/a	3	8	1	n/a	21	n/a	1	n/a	n/a	n/a	n/a	346.642	n/a
313.481	0.497	neutral	Picture	74.121	n/a	3	8	2	n/a	22	39	1	n/a	n/a	n/a	n/a	347.173	AM28NES.jpg
313.978	0.514	Blank	Blank	73.607	n/a	3	8	2	n/a	22	n/a	1	n/a	n/a	n/a	n/a	347.67	n/a
314.509	0.497	neutral	Picture	73.093	n/a	3	8	3	n/a	23	25	1	n/a	n/a	n/a	n/a	348.201	BM06NES.jpg
315.006	0.514	Blank	Blank	72.579	n/a	3	8	3	n/a	23	n/a	1	n/a	n/a	n/a	n/a	348.698	n/a
315.537	0.497	neutral	Picture	72.065	n/a	3	8	4	n/a	24	5	1	n/a	n/a	n/a	n/a	349.229	BF07NES.jpg
316.034	0.514	Blank	Blank	71.551	n/a	3	8	4	n/a	24	n/a	1	n/a	n/a	n/a	n/a	349.726	n/a
316.565	0.497	neutral	Picture	71.037	n/a	3	8	5	n/a	25	10	1	n/a	n/a	n/a	n/a	350.257	AF18NES.jpg
317.062	0.514	Blank	Blank	70.523	n/a	3	8	5	n/a	25	n/a	1	n/a	n/a	n/a	n/a	350.754	n/a
317.593	0.497	neutral	Picture	70.009	n/a	3	8	6	n/a	26	34	1	n/a	n/a	n/a	n/a	351.284	AM22NES.jpg
318.09	0.514	Blank	Blank	69.496	n/a	3	8	6	n/a	26	n/a	1	n/a	n/a	n/a	n/a	351.782	n/a
318.62	0.497	neutral	Picture	68.982	n/a	3	8	7	n/a	27	36	1	n/a	n/a	n/a	n/a	352.312	BM24NES.jpg
319.118	0.514	Blank	Blank	68.468	n/a	3	8	7	n/a	27	n/a	1	n/a	n/a	n/a	n/a	352.81	n/a
319.648	0.497	neutral	Picture	67.954	n/a	3	8	8	n/a	28	14	1	n/a	n/a	n/a	n/a	353.34	AF23NES.jpg
320.146	0.514	Blank	Blank	67.44	n/a	3	8	8	n/a	28	n/a	1	n/a	n/a	n/a	n/a	353.837	n/a
320.676	0.497	neutral	Picture	66.926	n/a	3	8	9	n/a	29	9	1	n/a	n/a	n/a	n/a	354.368	AF17NES.jpg
321.174	0.514	Blank	Blank	66.412	n/a	3	8	9	n/a	29	n/a	1	n/a	n/a	n/a	n/a	354.865	n/a
321.704	0.497	neutral	Picture	65.898	n/a	3	8	10	n/a	30	19	1	n/a	n/a	n/a	n/a	355.396	AF31NES.jpg
322.201	0.514	Blank	Blank	65.384	n/a	3	8	10	n/a	30	n/a	1	n/a	n/a	n/a	n/a	355.893	n/a
322.732	0.497	neutral	Picture	64.87	n/a	3	8	11	n/a	31	15	1	n/a	n/a	n/a	n/a	356.424	AF25NES.jpg
323.229	0.514	Blank	Blank	64.356	n/a	3	8	11	n/a	31	n/a	1	n/a	n/a	n/a	n/a	356.921	n/a
323.76	0.497	neutral	Picture	63.842	n/a	3	8	12	n/a	32	22	1	n/a	n/a	n/a	n/a	357.452	BM03NES.jpg
324.257	0.514	Blank	Blank	63.328	n/a	3	8	12	n/a	32	n/a	1	n/a	n/a	n/a	n/a	357.949	n/a
324.788	0.497	neutral	Picture	62.814	n/a	3	8	13	n/a	33	11	1	n/a	n/a	n/a	n/a	358.48	AF20NES.jpg
325.285	0.514	Blank	Blank	62.3	n/a	3	8	13	n/a	33	n/a	1	n/a	n/a	n/a	n/a	358.977	n/a
325.816	0.497	neutral	Picture	61.786	n/a	3	8	14	n/a	34	4	1	n/a	n/a	n/a	n/a	359.507	AF05NES.jpg
326.313	0.514	Blank	Blank	61.272	n/a	3	8	14	n/a	34	n/a	1	n/a	n/a	n/a	n/a	360.005	n/a
326.844	0.497	neutral	Picture	60.758	n/a	3	8	15	n/a	35	17	1	n/a	n/a	n/a	n/a	360.535	BF28NES.jpg
327.341	0.514	Blank	Blank	60.245	n/a	3	8	15	n/a	35	n/a	1	n/a	n/a	n/a	n/a	361.033	n/a
327.871	0.497	neutral	Picture	59.73	n/a	3	8	16	n/a	36	13	1	n/a	n/a	n/a	n/a	361.563	BF22NES.jpg
328.369	0.514	Blank	Blank	59.217	n/a	3	8	16	n/a	36	n/a	1	n/a	n/a	n/a	n/a	362.061	n/a
328.899	0.497	neutral	Picture	58.703	n/a	3	8	17	n/a	37	12	1	n/a	n/a	n/a	n/a	362.591	AF21NES.jpg
329.397	0.514	Blank	Blank	58.189	n/a	3	8	17	n/a	37	n/a	1	n/a	n/a	n/a	n/a	363.089	n/a
329.927	0.497	neutral	Picture	57.675	n/a	3	8	18	n/a	38	24	1	n/a	n/a	n/a	n/a	363.619	BM05NES.jpg
330.425	0.514	Blank	Blank	57.161	n/a	3	8	18	n/a	38	n/a	1	n/a	n/a	n/a	n/a	364.116	n/a
330.955	0.497	neutral	Picture	56.647	n/a	3	8	19	n/a	39	29	1	n/a	n/a	n/a	n/a	364.647	AM10NES.jpg
331.452	0.514	Blank	Blank	56.133	n/a	3	8	19	n/a	39	n/a	1	n/a	n/a	n/a	n/a	365.144	n/a
331.983	0.497	neutral	Picture	55.619	n/a	3	8	20	n/a	40	23	1	n/a	n/a	n/a	n/a	365.675	AM04NES.jpg
332.48	0.514	Blank	Blank	55.105	n/a	3	8	20	n/a	40	n/a	1	n/a	n/a	n/a	n/a	366.172	n/a
333.011	10.014	ITI	Fixation+	45.075	n/a	3	n/a	n/a	n/a	n/a	n/a	n/a	n/a	n/a	n/a	n/a	366.703	n/a
343.041	0.497	happy	Picture	44.561	n/a	3	9	1	n/a	41	62	2	n/a	n/a	n/a	n/a	376.733	BM03HAS.jpg
343.538	0.514	Blank	Blank	44.047	n/a	3	9	1	n/a	41	n/a	2	n/a	n/a	n/a	n/a	377.23	n/a
344.069	0.497	happy	Picture	43.533	n/a	3	9	2	n/a	42	52	2	n/a	n/a	n/a	n/a	377.761	AF21HAS.jpg
344.566	0.514	Blank	Blank	43.019	n/a	3	9	2	n/a	42	n/a	2	n/a	n/a	n/a	n/a	378.258	n/a
345.097	0.497	happy	Picture	42.505	n/a	3	9	3	n/a	43	44	2	n/a	n/a	n/a	n/a	378.789	AF05HAS.jpg
345.594	0.514	Blank	Blank	41.991	n/a	3	9	3	n/a	43	n/a	2	n/a	n/a	n/a	n/a	379.286	n/a
346.125	0.497	happy	Picture	41.477	n/a	3	9	4	n/a	44	53	2	n/a	n/a	n/a	n/a	379.817	BF22HAS.jpg
346.622	0.514	Blank	Blank	40.963	n/a	3	9	4	n/a	44	n/a	2	n/a	n/a	n/a	n/a	380.314	n/a
347.153	0.497	happy	Picture	40.449	n/a	3	9	5	n/a	45	54	2	n/a	n/a	n/a	n/a	380.844	AF23HAS.jpg
347.65	0.514	Blank	Blank	39.935	n/a	3	9	5	n/a	45	n/a	2	n/a	n/a	n/a	n/a	381.342	n/a
348.181	0.497	happy	Picture	39.421	n/a	3	9	6	n/a	46	68	2	n/a	n/a	n/a	n/a	381.872	AM09HAS.jpg
348.678	0.514	Blank	Blank	38.908	n/a	3	9	6	n/a	46	n/a	2	n/a	n/a	n/a	n/a	382.37	n/a
349.208	0.497	happy	Picture	38.393	n/a	3	9	7	n/a	47	64	2	n/a	n/a	n/a	n/a	382.9	BM05HAS.jpg
349.706	0.514	Blank	Blank	37.88	n/a	3	9	7	n/a	47	n/a	2	n/a	n/a	n/a	n/a	383.398	n/a
350.236	0.497	happy	Picture	37.366	n/a	3	9	8	n/a	48	59	2	n/a	n/a	n/a	n/a	383.928	AF31HAS.jpg
350.734	0.514	Blank	Blank	36.852	n/a	3	9	8	n/a	48	n/a	2	n/a	n/a	n/a	n/a	384.425	n/a
351.264	0.497	happy	Picture	36.338	n/a	3	9	9	n/a	49	41	2	n/a	n/a	n/a	n/a	384.956	AF01HAS.jpg
351.762	0.514	Blank	Blank	35.824	n/a	3	9	9	n/a	49	n/a	2	n/a	n/a	n/a	n/a	385.453	n/a
352.292	0.497	happy	Picture	35.31	n/a	3	9	10	n/a	50	73	2	n/a	n/a	n/a	n/a	385.984	AM21HAS.jpg
352.789	0.514	Blank	Blank	34.796	n/a	3	9	10	n/a	50	n/a	2	n/a	n/a	n/a	n/a	386.481	n/a
353.32	0.497	happy	Picture	34.282	n/a	3	9	11	n/a	51	65	2	n/a	n/a	n/a	n/a	387.012	BM06HAS.jpg
353.817	0.514	Blank	Blank	33.768	n/a	3	9	11	n/a	51	n/a	2	n/a	n/a	n/a	n/a	387.509	n/a
354.348	0.497	happy	Picture	33.254	n/a	3	9	12	n/a	52	56	2	n/a	n/a	n/a	n/a	388.04	AF26HAS.jpg
354.845	0.514	Blank	Blank	32.74	n/a	3	9	12	n/a	52	n/a	2	n/a	n/a	n/a	n/a	388.537	n/a
355.376	0.497	happy	Picture	32.226	n/a	3	9	13	n/a	53	45	2	n/a	n/a	n/a	n/a	389.068	BF07HAS.jpg
355.873	0.514	Blank	Blank	31.712	n/a	3	9	13	n/a	53	n/a	2	n/a	n/a	n/a	n/a	389.565	n/a
356.404	0.497	happy	Picture	31.198	n/a	3	9	14	n/a	54	78	2	n/a	n/a	n/a	n/a	390.096	BM26HAS.jpg
356.901	0.514	Blank	Blank	30.684	n/a	3	9	14	n/a	54	n/a	2	n/a	n/a	n/a	n/a	390.593	n/a
357.432	0.497	happy	Picture	30.17	n/a	3	9	15	n/a	55	50	2	n/a	n/a	n/a	n/a	391.123	AF18HAS.jpg
357.929	0.514	Blank	Blank	29.657	n/a	3	9	15	n/a	55	n/a	2	n/a	n/a	n/a	n/a	391.621	n/a
358.459	0.497	happy	Picture	29.142	n/a	3	9	16	n/a	56	47	2	n/a	n/a	n/a	n/a	392.151	BF11HAS.jpg
358.957	0.514	Blank	Blank	28.629	n/a	3	9	16	n/a	56	n/a	2	n/a	n/a	n/a	n/a	392.649	n/a
359.487	0.497	happy	Picture	28.115	n/a	3	9	17	n/a	57	77	2	n/a	n/a	n/a	n/a	393.179	BM25HAS.jpg
359.985	0.514	Blank	Blank	27.601	n/a	3	9	17	n/a	57	n/a	2	n/a	n/a	n/a	n/a	393.677	n/a
360.515	0.497	happy	Picture	27.087	n/a	3	9	18	n/a	58	57	2	n/a	n/a	n/a	n/a	394.207	BF28HAS.jpg
361.013	0.514	Blank	Blank	26.573	n/a	3	9	18	n/a	58	n/a	2	n/a	n/a	n/a	n/a	394.704	n/a
361.543	0.497	happy	Picture	26.059	n/a	3	9	19	n/a	59	61	2	n/a	n/a	n/a	n/a	395.235	AM01HAS.jpg
362.04	0.514	Blank	Blank	25.545	n/a	3	9	19	n/a	59	n/a	2	n/a	n/a	n/a	n/a	395.732	n/a
362.571	0.497	happy	Picture	25.031	n/a	3	9	20	n/a	60	79	2	n/a	n/a	n/a	n/a	396.263	BM28HAS.jpg
363.068	0.514	Blank	Blank	24.517	n/a	3	9	20	n/a	60	n/a	2	n/a	n/a	n/a	n/a	396.76	n/a
363.599	10.014	ITI	Fixation+	14.487	n/a	3	n/a	n/a	n/a	n/a	n/a	n/a	n/a	n/a	n/a	n/a	397.291	n/a
388.099	n/a	ConfirmRating	Rate	n/a	14.473	3	n/a	n/a	0	n/a	n/a	n/a	2	Happy	12	12	421.791	n/a
401.938	n/a	ConfirmRating	Rate	n/a	13.827	3	n/a	n/a	1	n/a	n/a	n/a	3	Happy	94	94	435.63	n/a
401.962	10.014	ITI	Fixation+	94.823	n/a	4	n/a	n/a	n/a	n/a	n/a	n/a	n/a	n/a	n/a	n/a	435.654	n/a
411.993	0.497	angry	Picture	94.309	n/a	4	10	1	n/a	61	119	3	n/a	n/a	n/a	n/a	445.685	BM28ANS.jpg
412.49	0.514	Blank	Blank	93.795	n/a	4	10	1	n/a	61	n/a	3	n/a	n/a	n/a	n/a	446.182	n/a
413.021	0.497	angry	Picture	93.281	n/a	4	10	2	n/a	62	100	3	n/a	n/a	n/a	n/a	446.712	AF32ANS.jpg
413.518	0.514	Blank	Blank	92.767	n/a	4	10	2	n/a	62	n/a	3	n/a	n/a	n/a	n/a	447.21	n/a
414.048	0.497	angry	Picture	92.253	n/a	4	10	3	n/a	63	118	3	n/a	n/a	n/a	n/a	447.74	BM26ANS.jpg
414.546	0.514	Blank	Blank	91.739	n/a	4	10	3	n/a	63	n/a	3	n/a	n/a	n/a	n/a	448.238	n/a
415.076	0.497	angry	Picture	91.226	n/a	4	10	4	n/a	64	89	3	n/a	n/a	n/a	n/a	448.768	AF17ANS.jpg
415.574	0.514	Blank	Blank	90.712	n/a	4	10	4	n/a	64	n/a	3	n/a	n/a	n/a	n/a	449.265	n/a
416.104	0.497	angry	Picture	90.198	n/a	4	10	5	n/a	65	116	3	n/a	n/a	n/a	n/a	449.796	BM24ANS.jpg
416.602	0.514	Blank	Blank	89.684	n/a	4	10	5	n/a	65	n/a	3	n/a	n/a	n/a	n/a	450.293	n/a
417.132	0.497	angry	Picture	89.17	n/a	4	10	6	n/a	66	105	3	n/a	n/a	n/a	n/a	450.824	BM06ANS.jpg
417.629	0.514	Blank	Blank	88.656	n/a	4	10	6	n/a	66	n/a	3	n/a	n/a	n/a	n/a	451.321	n/a
418.16	0.497	angry	Picture	88.142	n/a	4	10	7	n/a	67	106	3	n/a	n/a	n/a	n/a	451.852	AM07ANS.jpg
418.657	0.514	Blank	Blank	87.628	n/a	4	10	7	n/a	67	n/a	3	n/a	n/a	n/a	n/a	452.349	n/a
419.188	0.497	angry	Picture	87.114	n/a	4	10	8	n/a	68	94	3	n/a	n/a	n/a	n/a	452.88	AF23ANS.jpg
419.685	0.514	Blank	Blank	86.6	n/a	4	10	8	n/a	68	n/a	3	n/a	n/a	n/a	n/a	453.377	n/a
420.216	0.497	angry	Picture	86.086	n/a	4	10	9	n/a	69	117	3	n/a	n/a	n/a	n/a	453.908	BM25ANS.jpg
420.713	0.514	Blank	Blank	85.572	n/a	4	10	9	n/a	69	n/a	3	n/a	n/a	n/a	n/a	454.405	n/a
421.244	0.497	angry	Picture	85.058	n/a	4	10	10	n/a	70	90	3	n/a	n/a	n/a	n/a	454.935	AF18ANS.jpg
421.741	0.514	Blank	Blank	84.544	n/a	4	10	10	n/a	70	n/a	3	n/a	n/a	n/a	n/a	455.433	n/a
422.272	0.497	angry	Picture	84.03	n/a	4	10	11	n/a	71	83	3	n/a	n/a	n/a	n/a	455.963	BF04ANS.jpg
422.769	0.514	Blank	Blank	83.516	n/a	4	10	11	n/a	71	n/a	3	n/a	n/a	n/a	n/a	456.461	n/a
423.299	0.497	angry	Picture	83.002	n/a	4	10	12	n/a	72	112	3	n/a	n/a	n/a	n/a	456.991	AM14ANS.jpg
423.797	0.514	Blank	Blank	82.488	n/a	4	10	12	n/a	72	n/a	3	n/a	n/a	n/a	n/a	457.489	n/a
424.327	0.497	angry	Picture	81.974	n/a	4	10	13	n/a	73	102	3	n/a	n/a	n/a	n/a	458.019	BM03ANS.jpg
424.825	0.514	Blank	Blank	81.46	n/a	4	10	13	n/a	73	n/a	3	n/a	n/a	n/a	n/a	458.517	n/a
425.355	0.497	angry	Picture	80.947	n/a	4	10	14	n/a	74	95	3	n/a	n/a	n/a	n/a	459.047	AF25ANS.jpg
425.853	0.514	Blank	Blank	80.433	n/a	4	10	14	n/a	74	n/a	3	n/a	n/a	n/a	n/a	459.544	n/a
426.383	0.497	angry	Picture	79.919	n/a	4	10	15	n/a	75	113	3	n/a	n/a	n/a	n/a	460.075	AM21ANS.jpg
426.88	0.514	Blank	Blank	79.405	n/a	4	10	15	n/a	75	n/a	3	n/a	n/a	n/a	n/a	460.572	n/a
427.411	0.497	angry	Picture	78.891	n/a	4	10	16	n/a	76	88	3	n/a	n/a	n/a	n/a	461.103	AF14ANS.jpg
427.908	0.514	Blank	Blank	78.377	n/a	4	10	16	n/a	76	n/a	3	n/a	n/a	n/a	n/a	461.6	n/a
428.439	0.497	angry	Picture	77.863	n/a	4	10	17	n/a	77	93	3	n/a	n/a	n/a	n/a	462.131	BF22ANS.jpg
428.936	0.514	Blank	Blank	77.349	n/a	4	10	17	n/a	77	n/a	3	n/a	n/a	n/a	n/a	462.628	n/a
429.467	0.497	angry	Picture	76.835	n/a	4	10	18	n/a	78	86	3	n/a	n/a	n/a	n/a	463.159	AF09ANS.jpg
429.964	0.514	Blank	Blank	76.321	n/a	4	10	18	n/a	78	n/a	3	n/a	n/a	n/a	n/a	463.656	n/a
430.495	0.497	angry	Picture	75.807	n/a	4	10	19	n/a	79	92	3	n/a	n/a	n/a	n/a	464.187	AF21ANS.jpg
430.992	0.514	Blank	Blank	75.293	n/a	4	10	19	n/a	79	n/a	3	n/a	n/a	n/a	n/a	464.684	n/a
431.523	0.497	angry	Picture	74.779	n/a	4	10	20	n/a	80	84	3	n/a	n/a	n/a	n/a	465.214	AF05ANS.jpg
432.02	0.514	Blank	Blank	74.265	n/a	4	10	20	n/a	80	n/a	3	n/a	n/a	n/a	n/a	465.712	n/a
432.55	10.014	ITI	Fixation+	64.235	n/a	4	n/a	n/a	n/a	n/a	n/a	n/a	n/a	n/a	n/a	n/a	466.242	n/a
442.581	0.497	neutral	Picture	63.721	n/a	4	11	1	n/a	81	4	1	n/a	n/a	n/a	n/a	476.272	AF05NES.jpg
443.078	0.514	Blank	Blank	63.207	n/a	4	11	1	n/a	81	n/a	1	n/a	n/a	n/a	n/a	476.77	n/a
443.609	0.497	neutral	Picture	62.693	n/a	4	11	2	n/a	82	14	1	n/a	n/a	n/a	n/a	477.3	AF23NES.jpg
444.106	0.514	Blank	Blank	62.179	n/a	4	11	2	n/a	82	n/a	1	n/a	n/a	n/a	n/a	477.798	n/a
444.636	0.497	neutral	Picture	61.665	n/a	4	11	3	n/a	83	19	1	n/a	n/a	n/a	n/a	478.328	AF31NES.jpg
445.134	0.514	Blank	Blank	61.151	n/a	4	11	3	n/a	83	n/a	1	n/a	n/a	n/a	n/a	478.826	n/a
445.664	0.497	neutral	Picture	60.637	n/a	4	11	4	n/a	84	8	1	n/a	n/a	n/a	n/a	479.356	AF14NES.jpg
446.162	0.514	Blank	Blank	60.123	n/a	4	11	4	n/a	84	n/a	1	n/a	n/a	n/a	n/a	479.853	n/a
446.692	0.497	neutral	Picture	59.61	n/a	4	11	5	n/a	85	25	1	n/a	n/a	n/a	n/a	480.384	BM06NES.jpg
447.19	0.514	Blank	Blank	59.096	n/a	4	11	5	n/a	85	n/a	1	n/a	n/a	n/a	n/a	480.881	n/a
447.72	0.497	neutral	Picture	58.582	n/a	4	11	6	n/a	86	9	1	n/a	n/a	n/a	n/a	481.412	AF17NES.jpg
448.217	0.514	Blank	Blank	58.068	n/a	4	11	6	n/a	86	n/a	1	n/a	n/a	n/a	n/a	481.909	n/a
448.748	0.497	neutral	Picture	57.554	n/a	4	11	7	n/a	87	2	1	n/a	n/a	n/a	n/a	482.44	AF03NES.jpg
449.245	0.514	Blank	Blank	57.04	n/a	4	11	7	n/a	87	n/a	1	n/a	n/a	n/a	n/a	482.937	n/a
449.776	0.497	neutral	Picture	56.526	n/a	4	11	8	n/a	88	17	1	n/a	n/a	n/a	n/a	483.468	BF28NES.jpg
450.273	0.514	Blank	Blank	56.012	n/a	4	11	8	n/a	88	n/a	1	n/a	n/a	n/a	n/a	483.965	n/a
450.804	0.497	neutral	Picture	55.498	n/a	4	11	9	n/a	89	6	1	n/a	n/a	n/a	n/a	484.496	AF09NES.jpg
451.301	0.514	Blank	Blank	54.984	n/a	4	11	9	n/a	89	n/a	1	n/a	n/a	n/a	n/a	484.993	n/a
451.832	0.497	neutral	Picture	54.47	n/a	4	11	10	n/a	90	12	1	n/a	n/a	n/a	n/a	485.524	AF21NES.jpg
452.329	0.514	Blank	Blank	53.956	n/a	4	11	10	n/a	90	n/a	1	n/a	n/a	n/a	n/a	486.021	n/a
452.86	0.497	neutral	Picture	53.442	n/a	4	11	11	n/a	91	24	1	n/a	n/a	n/a	n/a	486.551	BM05NES.jpg
453.357	0.514	Blank	Blank	52.928	n/a	4	11	11	n/a	91	n/a	1	n/a	n/a	n/a	n/a	487.049	n/a
453.887	0.497	neutral	Picture	52.414	n/a	4	11	12	n/a	92	34	1	n/a	n/a	n/a	n/a	487.579	AM22NES.jpg
454.385	0.514	Blank	Blank	51.9	n/a	4	11	12	n/a	92	n/a	1	n/a	n/a	n/a	n/a	488.077	n/a
454.915	0.497	neutral	Picture	51.387	n/a	4	11	13	n/a	93	23	1	n/a	n/a	n/a	n/a	488.607	AM04NES.jpg
455.413	0.514	Blank	Blank	50.873	n/a	4	11	13	n/a	93	n/a	1	n/a	n/a	n/a	n/a	489.104	n/a
455.943	0.497	neutral	Picture	50.359	n/a	4	11	14	n/a	94	15	1	n/a	n/a	n/a	n/a	489.635	AF25NES.jpg
456.441	0.514	Blank	Blank	49.845	n/a	4	11	14	n/a	94	n/a	1	n/a	n/a	n/a	n/a	490.132	n/a
456.971	0.497	neutral	Picture	49.331	n/a	4	11	15	n/a	95	37	1	n/a	n/a	n/a	n/a	490.663	BM25NES.jpg
457.468	0.514	Blank	Blank	48.817	n/a	4	11	15	n/a	95	n/a	1	n/a	n/a	n/a	n/a	491.16	n/a
457.999	0.497	neutral	Picture	48.303	n/a	4	11	16	n/a	96	32	1	n/a	n/a	n/a	n/a	491.691	AM14NES.jpg
458.496	0.514	Blank	Blank	47.789	n/a	4	11	16	n/a	96	n/a	1	n/a	n/a	n/a	n/a	492.188	n/a
459.027	0.497	neutral	Picture	47.275	n/a	4	11	17	n/a	97	3	1	n/a	n/a	n/a	n/a	492.719	BF04NES.jpg
459.524	0.514	Blank	Blank	46.761	n/a	4	11	17	n/a	97	n/a	1	n/a	n/a	n/a	n/a	493.216	n/a
460.055	0.497	neutral	Picture	46.247	n/a	4	11	18	n/a	98	16	1	n/a	n/a	n/a	n/a	493.747	AF26NES.jpg
460.552	0.514	Blank	Blank	45.733	n/a	4	11	18	n/a	98	n/a	1	n/a	n/a	n/a	n/a	494.244	n/a
461.083	0.497	neutral	Picture	45.219	n/a	4	11	19	n/a	99	27	1	n/a	n/a	n/a	n/a	494.774	BM08NES.jpg
461.58	0.514	Blank	Blank	44.705	n/a	4	11	19	n/a	99	n/a	1	n/a	n/a	n/a	n/a	495.272	n/a
462.111	0.497	neutral	Picture	44.191	n/a	4	11	20	n/a	100	28	1	n/a	n/a	n/a	n/a	495.802	AM09NES.jpg
462.608	0.514	Blank	Blank	43.677	n/a	4	11	20	n/a	100	n/a	1	n/a	n/a	n/a	n/a	496.3	n/a
463.138	10.014	ITI	Fixation+	33.647	n/a	4	n/a	n/a	n/a	n/a	n/a	n/a	n/a	n/a	n/a	n/a	496.83	n/a
473.169	0.497	angry	Picture	33.133	n/a	4	12	1	n/a	101	81	3	n/a	n/a	n/a	n/a	506.861	AF01ANS.jpg
473.666	0.514	Blank	Blank	32.619	n/a	4	12	1	n/a	101	n/a	3	n/a	n/a	n/a	n/a	507.358	n/a
474.197	0.497	angry	Picture	32.105	n/a	4	12	2	n/a	102	120	3	n/a	n/a	n/a	n/a	507.888	AM35ANS.jpg
474.694	0.514	Blank	Blank	31.591	n/a	4	12	2	n/a	102	n/a	3	n/a	n/a	n/a	n/a	508.386	n/a
475.224	0.497	angry	Picture	31.077	n/a	4	12	3	n/a	103	114	3	n/a	n/a	n/a	n/a	508.916	AM22ANS.jpg
475.722	0.514	Blank	Blank	30.563	n/a	4	12	3	n/a	103	n/a	3	n/a	n/a	n/a	n/a	509.414	n/a
476.252	0.497	angry	Picture	30.049	n/a	4	12	4	n/a	104	109	3	n/a	n/a	n/a	n/a	509.944	AM10ANS.jpg
476.75	0.514	Blank	Blank	29.536	n/a	4	12	4	n/a	104	n/a	3	n/a	n/a	n/a	n/a	510.442	n/a
477.28	0.497	angry	Picture	29.022	n/a	4	12	5	n/a	105	96	3	n/a	n/a	n/a	n/a	510.972	AF26ANS.jpg
477.778	0.514	Blank	Blank	28.508	n/a	4	12	5	n/a	105	n/a	3	n/a	n/a	n/a	n/a	511.469	n/a
478.308	0.497	angry	Picture	27.994	n/a	4	12	6	n/a	106	82	3	n/a	n/a	n/a	n/a	512.0	AF03ANS.jpg
478.805	0.514	Blank	Blank	27.48	n/a	4	12	6	n/a	106	n/a	3	n/a	n/a	n/a	n/a	512.497	n/a
479.336	0.497	angry	Picture	26.966	n/a	4	12	7	n/a	107	97	3	n/a	n/a	n/a	n/a	513.028	BF28ANS.jpg
479.833	0.514	Blank	Blank	26.452	n/a	4	12	7	n/a	107	n/a	3	n/a	n/a	n/a	n/a	513.525	n/a
480.364	0.497	angry	Picture	25.938	n/a	4	12	8	n/a	108	115	3	n/a	n/a	n/a	n/a	514.056	AM23ANS.jpg
480.861	0.514	Blank	Blank	25.424	n/a	4	12	8	n/a	108	n/a	3	n/a	n/a	n/a	n/a	514.553	n/a
481.392	0.497	angry	Picture	24.91	n/a	4	12	9	n/a	109	91	3	n/a	n/a	n/a	n/a	515.084	AF20ANS.jpg
481.889	0.514	Blank	Blank	24.396	n/a	4	12	9	n/a	109	n/a	3	n/a	n/a	n/a	n/a	515.581	n/a
482.42	0.497	angry	Picture	23.882	n/a	4	12	10	n/a	110	87	3	n/a	n/a	n/a	n/a	516.111	BF11ANS.jpg
482.917	0.514	Blank	Blank	23.368	n/a	4	12	10	n/a	110	n/a	3	n/a	n/a	n/a	n/a	516.609	n/a
483.448	0.497	angry	Picture	22.854	n/a	4	12	11	n/a	111	85	3	n/a	n/a	n/a	n/a	517.139	BF07ANS.jpg
483.945	0.514	Blank	Blank	22.34	n/a	4	12	11	n/a	111	n/a	3	n/a	n/a	n/a	n/a	517.637	n/a
484.475	0.497	angry	Picture	21.826	n/a	4	12	12	n/a	112	110	3	n/a	n/a	n/a	n/a	518.167	AM11ANS.jpg
484.973	0.514	Blank	Blank	21.312	n/a	4	12	12	n/a	112	n/a	3	n/a	n/a	n/a	n/a	518.665	n/a
485.503	0.497	angry	Picture	20.798	n/a	4	12	13	n/a	113	111	3	n/a	n/a	n/a	n/a	519.195	BM12ANS.jpg
486.001	0.514	Blank	Blank	20.285	n/a	4	12	13	n/a	113	n/a	3	n/a	n/a	n/a	n/a	519.693	n/a
486.531	0.497	angry	Picture	19.77	n/a	4	12	14	n/a	114	103	3	n/a	n/a	n/a	n/a	520.223	AM04ANS.jpg
487.029	0.514	Blank	Blank	19.257	n/a	4	12	14	n/a	114	n/a	3	n/a	n/a	n/a	n/a	520.721	n/a
487.559	0.497	angry	Picture	18.743	n/a	4	12	15	n/a	115	101	3	n/a	n/a	n/a	n/a	521.251	AM01ANS.jpg
488.056	0.514	Blank	Blank	18.229	n/a	4	12	15	n/a	115	n/a	3	n/a	n/a	n/a	n/a	521.748	n/a
488.587	0.497	angry	Picture	17.715	n/a	4	12	16	n/a	116	104	3	n/a	n/a	n/a	n/a	522.279	BM05ANS.jpg
489.084	0.514	Blank	Blank	17.201	n/a	4	12	16	n/a	116	n/a	3	n/a	n/a	n/a	n/a	522.776	n/a
489.615	0.497	angry	Picture	16.687	n/a	4	12	17	n/a	117	107	3	n/a	n/a	n/a	n/a	523.307	BM08ANS.jpg
490.112	0.514	Blank	Blank	16.173	n/a	4	12	17	n/a	117	n/a	3	n/a	n/a	n/a	n/a	523.804	n/a
490.643	0.497	angry	Picture	15.659	n/a	4	12	18	n/a	118	98	3	n/a	n/a	n/a	n/a	524.335	BF29ANS.jpg
491.14	0.514	Blank	Blank	15.145	n/a	4	12	18	n/a	118	n/a	3	n/a	n/a	n/a	n/a	524.832	n/a
491.671	0.497	angry	Picture	14.631	n/a	4	12	19	n/a	119	99	3	n/a	n/a	n/a	n/a	525.362	AF31ANS.jpg
492.168	0.514	Blank	Blank	14.117	n/a	4	12	19	n/a	119	n/a	3	n/a	n/a	n/a	n/a	525.86	n/a
492.699	0.497	angry	Picture	13.603	n/a	4	12	20	n/a	120	108	3	n/a	n/a	n/a	n/a	526.39	AM09ANS.jpg
493.196	0.514	Blank	Blank	13.089	n/a	4	12	20	n/a	120	n/a	3	n/a	n/a	n/a	n/a	526.888	n/a
493.726	10.014	ITI	Fixation+	3.059	n/a	4	n/a	n/a	n/a	n/a	n/a	n/a	n/a	n/a	n/a	n/a	527.418	n/a
506.799	n/a	ConfirmRating	Rate	n/a	3.051	4	n/a	n/a	0	n/a	n/a	n/a	2	Angry	50	50	540.491	n/a
508.221	n/a	ConfirmRating	Rate	n/a	1.409	4	n/a	n/a	1	n/a	n/a	n/a	3	Angry	50	50	541.913	n/a
