onset	duration	trial_type	trial_number	event_type	cue_to_participant	stimulus_type	time_until_response	rated_success_of_regulation	onset_uncorrected
0.009	10.014	Instruction	-1	Picture	Instruction	n/a	n/a	n/a	28.195
10.04	5.007	ITI	0	Picture	Fixation+	1	11.376	n/a	38.226
15.063	2.006	Cue	0	Picture	Maintain	1	9.354	n/a	43.249
17.069	4.99	Pic	0	Picture	IAPS_01	1	4.364	n/a	45.255
22.059	2.006	Blank	0	Picture	BLANK	1	2.358	n/a	50.245
26.423	n/a	ConfirmRating	0	Response	n/a	1	n/a	7	54.609
26.453	6.002	ITI	1	Picture	Fixation+	2	10.798	n/a	54.639
32.471	2.006	Cue	1	Picture	Enhance	2	8.775	n/a	60.657
34.477	4.99	Pic	1	Picture	IAPS_26	2	3.785	n/a	62.663
39.467	2.006	Blank	1	Picture	BLANK	2	1.779	n/a	67.653
43.252	n/a	ConfirmRating	1	Response	n/a	2	n/a	6	71.438
43.28	4.012	ITI	2	Picture	Fixation+	3	13.591	n/a	71.466
47.309	2.006	Cue	2	Picture	Suppress	3	11.569	n/a	75.495
49.315	4.99	Pic	2	Picture	IAPS_36	3	6.578	n/a	77.501
54.305	2.006	Blank	2	Picture	BLANK	3	4.572	n/a	82.491
60.884	n/a	ConfirmRating	2	Response	n/a	3	n/a	4	89.07
60.904	5.007	ITI	3	Picture	Fixation+	4	10.833	n/a	89.09
65.927	2.006	Cue	3	Picture	Maintain	4	8.81	n/a	94.113
67.933	4.99	Pic	3	Picture	IAPS_46	4	3.82	n/a	96.119
72.923	2.006	Blank	3	Picture	BLANK	4	1.814	n/a	101.109
76.743	n/a	ConfirmRating	3	Response	n/a	4	n/a	7	104.929
76.769	5.007	ITI	4	Picture	Fixation+	4	10.34	n/a	104.956
81.793	2.006	Cue	4	Picture	Maintain	4	8.317	n/a	109.979
83.799	4.99	Pic	4	Picture	IAPS_49	4	3.327	n/a	111.985
88.789	2.006	Blank	4	Picture	BLANK	4	1.321	n/a	116.975
92.116	n/a	ConfirmRating	4	Response	n/a	4	n/a	7	120.302
92.138	6.002	ITI	5	Picture	Fixation+	2	10.32	n/a	120.324
98.156	2.006	Cue	5	Picture	Enhance	2	8.298	n/a	126.342
100.162	4.99	Pic	5	Picture	IAPS_27	2	3.307	n/a	128.348
105.153	2.006	Blank	5	Picture	BLANK	2	1.301	n/a	133.339
108.46	n/a	ConfirmRating	5	Response	n/a	2	n/a	6	136.646
108.485	4.012	ITI	6	Picture	Fixation+	1	10.81	n/a	136.671
112.514	2.006	Cue	6	Picture	Maintain	1	8.787	n/a	140.7
114.52	4.99	Pic	6	Picture	IAPS_02	1	3.797	n/a	142.706
119.51	2.006	Blank	6	Picture	BLANK	1	1.791	n/a	147.696
123.307	n/a	ConfirmRating	6	Response	n/a	1	n/a	7	151.493
123.34	6.002	ITI	7	Picture	Fixation+	3	10.688	n/a	151.526
129.358	2.006	Cue	7	Picture	Suppress	3	8.665	n/a	157.544
131.364	4.99	Pic	7	Picture	IAPS_37	3	3.675	n/a	159.55
136.354	2.006	Blank	7	Picture	BLANK	3	1.669	n/a	164.54
140.029	n/a	ConfirmRating	7	Response	n/a	3	n/a	6	168.215
140.051	5.007	ITI	8	Picture	Fixation+	4	10.802	n/a	168.237
145.075	2.006	Cue	8	Picture	Maintain	4	8.779	n/a	173.261
147.081	4.99	Pic	8	Picture	IAPS_52	4	3.789	n/a	175.267
152.071	2.006	Blank	8	Picture	BLANK	4	1.783	n/a	180.257
155.859	n/a	ConfirmRating	8	Response	n/a	4	n/a	7	184.046
155.884	6.002	ITI	9	Picture	Fixation+	1	10.476	n/a	184.07
161.902	2.006	Cue	9	Picture	Maintain	1	8.453	n/a	190.088
163.908	4.99	Pic	9	Picture	IAPS_03	1	3.463	n/a	192.094
168.898	2.006	Blank	9	Picture	BLANK	1	1.457	n/a	197.084
172.361	n/a	ConfirmRating	9	Response	n/a	1	n/a	7	200.547
172.38	5.007	ITI	10	Picture	Fixation+	2	10.667	n/a	200.566
177.403	2.006	Cue	10	Picture	Enhance	2	8.645	n/a	205.589
179.409	4.99	Pic	10	Picture	IAPS_28	2	3.655	n/a	207.595
184.4	2.006	Blank	10	Picture	BLANK	2	1.649	n/a	212.586
188.054	n/a	ConfirmRating	10	Response	n/a	2	n/a	6	216.24
188.08	4.012	ITI	11	Picture	Fixation+	3	12.694	n/a	216.266
192.109	2.006	Cue	11	Picture	Suppress	3	10.671	n/a	220.295
194.115	4.99	Pic	11	Picture	IAPS_38	3	5.681	n/a	222.301
199.105	2.006	Blank	11	Picture	BLANK	3	3.675	n/a	227.291
204.786	n/a	ConfirmRating	11	Response	n/a	3	n/a	5	232.972
204.808	6.002	ITI	12	Picture	Fixation+	2	10.37	n/a	232.994
210.826	2.006	Cue	12	Picture	Enhance	2	8.348	n/a	239.012
212.832	4.99	Pic	12	Picture	IAPS_29	2	3.357	n/a	241.018
217.823	2.006	Blank	12	Picture	BLANK	2	1.351	n/a	246.009
221.18	n/a	ConfirmRating	12	Response	n/a	2	n/a	5	249.366
221.205	5.007	ITI	13	Picture	Fixation+	1	13.011	n/a	249.391
226.228	2.006	Cue	13	Picture	Maintain	1	10.989	n/a	254.414
228.234	4.99	Pic	13	Picture	IAPS_04	1	5.998	n/a	256.42
233.224	2.006	Blank	13	Picture	BLANK	1	3.992	n/a	261.41
239.223	n/a	ConfirmRating	13	Response	n/a	1	n/a	7	267.409
239.242	4.012	ITI	14	Picture	Fixation+	4	10.619	n/a	267.428
243.271	2.006	Cue	14	Picture	Maintain	4	8.596	n/a	271.457
245.277	4.99	Pic	14	Picture	IAPS_55	4	3.606	n/a	273.463
250.267	2.006	Blank	14	Picture	BLANK	4	1.6	n/a	278.453
253.874	n/a	ConfirmRating	14	Response	n/a	4	n/a	7	282.06
253.898	5.007	ITI	15	Picture	Fixation+	3	10.786	n/a	282.084
258.922	2.006	Cue	15	Picture	Suppress	3	8.764	n/a	287.108
260.928	4.99	Pic	15	Picture	IAPS_39	3	3.773	n/a	289.114
265.918	2.006	Blank	15	Picture	BLANK	3	1.767	n/a	294.104
269.691	n/a	ConfirmRating	15	Response	n/a	3	n/a	5	297.877
269.714	6.002	ITI	16	Picture	Fixation+	2	10.131	n/a	297.9
275.733	2.006	Cue	16	Picture	Enhance	2	8.109	n/a	303.919
277.739	4.99	Pic	16	Picture	IAPS_30	2	3.118	n/a	305.925
282.729	2.006	Blank	16	Picture	BLANK	2	1.112	n/a	310.915
285.847	n/a	ConfirmRating	16	Response	n/a	2	n/a	5	314.033
285.879	6.002	ITI	17	Picture	Fixation+	1	10.914	n/a	314.065
291.897	2.006	Cue	17	Picture	Maintain	1	8.891	n/a	320.083
293.903	4.99	Pic	17	Picture	IAPS_05	1	3.901	n/a	322.089
298.893	2.006	Blank	17	Picture	BLANK	1	1.895	n/a	327.079
302.794	n/a	ConfirmRating	17	Response	n/a	1	n/a	7	330.98
302.823	4.012	ITI	18	Picture	Fixation+	3	10.225	n/a	331.009
306.851	2.006	Cue	18	Picture	Suppress	3	8.203	n/a	335.037
308.857	4.99	Pic	18	Picture	IAPS_40	3	3.212	n/a	337.043
313.847	2.006	Blank	18	Picture	BLANK	3	1.206	n/a	342.033
317.06	n/a	ConfirmRating	18	Response	n/a	3	n/a	0	345.246
317.08	5.007	ITI	19	Picture	Fixation+	4	10.543	n/a	345.266
322.104	2.006	Cue	19	Picture	Maintain	4	8.52	n/a	350.29
324.11	4.99	Pic	19	Picture	IAPS_58	4	3.53	n/a	352.296
329.1	2.006	Blank	19	Picture	BLANK	4	1.524	n/a	357.286
332.63	n/a	ConfirmRating	19	Response	n/a	4	n/a	7	360.816
332.648	6.002	ITI	20	Picture	Fixation+	4	10.284	n/a	360.834
338.666	2.006	Cue	20	Picture	Maintain	4	8.262	n/a	366.852
340.672	4.99	Pic	20	Picture	IAPS_47	4	3.271	n/a	368.858
345.662	2.006	Blank	20	Picture	BLANK	4	1.265	n/a	373.848
348.934	n/a	ConfirmRating	20	Response	n/a	4	n/a	7	377.12
348.962	5.007	ITI	21	Picture	Fixation+	3	11.829	n/a	377.147
353.985	2.006	Cue	21	Picture	Suppress	3	9.806	n/a	382.171
355.991	4.99	Pic	21	Picture	IAPS_41	3	4.816	n/a	384.177
360.981	2.006	Blank	21	Picture	BLANK	3	2.81	n/a	389.167
365.797	n/a	ConfirmRating	21	Response	n/a	3	n/a	6	393.983
365.822	4.012	ITI	22	Picture	Fixation+	1	10.491	n/a	394.008
369.851	2.006	Cue	22	Picture	Maintain	1	8.468	n/a	398.037
371.857	4.99	Pic	22	Picture	IAPS_06	1	3.478	n/a	400.043
376.847	2.006	Blank	22	Picture	BLANK	1	1.472	n/a	405.033
380.325	n/a	ConfirmRating	22	Response	n/a	1	n/a	7	408.511
380.345	4.012	ITI	23	Picture	Fixation+	2	10.948	n/a	408.531
384.374	2.006	Cue	23	Picture	Enhance	2	8.925	n/a	412.56
386.38	4.99	Pic	23	Picture	IAPS_16	2	3.935	n/a	414.566
391.37	2.006	Blank	23	Picture	BLANK	2	1.929	n/a	419.556
395.305	n/a	ConfirmRating	23	Response	n/a	2	n/a	6	423.491
395.333	5.007	ITI	24	Picture	Fixation+	1	10.86	n/a	423.519
400.356	2.006	Cue	24	Picture	Maintain	1	8.837	n/a	428.542
402.362	4.99	Pic	24	Picture	IAPS_07	1	3.847	n/a	430.548
407.352	2.006	Blank	24	Picture	BLANK	1	1.841	n/a	435.538
411.199	n/a	ConfirmRating	24	Response	n/a	1	n/a	7	439.385
411.232	4.012	ITI	25	Picture	Fixation+	2	10.938	n/a	439.418
415.26	2.006	Cue	25	Picture	Enhance	2	8.915	n/a	443.446
417.266	4.99	Pic	25	Picture	IAPS_17	2	3.925	n/a	445.452
422.257	2.006	Blank	25	Picture	BLANK	2	1.919	n/a	450.443
426.182	n/a	ConfirmRating	25	Response	n/a	2	n/a	6	454.368
426.202	6.002	ITI	26	Picture	Fixation+	4	10.396	n/a	454.388
432.221	2.006	Cue	26	Picture	Maintain	4	8.373	n/a	460.407
434.227	4.99	Pic	26	Picture	IAPS_50	4	3.383	n/a	462.413
439.217	2.006	Blank	26	Picture	BLANK	4	1.377	n/a	467.403
442.6	n/a	ConfirmRating	26	Response	n/a	4	n/a	7	470.786
442.632	5.007	ITI	27	Picture	Fixation+	3	11.577	n/a	470.818
447.656	2.006	Cue	27	Picture	Suppress	3	9.555	n/a	475.841
449.662	4.99	Pic	27	Picture	IAPS_42	3	4.565	n/a	477.848
454.652	2.006	Blank	27	Picture	BLANK	3	2.559	n/a	482.838
459.216	n/a	ConfirmRating	27	Response	n/a	3	n/a	2	487.402
459.244	5.007	ITI	28	Picture	Fixation+	2	10.866	n/a	487.43
464.268	2.006	Cue	28	Picture	Enhance	2	8.844	n/a	492.454
466.274	4.99	Pic	28	Picture	IAPS_18	2	3.853	n/a	494.46
471.264	2.006	Blank	28	Picture	BLANK	2	1.847	n/a	499.45
475.117	n/a	ConfirmRating	28	Response	n/a	2	n/a	6	503.303
475.143	4.012	ITI	29	Picture	Fixation+	3	10.213	n/a	503.329
479.172	2.006	Cue	29	Picture	Suppress	3	8.19	n/a	507.358
481.178	4.99	Pic	29	Picture	IAPS_43	3	3.2	n/a	509.364
486.168	2.006	Blank	29	Picture	BLANK	3	1.194	n/a	514.354
489.368	n/a	ConfirmRating	29	Response	n/a	3	n/a	3	517.554
489.401	15.004	Rest	29	Picture	Rest	n/a	-15.037	n/a	517.587
504.422	5.007	ITI	30	Picture	Fixation+	4	10.768	n/a	532.608
509.445	2.006	Cue	30	Picture	Maintain	4	8.746	n/a	537.631
511.451	4.99	Pic	30	Picture	IAPS_53	4	3.755	n/a	539.637
516.441	2.006	Blank	30	Picture	BLANK	4	1.749	n/a	544.627
520.197	n/a	ConfirmRating	30	Response	n/a	4	n/a	7	548.383
520.221	6.002	ITI	31	Picture	Fixation+	1	11.153	n/a	548.407
526.239	2.006	Cue	31	Picture	Maintain	1	9.13	n/a	554.425
528.245	4.99	Pic	31	Picture	IAPS_08	1	4.14	n/a	556.431
533.236	2.006	Blank	31	Picture	BLANK	1	2.134	n/a	561.422
537.375	n/a	ConfirmRating	31	Response	n/a	1	n/a	7	565.562
537.397	4.012	ITI	32	Picture	Fixation+	3	11.58	n/a	565.583
541.426	2.006	Cue	32	Picture	Suppress	3	9.558	n/a	569.612
543.432	4.99	Pic	32	Picture	IAPS_44	3	4.567	n/a	571.618
548.422	2.006	Blank	32	Picture	BLANK	3	2.562	n/a	576.608
552.989	n/a	ConfirmRating	32	Response	n/a	3	n/a	6	581.175
553.014	5.007	ITI	33	Picture	Fixation+	1	13.698	n/a	581.2
558.038	2.006	Cue	33	Picture	Maintain	1	11.675	n/a	586.224
560.044	4.99	Pic	33	Picture	IAPS_09	1	6.685	n/a	588.23
565.034	2.006	Blank	33	Picture	BLANK	1	4.679	n/a	593.22
571.719	n/a	ConfirmRating	33	Response	n/a	1	n/a	6	599.905
571.748	4.012	ITI	34	Picture	Fixation+	2	10.709	n/a	599.934
575.777	2.006	Cue	34	Picture	Enhance	2	8.686	n/a	603.963
577.783	4.99	Pic	34	Picture	IAPS_19	2	3.696	n/a	605.969
582.773	2.006	Blank	34	Picture	BLANK	2	1.69	n/a	610.959
586.469	n/a	ConfirmRating	34	Response	n/a	2	n/a	6	614.655
586.487	6.002	ITI	35	Picture	Fixation+	4	10.768	n/a	614.673
592.505	2.006	Cue	35	Picture	Maintain	4	8.746	n/a	620.691
594.511	4.99	Pic	35	Picture	IAPS_56	4	3.755	n/a	622.697
599.501	2.006	Blank	35	Picture	BLANK	4	1.749	n/a	627.687
603.257	n/a	ConfirmRating	35	Response	n/a	4	n/a	7	631.443
603.281	5.007	ITI	36	Picture	Fixation+	3	9.986	n/a	631.467
608.305	2.006	Cue	36	Picture	Suppress	3	7.964	n/a	636.491
610.311	4.99	Pic	36	Picture	IAPS_45	3	2.974	n/a	638.497
615.301	2.006	Blank	36	Picture	BLANK	3	0.968	n/a	643.487
618.275	n/a	ConfirmRating	36	Response	n/a	3	n/a	5	646.461
618.302	6.002	ITI	37	Picture	Fixation+	4	10.569	n/a	646.488
624.32	2.006	Cue	37	Picture	Maintain	4	8.547	n/a	652.506
626.326	4.99	Pic	37	Picture	IAPS_59	4	3.556	n/a	654.512
631.316	2.006	Blank	37	Picture	BLANK	4	1.55	n/a	659.502
634.872	n/a	ConfirmRating	37	Response	n/a	4	n/a	7	663.058
634.897	5.007	ITI	38	Picture	Fixation+	2	10.536	n/a	663.083
639.921	2.006	Cue	38	Picture	Enhance	2	8.514	n/a	668.107
641.927	4.99	Pic	38	Picture	IAPS_20	2	3.523	n/a	670.113
646.917	2.006	Blank	38	Picture	BLANK	2	1.517	n/a	675.103
650.44	n/a	ConfirmRating	38	Response	n/a	2	n/a	5	678.626
650.465	4.012	ITI	39	Picture	Fixation+	1	10.513	n/a	678.651
654.493	2.006	Cue	39	Picture	Maintain	1	8.491	n/a	682.679
656.5	4.99	Pic	39	Picture	IAPS_10	1	3.5	n/a	684.686
661.49	2.006	Blank	39	Picture	BLANK	1	1.494	n/a	689.676
664.99	n/a	ConfirmRating	39	Response	n/a	1	n/a	7	693.176
665.021	6.002	ITI	40	Picture	Fixation+	4	10.297	n/a	693.207
671.039	2.006	Cue	40	Picture	Maintain	4	8.275	n/a	699.225
673.045	4.99	Pic	40	Picture	IAPS_48	4	3.284	n/a	701.231
678.035	2.006	Blank	40	Picture	BLANK	4	1.278	n/a	706.221
681.32	n/a	ConfirmRating	40	Response	n/a	4	n/a	7	709.506
681.351	5.007	ITI	41	Picture	Fixation+	3	10.15	n/a	709.537
686.375	2.006	Cue	41	Picture	Suppress	3	8.127	n/a	714.561
688.381	4.99	Pic	41	Picture	IAPS_31	3	3.137	n/a	716.567
693.371	2.006	Blank	41	Picture	BLANK	3	1.131	n/a	721.557
696.508	n/a	ConfirmRating	41	Response	n/a	3	n/a	5	724.694
696.537	6.002	ITI	42	Picture	Fixation+	2	10.476	n/a	724.723
702.556	2.006	Cue	42	Picture	Enhance	2	8.453	n/a	730.742
704.562	4.99	Pic	42	Picture	IAPS_21	2	3.463	n/a	732.748
709.552	2.006	Blank	42	Picture	BLANK	2	1.457	n/a	737.738
713.015	n/a	ConfirmRating	42	Response	n/a	2	n/a	7	741.201
713.034	4.012	ITI	43	Picture	Fixation+	1	10.508	n/a	741.22
717.062	2.006	Cue	43	Picture	Maintain	1	8.485	n/a	745.248
719.068	4.99	Pic	43	Picture	IAPS_11	1	3.495	n/a	747.254
724.058	2.006	Blank	43	Picture	BLANK	1	1.489	n/a	752.245
727.553	n/a	ConfirmRating	43	Response	n/a	1	n/a	7	755.74
727.573	5.007	ITI	44	Picture	Fixation+	2	10.123	n/a	755.759
732.597	2.006	Cue	44	Picture	Enhance	2	8.101	n/a	760.783
734.603	4.99	Pic	44	Picture	IAPS_22	2	3.111	n/a	762.789
739.593	2.006	Blank	44	Picture	BLANK	2	1.105	n/a	767.779
742.703	n/a	ConfirmRating	44	Response	n/a	2	n/a	6	770.889
742.726	5.007	ITI	45	Picture	Fixation+	4	10.717	n/a	770.912
747.75	2.006	Cue	45	Picture	Maintain	4	8.695	n/a	775.936
749.756	4.99	Pic	45	Picture	IAPS_51	4	3.704	n/a	777.942
754.746	2.006	Blank	45	Picture	BLANK	4	1.698	n/a	782.932
758.45	n/a	ConfirmRating	45	Response	n/a	4	n/a	7	786.636
758.476	4.012	ITI	46	Picture	Fixation+	3	10.735	n/a	786.662
762.505	2.006	Cue	46	Picture	Suppress	3	8.712	n/a	790.691
764.511	4.99	Pic	46	Picture	IAPS_32	3	3.722	n/a	792.697
769.501	2.006	Blank	46	Picture	BLANK	3	1.716	n/a	797.687
773.223	n/a	ConfirmRating	46	Response	n/a	3	n/a	5	801.409
773.248	5.007	ITI	47	Picture	Fixation+	1	11.116	n/a	801.434
778.271	2.006	Cue	47	Picture	Maintain	1	9.094	n/a	806.457
780.277	4.99	Pic	47	Picture	IAPS_12	1	4.103	n/a	808.463
785.268	2.006	Blank	47	Picture	BLANK	1	2.097	n/a	813.454
789.371	n/a	ConfirmRating	47	Response	n/a	1	n/a	7	817.557
789.396	4.012	ITI	48	Picture	Fixation+	3	12.095	n/a	817.582
793.424	2.006	Cue	48	Picture	Suppress	3	10.072	n/a	821.611
795.43	4.99	Pic	48	Picture	IAPS_33	3	5.082	n/a	823.616
800.421	2.006	Blank	48	Picture	BLANK	3	3.076	n/a	828.607
805.503	n/a	ConfirmRating	48	Response	n/a	3	n/a	7	833.689
805.527	5.007	ITI	49	Picture	Fixation+	4	10.331	n/a	833.713
810.55	2.006	Cue	49	Picture	Maintain	4	8.308	n/a	838.736
812.556	4.99	Pic	49	Picture	IAPS_54	4	3.318	n/a	840.742
817.547	2.006	Blank	49	Picture	BLANK	4	1.312	n/a	845.733
820.865	n/a	ConfirmRating	49	Response	n/a	4	n/a	7	849.051
820.896	5.007	ITI	50	Picture	Fixation+	1	10.911	n/a	849.082
825.919	2.006	Cue	50	Picture	Maintain	1	8.888	n/a	854.105
827.925	4.99	Pic	50	Picture	IAPS_13	1	3.898	n/a	856.111
832.915	2.006	Blank	50	Picture	BLANK	1	1.892	n/a	861.101
836.813	n/a	ConfirmRating	50	Response	n/a	1	n/a	6	864.999
836.844	4.012	ITI	51	Picture	Fixation+	2	9.822	n/a	865.03
840.873	2.006	Cue	51	Picture	Enhance	2	7.799	n/a	869.059
842.879	4.99	Pic	51	Picture	IAPS_23	2	2.809	n/a	871.065
847.87	2.006	Blank	51	Picture	BLANK	2	0.803	n/a	876.056
850.678	n/a	ConfirmRating	51	Response	n/a	2	n/a	5	878.864
850.704	5.007	ITI	52	Picture	Fixation+	1	11.898	n/a	878.89
855.728	2.006	Cue	52	Picture	Maintain	1	9.875	n/a	883.914
857.734	4.99	Pic	52	Picture	IAPS_14	1	4.885	n/a	885.92
862.724	2.006	Blank	52	Picture	BLANK	1	2.879	n/a	890.91
867.609	n/a	ConfirmRating	52	Response	n/a	1	n/a	7	895.795
867.631	5.007	ITI	53	Picture	Fixation+	4	10.683	n/a	895.817
872.655	2.006	Cue	53	Picture	Maintain	4	8.66	n/a	900.841
874.661	4.99	Pic	53	Picture	IAPS_57	4	3.67	n/a	902.847
879.651	2.006	Blank	53	Picture	BLANK	4	1.664	n/a	907.837
883.321	n/a	ConfirmRating	53	Response	n/a	4	n/a	7	911.507
883.348	6.002	ITI	54	Picture	Fixation+	3	11.371	n/a	911.534
889.366	2.006	Cue	54	Picture	Suppress	3	9.348	n/a	917.552
891.372	4.99	Pic	54	Picture	IAPS_34	3	4.358	n/a	919.558
896.363	2.006	Blank	54	Picture	BLANK	3	2.352	n/a	924.549
900.721	n/a	ConfirmRating	54	Response	n/a	3	n/a	5	928.907
900.74	5.007	ITI	55	Picture	Fixation+	2	10.031	n/a	928.926
905.763	2.006	Cue	55	Picture	Enhance	2	8.009	n/a	933.949
907.769	4.99	Pic	55	Picture	IAPS_24	2	3.018	n/a	935.955
912.759	2.006	Blank	55	Picture	BLANK	2	1.012	n/a	940.945
915.777	n/a	ConfirmRating	55	Response	n/a	2	n/a	5	943.963
915.81	5.007	ITI	56	Picture	Fixation+	1	10.254	n/a	943.996
920.833	2.006	Cue	56	Picture	Maintain	1	8.231	n/a	949.019
922.839	4.99	Pic	56	Picture	IAPS_15	1	3.241	n/a	951.025
927.829	2.006	Blank	56	Picture	BLANK	1	1.235	n/a	956.015
931.07	n/a	ConfirmRating	56	Response	n/a	1	n/a	7	959.256
931.095	6.002	ITI	57	Picture	Fixation+	3	10.395	n/a	959.281
937.114	2.006	Cue	57	Picture	Suppress	3	8.373	n/a	965.3
939.12	4.99	Pic	57	Picture	IAPS_35	3	3.382	n/a	967.306
944.11	2.006	Blank	57	Picture	BLANK	3	1.376	n/a	972.296
947.492	n/a	ConfirmRating	57	Response	n/a	3	n/a	6	975.678
947.525	4.012	ITI	58	Picture	Fixation+	4	10.478	n/a	975.711
951.554	2.006	Cue	58	Picture	Maintain	4	8.455	n/a	979.74
953.56	4.99	Pic	58	Picture	IAPS_60	4	3.465	n/a	981.746
958.55	2.006	Blank	58	Picture	BLANK	4	1.459	n/a	986.736
962.015	n/a	ConfirmRating	58	Response	n/a	4	n/a	7	990.201
962.032	6.002	ITI	59	Picture	Fixation+	2	12.258	n/a	990.218
968.05	2.006	Cue	59	Picture	Enhance	2	10.235	n/a	996.236
970.056	4.99	Pic	59	Picture	IAPS_25	2	5.245	n/a	998.242
975.046	2.006	Blank	59	Picture	BLANK	2	3.239	n/a	1003.232
980.291	n/a	ConfirmRating	59	Response	n/a	2	n/a	5	1008.477
