onset	duration	trial_type	event_type	time_until_response	response_time	trial_number	block_num_within_trial	image_seq_num_within_block	question_seq_num_within_block	image_seq_num	picture_number	condition	question_type	block_type	rating	rating_computed	onset_uncorrected	KDEV_imagefile
0.012	10.014	ITI	Fixation+	111.894	n/a	1	n/a	n/a	n/a	n/a	n/a	n/a	n/a	n/a	n/a	n/a	29.174	n/a
10.042	0.497	angry	Picture	111.38	n/a	1	1	1	n/a	1	46	2	n/a	n/a	n/a	n/a	39.204	AF09HAS.jpg
10.54	0.514	Blank	Blank	110.866	n/a	1	1	1	n/a	1	n/a	2	n/a	n/a	n/a	n/a	39.701	n/a
11.07	0.497	angry	Picture	110.352	n/a	1	1	2	n/a	2	69	2	n/a	n/a	n/a	n/a	40.232	AM10HAS.jpg
11.568	0.514	Blank	Blank	109.838	n/a	1	1	2	n/a	2	n/a	2	n/a	n/a	n/a	n/a	40.729	n/a
12.098	0.497	angry	Picture	109.324	n/a	1	1	3	n/a	3	71	2	n/a	n/a	n/a	n/a	41.26	BM12HAS.jpg
12.596	0.514	Blank	Blank	108.81	n/a	1	1	3	n/a	3	n/a	2	n/a	n/a	n/a	n/a	41.757	n/a
13.126	0.497	angry	Picture	108.296	n/a	1	1	4	n/a	4	51	2	n/a	n/a	n/a	n/a	42.287	AF20HAS.jpg
13.623	0.514	Blank	Blank	107.782	n/a	1	1	4	n/a	4	n/a	2	n/a	n/a	n/a	n/a	42.785	n/a
14.154	0.497	angry	Picture	107.268	n/a	1	1	5	n/a	5	67	2	n/a	n/a	n/a	n/a	43.315	BM08HAS.jpg
14.651	0.514	Blank	Blank	106.754	n/a	1	1	5	n/a	5	n/a	2	n/a	n/a	n/a	n/a	43.813	n/a
15.182	0.497	angry	Picture	106.24	n/a	1	1	6	n/a	6	60	2	n/a	n/a	n/a	n/a	44.343	AF32HAS.jpg
15.679	0.514	Blank	Blank	105.726	n/a	1	1	6	n/a	6	n/a	2	n/a	n/a	n/a	n/a	44.84	n/a
16.21	0.497	angry	Picture	105.212	n/a	1	1	7	n/a	7	42	2	n/a	n/a	n/a	n/a	45.371	AF03HAS.jpg
16.707	0.514	Blank	Blank	104.698	n/a	1	1	7	n/a	7	n/a	2	n/a	n/a	n/a	n/a	45.868	n/a
17.238	0.497	angry	Picture	104.184	n/a	1	1	8	n/a	8	55	2	n/a	n/a	n/a	n/a	46.399	AF25HAS.jpg
17.735	0.514	Blank	Blank	103.671	n/a	1	1	8	n/a	8	n/a	2	n/a	n/a	n/a	n/a	46.896	n/a
18.266	0.497	angry	Picture	103.156	n/a	1	1	9	n/a	9	72	2	n/a	n/a	n/a	n/a	47.427	AM14HAS.jpg
18.763	0.514	Blank	Blank	102.643	n/a	1	1	9	n/a	9	n/a	2	n/a	n/a	n/a	n/a	47.924	n/a
19.294	0.497	angry	Picture	102.129	n/a	1	1	10	n/a	10	63	2	n/a	n/a	n/a	n/a	48.455	AM04HAS.jpg
19.791	0.514	Blank	Blank	101.615	n/a	1	1	10	n/a	10	n/a	2	n/a	n/a	n/a	n/a	48.952	n/a
20.321	0.497	angry	Picture	101.101	n/a	1	1	11	n/a	11	58	2	n/a	n/a	n/a	n/a	49.483	BF29HAS.jpg
20.819	0.514	Blank	Blank	100.587	n/a	1	1	11	n/a	11	n/a	2	n/a	n/a	n/a	n/a	49.98	n/a
21.349	0.497	angry	Picture	100.073	n/a	1	1	12	n/a	12	48	2	n/a	n/a	n/a	n/a	50.511	AF14HAS.jpg
21.847	0.514	Blank	Blank	99.559	n/a	1	1	12	n/a	12	n/a	2	n/a	n/a	n/a	n/a	51.008	n/a
22.377	0.497	angry	Picture	99.045	n/a	1	1	13	n/a	13	66	2	n/a	n/a	n/a	n/a	51.538	BM07HAS.jpg
22.875	0.514	Blank	Blank	98.531	n/a	1	1	13	n/a	13	n/a	2	n/a	n/a	n/a	n/a	52.036	n/a
23.405	0.497	angry	Picture	98.017	n/a	1	1	14	n/a	14	70	2	n/a	n/a	n/a	n/a	52.566	BM11HAS.jpg
23.902	0.514	Blank	Blank	97.503	n/a	1	1	14	n/a	14	n/a	2	n/a	n/a	n/a	n/a	53.064	n/a
24.433	0.497	angry	Picture	96.989	n/a	1	1	15	n/a	15	43	2	n/a	n/a	n/a	n/a	53.594	BF04HAS.jpg
24.93	0.514	Blank	Blank	96.475	n/a	1	1	15	n/a	15	n/a	2	n/a	n/a	n/a	n/a	54.092	n/a
25.461	0.497	angry	Picture	95.961	n/a	1	1	16	n/a	16	49	2	n/a	n/a	n/a	n/a	54.622	AF17HAS.jpg
25.958	0.514	Blank	Blank	95.447	n/a	1	1	16	n/a	16	n/a	2	n/a	n/a	n/a	n/a	55.119	n/a
26.489	0.497	angry	Picture	94.933	n/a	1	1	17	n/a	17	75	2	n/a	n/a	n/a	n/a	55.65	AM23HAS.jpg
26.986	0.514	Blank	Blank	94.419	n/a	1	1	17	n/a	17	n/a	2	n/a	n/a	n/a	n/a	56.147	n/a
27.517	0.497	angry	Picture	93.906	n/a	1	1	18	n/a	18	80	2	n/a	n/a	n/a	n/a	56.678	BM35HAS.jpg
28.014	0.514	Blank	Blank	93.392	n/a	1	1	18	n/a	18	n/a	2	n/a	n/a	n/a	n/a	57.175	n/a
28.544	0.497	angry	Picture	92.878	n/a	1	1	19	n/a	19	76	2	n/a	n/a	n/a	n/a	57.706	BM24HAS.jpg
29.042	0.514	Blank	Blank	92.364	n/a	1	1	19	n/a	19	n/a	2	n/a	n/a	n/a	n/a	58.203	n/a
29.572	0.497	angry	Picture	91.85	n/a	1	1	20	n/a	20	74	2	n/a	n/a	n/a	n/a	58.734	AM22HAS.jpg
30.07	0.514	Blank	Blank	91.336	n/a	1	1	20	n/a	20	n/a	2	n/a	n/a	n/a	n/a	59.231	n/a
30.6	10.014	ITI	Fixation+	81.306	n/a	1	n/a	n/a	n/a	n/a	n/a	n/a	n/a	n/a	n/a	n/a	59.761	n/a
40.631	0.497	neutral	Picture	80.792	n/a	1	2	1	n/a	21	33	1	n/a	n/a	n/a	n/a	69.792	AM21NES.jpg
41.128	0.514	Blank	Blank	80.278	n/a	1	2	1	n/a	21	n/a	1	n/a	n/a	n/a	n/a	70.289	n/a
41.658	0.497	neutral	Picture	79.764	n/a	1	2	2	n/a	22	39	1	n/a	n/a	n/a	n/a	70.82	AM28NES.jpg
42.156	0.514	Blank	Blank	79.25	n/a	1	2	2	n/a	22	n/a	1	n/a	n/a	n/a	n/a	71.317	n/a
42.686	0.497	neutral	Picture	78.736	n/a	1	2	3	n/a	23	25	1	n/a	n/a	n/a	n/a	71.847	BM06NES.jpg
43.184	0.514	Blank	Blank	78.222	n/a	1	2	3	n/a	23	n/a	1	n/a	n/a	n/a	n/a	72.345	n/a
43.714	0.497	neutral	Picture	77.708	n/a	1	2	4	n/a	24	5	1	n/a	n/a	n/a	n/a	72.875	BF07NES.jpg
44.212	0.514	Blank	Blank	77.194	n/a	1	2	4	n/a	24	n/a	1	n/a	n/a	n/a	n/a	73.373	n/a
44.742	0.497	neutral	Picture	76.68	n/a	1	2	5	n/a	25	10	1	n/a	n/a	n/a	n/a	73.903	AF18NES.jpg
45.239	0.514	Blank	Blank	76.166	n/a	1	2	5	n/a	25	n/a	1	n/a	n/a	n/a	n/a	74.401	n/a
45.77	0.497	neutral	Picture	75.652	n/a	1	2	6	n/a	26	34	1	n/a	n/a	n/a	n/a	74.931	AM22NES.jpg
46.267	0.514	Blank	Blank	75.138	n/a	1	2	6	n/a	26	n/a	1	n/a	n/a	n/a	n/a	75.428	n/a
46.798	0.497	neutral	Picture	74.624	n/a	1	2	7	n/a	27	36	1	n/a	n/a	n/a	n/a	75.959	BM24NES.jpg
47.295	0.514	Blank	Blank	74.11	n/a	1	2	7	n/a	27	n/a	1	n/a	n/a	n/a	n/a	76.456	n/a
47.826	0.497	neutral	Picture	73.596	n/a	1	2	8	n/a	28	14	1	n/a	n/a	n/a	n/a	76.987	AF23NES.jpg
48.323	0.514	Blank	Blank	73.082	n/a	1	2	8	n/a	28	n/a	1	n/a	n/a	n/a	n/a	77.484	n/a
48.854	0.497	neutral	Picture	72.569	n/a	1	2	9	n/a	29	9	1	n/a	n/a	n/a	n/a	78.015	AF17NES.jpg
49.351	0.514	Blank	Blank	72.054	n/a	1	2	9	n/a	29	n/a	1	n/a	n/a	n/a	n/a	78.512	n/a
49.881	0.497	neutral	Picture	71.541	n/a	1	2	10	n/a	30	19	1	n/a	n/a	n/a	n/a	79.043	AF31NES.jpg
50.379	0.514	Blank	Blank	71.027	n/a	1	2	10	n/a	30	n/a	1	n/a	n/a	n/a	n/a	79.54	n/a
50.909	0.497	neutral	Picture	70.513	n/a	1	2	11	n/a	31	15	1	n/a	n/a	n/a	n/a	80.071	AF25NES.jpg
51.407	0.514	Blank	Blank	69.999	n/a	1	2	11	n/a	31	n/a	1	n/a	n/a	n/a	n/a	80.568	n/a
51.937	0.497	neutral	Picture	69.485	n/a	1	2	12	n/a	32	22	1	n/a	n/a	n/a	n/a	81.099	BM03NES.jpg
52.435	0.514	Blank	Blank	68.971	n/a	1	2	12	n/a	32	n/a	1	n/a	n/a	n/a	n/a	81.596	n/a
52.965	0.497	neutral	Picture	68.457	n/a	1	2	13	n/a	33	11	1	n/a	n/a	n/a	n/a	82.126	AF20NES.jpg
53.463	0.514	Blank	Blank	67.943	n/a	1	2	13	n/a	33	n/a	1	n/a	n/a	n/a	n/a	82.624	n/a
53.993	0.497	neutral	Picture	67.429	n/a	1	2	14	n/a	34	4	1	n/a	n/a	n/a	n/a	83.154	AF05NES.jpg
54.491	0.514	Blank	Blank	66.915	n/a	1	2	14	n/a	34	n/a	1	n/a	n/a	n/a	n/a	83.652	n/a
55.021	0.497	neutral	Picture	66.401	n/a	1	2	15	n/a	35	17	1	n/a	n/a	n/a	n/a	84.182	BF28NES.jpg
55.518	0.514	Blank	Blank	65.887	n/a	1	2	15	n/a	35	n/a	1	n/a	n/a	n/a	n/a	84.68	n/a
56.049	0.497	neutral	Picture	65.373	n/a	1	2	16	n/a	36	13	1	n/a	n/a	n/a	n/a	85.21	BF22NES.jpg
56.546	0.514	Blank	Blank	64.859	n/a	1	2	16	n/a	36	n/a	1	n/a	n/a	n/a	n/a	85.707	n/a
57.077	0.497	neutral	Picture	64.345	n/a	1	2	17	n/a	37	12	1	n/a	n/a	n/a	n/a	86.238	AF21NES.jpg
57.574	0.514	Blank	Blank	63.831	n/a	1	2	17	n/a	37	n/a	1	n/a	n/a	n/a	n/a	86.735	n/a
58.105	0.497	neutral	Picture	63.317	n/a	1	2	18	n/a	38	24	1	n/a	n/a	n/a	n/a	87.266	BM05NES.jpg
58.602	0.514	Blank	Blank	62.803	n/a	1	2	18	n/a	38	n/a	1	n/a	n/a	n/a	n/a	87.763	n/a
59.133	0.497	neutral	Picture	62.29	n/a	1	2	19	n/a	39	29	1	n/a	n/a	n/a	n/a	88.294	AM10NES.jpg
59.63	0.514	Blank	Blank	61.776	n/a	1	2	19	n/a	39	n/a	1	n/a	n/a	n/a	n/a	88.791	n/a
60.16	0.497	neutral	Picture	61.262	n/a	1	2	20	n/a	40	23	1	n/a	n/a	n/a	n/a	89.322	AM04NES.jpg
60.658	0.514	Blank	Blank	60.748	n/a	1	2	20	n/a	40	n/a	1	n/a	n/a	n/a	n/a	89.819	n/a
61.188	10.014	ITI	Fixation+	50.718	n/a	1	n/a	n/a	n/a	n/a	n/a	n/a	n/a	n/a	n/a	n/a	90.35	n/a
71.219	0.497	angry	Picture	50.204	n/a	1	3	1	n/a	41	62	2	n/a	n/a	n/a	n/a	100.38	BM03HAS.jpg
71.716	0.514	Blank	Blank	49.69	n/a	1	3	1	n/a	41	n/a	2	n/a	n/a	n/a	n/a	100.877	n/a
72.246	0.497	angry	Picture	49.176	n/a	1	3	2	n/a	42	52	2	n/a	n/a	n/a	n/a	101.408	AF21HAS.jpg
72.744	0.514	Blank	Blank	48.662	n/a	1	3	2	n/a	42	n/a	2	n/a	n/a	n/a	n/a	101.905	n/a
73.274	0.497	angry	Picture	48.148	n/a	1	3	3	n/a	43	44	2	n/a	n/a	n/a	n/a	102.436	AF05HAS.jpg
73.772	0.514	Blank	Blank	47.634	n/a	1	3	3	n/a	43	n/a	2	n/a	n/a	n/a	n/a	102.933	n/a
74.302	0.497	angry	Picture	47.12	n/a	1	3	4	n/a	44	53	2	n/a	n/a	n/a	n/a	103.463	BF22HAS.jpg
74.8	0.514	Blank	Blank	46.606	n/a	1	3	4	n/a	44	n/a	2	n/a	n/a	n/a	n/a	103.961	n/a
75.33	0.497	angry	Picture	46.092	n/a	1	3	5	n/a	45	54	2	n/a	n/a	n/a	n/a	104.491	AF23HAS.jpg
75.827	0.514	Blank	Blank	45.578	n/a	1	3	5	n/a	45	n/a	2	n/a	n/a	n/a	n/a	104.989	n/a
76.358	0.497	angry	Picture	45.064	n/a	1	3	6	n/a	46	68	2	n/a	n/a	n/a	n/a	105.519	AM09HAS.jpg
76.855	0.514	Blank	Blank	44.55	n/a	1	3	6	n/a	46	n/a	2	n/a	n/a	n/a	n/a	106.017	n/a
77.386	0.497	angry	Picture	44.036	n/a	1	3	7	n/a	47	64	2	n/a	n/a	n/a	n/a	106.547	BM05HAS.jpg
77.883	0.514	Blank	Blank	43.522	n/a	1	3	7	n/a	47	n/a	2	n/a	n/a	n/a	n/a	107.044	n/a
78.414	0.497	angry	Picture	43.008	n/a	1	3	8	n/a	48	59	2	n/a	n/a	n/a	n/a	107.575	AF31HAS.jpg
78.911	0.514	Blank	Blank	42.494	n/a	1	3	8	n/a	48	n/a	2	n/a	n/a	n/a	n/a	108.072	n/a
79.442	0.497	angry	Picture	41.981	n/a	1	3	9	n/a	49	41	2	n/a	n/a	n/a	n/a	108.603	AF01HAS.jpg
79.939	0.514	Blank	Blank	41.467	n/a	1	3	9	n/a	49	n/a	2	n/a	n/a	n/a	n/a	109.1	n/a
80.47	0.497	angry	Picture	40.953	n/a	1	3	10	n/a	50	73	2	n/a	n/a	n/a	n/a	109.631	AM21HAS.jpg
80.967	0.514	Blank	Blank	40.439	n/a	1	3	10	n/a	50	n/a	2	n/a	n/a	n/a	n/a	110.128	n/a
81.497	0.497	angry	Picture	39.925	n/a	1	3	11	n/a	51	65	2	n/a	n/a	n/a	n/a	110.659	BM06HAS.jpg
81.995	0.514	Blank	Blank	39.411	n/a	1	3	11	n/a	51	n/a	2	n/a	n/a	n/a	n/a	111.156	n/a
82.525	0.497	angry	Picture	38.897	n/a	1	3	12	n/a	52	56	2	n/a	n/a	n/a	n/a	111.686	AF26HAS.jpg
83.023	0.514	Blank	Blank	38.383	n/a	1	3	12	n/a	52	n/a	2	n/a	n/a	n/a	n/a	112.184	n/a
83.553	0.497	angry	Picture	37.869	n/a	1	3	13	n/a	53	45	2	n/a	n/a	n/a	n/a	112.714	BF07HAS.jpg
84.051	0.514	Blank	Blank	37.355	n/a	1	3	13	n/a	53	n/a	2	n/a	n/a	n/a	n/a	113.212	n/a
84.581	0.497	angry	Picture	36.841	n/a	1	3	14	n/a	54	78	2	n/a	n/a	n/a	n/a	113.742	BM26HAS.jpg
85.078	0.514	Blank	Blank	36.327	n/a	1	3	14	n/a	54	n/a	2	n/a	n/a	n/a	n/a	114.24	n/a
85.609	0.497	angry	Picture	35.813	n/a	1	3	15	n/a	55	50	2	n/a	n/a	n/a	n/a	114.77	AF18HAS.jpg
86.106	0.514	Blank	Blank	35.299	n/a	1	3	15	n/a	55	n/a	2	n/a	n/a	n/a	n/a	115.268	n/a
86.637	0.497	angry	Picture	34.785	n/a	1	3	16	n/a	56	47	2	n/a	n/a	n/a	n/a	115.798	BF11HAS.jpg
87.134	0.514	Blank	Blank	34.271	n/a	1	3	16	n/a	56	n/a	2	n/a	n/a	n/a	n/a	116.296	n/a
87.665	0.497	angry	Picture	33.757	n/a	1	3	17	n/a	57	77	2	n/a	n/a	n/a	n/a	116.826	BM25HAS.jpg
88.162	0.514	Blank	Blank	33.243	n/a	1	3	17	n/a	57	n/a	2	n/a	n/a	n/a	n/a	117.323	n/a
88.693	0.497	angry	Picture	32.73	n/a	1	3	18	n/a	58	57	2	n/a	n/a	n/a	n/a	117.854	BF28HAS.jpg
89.19	0.514	Blank	Blank	32.216	n/a	1	3	18	n/a	58	n/a	2	n/a	n/a	n/a	n/a	118.351	n/a
89.721	0.497	angry	Picture	31.702	n/a	1	3	19	n/a	59	61	2	n/a	n/a	n/a	n/a	118.882	AM01HAS.jpg
90.218	0.514	Blank	Blank	31.188	n/a	1	3	19	n/a	59	n/a	2	n/a	n/a	n/a	n/a	119.379	n/a
90.749	0.497	angry	Picture	30.674	n/a	1	3	20	n/a	60	79	2	n/a	n/a	n/a	n/a	119.91	BM28HAS.jpg
91.246	0.514	Blank	Blank	30.16	n/a	1	3	20	n/a	60	n/a	2	n/a	n/a	n/a	n/a	120.407	n/a
91.776	10.014	ITI	Fixation+	20.13	n/a	1	n/a	n/a	n/a	n/a	n/a	n/a	n/a	n/a	n/a	n/a	120.938	n/a
121.919	n/a	ConfirmRating	Rate	n/a	20.127	1	n/a	n/a	0	n/a	n/a	n/a	2	Angry	24	24	151.081	n/a
141.425	n/a	ConfirmRating	Rate	n/a	19.48	1	n/a	n/a	1	n/a	n/a	n/a	3	Angry	0	-1	170.587	n/a
141.447	10.014	ITI	Fixation+	105.891	n/a	2	n/a	n/a	n/a	n/a	n/a	n/a	n/a	n/a	n/a	n/a	170.608	n/a
151.477	0.497	happy	Picture	105.377	n/a	2	4	1	n/a	61	119	3	n/a	n/a	n/a	n/a	180.638	BM28ANS.jpg
151.974	0.514	Blank	Blank	104.863	n/a	2	4	1	n/a	61	n/a	3	n/a	n/a	n/a	n/a	181.135	n/a
152.505	0.497	happy	Picture	104.349	n/a	2	4	2	n/a	62	100	3	n/a	n/a	n/a	n/a	181.666	AF32ANS.jpg
153.002	0.514	Blank	Blank	103.835	n/a	2	4	2	n/a	62	n/a	3	n/a	n/a	n/a	n/a	182.163	n/a
153.533	0.497	happy	Picture	103.321	n/a	2	4	3	n/a	63	118	3	n/a	n/a	n/a	n/a	182.694	BM26ANS.jpg
154.03	0.514	Blank	Blank	102.807	n/a	2	4	3	n/a	63	n/a	3	n/a	n/a	n/a	n/a	183.191	n/a
154.56	0.497	happy	Picture	102.293	n/a	2	4	4	n/a	64	89	3	n/a	n/a	n/a	n/a	183.722	AF17ANS.jpg
155.058	0.514	Blank	Blank	101.779	n/a	2	4	4	n/a	64	n/a	3	n/a	n/a	n/a	n/a	184.219	n/a
155.588	0.497	happy	Picture	101.265	n/a	2	4	5	n/a	65	116	3	n/a	n/a	n/a	n/a	184.75	BM24ANS.jpg
156.086	0.514	Blank	Blank	100.751	n/a	2	4	5	n/a	65	n/a	3	n/a	n/a	n/a	n/a	185.247	n/a
156.616	0.497	happy	Picture	100.237	n/a	2	4	6	n/a	66	105	3	n/a	n/a	n/a	n/a	185.778	BM06ANS.jpg
157.114	0.514	Blank	Blank	99.723	n/a	2	4	6	n/a	66	n/a	3	n/a	n/a	n/a	n/a	186.275	n/a
157.644	0.497	happy	Picture	99.209	n/a	2	4	7	n/a	67	106	3	n/a	n/a	n/a	n/a	186.805	AM07ANS.jpg
158.142	0.514	Blank	Blank	98.696	n/a	2	4	7	n/a	67	n/a	3	n/a	n/a	n/a	n/a	187.303	n/a
158.672	0.497	happy	Picture	98.182	n/a	2	4	8	n/a	68	94	3	n/a	n/a	n/a	n/a	187.833	AF23ANS.jpg
159.169	0.514	Blank	Blank	97.668	n/a	2	4	8	n/a	68	n/a	3	n/a	n/a	n/a	n/a	188.331	n/a
159.7	0.497	happy	Picture	97.154	n/a	2	4	9	n/a	69	117	3	n/a	n/a	n/a	n/a	188.861	BM25ANS.jpg
160.197	0.514	Blank	Blank	96.64	n/a	2	4	9	n/a	69	n/a	3	n/a	n/a	n/a	n/a	189.359	n/a
160.728	0.497	happy	Picture	96.126	n/a	2	4	10	n/a	70	90	3	n/a	n/a	n/a	n/a	189.889	AF18ANS.jpg
161.225	0.514	Blank	Blank	95.612	n/a	2	4	10	n/a	70	n/a	3	n/a	n/a	n/a	n/a	190.387	n/a
161.756	0.497	happy	Picture	95.098	n/a	2	4	11	n/a	71	83	3	n/a	n/a	n/a	n/a	190.917	BF04ANS.jpg
162.253	0.514	Blank	Blank	94.584	n/a	2	4	11	n/a	71	n/a	3	n/a	n/a	n/a	n/a	191.414	n/a
162.784	0.497	happy	Picture	94.07	n/a	2	4	12	n/a	72	112	3	n/a	n/a	n/a	n/a	191.945	AM14ANS.jpg
163.281	0.514	Blank	Blank	93.556	n/a	2	4	12	n/a	72	n/a	3	n/a	n/a	n/a	n/a	192.442	n/a
163.812	0.497	happy	Picture	93.042	n/a	2	4	13	n/a	73	102	3	n/a	n/a	n/a	n/a	192.973	BM03ANS.jpg
164.309	0.514	Blank	Blank	92.528	n/a	2	4	13	n/a	73	n/a	3	n/a	n/a	n/a	n/a	193.47	n/a
164.839	0.497	happy	Picture	92.014	n/a	2	4	14	n/a	74	95	3	n/a	n/a	n/a	n/a	194.001	AF25ANS.jpg
165.337	0.514	Blank	Blank	91.5	n/a	2	4	14	n/a	74	n/a	3	n/a	n/a	n/a	n/a	194.498	n/a
165.867	0.497	happy	Picture	90.986	n/a	2	4	15	n/a	75	113	3	n/a	n/a	n/a	n/a	195.029	AM21ANS.jpg
166.365	0.514	Blank	Blank	90.472	n/a	2	4	15	n/a	75	n/a	3	n/a	n/a	n/a	n/a	195.526	n/a
166.895	0.497	happy	Picture	89.958	n/a	2	4	16	n/a	76	88	3	n/a	n/a	n/a	n/a	196.056	AF14ANS.jpg
167.393	0.514	Blank	Blank	89.445	n/a	2	4	16	n/a	76	n/a	3	n/a	n/a	n/a	n/a	196.554	n/a
167.923	0.497	happy	Picture	88.931	n/a	2	4	17	n/a	77	93	3	n/a	n/a	n/a	n/a	197.084	BF22ANS.jpg
168.421	0.514	Blank	Blank	88.417	n/a	2	4	17	n/a	77	n/a	3	n/a	n/a	n/a	n/a	197.582	n/a
168.951	0.497	happy	Picture	87.903	n/a	2	4	18	n/a	78	86	3	n/a	n/a	n/a	n/a	198.112	AF09ANS.jpg
169.448	0.514	Blank	Blank	87.389	n/a	2	4	18	n/a	78	n/a	3	n/a	n/a	n/a	n/a	198.61	n/a
169.979	0.497	happy	Picture	86.875	n/a	2	4	19	n/a	79	92	3	n/a	n/a	n/a	n/a	199.14	AF21ANS.jpg
170.476	0.514	Blank	Blank	86.361	n/a	2	4	19	n/a	79	n/a	3	n/a	n/a	n/a	n/a	199.637	n/a
171.007	0.497	happy	Picture	85.847	n/a	2	4	20	n/a	80	84	3	n/a	n/a	n/a	n/a	200.168	AF05ANS.jpg
171.504	0.514	Blank	Blank	85.333	n/a	2	4	20	n/a	80	n/a	3	n/a	n/a	n/a	n/a	200.665	n/a
172.035	10.014	ITI	Fixation+	75.303	n/a	2	n/a	n/a	n/a	n/a	n/a	n/a	n/a	n/a	n/a	n/a	201.196	n/a
182.065	0.497	neutral	Picture	74.789	n/a	2	5	1	n/a	81	4	1	n/a	n/a	n/a	n/a	211.226	AF05NES.jpg
182.562	0.514	Blank	Blank	74.275	n/a	2	5	1	n/a	81	n/a	1	n/a	n/a	n/a	n/a	211.724	n/a
183.093	0.497	neutral	Picture	73.761	n/a	2	5	2	n/a	82	14	1	n/a	n/a	n/a	n/a	212.254	AF23NES.jpg
183.59	0.514	Blank	Blank	73.247	n/a	2	5	2	n/a	82	n/a	1	n/a	n/a	n/a	n/a	212.751	n/a
184.121	0.497	neutral	Picture	72.733	n/a	2	5	3	n/a	83	19	1	n/a	n/a	n/a	n/a	213.282	AF31NES.jpg
184.618	0.514	Blank	Blank	72.219	n/a	2	5	3	n/a	83	n/a	1	n/a	n/a	n/a	n/a	213.779	n/a
185.149	0.497	neutral	Picture	71.705	n/a	2	5	4	n/a	84	8	1	n/a	n/a	n/a	n/a	214.31	AF14NES.jpg
185.646	0.514	Blank	Blank	71.191	n/a	2	5	4	n/a	84	n/a	1	n/a	n/a	n/a	n/a	214.807	n/a
186.177	0.497	neutral	Picture	70.677	n/a	2	5	5	n/a	85	25	1	n/a	n/a	n/a	n/a	215.338	BM06NES.jpg
186.674	0.514	Blank	Blank	70.163	n/a	2	5	5	n/a	85	n/a	1	n/a	n/a	n/a	n/a	215.835	n/a
187.204	0.497	neutral	Picture	69.649	n/a	2	5	6	n/a	86	9	1	n/a	n/a	n/a	n/a	216.365	AF17NES.jpg
187.702	0.514	Blank	Blank	69.135	n/a	2	5	6	n/a	86	n/a	1	n/a	n/a	n/a	n/a	216.863	n/a
188.232	0.497	neutral	Picture	68.621	n/a	2	5	7	n/a	87	2	1	n/a	n/a	n/a	n/a	217.393	AF03NES.jpg
188.73	0.514	Blank	Blank	68.107	n/a	2	5	7	n/a	87	n/a	1	n/a	n/a	n/a	n/a	217.891	n/a
189.26	0.497	neutral	Picture	67.594	n/a	2	5	8	n/a	88	17	1	n/a	n/a	n/a	n/a	218.421	BF28NES.jpg
189.757	0.514	Blank	Blank	67.08	n/a	2	5	8	n/a	88	n/a	1	n/a	n/a	n/a	n/a	218.919	n/a
190.288	0.497	neutral	Picture	66.566	n/a	2	5	9	n/a	89	6	1	n/a	n/a	n/a	n/a	219.449	AF09NES.jpg
190.785	0.514	Blank	Blank	66.052	n/a	2	5	9	n/a	89	n/a	1	n/a	n/a	n/a	n/a	219.947	n/a
191.316	0.497	neutral	Picture	65.538	n/a	2	5	10	n/a	90	12	1	n/a	n/a	n/a	n/a	220.477	AF21NES.jpg
191.813	0.514	Blank	Blank	65.024	n/a	2	5	10	n/a	90	n/a	1	n/a	n/a	n/a	n/a	220.975	n/a
192.344	0.497	neutral	Picture	64.51	n/a	2	5	11	n/a	91	24	1	n/a	n/a	n/a	n/a	221.505	BM05NES.jpg
192.841	0.514	Blank	Blank	63.996	n/a	2	5	11	n/a	91	n/a	1	n/a	n/a	n/a	n/a	222.002	n/a
193.372	0.497	neutral	Picture	63.482	n/a	2	5	12	n/a	92	34	1	n/a	n/a	n/a	n/a	222.533	AM22NES.jpg
193.869	0.514	Blank	Blank	62.968	n/a	2	5	12	n/a	92	n/a	1	n/a	n/a	n/a	n/a	223.03	n/a
194.4	0.497	neutral	Picture	62.454	n/a	2	5	13	n/a	93	23	1	n/a	n/a	n/a	n/a	223.561	AM04NES.jpg
194.897	0.514	Blank	Blank	61.94	n/a	2	5	13	n/a	93	n/a	1	n/a	n/a	n/a	n/a	224.058	n/a
195.427	0.497	neutral	Picture	61.426	n/a	2	5	14	n/a	94	15	1	n/a	n/a	n/a	n/a	224.589	AF25NES.jpg
195.925	0.514	Blank	Blank	60.912	n/a	2	5	14	n/a	94	n/a	1	n/a	n/a	n/a	n/a	225.086	n/a
196.455	0.497	neutral	Picture	60.398	n/a	2	5	15	n/a	95	37	1	n/a	n/a	n/a	n/a	225.617	BM25NES.jpg
196.953	0.514	Blank	Blank	59.884	n/a	2	5	15	n/a	95	n/a	1	n/a	n/a	n/a	n/a	226.114	n/a
197.483	0.497	neutral	Picture	59.37	n/a	2	5	16	n/a	96	32	1	n/a	n/a	n/a	n/a	226.644	AM14NES.jpg
197.981	0.514	Blank	Blank	58.856	n/a	2	5	16	n/a	96	n/a	1	n/a	n/a	n/a	n/a	227.142	n/a
198.511	0.497	neutral	Picture	58.343	n/a	2	5	17	n/a	97	3	1	n/a	n/a	n/a	n/a	227.672	BF04NES.jpg
199.008	0.514	Blank	Blank	57.829	n/a	2	5	17	n/a	97	n/a	1	n/a	n/a	n/a	n/a	228.17	n/a
199.539	0.497	neutral	Picture	57.315	n/a	2	5	18	n/a	98	16	1	n/a	n/a	n/a	n/a	228.7	AF26NES.jpg
200.036	0.514	Blank	Blank	56.801	n/a	2	5	18	n/a	98	n/a	1	n/a	n/a	n/a	n/a	229.198	n/a
200.567	0.497	neutral	Picture	56.287	n/a	2	5	19	n/a	99	27	1	n/a	n/a	n/a	n/a	229.728	BM08NES.jpg
201.064	0.514	Blank	Blank	55.773	n/a	2	5	19	n/a	99	n/a	1	n/a	n/a	n/a	n/a	230.226	n/a
201.595	0.497	neutral	Picture	55.259	n/a	2	5	20	n/a	100	28	1	n/a	n/a	n/a	n/a	230.756	AM09NES.jpg
202.092	0.514	Blank	Blank	54.745	n/a	2	5	20	n/a	100	n/a	1	n/a	n/a	n/a	n/a	231.253	n/a
202.623	10.014	ITI	Fixation+	44.715	n/a	2	n/a	n/a	n/a	n/a	n/a	n/a	n/a	n/a	n/a	n/a	231.784	n/a
212.653	0.497	happy	Picture	44.201	n/a	2	6	1	n/a	101	81	3	n/a	n/a	n/a	n/a	241.814	AF01ANS.jpg
213.15	0.514	Blank	Blank	43.687	n/a	2	6	1	n/a	101	n/a	3	n/a	n/a	n/a	n/a	242.311	n/a
213.681	0.497	happy	Picture	43.173	n/a	2	6	2	n/a	102	120	3	n/a	n/a	n/a	n/a	242.842	AM35ANS.jpg
214.178	0.514	Blank	Blank	42.659	n/a	2	6	2	n/a	102	n/a	3	n/a	n/a	n/a	n/a	243.339	n/a
214.709	0.497	happy	Picture	42.145	n/a	2	6	3	n/a	103	114	3	n/a	n/a	n/a	n/a	243.87	AM22ANS.jpg
215.206	0.514	Blank	Blank	41.631	n/a	2	6	3	n/a	103	n/a	3	n/a	n/a	n/a	n/a	244.367	n/a
215.737	0.497	happy	Picture	41.117	n/a	2	6	4	n/a	104	109	3	n/a	n/a	n/a	n/a	244.898	AM10ANS.jpg
216.234	0.514	Blank	Blank	40.603	n/a	2	6	4	n/a	104	n/a	3	n/a	n/a	n/a	n/a	245.395	n/a
216.764	0.497	happy	Picture	40.089	n/a	2	6	5	n/a	105	96	3	n/a	n/a	n/a	n/a	245.926	AF26ANS.jpg
217.262	0.514	Blank	Blank	39.575	n/a	2	6	5	n/a	105	n/a	3	n/a	n/a	n/a	n/a	246.423	n/a
217.792	0.497	happy	Picture	39.061	n/a	2	6	6	n/a	106	82	3	n/a	n/a	n/a	n/a	246.954	AF03ANS.jpg
218.29	0.514	Blank	Blank	38.547	n/a	2	6	6	n/a	106	n/a	3	n/a	n/a	n/a	n/a	247.451	n/a
218.82	0.497	happy	Picture	38.033	n/a	2	6	7	n/a	107	97	3	n/a	n/a	n/a	n/a	247.982	BF28ANS.jpg
219.318	0.514	Blank	Blank	37.519	n/a	2	6	7	n/a	107	n/a	3	n/a	n/a	n/a	n/a	248.479	n/a
219.848	0.497	happy	Picture	37.006	n/a	2	6	8	n/a	108	115	3	n/a	n/a	n/a	n/a	249.009	AM23ANS.jpg
220.345	0.514	Blank	Blank	36.492	n/a	2	6	8	n/a	108	n/a	3	n/a	n/a	n/a	n/a	249.507	n/a
220.876	0.497	happy	Picture	35.978	n/a	2	6	9	n/a	109	91	3	n/a	n/a	n/a	n/a	250.037	AF20ANS.jpg
221.373	0.514	Blank	Blank	35.464	n/a	2	6	9	n/a	109	n/a	3	n/a	n/a	n/a	n/a	250.535	n/a
221.904	0.497	happy	Picture	34.95	n/a	2	6	10	n/a	110	87	3	n/a	n/a	n/a	n/a	251.065	BF11ANS.jpg
222.401	0.514	Blank	Blank	34.436	n/a	2	6	10	n/a	110	n/a	3	n/a	n/a	n/a	n/a	251.563	n/a
222.932	0.497	happy	Picture	33.922	n/a	2	6	11	n/a	111	85	3	n/a	n/a	n/a	n/a	252.093	BF07ANS.jpg
223.429	0.514	Blank	Blank	33.408	n/a	2	6	11	n/a	111	n/a	3	n/a	n/a	n/a	n/a	252.59	n/a
223.96	0.497	happy	Picture	32.894	n/a	2	6	12	n/a	112	110	3	n/a	n/a	n/a	n/a	253.121	AM11ANS.jpg
224.457	0.514	Blank	Blank	32.38	n/a	2	6	12	n/a	112	n/a	3	n/a	n/a	n/a	n/a	253.618	n/a
224.988	0.497	happy	Picture	31.866	n/a	2	6	13	n/a	113	111	3	n/a	n/a	n/a	n/a	254.149	BM12ANS.jpg
225.485	0.514	Blank	Blank	31.352	n/a	2	6	13	n/a	113	n/a	3	n/a	n/a	n/a	n/a	254.646	n/a
226.016	0.497	happy	Picture	30.838	n/a	2	6	14	n/a	114	103	3	n/a	n/a	n/a	n/a	255.177	AM04ANS.jpg
226.513	0.514	Blank	Blank	30.324	n/a	2	6	14	n/a	114	n/a	3	n/a	n/a	n/a	n/a	255.674	n/a
227.043	0.497	happy	Picture	29.81	n/a	2	6	15	n/a	115	101	3	n/a	n/a	n/a	n/a	256.205	AM01ANS.jpg
227.541	0.514	Blank	Blank	29.296	n/a	2	6	15	n/a	115	n/a	3	n/a	n/a	n/a	n/a	256.702	n/a
228.071	0.497	happy	Picture	28.782	n/a	2	6	16	n/a	116	104	3	n/a	n/a	n/a	n/a	257.233	BM05ANS.jpg
228.569	0.514	Blank	Blank	28.268	n/a	2	6	16	n/a	116	n/a	3	n/a	n/a	n/a	n/a	257.73	n/a
229.099	0.497	happy	Picture	27.755	n/a	2	6	17	n/a	117	107	3	n/a	n/a	n/a	n/a	258.26	BM08ANS.jpg
229.596	0.514	Blank	Blank	27.241	n/a	2	6	17	n/a	117	n/a	3	n/a	n/a	n/a	n/a	258.758	n/a
230.127	0.497	happy	Picture	26.727	n/a	2	6	18	n/a	118	98	3	n/a	n/a	n/a	n/a	259.288	BF29ANS.jpg
230.624	0.514	Blank	Blank	26.213	n/a	2	6	18	n/a	118	n/a	3	n/a	n/a	n/a	n/a	259.786	n/a
231.155	0.497	happy	Picture	25.699	n/a	2	6	19	n/a	119	99	3	n/a	n/a	n/a	n/a	260.316	AF31ANS.jpg
231.652	0.514	Blank	Blank	25.185	n/a	2	6	19	n/a	119	n/a	3	n/a	n/a	n/a	n/a	260.813	n/a
232.183	0.497	happy	Picture	24.671	n/a	2	6	20	n/a	120	108	3	n/a	n/a	n/a	n/a	261.344	AM09ANS.jpg
232.68	0.514	Blank	Blank	24.157	n/a	2	6	20	n/a	120	n/a	3	n/a	n/a	n/a	n/a	261.841	n/a
233.211	10.014	ITI	Fixation+	14.127	n/a	2	n/a	n/a	n/a	n/a	n/a	n/a	n/a	n/a	n/a	n/a	262.372	n/a
257.351	n/a	ConfirmRating	Rate	n/a	14.125	2	n/a	n/a	0	n/a	n/a	n/a	2	Happy	72	72	286.512	n/a
274.924	n/a	ConfirmRating	Rate	n/a	17.557	2	n/a	n/a	1	n/a	n/a	n/a	3	Happy	0	-2	304.085	n/a
274.956	15.004	Rest	Picture	n/a	n/a	n/a	n/a	n/a	n/a	n/a	n/a	n/a	0	n/a	0	0	304.118	n/a
289.977	10.014	ITI	Fixation+	105.724	n/a	3	n/a	n/a	n/a	n/a	n/a	n/a	n/a	n/a	n/a	n/a	319.138	n/a
300.007	0.497	angry	Picture	105.21	n/a	3	7	1	n/a	1	46	2	n/a	n/a	n/a	n/a	329.168	AF09HAS.jpg
300.504	0.514	Blank	Blank	104.696	n/a	3	7	1	n/a	1	n/a	2	n/a	n/a	n/a	n/a	329.666	n/a
301.035	0.497	angry	Picture	104.182	n/a	3	7	2	n/a	2	69	2	n/a	n/a	n/a	n/a	330.196	AM10HAS.jpg
301.532	0.514	Blank	Blank	103.668	n/a	3	7	2	n/a	2	n/a	2	n/a	n/a	n/a	n/a	330.693	n/a
302.063	0.497	angry	Picture	103.154	n/a	3	7	3	n/a	3	71	2	n/a	n/a	n/a	n/a	331.224	BM12HAS.jpg
302.56	0.514	Blank	Blank	102.64	n/a	3	7	3	n/a	3	n/a	2	n/a	n/a	n/a	n/a	331.721	n/a
303.091	0.497	angry	Picture	102.127	n/a	3	7	4	n/a	4	51	2	n/a	n/a	n/a	n/a	332.252	AF20HAS.jpg
303.588	0.514	Blank	Blank	101.613	n/a	3	7	4	n/a	4	n/a	2	n/a	n/a	n/a	n/a	332.749	n/a
304.119	0.497	angry	Picture	101.099	n/a	3	7	5	n/a	5	67	2	n/a	n/a	n/a	n/a	333.28	BM08HAS.jpg
304.616	0.514	Blank	Blank	100.585	n/a	3	7	5	n/a	5	n/a	2	n/a	n/a	n/a	n/a	333.777	n/a
305.147	0.497	angry	Picture	100.071	n/a	3	7	6	n/a	6	60	2	n/a	n/a	n/a	n/a	334.308	AF32HAS.jpg
305.644	0.514	Blank	Blank	99.557	n/a	3	7	6	n/a	6	n/a	2	n/a	n/a	n/a	n/a	334.805	n/a
306.174	0.497	angry	Picture	99.043	n/a	3	7	7	n/a	7	42	2	n/a	n/a	n/a	n/a	335.336	AF03HAS.jpg
306.672	0.514	Blank	Blank	98.529	n/a	3	7	7	n/a	7	n/a	2	n/a	n/a	n/a	n/a	335.833	n/a
307.202	0.497	angry	Picture	98.015	n/a	3	7	8	n/a	8	55	2	n/a	n/a	n/a	n/a	336.363	AF25HAS.jpg
307.7	0.514	Blank	Blank	97.501	n/a	3	7	8	n/a	8	n/a	2	n/a	n/a	n/a	n/a	336.861	n/a
308.23	0.497	angry	Picture	96.987	n/a	3	7	9	n/a	9	72	2	n/a	n/a	n/a	n/a	337.391	AM14HAS.jpg
308.727	0.514	Blank	Blank	96.473	n/a	3	7	9	n/a	9	n/a	2	n/a	n/a	n/a	n/a	337.889	n/a
309.258	0.497	angry	Picture	95.959	n/a	3	7	10	n/a	10	63	2	n/a	n/a	n/a	n/a	338.419	AM04HAS.jpg
309.755	0.514	Blank	Blank	95.445	n/a	3	7	10	n/a	10	n/a	2	n/a	n/a	n/a	n/a	338.917	n/a
310.286	0.497	angry	Picture	94.931	n/a	3	7	11	n/a	11	58	2	n/a	n/a	n/a	n/a	339.447	BF29HAS.jpg
310.783	0.514	Blank	Blank	94.417	n/a	3	7	11	n/a	11	n/a	2	n/a	n/a	n/a	n/a	339.945	n/a
311.314	0.497	angry	Picture	93.903	n/a	3	7	12	n/a	12	48	2	n/a	n/a	n/a	n/a	340.475	AF14HAS.jpg
311.811	0.514	Blank	Blank	93.389	n/a	3	7	12	n/a	12	n/a	2	n/a	n/a	n/a	n/a	340.972	n/a
312.342	0.497	angry	Picture	92.875	n/a	3	7	13	n/a	13	66	2	n/a	n/a	n/a	n/a	341.503	BM07HAS.jpg
312.839	0.514	Blank	Blank	92.362	n/a	3	7	13	n/a	13	n/a	2	n/a	n/a	n/a	n/a	342.0	n/a
313.37	0.497	angry	Picture	91.848	n/a	3	7	14	n/a	14	70	2	n/a	n/a	n/a	n/a	342.531	BM11HAS.jpg
313.867	0.514	Blank	Blank	91.334	n/a	3	7	14	n/a	14	n/a	2	n/a	n/a	n/a	n/a	343.028	n/a
314.397	0.497	angry	Picture	90.82	n/a	3	7	15	n/a	15	43	2	n/a	n/a	n/a	n/a	343.559	BF04HAS.jpg
314.895	0.514	Blank	Blank	90.306	n/a	3	7	15	n/a	15	n/a	2	n/a	n/a	n/a	n/a	344.056	n/a
315.425	0.497	angry	Picture	89.792	n/a	3	7	16	n/a	16	49	2	n/a	n/a	n/a	n/a	344.587	AF17HAS.jpg
315.923	0.514	Blank	Blank	89.278	n/a	3	7	16	n/a	16	n/a	2	n/a	n/a	n/a	n/a	345.084	n/a
316.453	0.497	angry	Picture	88.764	n/a	3	7	17	n/a	17	75	2	n/a	n/a	n/a	n/a	345.614	AM23HAS.jpg
316.951	0.514	Blank	Blank	88.25	n/a	3	7	17	n/a	17	n/a	2	n/a	n/a	n/a	n/a	346.112	n/a
317.481	0.497	angry	Picture	87.736	n/a	3	7	18	n/a	18	80	2	n/a	n/a	n/a	n/a	346.642	BM35HAS.jpg
317.978	0.514	Blank	Blank	87.222	n/a	3	7	18	n/a	18	n/a	2	n/a	n/a	n/a	n/a	347.14	n/a
318.509	0.497	angry	Picture	86.708	n/a	3	7	19	n/a	19	76	2	n/a	n/a	n/a	n/a	347.67	BM24HAS.jpg
319.006	0.514	Blank	Blank	86.194	n/a	3	7	19	n/a	19	n/a	2	n/a	n/a	n/a	n/a	348.168	n/a
319.537	0.497	angry	Picture	85.68	n/a	3	7	20	n/a	20	74	2	n/a	n/a	n/a	n/a	348.698	AM22HAS.jpg
320.034	0.514	Blank	Blank	85.166	n/a	3	7	20	n/a	20	n/a	2	n/a	n/a	n/a	n/a	349.195	n/a
320.565	10.014	ITI	Fixation+	75.136	n/a	3	n/a	n/a	n/a	n/a	n/a	n/a	n/a	n/a	n/a	n/a	349.726	n/a
330.595	0.497	neutral	Picture	74.622	n/a	3	8	1	n/a	21	33	1	n/a	n/a	n/a	n/a	359.756	AM21NES.jpg
331.092	0.514	Blank	Blank	74.108	n/a	3	8	1	n/a	21	n/a	1	n/a	n/a	n/a	n/a	360.254	n/a
331.623	0.497	neutral	Picture	73.594	n/a	3	8	2	n/a	22	39	1	n/a	n/a	n/a	n/a	360.784	AM28NES.jpg
332.12	0.514	Blank	Blank	73.08	n/a	3	8	2	n/a	22	n/a	1	n/a	n/a	n/a	n/a	361.281	n/a
332.651	0.497	neutral	Picture	72.566	n/a	3	8	3	n/a	23	25	1	n/a	n/a	n/a	n/a	361.812	BM06NES.jpg
333.148	0.514	Blank	Blank	72.052	n/a	3	8	3	n/a	23	n/a	1	n/a	n/a	n/a	n/a	362.309	n/a
333.679	0.497	neutral	Picture	71.538	n/a	3	8	4	n/a	24	5	1	n/a	n/a	n/a	n/a	362.84	BF07NES.jpg
334.176	0.514	Blank	Blank	71.024	n/a	3	8	4	n/a	24	n/a	1	n/a	n/a	n/a	n/a	363.337	n/a
334.707	0.497	neutral	Picture	70.51	n/a	3	8	5	n/a	25	10	1	n/a	n/a	n/a	n/a	363.868	AF18NES.jpg
335.204	0.514	Blank	Blank	69.997	n/a	3	8	5	n/a	25	n/a	1	n/a	n/a	n/a	n/a	364.365	n/a
335.734	0.497	neutral	Picture	69.483	n/a	3	8	6	n/a	26	34	1	n/a	n/a	n/a	n/a	364.896	AM22NES.jpg
336.232	0.514	Blank	Blank	68.969	n/a	3	8	6	n/a	26	n/a	1	n/a	n/a	n/a	n/a	365.393	n/a
336.762	0.497	neutral	Picture	68.455	n/a	3	8	7	n/a	27	36	1	n/a	n/a	n/a	n/a	365.924	BM24NES.jpg
337.26	0.514	Blank	Blank	67.941	n/a	3	8	7	n/a	27	n/a	1	n/a	n/a	n/a	n/a	366.421	n/a
337.79	0.497	neutral	Picture	67.427	n/a	3	8	8	n/a	28	14	1	n/a	n/a	n/a	n/a	366.952	AF23NES.jpg
338.288	0.514	Blank	Blank	66.913	n/a	3	8	8	n/a	28	n/a	1	n/a	n/a	n/a	n/a	367.449	n/a
338.818	0.497	neutral	Picture	66.399	n/a	3	8	9	n/a	29	9	1	n/a	n/a	n/a	n/a	367.979	AF17NES.jpg
339.315	0.514	Blank	Blank	65.885	n/a	3	8	9	n/a	29	n/a	1	n/a	n/a	n/a	n/a	368.477	n/a
339.846	0.497	neutral	Picture	65.371	n/a	3	8	10	n/a	30	19	1	n/a	n/a	n/a	n/a	369.007	AF31NES.jpg
340.343	0.514	Blank	Blank	64.857	n/a	3	8	10	n/a	30	n/a	1	n/a	n/a	n/a	n/a	369.505	n/a
340.874	0.497	neutral	Picture	64.343	n/a	3	8	11	n/a	31	15	1	n/a	n/a	n/a	n/a	370.035	AF25NES.jpg
341.371	0.514	Blank	Blank	63.829	n/a	3	8	11	n/a	31	n/a	1	n/a	n/a	n/a	n/a	370.533	n/a
341.902	0.497	neutral	Picture	63.315	n/a	3	8	12	n/a	32	22	1	n/a	n/a	n/a	n/a	371.063	BM03NES.jpg
342.399	0.514	Blank	Blank	62.801	n/a	3	8	12	n/a	32	n/a	1	n/a	n/a	n/a	n/a	371.56	n/a
342.93	0.497	neutral	Picture	62.287	n/a	3	8	13	n/a	33	11	1	n/a	n/a	n/a	n/a	372.091	AF20NES.jpg
343.427	0.514	Blank	Blank	61.774	n/a	3	8	13	n/a	33	n/a	1	n/a	n/a	n/a	n/a	372.588	n/a
343.958	0.497	neutral	Picture	61.259	n/a	3	8	14	n/a	34	4	1	n/a	n/a	n/a	n/a	373.119	AF05NES.jpg
344.455	0.514	Blank	Blank	60.746	n/a	3	8	14	n/a	34	n/a	1	n/a	n/a	n/a	n/a	373.616	n/a
344.986	0.497	neutral	Picture	60.232	n/a	3	8	15	n/a	35	17	1	n/a	n/a	n/a	n/a	374.147	BF28NES.jpg
345.483	0.514	Blank	Blank	59.718	n/a	3	8	15	n/a	35	n/a	1	n/a	n/a	n/a	n/a	374.644	n/a
346.013	0.497	neutral	Picture	59.204	n/a	3	8	16	n/a	36	13	1	n/a	n/a	n/a	n/a	375.175	BF22NES.jpg
346.511	0.514	Blank	Blank	58.69	n/a	3	8	16	n/a	36	n/a	1	n/a	n/a	n/a	n/a	375.672	n/a
347.041	0.497	neutral	Picture	58.176	n/a	3	8	17	n/a	37	12	1	n/a	n/a	n/a	n/a	376.202	AF21NES.jpg
347.539	0.514	Blank	Blank	57.662	n/a	3	8	17	n/a	37	n/a	1	n/a	n/a	n/a	n/a	376.7	n/a
348.069	0.497	neutral	Picture	57.148	n/a	3	8	18	n/a	38	24	1	n/a	n/a	n/a	n/a	377.23	BM05NES.jpg
348.567	0.514	Blank	Blank	56.634	n/a	3	8	18	n/a	38	n/a	1	n/a	n/a	n/a	n/a	377.728	n/a
349.097	0.497	neutral	Picture	56.12	n/a	3	8	19	n/a	39	29	1	n/a	n/a	n/a	n/a	378.258	AM10NES.jpg
349.594	0.514	Blank	Blank	55.606	n/a	3	8	19	n/a	39	n/a	1	n/a	n/a	n/a	n/a	378.756	n/a
350.125	0.497	neutral	Picture	55.092	n/a	3	8	20	n/a	40	23	1	n/a	n/a	n/a	n/a	379.286	AM04NES.jpg
350.622	0.514	Blank	Blank	54.578	n/a	3	8	20	n/a	40	n/a	1	n/a	n/a	n/a	n/a	379.784	n/a
351.153	10.014	ITI	Fixation+	44.548	n/a	3	n/a	n/a	n/a	n/a	n/a	n/a	n/a	n/a	n/a	n/a	380.314	n/a
361.183	0.497	angry	Picture	44.034	n/a	3	9	1	n/a	41	62	2	n/a	n/a	n/a	n/a	390.344	BM03HAS.jpg
361.68	0.514	Blank	Blank	43.52	n/a	3	9	1	n/a	41	n/a	2	n/a	n/a	n/a	n/a	390.842	n/a
362.211	0.497	angry	Picture	43.006	n/a	3	9	2	n/a	42	52	2	n/a	n/a	n/a	n/a	391.372	AF21HAS.jpg
362.708	0.514	Blank	Blank	42.492	n/a	3	9	2	n/a	42	n/a	2	n/a	n/a	n/a	n/a	391.87	n/a
363.239	0.497	angry	Picture	41.978	n/a	3	9	3	n/a	43	44	2	n/a	n/a	n/a	n/a	392.4	AF05HAS.jpg
363.736	0.514	Blank	Blank	41.464	n/a	3	9	3	n/a	43	n/a	2	n/a	n/a	n/a	n/a	392.897	n/a
364.267	0.497	angry	Picture	40.95	n/a	3	9	4	n/a	44	53	2	n/a	n/a	n/a	n/a	393.428	BF22HAS.jpg
364.764	0.514	Blank	Blank	40.437	n/a	3	9	4	n/a	44	n/a	2	n/a	n/a	n/a	n/a	393.925	n/a
365.295	0.497	angry	Picture	39.922	n/a	3	9	5	n/a	45	54	2	n/a	n/a	n/a	n/a	394.456	AF23HAS.jpg
365.792	0.514	Blank	Blank	39.409	n/a	3	9	5	n/a	45	n/a	2	n/a	n/a	n/a	n/a	394.953	n/a
366.322	0.497	angry	Picture	38.895	n/a	3	9	6	n/a	46	68	2	n/a	n/a	n/a	n/a	395.484	AM09HAS.jpg
366.82	0.514	Blank	Blank	38.381	n/a	3	9	6	n/a	46	n/a	2	n/a	n/a	n/a	n/a	395.981	n/a
367.35	0.497	angry	Picture	37.867	n/a	3	9	7	n/a	47	64	2	n/a	n/a	n/a	n/a	396.512	BM05HAS.jpg
367.848	0.514	Blank	Blank	37.353	n/a	3	9	7	n/a	47	n/a	2	n/a	n/a	n/a	n/a	397.009	n/a
368.378	0.497	angry	Picture	36.839	n/a	3	9	8	n/a	48	59	2	n/a	n/a	n/a	n/a	397.539	AF31HAS.jpg
368.876	0.514	Blank	Blank	36.325	n/a	3	9	8	n/a	48	n/a	2	n/a	n/a	n/a	n/a	398.037	n/a
369.406	0.497	angry	Picture	35.811	n/a	3	9	9	n/a	49	41	2	n/a	n/a	n/a	n/a	398.567	AF01HAS.jpg
369.904	0.514	Blank	Blank	35.297	n/a	3	9	9	n/a	49	n/a	2	n/a	n/a	n/a	n/a	399.065	n/a
370.434	0.497	angry	Picture	34.783	n/a	3	9	10	n/a	50	73	2	n/a	n/a	n/a	n/a	399.595	AM21HAS.jpg
370.931	0.514	Blank	Blank	34.269	n/a	3	9	10	n/a	50	n/a	2	n/a	n/a	n/a	n/a	400.093	n/a
371.462	0.497	angry	Picture	33.755	n/a	3	9	11	n/a	51	65	2	n/a	n/a	n/a	n/a	400.623	BM06HAS.jpg
371.959	0.514	Blank	Blank	33.241	n/a	3	9	11	n/a	51	n/a	2	n/a	n/a	n/a	n/a	401.12	n/a
372.49	0.497	angry	Picture	32.727	n/a	3	9	12	n/a	52	56	2	n/a	n/a	n/a	n/a	401.651	AF26HAS.jpg
372.987	0.514	Blank	Blank	32.213	n/a	3	9	12	n/a	52	n/a	2	n/a	n/a	n/a	n/a	402.148	n/a
373.518	0.497	angry	Picture	31.699	n/a	3	9	13	n/a	53	45	2	n/a	n/a	n/a	n/a	402.679	BF07HAS.jpg
374.015	0.514	Blank	Blank	31.185	n/a	3	9	13	n/a	53	n/a	2	n/a	n/a	n/a	n/a	403.176	n/a
374.546	0.497	angry	Picture	30.671	n/a	3	9	14	n/a	54	78	2	n/a	n/a	n/a	n/a	403.707	BM26HAS.jpg
375.043	0.514	Blank	Blank	30.158	n/a	3	9	14	n/a	54	n/a	2	n/a	n/a	n/a	n/a	404.204	n/a
375.573	0.497	angry	Picture	29.644	n/a	3	9	15	n/a	55	50	2	n/a	n/a	n/a	n/a	404.735	AF18HAS.jpg
376.071	0.514	Blank	Blank	29.13	n/a	3	9	15	n/a	55	n/a	2	n/a	n/a	n/a	n/a	405.232	n/a
376.601	0.497	angry	Picture	28.616	n/a	3	9	16	n/a	56	47	2	n/a	n/a	n/a	n/a	405.763	BF11HAS.jpg
377.099	0.514	Blank	Blank	28.102	n/a	3	9	16	n/a	56	n/a	2	n/a	n/a	n/a	n/a	406.26	n/a
377.629	0.497	angry	Picture	27.588	n/a	3	9	17	n/a	57	77	2	n/a	n/a	n/a	n/a	406.791	BM25HAS.jpg
378.127	0.514	Blank	Blank	27.074	n/a	3	9	17	n/a	57	n/a	2	n/a	n/a	n/a	n/a	407.288	n/a
378.657	0.497	angry	Picture	26.56	n/a	3	9	18	n/a	58	57	2	n/a	n/a	n/a	n/a	407.818	BF28HAS.jpg
379.155	0.514	Blank	Blank	26.046	n/a	3	9	18	n/a	58	n/a	2	n/a	n/a	n/a	n/a	408.316	n/a
379.685	0.497	angry	Picture	25.532	n/a	3	9	19	n/a	59	61	2	n/a	n/a	n/a	n/a	408.846	AM01HAS.jpg
380.182	0.514	Blank	Blank	25.018	n/a	3	9	19	n/a	59	n/a	2	n/a	n/a	n/a	n/a	409.344	n/a
380.713	0.497	angry	Picture	24.504	n/a	3	9	20	n/a	60	79	2	n/a	n/a	n/a	n/a	409.874	BM28HAS.jpg
381.21	0.514	Blank	Blank	23.99	n/a	3	9	20	n/a	60	n/a	2	n/a	n/a	n/a	n/a	410.372	n/a
381.741	10.014	ITI	Fixation+	13.96	n/a	3	n/a	n/a	n/a	n/a	n/a	n/a	n/a	n/a	n/a	n/a	410.902	n/a
405.714	n/a	ConfirmRating	Rate	n/a	13.959	3	n/a	n/a	0	n/a	n/a	n/a	2	Angry	30	30	434.876	n/a
426.746	n/a	ConfirmRating	Rate	n/a	21.005	3	n/a	n/a	1	n/a	n/a	n/a	3	Angry	2	2	455.908	n/a
426.769	10.014	ITI	Fixation+	106.99	n/a	4	n/a	n/a	n/a	n/a	n/a	n/a	n/a	n/a	n/a	n/a	455.93	n/a
436.799	0.497	happy	Picture	106.476	n/a	4	10	1	n/a	61	119	3	n/a	n/a	n/a	n/a	465.961	BM28ANS.jpg
437.297	0.514	Blank	Blank	105.963	n/a	4	10	1	n/a	61	n/a	3	n/a	n/a	n/a	n/a	466.458	n/a
437.827	0.497	happy	Picture	105.448	n/a	4	10	2	n/a	62	100	3	n/a	n/a	n/a	n/a	466.988	AF32ANS.jpg
438.325	0.514	Blank	Blank	104.935	n/a	4	10	2	n/a	62	n/a	3	n/a	n/a	n/a	n/a	467.486	n/a
438.855	0.497	happy	Picture	104.421	n/a	4	10	3	n/a	63	118	3	n/a	n/a	n/a	n/a	468.016	BM26ANS.jpg
439.352	0.514	Blank	Blank	103.907	n/a	4	10	3	n/a	63	n/a	3	n/a	n/a	n/a	n/a	468.514	n/a
439.883	0.497	happy	Picture	103.393	n/a	4	10	4	n/a	64	89	3	n/a	n/a	n/a	n/a	469.044	AF17ANS.jpg
440.38	0.514	Blank	Blank	102.879	n/a	4	10	4	n/a	64	n/a	3	n/a	n/a	n/a	n/a	469.541	n/a
440.911	0.497	happy	Picture	102.365	n/a	4	10	5	n/a	65	116	3	n/a	n/a	n/a	n/a	470.072	BM24ANS.jpg
441.408	0.514	Blank	Blank	101.851	n/a	4	10	5	n/a	65	n/a	3	n/a	n/a	n/a	n/a	470.569	n/a
441.939	0.497	happy	Picture	101.337	n/a	4	10	6	n/a	66	105	3	n/a	n/a	n/a	n/a	471.1	BM06ANS.jpg
442.436	0.514	Blank	Blank	100.823	n/a	4	10	6	n/a	66	n/a	3	n/a	n/a	n/a	n/a	471.597	n/a
442.967	0.497	happy	Picture	100.309	n/a	4	10	7	n/a	67	106	3	n/a	n/a	n/a	n/a	472.128	AM07ANS.jpg
443.464	0.514	Blank	Blank	99.795	n/a	4	10	7	n/a	67	n/a	3	n/a	n/a	n/a	n/a	472.625	n/a
443.995	0.497	happy	Picture	99.281	n/a	4	10	8	n/a	68	94	3	n/a	n/a	n/a	n/a	473.156	AF23ANS.jpg
444.492	0.514	Blank	Blank	98.767	n/a	4	10	8	n/a	68	n/a	3	n/a	n/a	n/a	n/a	473.653	n/a
445.022	0.497	happy	Picture	98.253	n/a	4	10	9	n/a	69	117	3	n/a	n/a	n/a	n/a	474.184	BM25ANS.jpg
445.52	0.514	Blank	Blank	97.739	n/a	4	10	9	n/a	69	n/a	3	n/a	n/a	n/a	n/a	474.681	n/a
446.05	0.497	happy	Picture	97.225	n/a	4	10	10	n/a	70	90	3	n/a	n/a	n/a	n/a	475.212	AF18ANS.jpg
446.548	0.514	Blank	Blank	96.712	n/a	4	10	10	n/a	70	n/a	3	n/a	n/a	n/a	n/a	475.709	n/a
447.078	0.497	happy	Picture	96.197	n/a	4	10	11	n/a	71	83	3	n/a	n/a	n/a	n/a	476.239	BF04ANS.jpg
447.576	0.514	Blank	Blank	95.684	n/a	4	10	11	n/a	71	n/a	3	n/a	n/a	n/a	n/a	476.737	n/a
448.106	0.497	happy	Picture	95.17	n/a	4	10	12	n/a	72	112	3	n/a	n/a	n/a	n/a	477.267	AM14ANS.jpg
448.603	0.514	Blank	Blank	94.656	n/a	4	10	12	n/a	72	n/a	3	n/a	n/a	n/a	n/a	477.765	n/a
449.134	0.497	happy	Picture	94.142	n/a	4	10	13	n/a	73	102	3	n/a	n/a	n/a	n/a	478.295	BM03ANS.jpg
449.631	0.514	Blank	Blank	93.628	n/a	4	10	13	n/a	73	n/a	3	n/a	n/a	n/a	n/a	478.793	n/a
450.162	0.497	happy	Picture	93.114	n/a	4	10	14	n/a	74	95	3	n/a	n/a	n/a	n/a	479.323	AF25ANS.jpg
450.659	0.514	Blank	Blank	92.6	n/a	4	10	14	n/a	74	n/a	3	n/a	n/a	n/a	n/a	479.82	n/a
451.19	0.497	happy	Picture	92.086	n/a	4	10	15	n/a	75	113	3	n/a	n/a	n/a	n/a	480.351	AM21ANS.jpg
451.687	0.514	Blank	Blank	91.572	n/a	4	10	15	n/a	75	n/a	3	n/a	n/a	n/a	n/a	480.848	n/a
452.218	0.497	happy	Picture	91.058	n/a	4	10	16	n/a	76	88	3	n/a	n/a	n/a	n/a	481.379	AF14ANS.jpg
452.715	0.514	Blank	Blank	90.544	n/a	4	10	16	n/a	76	n/a	3	n/a	n/a	n/a	n/a	481.876	n/a
453.245	0.497	happy	Picture	90.03	n/a	4	10	17	n/a	77	93	3	n/a	n/a	n/a	n/a	482.407	BF22ANS.jpg
453.743	0.514	Blank	Blank	89.516	n/a	4	10	17	n/a	77	n/a	3	n/a	n/a	n/a	n/a	482.904	n/a
454.273	0.497	happy	Picture	89.002	n/a	4	10	18	n/a	78	86	3	n/a	n/a	n/a	n/a	483.435	AF09ANS.jpg
454.771	0.514	Blank	Blank	88.488	n/a	4	10	18	n/a	78	n/a	3	n/a	n/a	n/a	n/a	483.932	n/a
455.301	0.497	happy	Picture	87.974	n/a	4	10	19	n/a	79	92	3	n/a	n/a	n/a	n/a	484.462	AF21ANS.jpg
455.799	0.514	Blank	Blank	87.461	n/a	4	10	19	n/a	79	n/a	3	n/a	n/a	n/a	n/a	484.96	n/a
456.329	0.497	happy	Picture	86.946	n/a	4	10	20	n/a	80	84	3	n/a	n/a	n/a	n/a	485.49	AF05ANS.jpg
456.827	0.514	Blank	Blank	86.433	n/a	4	10	20	n/a	80	n/a	3	n/a	n/a	n/a	n/a	485.988	n/a
457.357	10.014	ITI	Fixation+	76.402	n/a	4	n/a	n/a	n/a	n/a	n/a	n/a	n/a	n/a	n/a	n/a	486.518	n/a
467.387	0.497	neutral	Picture	75.888	n/a	4	11	1	n/a	81	4	1	n/a	n/a	n/a	n/a	496.548	AF05NES.jpg
467.885	0.514	Blank	Blank	75.375	n/a	4	11	1	n/a	81	n/a	1	n/a	n/a	n/a	n/a	497.046	n/a
468.415	0.497	neutral	Picture	74.861	n/a	4	11	2	n/a	82	14	1	n/a	n/a	n/a	n/a	497.576	AF23NES.jpg
468.913	0.514	Blank	Blank	74.347	n/a	4	11	2	n/a	82	n/a	1	n/a	n/a	n/a	n/a	498.074	n/a
469.443	0.497	neutral	Picture	73.833	n/a	4	11	3	n/a	83	19	1	n/a	n/a	n/a	n/a	498.604	AF31NES.jpg
469.94	0.514	Blank	Blank	73.319	n/a	4	11	3	n/a	83	n/a	1	n/a	n/a	n/a	n/a	499.102	n/a
470.471	0.497	neutral	Picture	72.805	n/a	4	11	4	n/a	84	8	1	n/a	n/a	n/a	n/a	499.632	AF14NES.jpg
470.968	0.514	Blank	Blank	72.291	n/a	4	11	4	n/a	84	n/a	1	n/a	n/a	n/a	n/a	500.13	n/a
471.499	0.497	neutral	Picture	71.777	n/a	4	11	5	n/a	85	25	1	n/a	n/a	n/a	n/a	500.66	BM06NES.jpg
471.996	0.514	Blank	Blank	71.263	n/a	4	11	5	n/a	85	n/a	1	n/a	n/a	n/a	n/a	501.157	n/a
472.527	0.497	neutral	Picture	70.749	n/a	4	11	6	n/a	86	9	1	n/a	n/a	n/a	n/a	501.688	AF17NES.jpg
473.024	0.514	Blank	Blank	70.235	n/a	4	11	6	n/a	86	n/a	1	n/a	n/a	n/a	n/a	502.185	n/a
473.555	0.497	neutral	Picture	69.721	n/a	4	11	7	n/a	87	2	1	n/a	n/a	n/a	n/a	502.716	AF03NES.jpg
474.052	0.514	Blank	Blank	69.207	n/a	4	11	7	n/a	87	n/a	1	n/a	n/a	n/a	n/a	503.213	n/a
474.582	0.497	neutral	Picture	68.693	n/a	4	11	8	n/a	88	17	1	n/a	n/a	n/a	n/a	503.744	BF28NES.jpg
475.08	0.514	Blank	Blank	68.179	n/a	4	11	8	n/a	88	n/a	1	n/a	n/a	n/a	n/a	504.241	n/a
475.61	0.497	neutral	Picture	67.665	n/a	4	11	9	n/a	89	6	1	n/a	n/a	n/a	n/a	504.772	AF09NES.jpg
476.108	0.514	Blank	Blank	67.151	n/a	4	11	9	n/a	89	n/a	1	n/a	n/a	n/a	n/a	505.269	n/a
476.638	0.497	neutral	Picture	66.637	n/a	4	11	10	n/a	90	12	1	n/a	n/a	n/a	n/a	505.8	AF21NES.jpg
477.136	0.514	Blank	Blank	66.124	n/a	4	11	10	n/a	90	n/a	1	n/a	n/a	n/a	n/a	506.297	n/a
477.666	0.497	neutral	Picture	65.609	n/a	4	11	11	n/a	91	24	1	n/a	n/a	n/a	n/a	506.827	BM05NES.jpg
478.164	0.514	Blank	Blank	65.096	n/a	4	11	11	n/a	91	n/a	1	n/a	n/a	n/a	n/a	507.325	n/a
478.694	0.497	neutral	Picture	64.582	n/a	4	11	12	n/a	92	34	1	n/a	n/a	n/a	n/a	507.855	AM22NES.jpg
479.192	0.514	Blank	Blank	64.068	n/a	4	11	12	n/a	92	n/a	1	n/a	n/a	n/a	n/a	508.353	n/a
479.722	0.497	neutral	Picture	63.554	n/a	4	11	13	n/a	93	23	1	n/a	n/a	n/a	n/a	508.883	AM04NES.jpg
480.219	0.514	Blank	Blank	63.04	n/a	4	11	13	n/a	93	n/a	1	n/a	n/a	n/a	n/a	509.381	n/a
480.75	0.497	neutral	Picture	62.526	n/a	4	11	14	n/a	94	15	1	n/a	n/a	n/a	n/a	509.911	AF25NES.jpg
481.247	0.514	Blank	Blank	62.012	n/a	4	11	14	n/a	94	n/a	1	n/a	n/a	n/a	n/a	510.409	n/a
481.778	0.497	neutral	Picture	61.498	n/a	4	11	15	n/a	95	37	1	n/a	n/a	n/a	n/a	510.939	BM25NES.jpg
482.275	0.514	Blank	Blank	60.984	n/a	4	11	15	n/a	95	n/a	1	n/a	n/a	n/a	n/a	511.436	n/a
482.806	0.497	neutral	Picture	60.47	n/a	4	11	16	n/a	96	32	1	n/a	n/a	n/a	n/a	511.967	AM14NES.jpg
483.303	0.514	Blank	Blank	59.956	n/a	4	11	16	n/a	96	n/a	1	n/a	n/a	n/a	n/a	512.464	n/a
483.834	0.497	neutral	Picture	59.442	n/a	4	11	17	n/a	97	3	1	n/a	n/a	n/a	n/a	512.995	BF04NES.jpg
484.331	0.514	Blank	Blank	58.928	n/a	4	11	17	n/a	97	n/a	1	n/a	n/a	n/a	n/a	513.492	n/a
484.861	0.497	neutral	Picture	58.414	n/a	4	11	18	n/a	98	16	1	n/a	n/a	n/a	n/a	514.023	AF26NES.jpg
485.359	0.514	Blank	Blank	57.9	n/a	4	11	18	n/a	98	n/a	1	n/a	n/a	n/a	n/a	514.52	n/a
485.889	0.497	neutral	Picture	57.386	n/a	4	11	19	n/a	99	27	1	n/a	n/a	n/a	n/a	515.051	BM08NES.jpg
486.387	0.514	Blank	Blank	56.873	n/a	4	11	19	n/a	99	n/a	1	n/a	n/a	n/a	n/a	515.548	n/a
486.917	0.497	neutral	Picture	56.358	n/a	4	11	20	n/a	100	28	1	n/a	n/a	n/a	n/a	516.078	AM09NES.jpg
487.415	0.514	Blank	Blank	55.845	n/a	4	11	20	n/a	100	n/a	1	n/a	n/a	n/a	n/a	516.576	n/a
487.945	10.014	ITI	Fixation+	45.814	n/a	4	n/a	n/a	n/a	n/a	n/a	n/a	n/a	n/a	n/a	n/a	517.106	n/a
497.975	0.497	happy	Picture	45.3	n/a	4	12	1	n/a	101	81	3	n/a	n/a	n/a	n/a	527.136	AF01ANS.jpg
498.473	0.514	Blank	Blank	44.786	n/a	4	12	1	n/a	101	n/a	3	n/a	n/a	n/a	n/a	527.634	n/a
499.003	0.497	happy	Picture	44.272	n/a	4	12	2	n/a	102	120	3	n/a	n/a	n/a	n/a	528.164	AM35ANS.jpg
499.501	0.514	Blank	Blank	43.759	n/a	4	12	2	n/a	102	n/a	3	n/a	n/a	n/a	n/a	528.662	n/a
500.031	0.497	happy	Picture	43.245	n/a	4	12	3	n/a	103	114	3	n/a	n/a	n/a	n/a	529.192	AM22ANS.jpg
500.529	0.514	Blank	Blank	42.731	n/a	4	12	3	n/a	103	n/a	3	n/a	n/a	n/a	n/a	529.69	n/a
501.059	0.497	happy	Picture	42.217	n/a	4	12	4	n/a	104	109	3	n/a	n/a	n/a	n/a	530.22	AM10ANS.jpg
501.556	0.514	Blank	Blank	41.703	n/a	4	12	4	n/a	104	n/a	3	n/a	n/a	n/a	n/a	530.718	n/a
502.087	0.497	happy	Picture	41.189	n/a	4	12	5	n/a	105	96	3	n/a	n/a	n/a	n/a	531.248	AF26ANS.jpg
502.584	0.514	Blank	Blank	40.675	n/a	4	12	5	n/a	105	n/a	3	n/a	n/a	n/a	n/a	531.745	n/a
503.115	0.497	happy	Picture	40.161	n/a	4	12	6	n/a	106	82	3	n/a	n/a	n/a	n/a	532.276	AF03ANS.jpg
503.612	0.514	Blank	Blank	39.647	n/a	4	12	6	n/a	106	n/a	3	n/a	n/a	n/a	n/a	532.773	n/a
504.143	0.497	happy	Picture	39.133	n/a	4	12	7	n/a	107	97	3	n/a	n/a	n/a	n/a	533.304	BF28ANS.jpg
504.64	0.514	Blank	Blank	38.619	n/a	4	12	7	n/a	107	n/a	3	n/a	n/a	n/a	n/a	533.801	n/a
505.171	0.497	happy	Picture	38.105	n/a	4	12	8	n/a	108	115	3	n/a	n/a	n/a	n/a	534.332	AM23ANS.jpg
505.668	0.514	Blank	Blank	37.591	n/a	4	12	8	n/a	108	n/a	3	n/a	n/a	n/a	n/a	534.829	n/a
506.198	0.497	happy	Picture	37.077	n/a	4	12	9	n/a	109	91	3	n/a	n/a	n/a	n/a	535.36	AF20ANS.jpg
506.696	0.514	Blank	Blank	36.563	n/a	4	12	9	n/a	109	n/a	3	n/a	n/a	n/a	n/a	535.857	n/a
507.226	0.497	happy	Picture	36.049	n/a	4	12	10	n/a	110	87	3	n/a	n/a	n/a	n/a	536.388	BF11ANS.jpg
507.724	0.514	Blank	Blank	35.535	n/a	4	12	10	n/a	110	n/a	3	n/a	n/a	n/a	n/a	536.885	n/a
508.254	0.497	happy	Picture	35.022	n/a	4	12	11	n/a	111	85	3	n/a	n/a	n/a	n/a	537.415	BF07ANS.jpg
508.752	0.514	Blank	Blank	34.508	n/a	4	12	11	n/a	111	n/a	3	n/a	n/a	n/a	n/a	537.913	n/a
509.282	0.497	happy	Picture	33.994	n/a	4	12	12	n/a	112	110	3	n/a	n/a	n/a	n/a	538.443	AM11ANS.jpg
509.779	0.514	Blank	Blank	33.48	n/a	4	12	12	n/a	112	n/a	3	n/a	n/a	n/a	n/a	538.941	n/a
510.31	0.497	happy	Picture	32.966	n/a	4	12	13	n/a	113	111	3	n/a	n/a	n/a	n/a	539.471	BM12ANS.jpg
510.807	0.514	Blank	Blank	32.452	n/a	4	12	13	n/a	113	n/a	3	n/a	n/a	n/a	n/a	539.969	n/a
511.338	0.497	happy	Picture	31.938	n/a	4	12	14	n/a	114	103	3	n/a	n/a	n/a	n/a	540.499	AM04ANS.jpg
511.835	0.514	Blank	Blank	31.424	n/a	4	12	14	n/a	114	n/a	3	n/a	n/a	n/a	n/a	540.996	n/a
512.366	0.497	happy	Picture	30.91	n/a	4	12	15	n/a	115	101	3	n/a	n/a	n/a	n/a	541.527	AM01ANS.jpg
512.863	0.514	Blank	Blank	30.396	n/a	4	12	15	n/a	115	n/a	3	n/a	n/a	n/a	n/a	542.024	n/a
513.394	0.497	happy	Picture	29.882	n/a	4	12	16	n/a	116	104	3	n/a	n/a	n/a	n/a	542.555	BM05ANS.jpg
513.891	0.514	Blank	Blank	29.368	n/a	4	12	16	n/a	116	n/a	3	n/a	n/a	n/a	n/a	543.052	n/a
514.422	0.497	happy	Picture	28.854	n/a	4	12	17	n/a	117	107	3	n/a	n/a	n/a	n/a	543.583	BM08ANS.jpg
514.919	0.514	Blank	Blank	28.34	n/a	4	12	17	n/a	117	n/a	3	n/a	n/a	n/a	n/a	544.08	n/a
515.449	0.497	happy	Picture	27.826	n/a	4	12	18	n/a	118	98	3	n/a	n/a	n/a	n/a	544.611	BF29ANS.jpg
515.947	0.514	Blank	Blank	27.312	n/a	4	12	18	n/a	118	n/a	3	n/a	n/a	n/a	n/a	545.108	n/a
516.477	0.497	happy	Picture	26.798	n/a	4	12	19	n/a	119	99	3	n/a	n/a	n/a	n/a	545.639	AF31ANS.jpg
516.975	0.514	Blank	Blank	26.284	n/a	4	12	19	n/a	119	n/a	3	n/a	n/a	n/a	n/a	546.136	n/a
517.505	0.497	happy	Picture	25.771	n/a	4	12	20	n/a	120	108	3	n/a	n/a	n/a	n/a	546.666	AM09ANS.jpg
518.003	0.514	Blank	Blank	25.256	n/a	4	12	20	n/a	120	n/a	3	n/a	n/a	n/a	n/a	547.164	n/a
518.533	10.014	ITI	Fixation+	15.226	n/a	4	n/a	n/a	n/a	n/a	n/a	n/a	n/a	n/a	n/a	n/a	547.694	n/a
543.773	n/a	ConfirmRating	Rate	n/a	15.22	4	n/a	n/a	0	n/a	n/a	n/a	2	Happy	44	44	572.934	n/a
564.772	n/a	ConfirmRating	Rate	n/a	20.989	4	n/a	n/a	1	n/a	n/a	n/a	3	Happy	4	4	593.933	n/a
