onset	duration	trial_type	event_type	time_until_response	response_time	trial_number	block_num_within_trial	image_seq_num_within_block	question_seq_num_within_block	image_seq_num	picture_number	condition	question_type	block_type	rating	rating_computed	onset_uncorrected	KDEV_imagefile
0.01	10.014	ITI	Fixation+	102.217	n/a	1	n/a	n/a	n/a	n/a	n/a	n/a	n/a	n/a	n/a	n/a	0.293	n/a
10.04	0.497	happy	Picture	101.703	n/a	1	1	1	n/a	1	46	2	n/a	n/a	n/a	n/a	10.323	AF09HAS.jpg
10.537	0.514	Blank	Blank	101.189	n/a	1	1	1	n/a	1	n/a	2	n/a	n/a	n/a	n/a	10.821	n/a
11.068	0.497	happy	Picture	100.675	n/a	1	1	2	n/a	2	69	2	n/a	n/a	n/a	n/a	11.351	AM10HAS.jpg
11.565	0.514	Blank	Blank	100.161	n/a	1	1	2	n/a	2	n/a	2	n/a	n/a	n/a	n/a	11.848	n/a
12.095	0.497	happy	Picture	99.647	n/a	1	1	3	n/a	3	71	2	n/a	n/a	n/a	n/a	12.379	BM12HAS.jpg
12.593	0.514	Blank	Blank	99.133	n/a	1	1	3	n/a	3	n/a	2	n/a	n/a	n/a	n/a	12.876	n/a
13.123	0.497	happy	Picture	98.619	n/a	1	1	4	n/a	4	51	2	n/a	n/a	n/a	n/a	13.407	AF20HAS.jpg
13.621	0.514	Blank	Blank	98.105	n/a	1	1	4	n/a	4	n/a	2	n/a	n/a	n/a	n/a	13.904	n/a
14.151	0.497	happy	Picture	97.591	n/a	1	1	5	n/a	5	67	2	n/a	n/a	n/a	n/a	14.435	BM08HAS.jpg
14.649	0.514	Blank	Blank	97.077	n/a	1	1	5	n/a	5	n/a	2	n/a	n/a	n/a	n/a	14.932	n/a
15.179	0.497	happy	Picture	96.563	n/a	1	1	6	n/a	6	60	2	n/a	n/a	n/a	n/a	15.463	AF32HAS.jpg
15.677	0.514	Blank	Blank	96.049	n/a	1	1	6	n/a	6	n/a	2	n/a	n/a	n/a	n/a	15.96	n/a
16.207	0.497	happy	Picture	95.535	n/a	1	1	7	n/a	7	42	2	n/a	n/a	n/a	n/a	16.491	AF03HAS.jpg
16.704	0.514	Blank	Blank	95.021	n/a	1	1	7	n/a	7	n/a	2	n/a	n/a	n/a	n/a	16.988	n/a
17.235	0.497	happy	Picture	94.508	n/a	1	1	8	n/a	8	55	2	n/a	n/a	n/a	n/a	17.518	AF25HAS.jpg
17.732	0.514	Blank	Blank	93.994	n/a	1	1	8	n/a	8	n/a	2	n/a	n/a	n/a	n/a	18.016	n/a
18.263	0.497	happy	Picture	93.48	n/a	1	1	9	n/a	9	72	2	n/a	n/a	n/a	n/a	18.546	AM14HAS.jpg
18.76	0.514	Blank	Blank	92.966	n/a	1	1	9	n/a	9	n/a	2	n/a	n/a	n/a	n/a	19.044	n/a
19.291	0.497	happy	Picture	92.452	n/a	1	1	10	n/a	10	63	2	n/a	n/a	n/a	n/a	19.574	AM04HAS.jpg
19.788	0.514	Blank	Blank	91.938	n/a	1	1	10	n/a	10	n/a	2	n/a	n/a	n/a	n/a	20.072	n/a
20.319	0.497	happy	Picture	91.424	n/a	1	1	11	n/a	11	58	2	n/a	n/a	n/a	n/a	20.602	BF29HAS.jpg
20.816	0.514	Blank	Blank	90.91	n/a	1	1	11	n/a	11	n/a	2	n/a	n/a	n/a	n/a	21.099	n/a
21.346	0.497	happy	Picture	90.396	n/a	1	1	12	n/a	12	48	2	n/a	n/a	n/a	n/a	21.63	AF14HAS.jpg
21.844	0.514	Blank	Blank	89.882	n/a	1	1	12	n/a	12	n/a	2	n/a	n/a	n/a	n/a	22.127	n/a
22.374	0.497	happy	Picture	89.368	n/a	1	1	13	n/a	13	66	2	n/a	n/a	n/a	n/a	22.658	BM07HAS.jpg
22.872	0.514	Blank	Blank	88.854	n/a	1	1	13	n/a	13	n/a	2	n/a	n/a	n/a	n/a	23.155	n/a
23.402	0.497	happy	Picture	88.34	n/a	1	1	14	n/a	14	70	2	n/a	n/a	n/a	n/a	23.686	BM11HAS.jpg
23.9	0.514	Blank	Blank	87.826	n/a	1	1	14	n/a	14	n/a	2	n/a	n/a	n/a	n/a	24.183	n/a
24.43	0.497	happy	Picture	87.312	n/a	1	1	15	n/a	15	43	2	n/a	n/a	n/a	n/a	24.714	BF04HAS.jpg
24.927	0.514	Blank	Blank	86.798	n/a	1	1	15	n/a	15	n/a	2	n/a	n/a	n/a	n/a	25.211	n/a
25.458	0.497	happy	Picture	86.284	n/a	1	1	16	n/a	16	49	2	n/a	n/a	n/a	n/a	25.742	AF17HAS.jpg
25.955	0.514	Blank	Blank	85.77	n/a	1	1	16	n/a	16	n/a	2	n/a	n/a	n/a	n/a	26.239	n/a
26.486	0.497	happy	Picture	85.257	n/a	1	1	17	n/a	17	75	2	n/a	n/a	n/a	n/a	26.769	AM23HAS.jpg
26.983	0.514	Blank	Blank	84.743	n/a	1	1	17	n/a	17	n/a	2	n/a	n/a	n/a	n/a	27.267	n/a
27.514	0.497	happy	Picture	84.229	n/a	1	1	18	n/a	18	80	2	n/a	n/a	n/a	n/a	27.797	BM35HAS.jpg
28.011	0.514	Blank	Blank	83.715	n/a	1	1	18	n/a	18	n/a	2	n/a	n/a	n/a	n/a	28.295	n/a
28.542	0.497	happy	Picture	83.201	n/a	1	1	19	n/a	19	76	2	n/a	n/a	n/a	n/a	28.825	BM24HAS.jpg
29.039	0.514	Blank	Blank	82.687	n/a	1	1	19	n/a	19	n/a	2	n/a	n/a	n/a	n/a	29.323	n/a
29.57	0.497	happy	Picture	82.173	n/a	1	1	20	n/a	20	74	2	n/a	n/a	n/a	n/a	29.853	AM22HAS.jpg
30.067	0.514	Blank	Blank	81.659	n/a	1	1	20	n/a	20	n/a	2	n/a	n/a	n/a	n/a	30.351	n/a
30.598	10.014	ITI	Fixation+	71.629	n/a	1	n/a	n/a	n/a	n/a	n/a	n/a	n/a	n/a	n/a	n/a	30.881	n/a
40.628	0.497	neutral	Picture	71.115	n/a	1	2	1	n/a	21	33	1	n/a	n/a	n/a	n/a	40.911	AM21NES.jpg
41.125	0.514	Blank	Blank	70.601	n/a	1	2	1	n/a	21	n/a	1	n/a	n/a	n/a	n/a	41.408	n/a
41.656	0.497	neutral	Picture	70.087	n/a	1	2	2	n/a	22	39	1	n/a	n/a	n/a	n/a	41.939	AM28NES.jpg
42.153	0.514	Blank	Blank	69.573	n/a	1	2	2	n/a	22	n/a	1	n/a	n/a	n/a	n/a	42.436	n/a
42.683	0.497	neutral	Picture	69.059	n/a	1	2	3	n/a	23	25	1	n/a	n/a	n/a	n/a	42.967	BM06NES.jpg
43.181	0.514	Blank	Blank	68.545	n/a	1	2	3	n/a	23	n/a	1	n/a	n/a	n/a	n/a	43.464	n/a
43.711	0.497	neutral	Picture	68.031	n/a	1	2	4	n/a	24	5	1	n/a	n/a	n/a	n/a	43.995	BF07NES.jpg
44.209	0.514	Blank	Blank	67.517	n/a	1	2	4	n/a	24	n/a	1	n/a	n/a	n/a	n/a	44.492	n/a
44.739	0.497	neutral	Picture	67.003	n/a	1	2	5	n/a	25	10	1	n/a	n/a	n/a	n/a	45.023	AF18NES.jpg
45.237	0.514	Blank	Blank	66.489	n/a	1	2	5	n/a	25	n/a	1	n/a	n/a	n/a	n/a	45.52	n/a
45.767	0.497	neutral	Picture	65.975	n/a	1	2	6	n/a	26	34	1	n/a	n/a	n/a	n/a	46.051	AM22NES.jpg
46.265	0.514	Blank	Blank	65.461	n/a	1	2	6	n/a	26	n/a	1	n/a	n/a	n/a	n/a	46.548	n/a
46.795	0.497	neutral	Picture	64.948	n/a	1	2	7	n/a	27	36	1	n/a	n/a	n/a	n/a	47.078	BM24NES.jpg
47.292	0.514	Blank	Blank	64.434	n/a	1	2	7	n/a	27	n/a	1	n/a	n/a	n/a	n/a	47.576	n/a
47.823	0.497	neutral	Picture	63.92	n/a	1	2	8	n/a	28	14	1	n/a	n/a	n/a	n/a	48.106	AF23NES.jpg
48.32	0.514	Blank	Blank	63.406	n/a	1	2	8	n/a	28	n/a	1	n/a	n/a	n/a	n/a	48.604	n/a
48.851	0.497	neutral	Picture	62.892	n/a	1	2	9	n/a	29	9	1	n/a	n/a	n/a	n/a	49.134	AF17NES.jpg
49.348	0.514	Blank	Blank	62.378	n/a	1	2	9	n/a	29	n/a	1	n/a	n/a	n/a	n/a	49.632	n/a
49.879	0.497	neutral	Picture	61.864	n/a	1	2	10	n/a	30	19	1	n/a	n/a	n/a	n/a	50.162	AF31NES.jpg
50.376	0.514	Blank	Blank	61.35	n/a	1	2	10	n/a	30	n/a	1	n/a	n/a	n/a	n/a	50.66	n/a
50.907	0.497	neutral	Picture	60.836	n/a	1	2	11	n/a	31	15	1	n/a	n/a	n/a	n/a	51.19	AF25NES.jpg
51.404	0.514	Blank	Blank	60.322	n/a	1	2	11	n/a	31	n/a	1	n/a	n/a	n/a	n/a	51.687	n/a
51.934	0.497	neutral	Picture	59.808	n/a	1	2	12	n/a	32	22	1	n/a	n/a	n/a	n/a	52.218	BM03NES.jpg
52.432	0.514	Blank	Blank	59.294	n/a	1	2	12	n/a	32	n/a	1	n/a	n/a	n/a	n/a	52.715	n/a
52.962	0.497	neutral	Picture	58.78	n/a	1	2	13	n/a	33	11	1	n/a	n/a	n/a	n/a	53.246	AF20NES.jpg
53.46	0.514	Blank	Blank	58.266	n/a	1	2	13	n/a	33	n/a	1	n/a	n/a	n/a	n/a	53.743	n/a
53.99	0.497	neutral	Picture	57.752	n/a	1	2	14	n/a	34	4	1	n/a	n/a	n/a	n/a	54.274	AF05NES.jpg
54.488	0.514	Blank	Blank	57.238	n/a	1	2	14	n/a	34	n/a	1	n/a	n/a	n/a	n/a	54.771	n/a
55.018	0.497	neutral	Picture	56.724	n/a	1	2	15	n/a	35	17	1	n/a	n/a	n/a	n/a	55.302	BF28NES.jpg
55.515	0.514	Blank	Blank	56.21	n/a	1	2	15	n/a	35	n/a	1	n/a	n/a	n/a	n/a	55.799	n/a
56.046	0.497	neutral	Picture	55.697	n/a	1	2	16	n/a	36	13	1	n/a	n/a	n/a	n/a	56.33	BF22NES.jpg
56.543	0.514	Blank	Blank	55.183	n/a	1	2	16	n/a	36	n/a	1	n/a	n/a	n/a	n/a	56.827	n/a
57.074	0.497	neutral	Picture	54.669	n/a	1	2	17	n/a	37	12	1	n/a	n/a	n/a	n/a	57.357	AF21NES.jpg
57.571	0.514	Blank	Blank	54.155	n/a	1	2	17	n/a	37	n/a	1	n/a	n/a	n/a	n/a	57.855	n/a
58.102	0.497	neutral	Picture	53.641	n/a	1	2	18	n/a	38	24	1	n/a	n/a	n/a	n/a	58.385	BM05NES.jpg
58.599	0.514	Blank	Blank	53.127	n/a	1	2	18	n/a	38	n/a	1	n/a	n/a	n/a	n/a	58.883	n/a
59.13	0.497	neutral	Picture	52.613	n/a	1	2	19	n/a	39	29	1	n/a	n/a	n/a	n/a	59.413	AM10NES.jpg
59.627	0.514	Blank	Blank	52.099	n/a	1	2	19	n/a	39	n/a	1	n/a	n/a	n/a	n/a	59.91	n/a
60.158	0.497	neutral	Picture	51.585	n/a	1	2	20	n/a	40	23	1	n/a	n/a	n/a	n/a	60.441	AM04NES.jpg
60.655	0.514	Blank	Blank	51.071	n/a	1	2	20	n/a	40	n/a	1	n/a	n/a	n/a	n/a	60.938	n/a
61.185	10.014	ITI	Fixation+	41.041	n/a	1	n/a	n/a	n/a	n/a	n/a	n/a	n/a	n/a	n/a	n/a	61.469	n/a
71.216	0.497	happy	Picture	40.527	n/a	1	3	1	n/a	41	62	2	n/a	n/a	n/a	n/a	71.499	BM03HAS.jpg
71.713	0.514	Blank	Blank	40.013	n/a	1	3	1	n/a	41	n/a	2	n/a	n/a	n/a	n/a	71.996	n/a
72.243	0.497	happy	Picture	39.499	n/a	1	3	2	n/a	42	52	2	n/a	n/a	n/a	n/a	72.527	AF21HAS.jpg
72.741	0.514	Blank	Blank	38.985	n/a	1	3	2	n/a	42	n/a	2	n/a	n/a	n/a	n/a	73.024	n/a
73.271	0.497	happy	Picture	38.471	n/a	1	3	3	n/a	43	44	2	n/a	n/a	n/a	n/a	73.555	AF05HAS.jpg
73.769	0.514	Blank	Blank	37.957	n/a	1	3	3	n/a	43	n/a	2	n/a	n/a	n/a	n/a	74.052	n/a
74.299	0.497	happy	Picture	37.443	n/a	1	3	4	n/a	44	53	2	n/a	n/a	n/a	n/a	74.583	BF22HAS.jpg
74.797	0.514	Blank	Blank	36.929	n/a	1	3	4	n/a	44	n/a	2	n/a	n/a	n/a	n/a	75.08	n/a
75.327	0.497	happy	Picture	36.415	n/a	1	3	5	n/a	45	54	2	n/a	n/a	n/a	n/a	75.611	AF23HAS.jpg
75.825	0.514	Blank	Blank	35.901	n/a	1	3	5	n/a	45	n/a	2	n/a	n/a	n/a	n/a	76.108	n/a
76.355	0.497	happy	Picture	35.388	n/a	1	3	6	n/a	46	68	2	n/a	n/a	n/a	n/a	76.638	AM09HAS.jpg
76.852	0.514	Blank	Blank	34.874	n/a	1	3	6	n/a	46	n/a	2	n/a	n/a	n/a	n/a	77.136	n/a
77.383	0.497	happy	Picture	34.36	n/a	1	3	7	n/a	47	64	2	n/a	n/a	n/a	n/a	77.666	BM05HAS.jpg
77.88	0.514	Blank	Blank	33.846	n/a	1	3	7	n/a	47	n/a	2	n/a	n/a	n/a	n/a	78.164	n/a
78.411	0.497	happy	Picture	33.332	n/a	1	3	8	n/a	48	59	2	n/a	n/a	n/a	n/a	78.694	AF31HAS.jpg
78.908	0.514	Blank	Blank	32.818	n/a	1	3	8	n/a	48	n/a	2	n/a	n/a	n/a	n/a	79.192	n/a
79.439	0.497	happy	Picture	32.304	n/a	1	3	9	n/a	49	41	2	n/a	n/a	n/a	n/a	79.722	AF01HAS.jpg
79.936	0.514	Blank	Blank	31.79	n/a	1	3	9	n/a	49	n/a	2	n/a	n/a	n/a	n/a	80.219	n/a
80.466	0.497	happy	Picture	31.276	n/a	1	3	10	n/a	50	73	2	n/a	n/a	n/a	n/a	80.75	AM21HAS.jpg
80.964	0.514	Blank	Blank	30.762	n/a	1	3	10	n/a	50	n/a	2	n/a	n/a	n/a	n/a	81.247	n/a
81.494	0.497	happy	Picture	30.248	n/a	1	3	11	n/a	51	65	2	n/a	n/a	n/a	n/a	81.778	BM06HAS.jpg
81.992	0.514	Blank	Blank	29.734	n/a	1	3	11	n/a	51	n/a	2	n/a	n/a	n/a	n/a	82.275	n/a
82.522	0.497	happy	Picture	29.22	n/a	1	3	12	n/a	52	56	2	n/a	n/a	n/a	n/a	82.806	AF26HAS.jpg
83.02	0.514	Blank	Blank	28.706	n/a	1	3	12	n/a	52	n/a	2	n/a	n/a	n/a	n/a	83.303	n/a
83.55	0.497	happy	Picture	28.192	n/a	1	3	13	n/a	53	45	2	n/a	n/a	n/a	n/a	83.834	BF07HAS.jpg
84.048	0.514	Blank	Blank	27.678	n/a	1	3	13	n/a	53	n/a	2	n/a	n/a	n/a	n/a	84.331	n/a
84.578	0.497	happy	Picture	27.164	n/a	1	3	14	n/a	54	78	2	n/a	n/a	n/a	n/a	84.862	BM26HAS.jpg
85.075	0.514	Blank	Blank	26.65	n/a	1	3	14	n/a	54	n/a	2	n/a	n/a	n/a	n/a	85.359	n/a
85.606	0.497	happy	Picture	26.137	n/a	1	3	15	n/a	55	50	2	n/a	n/a	n/a	n/a	85.889	AF18HAS.jpg
86.103	0.514	Blank	Blank	25.623	n/a	1	3	15	n/a	55	n/a	2	n/a	n/a	n/a	n/a	86.387	n/a
86.634	0.497	happy	Picture	25.109	n/a	1	3	16	n/a	56	47	2	n/a	n/a	n/a	n/a	86.917	BF11HAS.jpg
87.131	0.514	Blank	Blank	24.595	n/a	1	3	16	n/a	56	n/a	2	n/a	n/a	n/a	n/a	87.415	n/a
87.662	0.497	happy	Picture	24.081	n/a	1	3	17	n/a	57	77	2	n/a	n/a	n/a	n/a	87.945	BM25HAS.jpg
88.159	0.514	Blank	Blank	23.567	n/a	1	3	17	n/a	57	n/a	2	n/a	n/a	n/a	n/a	88.443	n/a
88.69	0.497	happy	Picture	23.053	n/a	1	3	18	n/a	58	57	2	n/a	n/a	n/a	n/a	88.973	BF28HAS.jpg
89.187	0.514	Blank	Blank	22.539	n/a	1	3	18	n/a	58	n/a	2	n/a	n/a	n/a	n/a	89.471	n/a
89.718	0.497	happy	Picture	22.025	n/a	1	3	19	n/a	59	61	2	n/a	n/a	n/a	n/a	90.001	AM01HAS.jpg
90.215	0.514	Blank	Blank	21.511	n/a	1	3	19	n/a	59	n/a	2	n/a	n/a	n/a	n/a	90.498	n/a
90.745	0.497	happy	Picture	20.997	n/a	1	3	20	n/a	60	79	2	n/a	n/a	n/a	n/a	91.029	BM28HAS.jpg
91.243	0.514	Blank	Blank	20.483	n/a	1	3	20	n/a	60	n/a	2	n/a	n/a	n/a	n/a	91.526	n/a
91.773	10.014	ITI	Fixation+	10.453	n/a	1	n/a	n/a	n/a	n/a	n/a	n/a	n/a	n/a	n/a	n/a	92.057	n/a
112.24	n/a	ConfirmRating	Rate	n/a	10.428	1	n/a	n/a	0	n/a	n/a	n/a	2	Happy	70	51	112.523	n/a
118.626	n/a	ConfirmRating	Rate	n/a	6.366	1	n/a	n/a	1	n/a	n/a	n/a	3	Happy	0	48	118.909	n/a
118.647	10.014	ITI	Fixation+	100.645	n/a	2	n/a	n/a	n/a	n/a	n/a	n/a	n/a	n/a	n/a	n/a	118.931	n/a
128.678	0.497	angry	Picture	100.131	n/a	2	4	1	n/a	61	119	3	n/a	n/a	n/a	n/a	128.961	BM28ANS.jpg
129.175	0.514	Blank	Blank	99.617	n/a	2	4	1	n/a	61	n/a	3	n/a	n/a	n/a	n/a	129.459	n/a
129.706	0.497	angry	Picture	99.103	n/a	2	4	2	n/a	62	100	3	n/a	n/a	n/a	n/a	129.989	AF32ANS.jpg
130.203	0.514	Blank	Blank	98.589	n/a	2	4	2	n/a	62	n/a	3	n/a	n/a	n/a	n/a	130.487	n/a
130.733	0.497	angry	Picture	98.075	n/a	2	4	3	n/a	63	118	3	n/a	n/a	n/a	n/a	131.017	BM26ANS.jpg
131.231	0.514	Blank	Blank	97.561	n/a	2	4	3	n/a	63	n/a	3	n/a	n/a	n/a	n/a	131.514	n/a
131.761	0.497	angry	Picture	97.047	n/a	2	4	4	n/a	64	89	3	n/a	n/a	n/a	n/a	132.045	AF17ANS.jpg
132.259	0.514	Blank	Blank	96.533	n/a	2	4	4	n/a	64	n/a	3	n/a	n/a	n/a	n/a	132.542	n/a
132.789	0.497	angry	Picture	96.02	n/a	2	4	5	n/a	65	116	3	n/a	n/a	n/a	n/a	133.073	BM24ANS.jpg
133.287	0.514	Blank	Blank	95.506	n/a	2	4	5	n/a	65	n/a	3	n/a	n/a	n/a	n/a	133.57	n/a
133.817	0.497	angry	Picture	94.992	n/a	2	4	6	n/a	66	105	3	n/a	n/a	n/a	n/a	134.101	BM06ANS.jpg
134.315	0.514	Blank	Blank	94.478	n/a	2	4	6	n/a	66	n/a	3	n/a	n/a	n/a	n/a	134.598	n/a
134.845	0.497	angry	Picture	93.964	n/a	2	4	7	n/a	67	106	3	n/a	n/a	n/a	n/a	135.129	AM07ANS.jpg
135.342	0.514	Blank	Blank	93.45	n/a	2	4	7	n/a	67	n/a	3	n/a	n/a	n/a	n/a	135.626	n/a
135.873	0.497	angry	Picture	92.936	n/a	2	4	8	n/a	68	94	3	n/a	n/a	n/a	n/a	136.156	AF23ANS.jpg
136.37	0.514	Blank	Blank	92.422	n/a	2	4	8	n/a	68	n/a	3	n/a	n/a	n/a	n/a	136.654	n/a
136.901	0.497	angry	Picture	91.908	n/a	2	4	9	n/a	69	117	3	n/a	n/a	n/a	n/a	137.184	BM25ANS.jpg
137.398	0.514	Blank	Blank	91.394	n/a	2	4	9	n/a	69	n/a	3	n/a	n/a	n/a	n/a	137.682	n/a
137.929	0.497	angry	Picture	90.88	n/a	2	4	10	n/a	70	90	3	n/a	n/a	n/a	n/a	138.212	AF18ANS.jpg
138.426	0.514	Blank	Blank	90.366	n/a	2	4	10	n/a	70	n/a	3	n/a	n/a	n/a	n/a	138.71	n/a
138.957	0.497	angry	Picture	89.852	n/a	2	4	11	n/a	71	83	3	n/a	n/a	n/a	n/a	139.24	BF04ANS.jpg
139.454	0.514	Blank	Blank	89.338	n/a	2	4	11	n/a	71	n/a	3	n/a	n/a	n/a	n/a	139.737	n/a
139.984	0.497	angry	Picture	88.824	n/a	2	4	12	n/a	72	112	3	n/a	n/a	n/a	n/a	140.268	AM14ANS.jpg
140.482	0.514	Blank	Blank	88.31	n/a	2	4	12	n/a	72	n/a	3	n/a	n/a	n/a	n/a	140.765	n/a
141.012	0.497	angry	Picture	87.796	n/a	2	4	13	n/a	73	102	3	n/a	n/a	n/a	n/a	141.296	BM03ANS.jpg
141.51	0.514	Blank	Blank	87.282	n/a	2	4	13	n/a	73	n/a	3	n/a	n/a	n/a	n/a	141.793	n/a
142.04	0.497	angry	Picture	86.769	n/a	2	4	14	n/a	74	95	3	n/a	n/a	n/a	n/a	142.324	AF25ANS.jpg
142.538	0.514	Blank	Blank	86.255	n/a	2	4	14	n/a	74	n/a	3	n/a	n/a	n/a	n/a	142.821	n/a
143.068	0.497	angry	Picture	85.741	n/a	2	4	15	n/a	75	113	3	n/a	n/a	n/a	n/a	143.352	AM21ANS.jpg
143.565	0.514	Blank	Blank	85.227	n/a	2	4	15	n/a	75	n/a	3	n/a	n/a	n/a	n/a	143.849	n/a
144.096	0.497	angry	Picture	84.713	n/a	2	4	16	n/a	76	88	3	n/a	n/a	n/a	n/a	144.38	AF14ANS.jpg
144.593	0.514	Blank	Blank	84.199	n/a	2	4	16	n/a	76	n/a	3	n/a	n/a	n/a	n/a	144.877	n/a
145.124	0.497	angry	Picture	83.685	n/a	2	4	17	n/a	77	93	3	n/a	n/a	n/a	n/a	145.407	BF22ANS.jpg
145.621	0.514	Blank	Blank	83.171	n/a	2	4	17	n/a	77	n/a	3	n/a	n/a	n/a	n/a	145.905	n/a
146.152	0.497	angry	Picture	82.657	n/a	2	4	18	n/a	78	86	3	n/a	n/a	n/a	n/a	146.435	AF09ANS.jpg
146.649	0.514	Blank	Blank	82.143	n/a	2	4	18	n/a	78	n/a	3	n/a	n/a	n/a	n/a	146.933	n/a
147.18	0.497	angry	Picture	81.629	n/a	2	4	19	n/a	79	92	3	n/a	n/a	n/a	n/a	147.463	AF21ANS.jpg
147.677	0.514	Blank	Blank	81.115	n/a	2	4	19	n/a	79	n/a	3	n/a	n/a	n/a	n/a	147.96	n/a
148.208	0.497	angry	Picture	80.601	n/a	2	4	20	n/a	80	84	3	n/a	n/a	n/a	n/a	148.491	AF05ANS.jpg
148.705	0.514	Blank	Blank	80.087	n/a	2	4	20	n/a	80	n/a	3	n/a	n/a	n/a	n/a	148.988	n/a
149.235	10.014	ITI	Fixation+	70.057	n/a	2	n/a	n/a	n/a	n/a	n/a	n/a	n/a	n/a	n/a	n/a	149.519	n/a
159.266	0.497	neutral	Picture	69.543	n/a	2	5	1	n/a	81	4	1	n/a	n/a	n/a	n/a	159.549	AF05NES.jpg
159.763	0.514	Blank	Blank	69.029	n/a	2	5	1	n/a	81	n/a	1	n/a	n/a	n/a	n/a	160.047	n/a
160.293	0.497	neutral	Picture	68.515	n/a	2	5	2	n/a	82	14	1	n/a	n/a	n/a	n/a	160.577	AF23NES.jpg
160.791	0.514	Blank	Blank	68.001	n/a	2	5	2	n/a	82	n/a	1	n/a	n/a	n/a	n/a	161.074	n/a
161.321	0.497	neutral	Picture	67.487	n/a	2	5	3	n/a	83	19	1	n/a	n/a	n/a	n/a	161.605	AF31NES.jpg
161.819	0.514	Blank	Blank	66.973	n/a	2	5	3	n/a	83	n/a	1	n/a	n/a	n/a	n/a	162.102	n/a
162.349	0.497	neutral	Picture	66.46	n/a	2	5	4	n/a	84	8	1	n/a	n/a	n/a	n/a	162.633	AF14NES.jpg
162.847	0.514	Blank	Blank	65.946	n/a	2	5	4	n/a	84	n/a	1	n/a	n/a	n/a	n/a	163.13	n/a
163.377	0.497	neutral	Picture	65.432	n/a	2	5	5	n/a	85	25	1	n/a	n/a	n/a	n/a	163.661	BM06NES.jpg
163.874	0.514	Blank	Blank	64.918	n/a	2	5	5	n/a	85	n/a	1	n/a	n/a	n/a	n/a	164.158	n/a
164.405	0.497	neutral	Picture	64.404	n/a	2	5	6	n/a	86	9	1	n/a	n/a	n/a	n/a	164.689	AF17NES.jpg
164.902	0.514	Blank	Blank	63.89	n/a	2	5	6	n/a	86	n/a	1	n/a	n/a	n/a	n/a	165.186	n/a
165.433	0.497	neutral	Picture	63.376	n/a	2	5	7	n/a	87	2	1	n/a	n/a	n/a	n/a	165.716	AF03NES.jpg
165.93	0.514	Blank	Blank	62.862	n/a	2	5	7	n/a	87	n/a	1	n/a	n/a	n/a	n/a	166.214	n/a
166.461	0.497	neutral	Picture	62.348	n/a	2	5	8	n/a	88	17	1	n/a	n/a	n/a	n/a	166.744	BF28NES.jpg
166.958	0.514	Blank	Blank	61.834	n/a	2	5	8	n/a	88	n/a	1	n/a	n/a	n/a	n/a	167.242	n/a
167.489	0.497	neutral	Picture	61.32	n/a	2	5	9	n/a	89	6	1	n/a	n/a	n/a	n/a	167.772	AF09NES.jpg
167.986	0.514	Blank	Blank	60.806	n/a	2	5	9	n/a	89	n/a	1	n/a	n/a	n/a	n/a	168.27	n/a
168.517	0.497	neutral	Picture	60.292	n/a	2	5	10	n/a	90	12	1	n/a	n/a	n/a	n/a	168.8	AF21NES.jpg
169.014	0.514	Blank	Blank	59.778	n/a	2	5	10	n/a	90	n/a	1	n/a	n/a	n/a	n/a	169.298	n/a
169.544	0.497	neutral	Picture	59.264	n/a	2	5	11	n/a	91	24	1	n/a	n/a	n/a	n/a	169.828	BM05NES.jpg
170.042	0.514	Blank	Blank	58.75	n/a	2	5	11	n/a	91	n/a	1	n/a	n/a	n/a	n/a	170.325	n/a
170.572	0.497	neutral	Picture	58.237	n/a	2	5	12	n/a	92	34	1	n/a	n/a	n/a	n/a	170.856	AM22NES.jpg
171.07	0.514	Blank	Blank	57.722	n/a	2	5	12	n/a	92	n/a	1	n/a	n/a	n/a	n/a	171.353	n/a
171.6	0.497	neutral	Picture	57.209	n/a	2	5	13	n/a	93	23	1	n/a	n/a	n/a	n/a	171.884	AM04NES.jpg
172.098	0.514	Blank	Blank	56.695	n/a	2	5	13	n/a	93	n/a	1	n/a	n/a	n/a	n/a	172.381	n/a
172.628	0.497	neutral	Picture	56.181	n/a	2	5	14	n/a	94	15	1	n/a	n/a	n/a	n/a	172.912	AF25NES.jpg
173.125	0.514	Blank	Blank	55.667	n/a	2	5	14	n/a	94	n/a	1	n/a	n/a	n/a	n/a	173.409	n/a
173.656	0.497	neutral	Picture	55.153	n/a	2	5	15	n/a	95	37	1	n/a	n/a	n/a	n/a	173.94	BM25NES.jpg
174.153	0.514	Blank	Blank	54.639	n/a	2	5	15	n/a	95	n/a	1	n/a	n/a	n/a	n/a	174.437	n/a
174.684	0.497	neutral	Picture	54.125	n/a	2	5	16	n/a	96	32	1	n/a	n/a	n/a	n/a	174.967	AM14NES.jpg
175.181	0.514	Blank	Blank	53.611	n/a	2	5	16	n/a	96	n/a	1	n/a	n/a	n/a	n/a	175.465	n/a
175.712	0.497	neutral	Picture	53.097	n/a	2	5	17	n/a	97	3	1	n/a	n/a	n/a	n/a	175.995	BF04NES.jpg
176.209	0.514	Blank	Blank	52.583	n/a	2	5	17	n/a	97	n/a	1	n/a	n/a	n/a	n/a	176.493	n/a
176.74	0.497	neutral	Picture	52.069	n/a	2	5	18	n/a	98	16	1	n/a	n/a	n/a	n/a	177.023	AF26NES.jpg
177.237	0.514	Blank	Blank	51.555	n/a	2	5	18	n/a	98	n/a	1	n/a	n/a	n/a	n/a	177.521	n/a
177.768	0.497	neutral	Picture	51.041	n/a	2	5	19	n/a	99	27	1	n/a	n/a	n/a	n/a	178.051	BM08NES.jpg
178.265	0.514	Blank	Blank	50.527	n/a	2	5	19	n/a	99	n/a	1	n/a	n/a	n/a	n/a	178.548	n/a
178.796	0.497	neutral	Picture	50.013	n/a	2	5	20	n/a	100	28	1	n/a	n/a	n/a	n/a	179.079	AM09NES.jpg
179.293	0.514	Blank	Blank	49.499	n/a	2	5	20	n/a	100	n/a	1	n/a	n/a	n/a	n/a	179.576	n/a
179.823	10.014	ITI	Fixation+	39.469	n/a	2	n/a	n/a	n/a	n/a	n/a	n/a	n/a	n/a	n/a	n/a	180.107	n/a
189.853	0.497	angry	Picture	38.955	n/a	2	6	1	n/a	101	81	3	n/a	n/a	n/a	n/a	190.137	AF01ANS.jpg
190.351	0.514	Blank	Blank	38.441	n/a	2	6	1	n/a	101	n/a	3	n/a	n/a	n/a	n/a	190.634	n/a
190.881	0.497	angry	Picture	37.927	n/a	2	6	2	n/a	102	120	3	n/a	n/a	n/a	n/a	191.165	AM35ANS.jpg
191.379	0.514	Blank	Blank	37.413	n/a	2	6	2	n/a	102	n/a	3	n/a	n/a	n/a	n/a	191.662	n/a
191.909	0.497	angry	Picture	36.899	n/a	2	6	3	n/a	103	114	3	n/a	n/a	n/a	n/a	192.193	AM22ANS.jpg
192.407	0.514	Blank	Blank	36.386	n/a	2	6	3	n/a	103	n/a	3	n/a	n/a	n/a	n/a	192.69	n/a
192.937	0.497	angry	Picture	35.872	n/a	2	6	4	n/a	104	109	3	n/a	n/a	n/a	n/a	193.221	AM10ANS.jpg
193.434	0.514	Blank	Blank	35.358	n/a	2	6	4	n/a	104	n/a	3	n/a	n/a	n/a	n/a	193.718	n/a
193.965	0.497	angry	Picture	34.844	n/a	2	6	5	n/a	105	96	3	n/a	n/a	n/a	n/a	194.249	AF26ANS.jpg
194.462	0.514	Blank	Blank	34.33	n/a	2	6	5	n/a	105	n/a	3	n/a	n/a	n/a	n/a	194.746	n/a
194.993	0.497	angry	Picture	33.816	n/a	2	6	6	n/a	106	82	3	n/a	n/a	n/a	n/a	195.276	AF03ANS.jpg
195.49	0.514	Blank	Blank	33.302	n/a	2	6	6	n/a	106	n/a	3	n/a	n/a	n/a	n/a	195.774	n/a
196.021	0.497	angry	Picture	32.788	n/a	2	6	7	n/a	107	97	3	n/a	n/a	n/a	n/a	196.304	BF28ANS.jpg
196.518	0.514	Blank	Blank	32.274	n/a	2	6	7	n/a	107	n/a	3	n/a	n/a	n/a	n/a	196.802	n/a
197.049	0.497	angry	Picture	31.76	n/a	2	6	8	n/a	108	115	3	n/a	n/a	n/a	n/a	197.332	AM23ANS.jpg
197.546	0.514	Blank	Blank	31.246	n/a	2	6	8	n/a	108	n/a	3	n/a	n/a	n/a	n/a	197.83	n/a
198.077	0.497	angry	Picture	30.732	n/a	2	6	9	n/a	109	91	3	n/a	n/a	n/a	n/a	198.36	AF20ANS.jpg
198.574	0.514	Blank	Blank	30.218	n/a	2	6	9	n/a	109	n/a	3	n/a	n/a	n/a	n/a	198.857	n/a
199.105	0.497	angry	Picture	29.704	n/a	2	6	10	n/a	110	87	3	n/a	n/a	n/a	n/a	199.388	BF11ANS.jpg
199.602	0.514	Blank	Blank	29.19	n/a	2	6	10	n/a	110	n/a	3	n/a	n/a	n/a	n/a	199.885	n/a
200.132	0.497	angry	Picture	28.676	n/a	2	6	11	n/a	111	85	3	n/a	n/a	n/a	n/a	200.416	BF07ANS.jpg
200.63	0.514	Blank	Blank	28.162	n/a	2	6	11	n/a	111	n/a	3	n/a	n/a	n/a	n/a	200.913	n/a
201.16	0.497	angry	Picture	27.649	n/a	2	6	12	n/a	112	110	3	n/a	n/a	n/a	n/a	201.444	AM11ANS.jpg
201.658	0.514	Blank	Blank	27.135	n/a	2	6	12	n/a	112	n/a	3	n/a	n/a	n/a	n/a	201.941	n/a
202.188	0.497	angry	Picture	26.621	n/a	2	6	13	n/a	113	111	3	n/a	n/a	n/a	n/a	202.472	BM12ANS.jpg
202.685	0.514	Blank	Blank	26.107	n/a	2	6	13	n/a	113	n/a	3	n/a	n/a	n/a	n/a	202.969	n/a
203.216	0.497	angry	Picture	25.593	n/a	2	6	14	n/a	114	103	3	n/a	n/a	n/a	n/a	203.5	AM04ANS.jpg
203.713	0.514	Blank	Blank	25.079	n/a	2	6	14	n/a	114	n/a	3	n/a	n/a	n/a	n/a	203.997	n/a
204.244	0.497	angry	Picture	24.565	n/a	2	6	15	n/a	115	101	3	n/a	n/a	n/a	n/a	204.527	AM01ANS.jpg
204.741	0.514	Blank	Blank	24.051	n/a	2	6	15	n/a	115	n/a	3	n/a	n/a	n/a	n/a	205.025	n/a
205.272	0.497	angry	Picture	23.537	n/a	2	6	16	n/a	116	104	3	n/a	n/a	n/a	n/a	205.555	BM05ANS.jpg
205.769	0.514	Blank	Blank	23.023	n/a	2	6	16	n/a	116	n/a	3	n/a	n/a	n/a	n/a	206.053	n/a
206.3	0.497	angry	Picture	22.509	n/a	2	6	17	n/a	117	107	3	n/a	n/a	n/a	n/a	206.583	BM08ANS.jpg
206.797	0.514	Blank	Blank	21.995	n/a	2	6	17	n/a	117	n/a	3	n/a	n/a	n/a	n/a	207.081	n/a
207.328	0.497	angry	Picture	21.481	n/a	2	6	18	n/a	118	98	3	n/a	n/a	n/a	n/a	207.611	BF29ANS.jpg
207.825	0.514	Blank	Blank	20.967	n/a	2	6	18	n/a	118	n/a	3	n/a	n/a	n/a	n/a	208.108	n/a
208.356	0.497	angry	Picture	20.453	n/a	2	6	19	n/a	119	99	3	n/a	n/a	n/a	n/a	208.639	AF31ANS.jpg
208.853	0.514	Blank	Blank	19.939	n/a	2	6	19	n/a	119	n/a	3	n/a	n/a	n/a	n/a	209.136	n/a
209.383	0.497	angry	Picture	19.425	n/a	2	6	20	n/a	120	108	3	n/a	n/a	n/a	n/a	209.667	AM09ANS.jpg
209.881	0.514	Blank	Blank	18.911	n/a	2	6	20	n/a	120	n/a	3	n/a	n/a	n/a	n/a	210.164	n/a
210.411	10.014	ITI	Fixation+	8.881	n/a	2	n/a	n/a	n/a	n/a	n/a	n/a	n/a	n/a	n/a	n/a	210.695	n/a
229.306	n/a	ConfirmRating	Rate	n/a	8.869	2	n/a	n/a	0	n/a	n/a	n/a	2	Angry	29	49	229.59	n/a
236.478	n/a	ConfirmRating	Rate	n/a	7.162	2	n/a	n/a	1	n/a	n/a	n/a	3	Angry	50	50	236.762	n/a
236.506	15.004	Rest	Picture	n/a	n/a	n/a	n/a	n/a	n/a	n/a	n/a	n/a	0	n/a	0	0	236.79	n/a
251.527	10.014	ITI	Fixation+	97.279	n/a	3	n/a	n/a	n/a	n/a	n/a	n/a	n/a	n/a	n/a	n/a	251.81	n/a
261.557	0.497	happy	Picture	96.765	n/a	3	7	1	n/a	1	46	2	n/a	n/a	n/a	n/a	261.84	AF09HAS.jpg
262.054	0.514	Blank	Blank	96.251	n/a	3	7	1	n/a	1	n/a	2	n/a	n/a	n/a	n/a	262.338	n/a
262.585	0.497	happy	Picture	95.737	n/a	3	7	2	n/a	2	69	2	n/a	n/a	n/a	n/a	262.868	AM10HAS.jpg
263.082	0.514	Blank	Blank	95.223	n/a	3	7	2	n/a	2	n/a	2	n/a	n/a	n/a	n/a	263.366	n/a
263.613	0.497	happy	Picture	94.709	n/a	3	7	3	n/a	3	71	2	n/a	n/a	n/a	n/a	263.896	BM12HAS.jpg
264.11	0.514	Blank	Blank	94.195	n/a	3	7	3	n/a	3	n/a	2	n/a	n/a	n/a	n/a	264.394	n/a
264.64	0.497	happy	Picture	93.681	n/a	3	7	4	n/a	4	51	2	n/a	n/a	n/a	n/a	264.924	AF20HAS.jpg
265.138	0.514	Blank	Blank	93.168	n/a	3	7	4	n/a	4	n/a	2	n/a	n/a	n/a	n/a	265.421	n/a
265.668	0.497	happy	Picture	92.653	n/a	3	7	5	n/a	5	67	2	n/a	n/a	n/a	n/a	265.952	BM08HAS.jpg
266.166	0.514	Blank	Blank	92.14	n/a	3	7	5	n/a	5	n/a	2	n/a	n/a	n/a	n/a	266.449	n/a
266.696	0.497	happy	Picture	91.626	n/a	3	7	6	n/a	6	60	2	n/a	n/a	n/a	n/a	266.98	AF32HAS.jpg
267.194	0.514	Blank	Blank	91.112	n/a	3	7	6	n/a	6	n/a	2	n/a	n/a	n/a	n/a	267.477	n/a
267.724	0.497	happy	Picture	90.598	n/a	3	7	7	n/a	7	42	2	n/a	n/a	n/a	n/a	268.008	AF03HAS.jpg
268.222	0.514	Blank	Blank	90.084	n/a	3	7	7	n/a	7	n/a	2	n/a	n/a	n/a	n/a	268.505	n/a
268.752	0.497	happy	Picture	89.57	n/a	3	7	8	n/a	8	55	2	n/a	n/a	n/a	n/a	269.036	AF25HAS.jpg
269.249	0.514	Blank	Blank	89.056	n/a	3	7	8	n/a	8	n/a	2	n/a	n/a	n/a	n/a	269.533	n/a
269.78	0.497	happy	Picture	88.542	n/a	3	7	9	n/a	9	72	2	n/a	n/a	n/a	n/a	270.063	AM14HAS.jpg
270.277	0.514	Blank	Blank	88.028	n/a	3	7	9	n/a	9	n/a	2	n/a	n/a	n/a	n/a	270.561	n/a
270.808	0.497	happy	Picture	87.514	n/a	3	7	10	n/a	10	63	2	n/a	n/a	n/a	n/a	271.091	AM04HAS.jpg
271.305	0.514	Blank	Blank	87.0	n/a	3	7	10	n/a	10	n/a	2	n/a	n/a	n/a	n/a	271.589	n/a
271.836	0.497	happy	Picture	86.486	n/a	3	7	11	n/a	11	58	2	n/a	n/a	n/a	n/a	272.119	BF29HAS.jpg
272.333	0.514	Blank	Blank	85.972	n/a	3	7	11	n/a	11	n/a	2	n/a	n/a	n/a	n/a	272.617	n/a
272.864	0.497	happy	Picture	85.458	n/a	3	7	12	n/a	12	48	2	n/a	n/a	n/a	n/a	273.147	AF14HAS.jpg
273.361	0.514	Blank	Blank	84.944	n/a	3	7	12	n/a	12	n/a	2	n/a	n/a	n/a	n/a	273.644	n/a
273.892	0.497	happy	Picture	84.43	n/a	3	7	13	n/a	13	66	2	n/a	n/a	n/a	n/a	274.175	BM07HAS.jpg
274.389	0.514	Blank	Blank	83.917	n/a	3	7	13	n/a	13	n/a	2	n/a	n/a	n/a	n/a	274.672	n/a
274.919	0.497	happy	Picture	83.402	n/a	3	7	14	n/a	14	70	2	n/a	n/a	n/a	n/a	275.203	BM11HAS.jpg
275.417	0.514	Blank	Blank	82.889	n/a	3	7	14	n/a	14	n/a	2	n/a	n/a	n/a	n/a	275.7	n/a
275.947	0.497	happy	Picture	82.375	n/a	3	7	15	n/a	15	43	2	n/a	n/a	n/a	n/a	276.231	BF04HAS.jpg
276.445	0.514	Blank	Blank	81.861	n/a	3	7	15	n/a	15	n/a	2	n/a	n/a	n/a	n/a	276.728	n/a
276.975	0.497	happy	Picture	81.347	n/a	3	7	16	n/a	16	49	2	n/a	n/a	n/a	n/a	277.259	AF17HAS.jpg
277.472	0.514	Blank	Blank	80.833	n/a	3	7	16	n/a	16	n/a	2	n/a	n/a	n/a	n/a	277.756	n/a
278.003	0.497	happy	Picture	80.319	n/a	3	7	17	n/a	17	75	2	n/a	n/a	n/a	n/a	278.287	AM23HAS.jpg
278.5	0.514	Blank	Blank	79.805	n/a	3	7	17	n/a	17	n/a	2	n/a	n/a	n/a	n/a	278.784	n/a
279.031	0.497	happy	Picture	79.291	n/a	3	7	18	n/a	18	80	2	n/a	n/a	n/a	n/a	279.314	BM35HAS.jpg
279.528	0.514	Blank	Blank	78.777	n/a	3	7	18	n/a	18	n/a	2	n/a	n/a	n/a	n/a	279.812	n/a
280.059	0.497	happy	Picture	78.263	n/a	3	7	19	n/a	19	76	2	n/a	n/a	n/a	n/a	280.342	BM24HAS.jpg
280.556	0.514	Blank	Blank	77.749	n/a	3	7	19	n/a	19	n/a	2	n/a	n/a	n/a	n/a	280.84	n/a
281.087	0.497	happy	Picture	77.235	n/a	3	7	20	n/a	20	74	2	n/a	n/a	n/a	n/a	281.37	AM22HAS.jpg
281.584	0.514	Blank	Blank	76.721	n/a	3	7	20	n/a	20	n/a	2	n/a	n/a	n/a	n/a	281.868	n/a
282.115	10.014	ITI	Fixation+	66.691	n/a	3	n/a	n/a	n/a	n/a	n/a	n/a	n/a	n/a	n/a	n/a	282.398	n/a
292.145	0.497	neutral	Picture	66.177	n/a	3	8	1	n/a	21	33	1	n/a	n/a	n/a	n/a	292.428	AM21NES.jpg
292.642	0.514	Blank	Blank	65.663	n/a	3	8	1	n/a	21	n/a	1	n/a	n/a	n/a	n/a	292.926	n/a
293.173	0.497	neutral	Picture	65.149	n/a	3	8	2	n/a	22	39	1	n/a	n/a	n/a	n/a	293.456	AM28NES.jpg
293.67	0.514	Blank	Blank	64.635	n/a	3	8	2	n/a	22	n/a	1	n/a	n/a	n/a	n/a	293.954	n/a
294.201	0.497	neutral	Picture	64.121	n/a	3	8	3	n/a	23	25	1	n/a	n/a	n/a	n/a	294.484	BM06NES.jpg
294.698	0.514	Blank	Blank	63.607	n/a	3	8	3	n/a	23	n/a	1	n/a	n/a	n/a	n/a	294.981	n/a
295.228	0.497	neutral	Picture	63.093	n/a	3	8	4	n/a	24	5	1	n/a	n/a	n/a	n/a	295.512	BF07NES.jpg
295.726	0.514	Blank	Blank	62.58	n/a	3	8	4	n/a	24	n/a	1	n/a	n/a	n/a	n/a	296.009	n/a
296.256	0.497	neutral	Picture	62.066	n/a	3	8	5	n/a	25	10	1	n/a	n/a	n/a	n/a	296.54	AF18NES.jpg
296.754	0.514	Blank	Blank	61.552	n/a	3	8	5	n/a	25	n/a	1	n/a	n/a	n/a	n/a	297.037	n/a
297.284	0.497	neutral	Picture	61.038	n/a	3	8	6	n/a	26	34	1	n/a	n/a	n/a	n/a	297.568	AM22NES.jpg
297.782	0.514	Blank	Blank	60.524	n/a	3	8	6	n/a	26	n/a	1	n/a	n/a	n/a	n/a	298.065	n/a
298.312	0.497	neutral	Picture	60.01	n/a	3	8	7	n/a	27	36	1	n/a	n/a	n/a	n/a	298.596	BM24NES.jpg
298.81	0.514	Blank	Blank	59.496	n/a	3	8	7	n/a	27	n/a	1	n/a	n/a	n/a	n/a	299.093	n/a
299.34	0.497	neutral	Picture	58.982	n/a	3	8	8	n/a	28	14	1	n/a	n/a	n/a	n/a	299.623	AF23NES.jpg
299.837	0.514	Blank	Blank	58.468	n/a	3	8	8	n/a	28	n/a	1	n/a	n/a	n/a	n/a	300.121	n/a
300.368	0.497	neutral	Picture	57.954	n/a	3	8	9	n/a	29	9	1	n/a	n/a	n/a	n/a	300.651	AF17NES.jpg
300.865	0.514	Blank	Blank	57.44	n/a	3	8	9	n/a	29	n/a	1	n/a	n/a	n/a	n/a	301.149	n/a
301.396	0.497	neutral	Picture	56.926	n/a	3	8	10	n/a	30	19	1	n/a	n/a	n/a	n/a	301.679	AF31NES.jpg
301.893	0.514	Blank	Blank	56.412	n/a	3	8	10	n/a	30	n/a	1	n/a	n/a	n/a	n/a	302.177	n/a
302.424	0.497	neutral	Picture	55.898	n/a	3	8	11	n/a	31	15	1	n/a	n/a	n/a	n/a	302.707	AF25NES.jpg
302.921	0.514	Blank	Blank	55.384	n/a	3	8	11	n/a	31	n/a	1	n/a	n/a	n/a	n/a	303.204	n/a
303.452	0.497	neutral	Picture	54.87	n/a	3	8	12	n/a	32	22	1	n/a	n/a	n/a	n/a	303.735	BM03NES.jpg
303.949	0.514	Blank	Blank	54.357	n/a	3	8	12	n/a	32	n/a	1	n/a	n/a	n/a	n/a	304.232	n/a
304.479	0.497	neutral	Picture	53.842	n/a	3	8	13	n/a	33	11	1	n/a	n/a	n/a	n/a	304.763	AF20NES.jpg
304.977	0.514	Blank	Blank	53.329	n/a	3	8	13	n/a	33	n/a	1	n/a	n/a	n/a	n/a	305.26	n/a
305.507	0.497	neutral	Picture	52.815	n/a	3	8	14	n/a	34	4	1	n/a	n/a	n/a	n/a	305.791	AF05NES.jpg
306.005	0.514	Blank	Blank	52.301	n/a	3	8	14	n/a	34	n/a	1	n/a	n/a	n/a	n/a	306.288	n/a
306.535	0.497	neutral	Picture	51.787	n/a	3	8	15	n/a	35	17	1	n/a	n/a	n/a	n/a	306.819	BF28NES.jpg
307.032	0.514	Blank	Blank	51.273	n/a	3	8	15	n/a	35	n/a	1	n/a	n/a	n/a	n/a	307.316	n/a
307.563	0.497	neutral	Picture	50.759	n/a	3	8	16	n/a	36	13	1	n/a	n/a	n/a	n/a	307.847	BF22NES.jpg
308.06	0.514	Blank	Blank	50.245	n/a	3	8	16	n/a	36	n/a	1	n/a	n/a	n/a	n/a	308.344	n/a
308.591	0.497	neutral	Picture	49.731	n/a	3	8	17	n/a	37	12	1	n/a	n/a	n/a	n/a	308.875	AF21NES.jpg
309.088	0.514	Blank	Blank	49.217	n/a	3	8	17	n/a	37	n/a	1	n/a	n/a	n/a	n/a	309.372	n/a
309.619	0.497	neutral	Picture	48.703	n/a	3	8	18	n/a	38	24	1	n/a	n/a	n/a	n/a	309.902	BM05NES.jpg
310.116	0.514	Blank	Blank	48.189	n/a	3	8	18	n/a	38	n/a	1	n/a	n/a	n/a	n/a	310.4	n/a
310.647	0.497	neutral	Picture	47.675	n/a	3	8	19	n/a	39	29	1	n/a	n/a	n/a	n/a	310.93	AM10NES.jpg
311.144	0.514	Blank	Blank	47.161	n/a	3	8	19	n/a	39	n/a	1	n/a	n/a	n/a	n/a	311.428	n/a
311.675	0.497	neutral	Picture	46.647	n/a	3	8	20	n/a	40	23	1	n/a	n/a	n/a	n/a	311.958	AM04NES.jpg
312.172	0.514	Blank	Blank	46.133	n/a	3	8	20	n/a	40	n/a	1	n/a	n/a	n/a	n/a	312.455	n/a
312.702	10.014	ITI	Fixation+	36.103	n/a	3	n/a	n/a	n/a	n/a	n/a	n/a	n/a	n/a	n/a	n/a	312.986	n/a
322.733	0.497	happy	Picture	35.589	n/a	3	9	1	n/a	41	62	2	n/a	n/a	n/a	n/a	323.016	BM03HAS.jpg
323.23	0.514	Blank	Blank	35.075	n/a	3	9	1	n/a	41	n/a	2	n/a	n/a	n/a	n/a	323.514	n/a
323.761	0.497	happy	Picture	34.561	n/a	3	9	2	n/a	42	52	2	n/a	n/a	n/a	n/a	324.044	AF21HAS.jpg
324.258	0.514	Blank	Blank	34.047	n/a	3	9	2	n/a	42	n/a	2	n/a	n/a	n/a	n/a	324.541	n/a
324.788	0.497	happy	Picture	33.533	n/a	3	9	3	n/a	43	44	2	n/a	n/a	n/a	n/a	325.072	AF05HAS.jpg
325.286	0.514	Blank	Blank	33.019	n/a	3	9	3	n/a	43	n/a	2	n/a	n/a	n/a	n/a	325.569	n/a
325.816	0.497	happy	Picture	32.506	n/a	3	9	4	n/a	44	53	2	n/a	n/a	n/a	n/a	326.1	BF22HAS.jpg
326.314	0.514	Blank	Blank	31.992	n/a	3	9	4	n/a	44	n/a	2	n/a	n/a	n/a	n/a	326.597	n/a
326.844	0.497	happy	Picture	31.478	n/a	3	9	5	n/a	45	54	2	n/a	n/a	n/a	n/a	327.128	AF23HAS.jpg
327.342	0.514	Blank	Blank	30.964	n/a	3	9	5	n/a	45	n/a	2	n/a	n/a	n/a	n/a	327.625	n/a
327.872	0.497	happy	Picture	30.45	n/a	3	9	6	n/a	46	68	2	n/a	n/a	n/a	n/a	328.156	AM09HAS.jpg
328.37	0.514	Blank	Blank	29.936	n/a	3	9	6	n/a	46	n/a	2	n/a	n/a	n/a	n/a	328.653	n/a
328.9	0.497	happy	Picture	29.422	n/a	3	9	7	n/a	47	64	2	n/a	n/a	n/a	n/a	329.183	BM05HAS.jpg
329.397	0.514	Blank	Blank	28.908	n/a	3	9	7	n/a	47	n/a	2	n/a	n/a	n/a	n/a	329.681	n/a
329.928	0.497	happy	Picture	28.394	n/a	3	9	8	n/a	48	59	2	n/a	n/a	n/a	n/a	330.211	AF31HAS.jpg
330.425	0.514	Blank	Blank	27.88	n/a	3	9	8	n/a	48	n/a	2	n/a	n/a	n/a	n/a	330.709	n/a
330.956	0.497	happy	Picture	27.366	n/a	3	9	9	n/a	49	41	2	n/a	n/a	n/a	n/a	331.239	AF01HAS.jpg
331.453	0.514	Blank	Blank	26.852	n/a	3	9	9	n/a	49	n/a	2	n/a	n/a	n/a	n/a	331.737	n/a
331.984	0.497	happy	Picture	26.338	n/a	3	9	10	n/a	50	73	2	n/a	n/a	n/a	n/a	332.267	AM21HAS.jpg
332.481	0.514	Blank	Blank	25.824	n/a	3	9	10	n/a	50	n/a	2	n/a	n/a	n/a	n/a	332.764	n/a
333.012	0.497	happy	Picture	25.31	n/a	3	9	11	n/a	51	65	2	n/a	n/a	n/a	n/a	333.295	BM06HAS.jpg
333.509	0.514	Blank	Blank	24.797	n/a	3	9	11	n/a	51	n/a	2	n/a	n/a	n/a	n/a	333.792	n/a
334.039	0.497	happy	Picture	24.282	n/a	3	9	12	n/a	52	56	2	n/a	n/a	n/a	n/a	334.323	AF26HAS.jpg
334.537	0.514	Blank	Blank	23.769	n/a	3	9	12	n/a	52	n/a	2	n/a	n/a	n/a	n/a	334.82	n/a
335.067	0.497	happy	Picture	23.255	n/a	3	9	13	n/a	53	45	2	n/a	n/a	n/a	n/a	335.351	BF07HAS.jpg
335.565	0.514	Blank	Blank	22.741	n/a	3	9	13	n/a	53	n/a	2	n/a	n/a	n/a	n/a	335.848	n/a
336.095	0.497	happy	Picture	22.227	n/a	3	9	14	n/a	54	78	2	n/a	n/a	n/a	n/a	336.379	BM26HAS.jpg
336.593	0.514	Blank	Blank	21.713	n/a	3	9	14	n/a	54	n/a	2	n/a	n/a	n/a	n/a	336.876	n/a
337.123	0.497	happy	Picture	21.199	n/a	3	9	15	n/a	55	50	2	n/a	n/a	n/a	n/a	337.407	AF18HAS.jpg
337.62	0.514	Blank	Blank	20.685	n/a	3	9	15	n/a	55	n/a	2	n/a	n/a	n/a	n/a	337.904	n/a
338.151	0.497	happy	Picture	20.171	n/a	3	9	16	n/a	56	47	2	n/a	n/a	n/a	n/a	338.435	BF11HAS.jpg
338.648	0.514	Blank	Blank	19.657	n/a	3	9	16	n/a	56	n/a	2	n/a	n/a	n/a	n/a	338.932	n/a
339.179	0.497	happy	Picture	19.143	n/a	3	9	17	n/a	57	77	2	n/a	n/a	n/a	n/a	339.462	BM25HAS.jpg
339.676	0.514	Blank	Blank	18.629	n/a	3	9	17	n/a	57	n/a	2	n/a	n/a	n/a	n/a	339.96	n/a
340.207	0.497	happy	Picture	18.115	n/a	3	9	18	n/a	58	57	2	n/a	n/a	n/a	n/a	340.49	BF28HAS.jpg
340.704	0.514	Blank	Blank	17.601	n/a	3	9	18	n/a	58	n/a	2	n/a	n/a	n/a	n/a	340.988	n/a
341.235	0.497	happy	Picture	17.087	n/a	3	9	19	n/a	59	61	2	n/a	n/a	n/a	n/a	341.518	AM01HAS.jpg
341.732	0.514	Blank	Blank	16.573	n/a	3	9	19	n/a	59	n/a	2	n/a	n/a	n/a	n/a	342.015	n/a
342.262	0.497	happy	Picture	16.059	n/a	3	9	20	n/a	60	79	2	n/a	n/a	n/a	n/a	342.546	BM28HAS.jpg
342.76	0.514	Blank	Blank	15.546	n/a	3	9	20	n/a	60	n/a	2	n/a	n/a	n/a	n/a	343.043	n/a
343.29	10.014	ITI	Fixation+	5.515	n/a	3	n/a	n/a	n/a	n/a	n/a	n/a	n/a	n/a	n/a	n/a	343.574	n/a
358.819	n/a	ConfirmRating	Rate	n/a	5.504	3	n/a	n/a	0	n/a	n/a	n/a	2	Happy	62	51	359.103	n/a
365.577	n/a	ConfirmRating	Rate	n/a	6.748	3	n/a	n/a	1	n/a	n/a	n/a	3	Happy	29	49	365.861	n/a
365.606	10.014	ITI	Fixation+	100.064	n/a	4	n/a	n/a	n/a	n/a	n/a	n/a	n/a	n/a	n/a	n/a	365.889	n/a
375.636	0.497	angry	Picture	99.55	n/a	4	10	1	n/a	61	119	3	n/a	n/a	n/a	n/a	375.919	BM28ANS.jpg
376.133	0.514	Blank	Blank	99.036	n/a	4	10	1	n/a	61	n/a	3	n/a	n/a	n/a	n/a	376.416	n/a
376.663	0.497	angry	Picture	98.522	n/a	4	10	2	n/a	62	100	3	n/a	n/a	n/a	n/a	376.947	AF32ANS.jpg
377.161	0.514	Blank	Blank	98.008	n/a	4	10	2	n/a	62	n/a	3	n/a	n/a	n/a	n/a	377.444	n/a
377.691	0.497	angry	Picture	97.494	n/a	4	10	3	n/a	63	118	3	n/a	n/a	n/a	n/a	377.975	BM26ANS.jpg
378.189	0.514	Blank	Blank	96.98	n/a	4	10	3	n/a	63	n/a	3	n/a	n/a	n/a	n/a	378.472	n/a
378.719	0.497	angry	Picture	96.466	n/a	4	10	4	n/a	64	89	3	n/a	n/a	n/a	n/a	379.003	AF17ANS.jpg
379.217	0.514	Blank	Blank	95.952	n/a	4	10	4	n/a	64	n/a	3	n/a	n/a	n/a	n/a	379.5	n/a
379.747	0.497	angry	Picture	95.438	n/a	4	10	5	n/a	65	116	3	n/a	n/a	n/a	n/a	380.031	BM24ANS.jpg
380.245	0.514	Blank	Blank	94.924	n/a	4	10	5	n/a	65	n/a	3	n/a	n/a	n/a	n/a	380.528	n/a
380.775	0.497	angry	Picture	94.41	n/a	4	10	6	n/a	66	105	3	n/a	n/a	n/a	n/a	381.059	BM06ANS.jpg
381.272	0.514	Blank	Blank	93.896	n/a	4	10	6	n/a	66	n/a	3	n/a	n/a	n/a	n/a	381.556	n/a
381.803	0.497	angry	Picture	93.382	n/a	4	10	7	n/a	67	106	3	n/a	n/a	n/a	n/a	382.087	AM07ANS.jpg
382.3	0.514	Blank	Blank	92.868	n/a	4	10	7	n/a	67	n/a	3	n/a	n/a	n/a	n/a	382.584	n/a
382.831	0.497	angry	Picture	92.355	n/a	4	10	8	n/a	68	94	3	n/a	n/a	n/a	n/a	383.114	AF23ANS.jpg
383.328	0.514	Blank	Blank	91.841	n/a	4	10	8	n/a	68	n/a	3	n/a	n/a	n/a	n/a	383.612	n/a
383.859	0.497	angry	Picture	91.327	n/a	4	10	9	n/a	69	117	3	n/a	n/a	n/a	n/a	384.142	BM25ANS.jpg
384.356	0.514	Blank	Blank	90.813	n/a	4	10	9	n/a	69	n/a	3	n/a	n/a	n/a	n/a	384.64	n/a
384.887	0.497	angry	Picture	90.299	n/a	4	10	10	n/a	70	90	3	n/a	n/a	n/a	n/a	385.17	AF18ANS.jpg
385.384	0.514	Blank	Blank	89.785	n/a	4	10	10	n/a	70	n/a	3	n/a	n/a	n/a	n/a	385.668	n/a
385.914	0.497	angry	Picture	89.271	n/a	4	10	11	n/a	71	83	3	n/a	n/a	n/a	n/a	386.198	BF04ANS.jpg
386.412	0.514	Blank	Blank	88.757	n/a	4	10	11	n/a	71	n/a	3	n/a	n/a	n/a	n/a	386.695	n/a
386.942	0.497	angry	Picture	88.243	n/a	4	10	12	n/a	72	112	3	n/a	n/a	n/a	n/a	387.226	AM14ANS.jpg
387.44	0.514	Blank	Blank	87.729	n/a	4	10	12	n/a	72	n/a	3	n/a	n/a	n/a	n/a	387.723	n/a
387.97	0.497	angry	Picture	87.215	n/a	4	10	13	n/a	73	102	3	n/a	n/a	n/a	n/a	388.254	BM03ANS.jpg
388.468	0.514	Blank	Blank	86.701	n/a	4	10	13	n/a	73	n/a	3	n/a	n/a	n/a	n/a	388.751	n/a
388.998	0.497	angry	Picture	86.187	n/a	4	10	14	n/a	74	95	3	n/a	n/a	n/a	n/a	389.282	AF25ANS.jpg
389.495	0.514	Blank	Blank	85.673	n/a	4	10	14	n/a	74	n/a	3	n/a	n/a	n/a	n/a	389.779	n/a
390.026	0.497	angry	Picture	85.159	n/a	4	10	15	n/a	75	113	3	n/a	n/a	n/a	n/a	390.31	AM21ANS.jpg
390.523	0.514	Blank	Blank	84.645	n/a	4	10	15	n/a	75	n/a	3	n/a	n/a	n/a	n/a	390.807	n/a
391.054	0.497	angry	Picture	84.131	n/a	4	10	16	n/a	76	88	3	n/a	n/a	n/a	n/a	391.337	AF14ANS.jpg
391.551	0.514	Blank	Blank	83.617	n/a	4	10	16	n/a	76	n/a	3	n/a	n/a	n/a	n/a	391.835	n/a
392.082	0.497	angry	Picture	83.103	n/a	4	10	17	n/a	77	93	3	n/a	n/a	n/a	n/a	392.365	BF22ANS.jpg
392.579	0.514	Blank	Blank	82.59	n/a	4	10	17	n/a	77	n/a	3	n/a	n/a	n/a	n/a	392.863	n/a
393.11	0.497	angry	Picture	82.076	n/a	4	10	18	n/a	78	86	3	n/a	n/a	n/a	n/a	393.393	AF09ANS.jpg
393.607	0.514	Blank	Blank	81.562	n/a	4	10	18	n/a	78	n/a	3	n/a	n/a	n/a	n/a	393.891	n/a
394.138	0.497	angry	Picture	81.048	n/a	4	10	19	n/a	79	92	3	n/a	n/a	n/a	n/a	394.421	AF21ANS.jpg
394.635	0.514	Blank	Blank	80.534	n/a	4	10	19	n/a	79	n/a	3	n/a	n/a	n/a	n/a	394.918	n/a
395.166	0.497	angry	Picture	80.02	n/a	4	10	20	n/a	80	84	3	n/a	n/a	n/a	n/a	395.449	AF05ANS.jpg
395.663	0.514	Blank	Blank	79.506	n/a	4	10	20	n/a	80	n/a	3	n/a	n/a	n/a	n/a	395.946	n/a
396.193	10.014	ITI	Fixation+	69.476	n/a	4	n/a	n/a	n/a	n/a	n/a	n/a	n/a	n/a	n/a	n/a	396.477	n/a
406.224	0.497	neutral	Picture	68.962	n/a	4	11	1	n/a	81	4	1	n/a	n/a	n/a	n/a	406.507	AF05NES.jpg
406.721	0.514	Blank	Blank	68.448	n/a	4	11	1	n/a	81	n/a	1	n/a	n/a	n/a	n/a	407.004	n/a
407.251	0.497	neutral	Picture	67.934	n/a	4	11	2	n/a	82	14	1	n/a	n/a	n/a	n/a	407.535	AF23NES.jpg
407.749	0.514	Blank	Blank	67.42	n/a	4	11	2	n/a	82	n/a	1	n/a	n/a	n/a	n/a	408.032	n/a
408.279	0.497	neutral	Picture	66.906	n/a	4	11	3	n/a	83	19	1	n/a	n/a	n/a	n/a	408.563	AF31NES.jpg
408.777	0.514	Blank	Blank	66.392	n/a	4	11	3	n/a	83	n/a	1	n/a	n/a	n/a	n/a	409.06	n/a
409.307	0.497	neutral	Picture	65.878	n/a	4	11	4	n/a	84	8	1	n/a	n/a	n/a	n/a	409.591	AF14NES.jpg
409.805	0.514	Blank	Blank	65.364	n/a	4	11	4	n/a	84	n/a	1	n/a	n/a	n/a	n/a	410.088	n/a
410.335	0.497	neutral	Picture	64.85	n/a	4	11	5	n/a	85	25	1	n/a	n/a	n/a	n/a	410.619	BM06NES.jpg
410.832	0.514	Blank	Blank	64.336	n/a	4	11	5	n/a	85	n/a	1	n/a	n/a	n/a	n/a	411.116	n/a
411.363	0.497	neutral	Picture	63.822	n/a	4	11	6	n/a	86	9	1	n/a	n/a	n/a	n/a	411.647	AF17NES.jpg
411.86	0.514	Blank	Blank	63.308	n/a	4	11	6	n/a	86	n/a	1	n/a	n/a	n/a	n/a	412.144	n/a
412.391	0.497	neutral	Picture	62.795	n/a	4	11	7	n/a	87	2	1	n/a	n/a	n/a	n/a	412.674	AF03NES.jpg
412.888	0.514	Blank	Blank	62.281	n/a	4	11	7	n/a	87	n/a	1	n/a	n/a	n/a	n/a	413.172	n/a
413.419	0.497	neutral	Picture	61.767	n/a	4	11	8	n/a	88	17	1	n/a	n/a	n/a	n/a	413.702	BF28NES.jpg
413.916	0.514	Blank	Blank	61.253	n/a	4	11	8	n/a	88	n/a	1	n/a	n/a	n/a	n/a	414.2	n/a
414.447	0.497	neutral	Picture	60.739	n/a	4	11	9	n/a	89	6	1	n/a	n/a	n/a	n/a	414.73	AF09NES.jpg
414.944	0.514	Blank	Blank	60.225	n/a	4	11	9	n/a	89	n/a	1	n/a	n/a	n/a	n/a	415.228	n/a
415.474	0.497	neutral	Picture	59.711	n/a	4	11	10	n/a	90	12	1	n/a	n/a	n/a	n/a	415.758	AF21NES.jpg
415.972	0.514	Blank	Blank	59.197	n/a	4	11	10	n/a	90	n/a	1	n/a	n/a	n/a	n/a	416.255	n/a
416.502	0.497	neutral	Picture	58.683	n/a	4	11	11	n/a	91	24	1	n/a	n/a	n/a	n/a	416.786	BM05NES.jpg
417.0	0.514	Blank	Blank	58.169	n/a	4	11	11	n/a	91	n/a	1	n/a	n/a	n/a	n/a	417.283	n/a
417.53	0.497	neutral	Picture	57.655	n/a	4	11	12	n/a	92	34	1	n/a	n/a	n/a	n/a	417.814	AM22NES.jpg
418.028	0.514	Blank	Blank	57.141	n/a	4	11	12	n/a	92	n/a	1	n/a	n/a	n/a	n/a	418.311	n/a
418.558	0.497	neutral	Picture	56.627	n/a	4	11	13	n/a	93	23	1	n/a	n/a	n/a	n/a	418.842	AM04NES.jpg
419.056	0.514	Blank	Blank	56.113	n/a	4	11	13	n/a	93	n/a	1	n/a	n/a	n/a	n/a	419.339	n/a
419.586	0.497	neutral	Picture	55.599	n/a	4	11	14	n/a	94	15	1	n/a	n/a	n/a	n/a	419.87	AF25NES.jpg
420.083	0.514	Blank	Blank	55.085	n/a	4	11	14	n/a	94	n/a	1	n/a	n/a	n/a	n/a	420.367	n/a
420.614	0.497	neutral	Picture	54.571	n/a	4	11	15	n/a	95	37	1	n/a	n/a	n/a	n/a	420.897	BM25NES.jpg
421.111	0.514	Blank	Blank	54.057	n/a	4	11	15	n/a	95	n/a	1	n/a	n/a	n/a	n/a	421.395	n/a
421.642	0.497	neutral	Picture	53.543	n/a	4	11	16	n/a	96	32	1	n/a	n/a	n/a	n/a	421.925	AM14NES.jpg
422.139	0.514	Blank	Blank	53.029	n/a	4	11	16	n/a	96	n/a	1	n/a	n/a	n/a	n/a	422.423	n/a
422.67	0.497	neutral	Picture	52.516	n/a	4	11	17	n/a	97	3	1	n/a	n/a	n/a	n/a	422.953	BF04NES.jpg
423.167	0.514	Blank	Blank	52.002	n/a	4	11	17	n/a	97	n/a	1	n/a	n/a	n/a	n/a	423.451	n/a
423.698	0.497	neutral	Picture	51.488	n/a	4	11	18	n/a	98	16	1	n/a	n/a	n/a	n/a	423.981	AF26NES.jpg
424.195	0.514	Blank	Blank	50.974	n/a	4	11	18	n/a	98	n/a	1	n/a	n/a	n/a	n/a	424.478	n/a
424.726	0.497	neutral	Picture	50.46	n/a	4	11	19	n/a	99	27	1	n/a	n/a	n/a	n/a	425.009	BM08NES.jpg
425.223	0.514	Blank	Blank	49.946	n/a	4	11	19	n/a	99	n/a	1	n/a	n/a	n/a	n/a	425.506	n/a
425.753	0.497	neutral	Picture	49.432	n/a	4	11	20	n/a	100	28	1	n/a	n/a	n/a	n/a	426.037	AM09NES.jpg
426.251	0.514	Blank	Blank	48.918	n/a	4	11	20	n/a	100	n/a	1	n/a	n/a	n/a	n/a	426.534	n/a
426.781	10.014	ITI	Fixation+	38.888	n/a	4	n/a	n/a	n/a	n/a	n/a	n/a	n/a	n/a	n/a	n/a	427.065	n/a
436.812	0.497	angry	Picture	38.374	n/a	4	12	1	n/a	101	81	3	n/a	n/a	n/a	n/a	437.095	AF01ANS.jpg
437.309	0.514	Blank	Blank	37.86	n/a	4	12	1	n/a	101	n/a	3	n/a	n/a	n/a	n/a	437.592	n/a
437.839	0.497	angry	Picture	37.346	n/a	4	12	2	n/a	102	120	3	n/a	n/a	n/a	n/a	438.123	AM35ANS.jpg
438.337	0.514	Blank	Blank	36.832	n/a	4	12	2	n/a	102	n/a	3	n/a	n/a	n/a	n/a	438.62	n/a
438.867	0.497	angry	Picture	36.318	n/a	4	12	3	n/a	103	114	3	n/a	n/a	n/a	n/a	439.151	AM22ANS.jpg
439.365	0.514	Blank	Blank	35.804	n/a	4	12	3	n/a	103	n/a	3	n/a	n/a	n/a	n/a	439.648	n/a
439.895	0.497	angry	Picture	35.29	n/a	4	12	4	n/a	104	109	3	n/a	n/a	n/a	n/a	440.179	AM10ANS.jpg
440.392	0.514	Blank	Blank	34.776	n/a	4	12	4	n/a	104	n/a	3	n/a	n/a	n/a	n/a	440.676	n/a
440.923	0.497	angry	Picture	34.262	n/a	4	12	5	n/a	105	96	3	n/a	n/a	n/a	n/a	441.207	AF26ANS.jpg
441.42	0.514	Blank	Blank	33.748	n/a	4	12	5	n/a	105	n/a	3	n/a	n/a	n/a	n/a	441.704	n/a
441.951	0.497	angry	Picture	33.234	n/a	4	12	6	n/a	106	82	3	n/a	n/a	n/a	n/a	442.234	AF03ANS.jpg
442.448	0.514	Blank	Blank	32.721	n/a	4	12	6	n/a	106	n/a	3	n/a	n/a	n/a	n/a	442.732	n/a
442.979	0.497	angry	Picture	32.207	n/a	4	12	7	n/a	107	97	3	n/a	n/a	n/a	n/a	443.262	BF28ANS.jpg
443.476	0.514	Blank	Blank	31.693	n/a	4	12	7	n/a	107	n/a	3	n/a	n/a	n/a	n/a	443.76	n/a
444.007	0.497	angry	Picture	31.179	n/a	4	12	8	n/a	108	115	3	n/a	n/a	n/a	n/a	444.29	AM23ANS.jpg
444.504	0.514	Blank	Blank	30.665	n/a	4	12	8	n/a	108	n/a	3	n/a	n/a	n/a	n/a	444.788	n/a
445.035	0.497	angry	Picture	30.151	n/a	4	12	9	n/a	109	91	3	n/a	n/a	n/a	n/a	445.318	AF20ANS.jpg
445.532	0.514	Blank	Blank	29.637	n/a	4	12	9	n/a	109	n/a	3	n/a	n/a	n/a	n/a	445.815	n/a
446.062	0.497	angry	Picture	29.123	n/a	4	12	10	n/a	110	87	3	n/a	n/a	n/a	n/a	446.346	BF11ANS.jpg
446.56	0.514	Blank	Blank	28.609	n/a	4	12	10	n/a	110	n/a	3	n/a	n/a	n/a	n/a	446.843	n/a
447.09	0.497	angry	Picture	28.095	n/a	4	12	11	n/a	111	85	3	n/a	n/a	n/a	n/a	447.374	BF07ANS.jpg
447.588	0.514	Blank	Blank	27.581	n/a	4	12	11	n/a	111	n/a	3	n/a	n/a	n/a	n/a	447.871	n/a
448.118	0.497	angry	Picture	27.067	n/a	4	12	12	n/a	112	110	3	n/a	n/a	n/a	n/a	448.402	AM11ANS.jpg
448.616	0.514	Blank	Blank	26.553	n/a	4	12	12	n/a	112	n/a	3	n/a	n/a	n/a	n/a	448.899	n/a
449.146	0.497	angry	Picture	26.039	n/a	4	12	13	n/a	113	111	3	n/a	n/a	n/a	n/a	449.43	BM12ANS.jpg
449.644	0.514	Blank	Blank	25.525	n/a	4	12	13	n/a	113	n/a	3	n/a	n/a	n/a	n/a	449.927	n/a
450.174	0.497	angry	Picture	25.011	n/a	4	12	14	n/a	114	103	3	n/a	n/a	n/a	n/a	450.457	AM04ANS.jpg
450.671	0.514	Blank	Blank	24.497	n/a	4	12	14	n/a	114	n/a	3	n/a	n/a	n/a	n/a	450.955	n/a
451.202	0.497	angry	Picture	23.983	n/a	4	12	15	n/a	115	101	3	n/a	n/a	n/a	n/a	451.485	AM01ANS.jpg
451.699	0.514	Blank	Blank	23.469	n/a	4	12	15	n/a	115	n/a	3	n/a	n/a	n/a	n/a	451.983	n/a
452.23	0.497	angry	Picture	22.956	n/a	4	12	16	n/a	116	104	3	n/a	n/a	n/a	n/a	452.513	BM05ANS.jpg
452.727	0.514	Blank	Blank	22.442	n/a	4	12	16	n/a	116	n/a	3	n/a	n/a	n/a	n/a	453.011	n/a
453.258	0.497	angry	Picture	21.928	n/a	4	12	17	n/a	117	107	3	n/a	n/a	n/a	n/a	453.541	BM08ANS.jpg
453.755	0.514	Blank	Blank	21.414	n/a	4	12	17	n/a	117	n/a	3	n/a	n/a	n/a	n/a	454.038	n/a
454.286	0.497	angry	Picture	20.9	n/a	4	12	18	n/a	118	98	3	n/a	n/a	n/a	n/a	454.569	BF29ANS.jpg
454.783	0.514	Blank	Blank	20.386	n/a	4	12	18	n/a	118	n/a	3	n/a	n/a	n/a	n/a	455.066	n/a
455.313	0.497	angry	Picture	19.872	n/a	4	12	19	n/a	119	99	3	n/a	n/a	n/a	n/a	455.597	AF31ANS.jpg
455.811	0.514	Blank	Blank	19.358	n/a	4	12	19	n/a	119	n/a	3	n/a	n/a	n/a	n/a	456.094	n/a
456.341	0.497	angry	Picture	18.844	n/a	4	12	20	n/a	120	108	3	n/a	n/a	n/a	n/a	456.625	AM09ANS.jpg
456.839	0.514	Blank	Blank	18.33	n/a	4	12	20	n/a	120	n/a	3	n/a	n/a	n/a	n/a	457.122	n/a
457.369	10.014	ITI	Fixation+	8.3	n/a	4	n/a	n/a	n/a	n/a	n/a	n/a	n/a	n/a	n/a	n/a	457.653	n/a
475.683	n/a	ConfirmRating	Rate	n/a	8.29	4	n/a	n/a	0	n/a	n/a	n/a	2	Angry	34	49	475.966	n/a
481.786	n/a	ConfirmRating	Rate	n/a	6.085	4	n/a	n/a	1	n/a	n/a	n/a	3	Angry	26	48	482.069	n/a
