onset	duration	trial_type	event_type	time_until_response	response_time	trial_number	block_num_within_trial	image_seq_num_within_block	question_seq_num_within_block	image_seq_num	picture_number	condition	question_type	block_type	rating	rating_computed	onset_uncorrected	KDEV_imagefile
0.011	10.014	ITI	Fixation+	100.724	n/a	1	n/a	n/a	n/a	n/a	n/a	n/a	n/a	n/a	n/a	n/a	30.931	n/a
10.041	0.497	angry	Picture	100.21	n/a	1	1	1	n/a	1	108	3	n/a	n/a	n/a	n/a	40.961	AM09ANS.jpg
10.538	0.514	Blank	Blank	99.696	n/a	1	1	1	n/a	1	n/a	3	n/a	n/a	n/a	n/a	41.458	n/a
11.069	0.497	angry	Picture	99.182	n/a	1	1	2	n/a	2	99	3	n/a	n/a	n/a	n/a	41.989	AF31ANS.jpg
11.566	0.514	Blank	Blank	98.668	n/a	1	1	2	n/a	2	n/a	3	n/a	n/a	n/a	n/a	42.486	n/a
12.096	0.497	angry	Picture	98.154	n/a	1	1	3	n/a	3	98	3	n/a	n/a	n/a	n/a	43.017	BF29ANS.jpg
12.594	0.514	Blank	Blank	97.64	n/a	1	1	3	n/a	3	n/a	3	n/a	n/a	n/a	n/a	43.514	n/a
13.124	0.497	angry	Picture	97.126	n/a	1	1	4	n/a	4	107	3	n/a	n/a	n/a	n/a	44.044	BM08ANS.jpg
13.622	0.514	Blank	Blank	96.612	n/a	1	1	4	n/a	4	n/a	3	n/a	n/a	n/a	n/a	44.542	n/a
14.152	0.497	angry	Picture	96.098	n/a	1	1	5	n/a	5	104	3	n/a	n/a	n/a	n/a	45.072	BM05ANS.jpg
14.65	0.514	Blank	Blank	95.584	n/a	1	1	5	n/a	5	n/a	3	n/a	n/a	n/a	n/a	45.57	n/a
15.18	0.497	angry	Picture	95.071	n/a	1	1	6	n/a	6	101	3	n/a	n/a	n/a	n/a	46.1	AM01ANS.jpg
15.677	0.514	Blank	Blank	94.557	n/a	1	1	6	n/a	6	n/a	3	n/a	n/a	n/a	n/a	46.597	n/a
16.208	0.497	angry	Picture	94.043	n/a	1	1	7	n/a	7	103	3	n/a	n/a	n/a	n/a	47.128	AM04ANS.jpg
16.705	0.514	Blank	Blank	93.529	n/a	1	1	7	n/a	7	n/a	3	n/a	n/a	n/a	n/a	47.625	n/a
17.236	0.497	angry	Picture	93.015	n/a	1	1	8	n/a	8	111	3	n/a	n/a	n/a	n/a	48.156	BM12ANS.jpg
17.733	0.514	Blank	Blank	92.501	n/a	1	1	8	n/a	8	n/a	3	n/a	n/a	n/a	n/a	48.653	n/a
18.264	0.497	angry	Picture	91.987	n/a	1	1	9	n/a	9	110	3	n/a	n/a	n/a	n/a	49.184	AM11ANS.jpg
18.761	0.514	Blank	Blank	91.473	n/a	1	1	9	n/a	9	n/a	3	n/a	n/a	n/a	n/a	49.681	n/a
19.292	0.497	angry	Picture	90.959	n/a	1	1	10	n/a	10	85	3	n/a	n/a	n/a	n/a	50.212	BF07ANS.jpg
19.789	0.514	Blank	Blank	90.445	n/a	1	1	10	n/a	10	n/a	3	n/a	n/a	n/a	n/a	50.709	n/a
20.319	0.497	angry	Picture	89.931	n/a	1	1	11	n/a	11	87	3	n/a	n/a	n/a	n/a	51.239	BF11ANS.jpg
20.817	0.514	Blank	Blank	89.417	n/a	1	1	11	n/a	11	n/a	3	n/a	n/a	n/a	n/a	51.737	n/a
21.347	0.497	angry	Picture	88.903	n/a	1	1	12	n/a	12	91	3	n/a	n/a	n/a	n/a	52.267	AF20ANS.jpg
21.845	0.514	Blank	Blank	88.389	n/a	1	1	12	n/a	12	n/a	3	n/a	n/a	n/a	n/a	52.765	n/a
22.375	0.497	angry	Picture	87.875	n/a	1	1	13	n/a	13	115	3	n/a	n/a	n/a	n/a	53.295	AM23ANS.jpg
22.873	0.514	Blank	Blank	87.361	n/a	1	1	13	n/a	13	n/a	3	n/a	n/a	n/a	n/a	53.793	n/a
23.403	0.497	angry	Picture	86.847	n/a	1	1	14	n/a	14	97	3	n/a	n/a	n/a	n/a	54.323	BF28ANS.jpg
23.901	0.514	Blank	Blank	86.334	n/a	1	1	14	n/a	14	n/a	3	n/a	n/a	n/a	n/a	54.821	n/a
24.431	0.497	angry	Picture	85.82	n/a	1	1	15	n/a	15	82	3	n/a	n/a	n/a	n/a	55.351	AF03ANS.jpg
24.928	0.514	Blank	Blank	85.306	n/a	1	1	15	n/a	15	n/a	3	n/a	n/a	n/a	n/a	55.848	n/a
25.459	0.497	angry	Picture	84.792	n/a	1	1	16	n/a	16	96	3	n/a	n/a	n/a	n/a	56.379	AF26ANS.jpg
25.956	0.514	Blank	Blank	84.278	n/a	1	1	16	n/a	16	n/a	3	n/a	n/a	n/a	n/a	56.876	n/a
26.487	0.497	angry	Picture	83.764	n/a	1	1	17	n/a	17	109	3	n/a	n/a	n/a	n/a	57.407	AM10ANS.jpg
26.984	0.514	Blank	Blank	83.25	n/a	1	1	17	n/a	17	n/a	3	n/a	n/a	n/a	n/a	57.904	n/a
27.515	0.497	angry	Picture	82.736	n/a	1	1	18	n/a	18	114	3	n/a	n/a	n/a	n/a	58.435	AM22ANS.jpg
28.012	0.514	Blank	Blank	82.222	n/a	1	1	18	n/a	18	n/a	3	n/a	n/a	n/a	n/a	58.932	n/a
28.543	0.497	angry	Picture	81.708	n/a	1	1	19	n/a	19	120	3	n/a	n/a	n/a	n/a	59.463	AM35ANS.jpg
29.04	0.514	Blank	Blank	81.194	n/a	1	1	19	n/a	19	n/a	3	n/a	n/a	n/a	n/a	59.96	n/a
29.57	0.497	angry	Picture	80.68	n/a	1	1	20	n/a	20	81	3	n/a	n/a	n/a	n/a	60.49	AF01ANS.jpg
30.068	0.514	Blank	Blank	80.166	n/a	1	1	20	n/a	20	n/a	3	n/a	n/a	n/a	n/a	60.988	n/a
30.598	10.014	ITI	Fixation+	70.136	n/a	1	n/a	n/a	n/a	n/a	n/a	n/a	n/a	n/a	n/a	n/a	61.518	n/a
40.629	0.497	neutral	Picture	69.622	n/a	1	2	1	n/a	21	28	1	n/a	n/a	n/a	n/a	71.549	AM09NES.jpg
41.126	0.514	Blank	Blank	69.108	n/a	1	2	1	n/a	21	n/a	1	n/a	n/a	n/a	n/a	72.046	n/a
41.656	0.497	neutral	Picture	68.594	n/a	1	2	2	n/a	22	27	1	n/a	n/a	n/a	n/a	72.576	BM08NES.jpg
42.154	0.514	Blank	Blank	68.08	n/a	1	2	2	n/a	22	n/a	1	n/a	n/a	n/a	n/a	73.074	n/a
42.684	0.497	neutral	Picture	67.566	n/a	1	2	3	n/a	23	16	1	n/a	n/a	n/a	n/a	73.604	AF26NES.jpg
43.182	0.514	Blank	Blank	67.052	n/a	1	2	3	n/a	23	n/a	1	n/a	n/a	n/a	n/a	74.102	n/a
43.712	0.497	neutral	Picture	66.539	n/a	1	2	4	n/a	24	3	1	n/a	n/a	n/a	n/a	74.632	BF04NES.jpg
44.209	0.514	Blank	Blank	66.025	n/a	1	2	4	n/a	24	n/a	1	n/a	n/a	n/a	n/a	75.129	n/a
44.74	0.497	neutral	Picture	65.511	n/a	1	2	5	n/a	25	32	1	n/a	n/a	n/a	n/a	75.66	AM14NES.jpg
45.237	0.514	Blank	Blank	64.997	n/a	1	2	5	n/a	25	n/a	1	n/a	n/a	n/a	n/a	76.157	n/a
45.768	0.497	neutral	Picture	64.483	n/a	1	2	6	n/a	26	37	1	n/a	n/a	n/a	n/a	76.688	BM25NES.jpg
46.265	0.514	Blank	Blank	63.969	n/a	1	2	6	n/a	26	n/a	1	n/a	n/a	n/a	n/a	77.185	n/a
46.796	0.497	neutral	Picture	63.455	n/a	1	2	7	n/a	27	15	1	n/a	n/a	n/a	n/a	77.716	AF25NES.jpg
47.293	0.514	Blank	Blank	62.941	n/a	1	2	7	n/a	27	n/a	1	n/a	n/a	n/a	n/a	78.213	n/a
47.824	0.497	neutral	Picture	62.427	n/a	1	2	8	n/a	28	23	1	n/a	n/a	n/a	n/a	78.744	AM04NES.jpg
48.321	0.514	Blank	Blank	61.913	n/a	1	2	8	n/a	28	n/a	1	n/a	n/a	n/a	n/a	79.241	n/a
48.852	0.497	neutral	Picture	61.399	n/a	1	2	9	n/a	29	34	1	n/a	n/a	n/a	n/a	79.772	AM22NES.jpg
49.349	0.514	Blank	Blank	60.885	n/a	1	2	9	n/a	29	n/a	1	n/a	n/a	n/a	n/a	80.269	n/a
49.879	0.497	neutral	Picture	60.371	n/a	1	2	10	n/a	30	24	1	n/a	n/a	n/a	n/a	80.799	BM05NES.jpg
50.377	0.514	Blank	Blank	59.857	n/a	1	2	10	n/a	30	n/a	1	n/a	n/a	n/a	n/a	81.297	n/a
50.907	0.497	neutral	Picture	59.343	n/a	1	2	11	n/a	31	12	1	n/a	n/a	n/a	n/a	81.827	AF21NES.jpg
51.405	0.514	Blank	Blank	58.829	n/a	1	2	11	n/a	31	n/a	1	n/a	n/a	n/a	n/a	82.325	n/a
51.935	0.497	neutral	Picture	58.315	n/a	1	2	12	n/a	32	6	1	n/a	n/a	n/a	n/a	82.855	AF09NES.jpg
52.433	0.514	Blank	Blank	57.802	n/a	1	2	12	n/a	32	n/a	1	n/a	n/a	n/a	n/a	83.353	n/a
52.963	0.497	neutral	Picture	57.288	n/a	1	2	13	n/a	33	17	1	n/a	n/a	n/a	n/a	83.883	BF28NES.jpg
53.46	0.514	Blank	Blank	56.774	n/a	1	2	13	n/a	33	n/a	1	n/a	n/a	n/a	n/a	84.38	n/a
53.991	0.497	neutral	Picture	56.26	n/a	1	2	14	n/a	34	2	1	n/a	n/a	n/a	n/a	84.911	AF03NES.jpg
54.488	0.514	Blank	Blank	55.746	n/a	1	2	14	n/a	34	n/a	1	n/a	n/a	n/a	n/a	85.408	n/a
55.019	0.497	neutral	Picture	55.232	n/a	1	2	15	n/a	35	9	1	n/a	n/a	n/a	n/a	85.939	AF17NES.jpg
55.516	0.514	Blank	Blank	54.718	n/a	1	2	15	n/a	35	n/a	1	n/a	n/a	n/a	n/a	86.436	n/a
56.047	0.497	neutral	Picture	54.204	n/a	1	2	16	n/a	36	25	1	n/a	n/a	n/a	n/a	86.967	BM06NES.jpg
56.544	0.514	Blank	Blank	53.69	n/a	1	2	16	n/a	36	n/a	1	n/a	n/a	n/a	n/a	87.464	n/a
57.075	0.497	neutral	Picture	53.176	n/a	1	2	17	n/a	37	8	1	n/a	n/a	n/a	n/a	87.995	AF14NES.jpg
57.572	0.514	Blank	Blank	52.662	n/a	1	2	17	n/a	37	n/a	1	n/a	n/a	n/a	n/a	88.492	n/a
58.102	0.497	neutral	Picture	52.148	n/a	1	2	18	n/a	38	19	1	n/a	n/a	n/a	n/a	89.022	AF31NES.jpg
58.6	0.514	Blank	Blank	51.634	n/a	1	2	18	n/a	38	n/a	1	n/a	n/a	n/a	n/a	89.52	n/a
59.13	0.497	neutral	Picture	51.12	n/a	1	2	19	n/a	39	14	1	n/a	n/a	n/a	n/a	90.05	AF23NES.jpg
59.628	0.514	Blank	Blank	50.606	n/a	1	2	19	n/a	39	n/a	1	n/a	n/a	n/a	n/a	90.548	n/a
60.158	0.497	neutral	Picture	50.092	n/a	1	2	20	n/a	40	4	1	n/a	n/a	n/a	n/a	91.078	AF05NES.jpg
60.656	0.514	Blank	Blank	49.578	n/a	1	2	20	n/a	40	n/a	1	n/a	n/a	n/a	n/a	91.576	n/a
61.186	10.014	ITI	Fixation+	39.548	n/a	1	n/a	n/a	n/a	n/a	n/a	n/a	n/a	n/a	n/a	n/a	92.106	n/a
71.216	0.497	angry	Picture	39.034	n/a	1	3	1	n/a	41	84	3	n/a	n/a	n/a	n/a	102.136	AF05ANS.jpg
71.714	0.514	Blank	Blank	38.52	n/a	1	3	1	n/a	41	n/a	3	n/a	n/a	n/a	n/a	102.634	n/a
72.244	0.497	angry	Picture	38.007	n/a	1	3	2	n/a	42	92	3	n/a	n/a	n/a	n/a	103.164	AF21ANS.jpg
72.742	0.514	Blank	Blank	37.493	n/a	1	3	2	n/a	42	n/a	3	n/a	n/a	n/a	n/a	103.662	n/a
73.272	0.497	angry	Picture	36.979	n/a	1	3	3	n/a	43	86	3	n/a	n/a	n/a	n/a	104.192	AF09ANS.jpg
73.769	0.514	Blank	Blank	36.465	n/a	1	3	3	n/a	43	n/a	3	n/a	n/a	n/a	n/a	104.689	n/a
74.3	0.497	angry	Picture	35.951	n/a	1	3	4	n/a	44	93	3	n/a	n/a	n/a	n/a	105.22	BF22ANS.jpg
74.797	0.514	Blank	Blank	35.437	n/a	1	3	4	n/a	44	n/a	3	n/a	n/a	n/a	n/a	105.717	n/a
75.328	0.497	angry	Picture	34.923	n/a	1	3	5	n/a	45	88	3	n/a	n/a	n/a	n/a	106.248	AF14ANS.jpg
75.825	0.514	Blank	Blank	34.409	n/a	1	3	5	n/a	45	n/a	3	n/a	n/a	n/a	n/a	106.745	n/a
76.356	0.497	angry	Picture	33.895	n/a	1	3	6	n/a	46	113	3	n/a	n/a	n/a	n/a	107.276	AM21ANS.jpg
76.853	0.514	Blank	Blank	33.381	n/a	1	3	6	n/a	46	n/a	3	n/a	n/a	n/a	n/a	107.773	n/a
77.383	0.497	angry	Picture	32.867	n/a	1	3	7	n/a	47	95	3	n/a	n/a	n/a	n/a	108.303	AF25ANS.jpg
77.881	0.514	Blank	Blank	32.353	n/a	1	3	7	n/a	47	n/a	3	n/a	n/a	n/a	n/a	108.801	n/a
78.411	0.497	angry	Picture	31.839	n/a	1	3	8	n/a	48	102	3	n/a	n/a	n/a	n/a	109.331	BM03ANS.jpg
78.909	0.514	Blank	Blank	31.325	n/a	1	3	8	n/a	48	n/a	3	n/a	n/a	n/a	n/a	109.829	n/a
79.439	0.497	angry	Picture	30.811	n/a	1	3	9	n/a	49	112	3	n/a	n/a	n/a	n/a	110.359	AM14ANS.jpg
79.937	0.514	Blank	Blank	30.297	n/a	1	3	9	n/a	49	n/a	3	n/a	n/a	n/a	n/a	110.857	n/a
80.467	0.497	angry	Picture	29.783	n/a	1	3	10	n/a	50	83	3	n/a	n/a	n/a	n/a	111.387	BF04ANS.jpg
80.965	0.514	Blank	Blank	29.269	n/a	1	3	10	n/a	50	n/a	3	n/a	n/a	n/a	n/a	111.885	n/a
81.495	0.497	angry	Picture	28.756	n/a	1	3	11	n/a	51	90	3	n/a	n/a	n/a	n/a	112.415	AF18ANS.jpg
81.992	0.514	Blank	Blank	28.242	n/a	1	3	11	n/a	51	n/a	3	n/a	n/a	n/a	n/a	112.912	n/a
82.523	0.497	angry	Picture	27.728	n/a	1	3	12	n/a	52	117	3	n/a	n/a	n/a	n/a	113.443	BM25ANS.jpg
83.02	0.514	Blank	Blank	27.214	n/a	1	3	12	n/a	52	n/a	3	n/a	n/a	n/a	n/a	113.94	n/a
83.551	0.497	angry	Picture	26.7	n/a	1	3	13	n/a	53	94	3	n/a	n/a	n/a	n/a	114.471	AF23ANS.jpg
84.048	0.514	Blank	Blank	26.186	n/a	1	3	13	n/a	53	n/a	3	n/a	n/a	n/a	n/a	114.968	n/a
84.579	0.497	angry	Picture	25.672	n/a	1	3	14	n/a	54	106	3	n/a	n/a	n/a	n/a	115.499	AM07ANS.jpg
85.076	0.514	Blank	Blank	25.158	n/a	1	3	14	n/a	54	n/a	3	n/a	n/a	n/a	n/a	115.996	n/a
85.607	0.497	angry	Picture	24.644	n/a	1	3	15	n/a	55	105	3	n/a	n/a	n/a	n/a	116.527	BM06ANS.jpg
86.104	0.514	Blank	Blank	24.13	n/a	1	3	15	n/a	55	n/a	3	n/a	n/a	n/a	n/a	117.024	n/a
86.635	0.497	angry	Picture	23.616	n/a	1	3	16	n/a	56	116	3	n/a	n/a	n/a	n/a	117.555	BM24ANS.jpg
87.132	0.514	Blank	Blank	23.102	n/a	1	3	16	n/a	56	n/a	3	n/a	n/a	n/a	n/a	118.052	n/a
87.662	0.497	angry	Picture	22.588	n/a	1	3	17	n/a	57	89	3	n/a	n/a	n/a	n/a	118.582	AF17ANS.jpg
88.16	0.514	Blank	Blank	22.074	n/a	1	3	17	n/a	57	n/a	3	n/a	n/a	n/a	n/a	119.08	n/a
88.69	0.497	angry	Picture	21.56	n/a	1	3	18	n/a	58	118	3	n/a	n/a	n/a	n/a	119.61	BM26ANS.jpg
89.188	0.514	Blank	Blank	21.046	n/a	1	3	18	n/a	58	n/a	3	n/a	n/a	n/a	n/a	120.108	n/a
89.718	0.497	angry	Picture	20.533	n/a	1	3	19	n/a	59	100	3	n/a	n/a	n/a	n/a	120.638	AF32ANS.jpg
90.215	0.514	Blank	Blank	20.019	n/a	1	3	19	n/a	59	n/a	3	n/a	n/a	n/a	n/a	121.135	n/a
90.746	0.497	angry	Picture	19.505	n/a	1	3	20	n/a	60	119	3	n/a	n/a	n/a	n/a	121.666	BM28ANS.jpg
91.243	0.514	Blank	Blank	18.991	n/a	1	3	20	n/a	60	n/a	3	n/a	n/a	n/a	n/a	122.163	n/a
91.774	10.014	ITI	Fixation+	8.961	n/a	1	n/a	n/a	n/a	n/a	n/a	n/a	n/a	n/a	n/a	n/a	122.694	n/a
110.748	n/a	ConfirmRating	Rate	n/a	8.952	1	n/a	n/a	0	n/a	n/a	n/a	2	Angry	53	50	141.668	n/a
115.951	n/a	ConfirmRating	Rate	n/a	5.189	1	n/a	n/a	1	n/a	n/a	n/a	3	Angry	31	48	146.871	n/a
115.979	10.014	ITI	Fixation+	95.391	n/a	2	n/a	n/a	n/a	n/a	n/a	n/a	n/a	n/a	n/a	n/a	146.899	n/a
126.009	0.497	happy	Picture	94.877	n/a	2	4	1	n/a	61	79	2	n/a	n/a	n/a	n/a	156.929	BM28HAS.jpg
126.506	0.514	Blank	Blank	94.363	n/a	2	4	1	n/a	61	n/a	2	n/a	n/a	n/a	n/a	157.426	n/a
127.037	0.497	happy	Picture	93.849	n/a	2	4	2	n/a	62	61	2	n/a	n/a	n/a	n/a	157.957	AM01HAS.jpg
127.534	0.514	Blank	Blank	93.335	n/a	2	4	2	n/a	62	n/a	2	n/a	n/a	n/a	n/a	158.454	n/a
128.065	0.497	happy	Picture	92.821	n/a	2	4	3	n/a	63	57	2	n/a	n/a	n/a	n/a	158.985	BF28HAS.jpg
128.562	0.514	Blank	Blank	92.307	n/a	2	4	3	n/a	63	n/a	2	n/a	n/a	n/a	n/a	159.482	n/a
129.093	0.497	happy	Picture	91.793	n/a	2	4	4	n/a	64	77	2	n/a	n/a	n/a	n/a	160.013	BM25HAS.jpg
129.59	0.514	Blank	Blank	91.279	n/a	2	4	4	n/a	64	n/a	2	n/a	n/a	n/a	n/a	160.51	n/a
130.12	0.497	happy	Picture	90.765	n/a	2	4	5	n/a	65	47	2	n/a	n/a	n/a	n/a	161.041	BF11HAS.jpg
130.618	0.514	Blank	Blank	90.251	n/a	2	4	5	n/a	65	n/a	2	n/a	n/a	n/a	n/a	161.538	n/a
131.148	0.497	happy	Picture	89.737	n/a	2	4	6	n/a	66	50	2	n/a	n/a	n/a	n/a	162.068	AF18HAS.jpg
131.646	0.514	Blank	Blank	89.223	n/a	2	4	6	n/a	66	n/a	2	n/a	n/a	n/a	n/a	162.566	n/a
132.176	0.497	happy	Picture	88.709	n/a	2	4	7	n/a	67	78	2	n/a	n/a	n/a	n/a	163.096	BM26HAS.jpg
132.674	0.514	Blank	Blank	88.195	n/a	2	4	7	n/a	67	n/a	2	n/a	n/a	n/a	n/a	163.594	n/a
133.204	0.497	happy	Picture	87.681	n/a	2	4	8	n/a	68	45	2	n/a	n/a	n/a	n/a	164.124	BF07HAS.jpg
133.702	0.514	Blank	Blank	87.167	n/a	2	4	8	n/a	68	n/a	2	n/a	n/a	n/a	n/a	164.621	n/a
134.232	0.497	happy	Picture	86.654	n/a	2	4	9	n/a	69	56	2	n/a	n/a	n/a	n/a	165.152	AF26HAS.jpg
134.729	0.514	Blank	Blank	86.14	n/a	2	4	9	n/a	69	n/a	2	n/a	n/a	n/a	n/a	165.649	n/a
135.26	0.497	happy	Picture	85.626	n/a	2	4	10	n/a	70	65	2	n/a	n/a	n/a	n/a	166.18	BM06HAS.jpg
135.757	0.514	Blank	Blank	85.112	n/a	2	4	10	n/a	70	n/a	2	n/a	n/a	n/a	n/a	166.677	n/a
136.288	0.497	happy	Picture	84.598	n/a	2	4	11	n/a	71	73	2	n/a	n/a	n/a	n/a	167.208	AM21HAS.jpg
136.785	0.514	Blank	Blank	84.084	n/a	2	4	11	n/a	71	n/a	2	n/a	n/a	n/a	n/a	167.705	n/a
137.316	0.497	happy	Picture	83.57	n/a	2	4	12	n/a	72	41	2	n/a	n/a	n/a	n/a	168.236	AF01HAS.jpg
137.813	0.514	Blank	Blank	83.056	n/a	2	4	12	n/a	72	n/a	2	n/a	n/a	n/a	n/a	168.733	n/a
138.344	0.497	happy	Picture	82.542	n/a	2	4	13	n/a	73	59	2	n/a	n/a	n/a	n/a	169.264	AF31HAS.jpg
138.841	0.514	Blank	Blank	82.028	n/a	2	4	13	n/a	73	n/a	2	n/a	n/a	n/a	n/a	169.761	n/a
139.372	0.497	happy	Picture	81.514	n/a	2	4	14	n/a	74	64	2	n/a	n/a	n/a	n/a	170.292	BM05HAS.jpg
139.869	0.514	Blank	Blank	81.0	n/a	2	4	14	n/a	74	n/a	2	n/a	n/a	n/a	n/a	170.789	n/a
140.399	0.497	happy	Picture	80.486	n/a	2	4	15	n/a	75	68	2	n/a	n/a	n/a	n/a	171.319	AM09HAS.jpg
140.897	0.514	Blank	Blank	79.972	n/a	2	4	15	n/a	75	n/a	2	n/a	n/a	n/a	n/a	171.817	n/a
141.427	0.497	happy	Picture	79.458	n/a	2	4	16	n/a	76	54	2	n/a	n/a	n/a	n/a	172.347	AF23HAS.jpg
141.925	0.514	Blank	Blank	78.944	n/a	2	4	16	n/a	76	n/a	2	n/a	n/a	n/a	n/a	172.845	n/a
142.455	0.497	happy	Picture	78.43	n/a	2	4	17	n/a	77	53	2	n/a	n/a	n/a	n/a	173.375	BF22HAS.jpg
142.952	0.514	Blank	Blank	77.917	n/a	2	4	17	n/a	77	n/a	2	n/a	n/a	n/a	n/a	173.873	n/a
143.483	0.497	happy	Picture	77.403	n/a	2	4	18	n/a	78	44	2	n/a	n/a	n/a	n/a	174.403	AF05HAS.jpg
143.98	0.514	Blank	Blank	76.889	n/a	2	4	18	n/a	78	n/a	2	n/a	n/a	n/a	n/a	174.9	n/a
144.511	0.497	happy	Picture	76.375	n/a	2	4	19	n/a	79	52	2	n/a	n/a	n/a	n/a	175.431	AF21HAS.jpg
145.008	0.514	Blank	Blank	75.861	n/a	2	4	19	n/a	79	n/a	2	n/a	n/a	n/a	n/a	175.928	n/a
145.539	0.497	happy	Picture	75.347	n/a	2	4	20	n/a	80	62	2	n/a	n/a	n/a	n/a	176.459	BM03HAS.jpg
146.036	0.514	Blank	Blank	74.833	n/a	2	4	20	n/a	80	n/a	2	n/a	n/a	n/a	n/a	176.956	n/a
146.567	10.014	ITI	Fixation+	64.803	n/a	2	n/a	n/a	n/a	n/a	n/a	n/a	n/a	n/a	n/a	n/a	177.487	n/a
156.597	0.497	neutral	Picture	64.289	n/a	2	5	1	n/a	81	23	1	n/a	n/a	n/a	n/a	187.517	AM04NES.jpg
157.094	0.514	Blank	Blank	63.775	n/a	2	5	1	n/a	81	n/a	1	n/a	n/a	n/a	n/a	188.014	n/a
157.625	0.497	neutral	Picture	63.261	n/a	2	5	2	n/a	82	29	1	n/a	n/a	n/a	n/a	188.545	AM10NES.jpg
158.122	0.514	Blank	Blank	62.747	n/a	2	5	2	n/a	82	n/a	1	n/a	n/a	n/a	n/a	189.042	n/a
158.653	0.497	neutral	Picture	62.233	n/a	2	5	3	n/a	83	24	1	n/a	n/a	n/a	n/a	189.573	BM05NES.jpg
159.15	0.514	Blank	Blank	61.719	n/a	2	5	3	n/a	83	n/a	1	n/a	n/a	n/a	n/a	190.07	n/a
159.68	0.497	neutral	Picture	61.205	n/a	2	5	4	n/a	84	12	1	n/a	n/a	n/a	n/a	190.6	AF21NES.jpg
160.178	0.514	Blank	Blank	60.691	n/a	2	5	4	n/a	84	n/a	1	n/a	n/a	n/a	n/a	191.098	n/a
160.708	0.497	neutral	Picture	60.177	n/a	2	5	5	n/a	85	13	1	n/a	n/a	n/a	n/a	191.628	BF22NES.jpg
161.206	0.514	Blank	Blank	59.663	n/a	2	5	5	n/a	85	n/a	1	n/a	n/a	n/a	n/a	192.126	n/a
161.736	0.497	neutral	Picture	59.149	n/a	2	5	6	n/a	86	17	1	n/a	n/a	n/a	n/a	192.656	BF28NES.jpg
162.234	0.514	Blank	Blank	58.635	n/a	2	5	6	n/a	86	n/a	1	n/a	n/a	n/a	n/a	193.154	n/a
162.764	0.497	neutral	Picture	58.122	n/a	2	5	7	n/a	87	4	1	n/a	n/a	n/a	n/a	193.684	AF05NES.jpg
163.261	0.514	Blank	Blank	57.608	n/a	2	5	7	n/a	87	n/a	1	n/a	n/a	n/a	n/a	194.181	n/a
163.792	0.497	neutral	Picture	57.094	n/a	2	5	8	n/a	88	11	1	n/a	n/a	n/a	n/a	194.712	AF20NES.jpg
164.289	0.514	Blank	Blank	56.58	n/a	2	5	8	n/a	88	n/a	1	n/a	n/a	n/a	n/a	195.209	n/a
164.82	0.497	neutral	Picture	56.066	n/a	2	5	9	n/a	89	22	1	n/a	n/a	n/a	n/a	195.74	BM03NES.jpg
165.317	0.514	Blank	Blank	55.552	n/a	2	5	9	n/a	89	n/a	1	n/a	n/a	n/a	n/a	196.237	n/a
165.848	0.497	neutral	Picture	55.038	n/a	2	5	10	n/a	90	15	1	n/a	n/a	n/a	n/a	196.768	AF25NES.jpg
166.345	0.514	Blank	Blank	54.524	n/a	2	5	10	n/a	90	n/a	1	n/a	n/a	n/a	n/a	197.265	n/a
166.876	0.497	neutral	Picture	54.01	n/a	2	5	11	n/a	91	19	1	n/a	n/a	n/a	n/a	197.796	AF31NES.jpg
167.373	0.514	Blank	Blank	53.496	n/a	2	5	11	n/a	91	n/a	1	n/a	n/a	n/a	n/a	198.293	n/a
167.904	0.497	neutral	Picture	52.982	n/a	2	5	12	n/a	92	9	1	n/a	n/a	n/a	n/a	198.823	AF17NES.jpg
168.401	0.514	Blank	Blank	52.468	n/a	2	5	12	n/a	92	n/a	1	n/a	n/a	n/a	n/a	199.321	n/a
168.931	0.497	neutral	Picture	51.954	n/a	2	5	13	n/a	93	14	1	n/a	n/a	n/a	n/a	199.851	AF23NES.jpg
169.429	0.514	Blank	Blank	51.44	n/a	2	5	13	n/a	93	n/a	1	n/a	n/a	n/a	n/a	200.349	n/a
169.959	0.497	neutral	Picture	50.926	n/a	2	5	14	n/a	94	36	1	n/a	n/a	n/a	n/a	200.879	BM24NES.jpg
170.457	0.514	Blank	Blank	50.412	n/a	2	5	14	n/a	94	n/a	1	n/a	n/a	n/a	n/a	201.377	n/a
170.987	0.497	neutral	Picture	49.898	n/a	2	5	15	n/a	95	34	1	n/a	n/a	n/a	n/a	201.907	AM22NES.jpg
171.485	0.514	Blank	Blank	49.385	n/a	2	5	15	n/a	95	n/a	1	n/a	n/a	n/a	n/a	202.405	n/a
172.015	0.497	neutral	Picture	48.871	n/a	2	5	16	n/a	96	10	1	n/a	n/a	n/a	n/a	202.935	AF18NES.jpg
172.512	0.514	Blank	Blank	48.357	n/a	2	5	16	n/a	96	n/a	1	n/a	n/a	n/a	n/a	203.432	n/a
173.043	0.497	neutral	Picture	47.843	n/a	2	5	17	n/a	97	5	1	n/a	n/a	n/a	n/a	203.963	BF07NES.jpg
173.54	0.514	Blank	Blank	47.329	n/a	2	5	17	n/a	97	n/a	1	n/a	n/a	n/a	n/a	204.46	n/a
174.071	0.497	neutral	Picture	46.815	n/a	2	5	18	n/a	98	25	1	n/a	n/a	n/a	n/a	204.991	BM06NES.jpg
174.568	0.514	Blank	Blank	46.301	n/a	2	5	18	n/a	98	n/a	1	n/a	n/a	n/a	n/a	205.488	n/a
175.099	0.497	neutral	Picture	45.787	n/a	2	5	19	n/a	99	39	1	n/a	n/a	n/a	n/a	206.019	AM28NES.jpg
175.596	0.514	Blank	Blank	45.273	n/a	2	5	19	n/a	99	n/a	1	n/a	n/a	n/a	n/a	206.516	n/a
176.127	0.497	neutral	Picture	44.759	n/a	2	5	20	n/a	100	33	1	n/a	n/a	n/a	n/a	207.047	AM21NES.jpg
176.624	0.514	Blank	Blank	44.245	n/a	2	5	20	n/a	100	n/a	1	n/a	n/a	n/a	n/a	207.544	n/a
177.154	10.014	ITI	Fixation+	34.215	n/a	2	n/a	n/a	n/a	n/a	n/a	n/a	n/a	n/a	n/a	n/a	208.074	n/a
187.185	0.497	happy	Picture	33.701	n/a	2	6	1	n/a	101	74	2	n/a	n/a	n/a	n/a	218.105	AM22HAS.jpg
187.682	0.514	Blank	Blank	33.187	n/a	2	6	1	n/a	101	n/a	2	n/a	n/a	n/a	n/a	218.602	n/a
188.212	0.497	happy	Picture	32.673	n/a	2	6	2	n/a	102	76	2	n/a	n/a	n/a	n/a	219.132	BM24HAS.jpg
188.71	0.514	Blank	Blank	32.159	n/a	2	6	2	n/a	102	n/a	2	n/a	n/a	n/a	n/a	219.63	n/a
189.24	0.497	happy	Picture	31.645	n/a	2	6	3	n/a	103	80	2	n/a	n/a	n/a	n/a	220.16	BM35HAS.jpg
189.738	0.514	Blank	Blank	31.131	n/a	2	6	3	n/a	103	n/a	2	n/a	n/a	n/a	n/a	220.658	n/a
190.268	0.497	happy	Picture	30.617	n/a	2	6	4	n/a	104	75	2	n/a	n/a	n/a	n/a	221.188	AM23HAS.jpg
190.766	0.514	Blank	Blank	30.103	n/a	2	6	4	n/a	104	n/a	2	n/a	n/a	n/a	n/a	221.686	n/a
191.296	0.497	happy	Picture	29.59	n/a	2	6	5	n/a	105	49	2	n/a	n/a	n/a	n/a	222.216	AF17HAS.jpg
191.793	0.514	Blank	Blank	29.076	n/a	2	6	5	n/a	105	n/a	2	n/a	n/a	n/a	n/a	222.713	n/a
192.324	0.497	happy	Picture	28.562	n/a	2	6	6	n/a	106	43	2	n/a	n/a	n/a	n/a	223.244	BF04HAS.jpg
192.821	0.514	Blank	Blank	28.048	n/a	2	6	6	n/a	106	n/a	2	n/a	n/a	n/a	n/a	223.741	n/a
193.352	0.497	happy	Picture	27.534	n/a	2	6	7	n/a	107	70	2	n/a	n/a	n/a	n/a	224.272	BM11HAS.jpg
193.849	0.514	Blank	Blank	27.02	n/a	2	6	7	n/a	107	n/a	2	n/a	n/a	n/a	n/a	224.769	n/a
194.38	0.497	happy	Picture	26.506	n/a	2	6	8	n/a	108	66	2	n/a	n/a	n/a	n/a	225.3	BM07HAS.jpg
194.877	0.514	Blank	Blank	25.992	n/a	2	6	8	n/a	108	n/a	2	n/a	n/a	n/a	n/a	225.797	n/a
195.408	0.497	happy	Picture	25.478	n/a	2	6	9	n/a	109	48	2	n/a	n/a	n/a	n/a	226.328	AF14HAS.jpg
195.905	0.514	Blank	Blank	24.964	n/a	2	6	9	n/a	109	n/a	2	n/a	n/a	n/a	n/a	226.825	n/a
196.435	0.497	happy	Picture	24.45	n/a	2	6	10	n/a	110	58	2	n/a	n/a	n/a	n/a	227.356	BF29HAS.jpg
196.933	0.514	Blank	Blank	23.936	n/a	2	6	10	n/a	110	n/a	2	n/a	n/a	n/a	n/a	227.853	n/a
197.463	0.497	happy	Picture	23.422	n/a	2	6	11	n/a	111	63	2	n/a	n/a	n/a	n/a	228.383	AM04HAS.jpg
197.961	0.514	Blank	Blank	22.908	n/a	2	6	11	n/a	111	n/a	2	n/a	n/a	n/a	n/a	228.881	n/a
198.491	0.497	happy	Picture	22.394	n/a	2	6	12	n/a	112	72	2	n/a	n/a	n/a	n/a	229.411	AM14HAS.jpg
198.989	0.514	Blank	Blank	21.88	n/a	2	6	12	n/a	112	n/a	2	n/a	n/a	n/a	n/a	229.909	n/a
199.519	0.497	happy	Picture	21.367	n/a	2	6	13	n/a	113	55	2	n/a	n/a	n/a	n/a	230.439	AF25HAS.jpg
200.017	0.514	Blank	Blank	20.852	n/a	2	6	13	n/a	113	n/a	2	n/a	n/a	n/a	n/a	230.936	n/a
200.547	0.497	happy	Picture	20.339	n/a	2	6	14	n/a	114	42	2	n/a	n/a	n/a	n/a	231.467	AF03HAS.jpg
201.044	0.514	Blank	Blank	19.825	n/a	2	6	14	n/a	114	n/a	2	n/a	n/a	n/a	n/a	231.964	n/a
201.575	0.497	happy	Picture	19.311	n/a	2	6	15	n/a	115	60	2	n/a	n/a	n/a	n/a	232.495	AF32HAS.jpg
202.072	0.514	Blank	Blank	18.797	n/a	2	6	15	n/a	115	n/a	2	n/a	n/a	n/a	n/a	232.992	n/a
202.603	0.497	happy	Picture	18.283	n/a	2	6	16	n/a	116	67	2	n/a	n/a	n/a	n/a	233.523	BM08HAS.jpg
203.1	0.514	Blank	Blank	17.769	n/a	2	6	16	n/a	116	n/a	2	n/a	n/a	n/a	n/a	234.02	n/a
203.631	0.497	happy	Picture	17.255	n/a	2	6	17	n/a	117	51	2	n/a	n/a	n/a	n/a	234.551	AF20HAS.jpg
204.128	0.514	Blank	Blank	16.741	n/a	2	6	17	n/a	117	n/a	2	n/a	n/a	n/a	n/a	235.048	n/a
204.659	0.497	happy	Picture	16.227	n/a	2	6	18	n/a	118	71	2	n/a	n/a	n/a	n/a	235.579	BM12HAS.jpg
205.156	0.514	Blank	Blank	15.713	n/a	2	6	18	n/a	118	n/a	2	n/a	n/a	n/a	n/a	236.076	n/a
205.686	0.497	happy	Picture	15.199	n/a	2	6	19	n/a	119	69	2	n/a	n/a	n/a	n/a	236.606	AM10HAS.jpg
206.184	0.514	Blank	Blank	14.685	n/a	2	6	19	n/a	119	n/a	2	n/a	n/a	n/a	n/a	237.104	n/a
206.714	0.497	happy	Picture	14.171	n/a	2	6	20	n/a	120	46	2	n/a	n/a	n/a	n/a	237.634	AF09HAS.jpg
207.212	0.514	Blank	Blank	13.657	n/a	2	6	20	n/a	120	n/a	2	n/a	n/a	n/a	n/a	238.132	n/a
207.742	10.014	ITI	Fixation+	3.627	n/a	2	n/a	n/a	n/a	n/a	n/a	n/a	n/a	n/a	n/a	n/a	238.662	n/a
221.383	n/a	ConfirmRating	Rate	n/a	3.614	2	n/a	n/a	0	n/a	n/a	n/a	2	Happy	61	51	252.303	n/a
223.286	n/a	ConfirmRating	Rate	n/a	1.89	2	n/a	n/a	1	n/a	n/a	n/a	3	Happy	29	48	254.206	n/a
223.31	15.004	Rest	Picture	n/a	n/a	n/a	n/a	n/a	n/a	n/a	n/a	n/a	0	n/a	0	0	254.23	n/a
238.33	10.014	ITI	Fixation+	97.07	n/a	3	n/a	n/a	n/a	n/a	n/a	n/a	n/a	n/a	n/a	n/a	269.25	n/a
248.36	0.497	angry	Picture	96.556	n/a	3	7	1	n/a	1	108	3	n/a	n/a	n/a	n/a	279.28	AM09ANS.jpg
248.857	0.514	Blank	Blank	96.042	n/a	3	7	1	n/a	1	n/a	3	n/a	n/a	n/a	n/a	279.777	n/a
249.388	0.497	angry	Picture	95.528	n/a	3	7	2	n/a	2	99	3	n/a	n/a	n/a	n/a	280.308	AF31ANS.jpg
249.885	0.514	Blank	Blank	95.014	n/a	3	7	2	n/a	2	n/a	3	n/a	n/a	n/a	n/a	280.805	n/a
250.416	0.497	angry	Picture	94.5	n/a	3	7	3	n/a	3	98	3	n/a	n/a	n/a	n/a	281.336	BF29ANS.jpg
250.913	0.514	Blank	Blank	93.986	n/a	3	7	3	n/a	3	n/a	3	n/a	n/a	n/a	n/a	281.833	n/a
251.444	0.497	angry	Picture	93.472	n/a	3	7	4	n/a	4	107	3	n/a	n/a	n/a	n/a	282.364	BM08ANS.jpg
251.941	0.514	Blank	Blank	92.958	n/a	3	7	4	n/a	4	n/a	3	n/a	n/a	n/a	n/a	282.861	n/a
252.472	0.497	angry	Picture	92.445	n/a	3	7	5	n/a	5	104	3	n/a	n/a	n/a	n/a	283.392	BM05ANS.jpg
252.969	0.514	Blank	Blank	91.931	n/a	3	7	5	n/a	5	n/a	3	n/a	n/a	n/a	n/a	283.889	n/a
253.5	0.497	angry	Picture	91.417	n/a	3	7	6	n/a	6	101	3	n/a	n/a	n/a	n/a	284.42	AM01ANS.jpg
253.997	0.514	Blank	Blank	90.903	n/a	3	7	6	n/a	6	n/a	3	n/a	n/a	n/a	n/a	284.917	n/a
254.527	0.497	angry	Picture	90.389	n/a	3	7	7	n/a	7	103	3	n/a	n/a	n/a	n/a	285.447	AM04ANS.jpg
255.025	0.514	Blank	Blank	89.875	n/a	3	7	7	n/a	7	n/a	3	n/a	n/a	n/a	n/a	285.945	n/a
255.555	0.497	angry	Picture	89.361	n/a	3	7	8	n/a	8	111	3	n/a	n/a	n/a	n/a	286.475	BM12ANS.jpg
256.053	0.514	Blank	Blank	88.847	n/a	3	7	8	n/a	8	n/a	3	n/a	n/a	n/a	n/a	286.973	n/a
256.583	0.497	angry	Picture	88.333	n/a	3	7	9	n/a	9	110	3	n/a	n/a	n/a	n/a	287.503	AM11ANS.jpg
257.08	0.514	Blank	Blank	87.819	n/a	3	7	9	n/a	9	n/a	3	n/a	n/a	n/a	n/a	288.0	n/a
257.611	0.497	angry	Picture	87.305	n/a	3	7	10	n/a	10	85	3	n/a	n/a	n/a	n/a	288.531	BF07ANS.jpg
258.108	0.514	Blank	Blank	86.791	n/a	3	7	10	n/a	10	n/a	3	n/a	n/a	n/a	n/a	289.028	n/a
258.639	0.497	angry	Picture	86.277	n/a	3	7	11	n/a	11	87	3	n/a	n/a	n/a	n/a	289.559	BF11ANS.jpg
259.136	0.514	Blank	Blank	85.763	n/a	3	7	11	n/a	11	n/a	3	n/a	n/a	n/a	n/a	290.056	n/a
259.667	0.497	angry	Picture	85.249	n/a	3	7	12	n/a	12	91	3	n/a	n/a	n/a	n/a	290.587	AF20ANS.jpg
260.164	0.514	Blank	Blank	84.736	n/a	3	7	12	n/a	12	n/a	3	n/a	n/a	n/a	n/a	291.084	n/a
260.695	0.497	angry	Picture	84.221	n/a	3	7	13	n/a	13	115	3	n/a	n/a	n/a	n/a	291.615	AM23ANS.jpg
261.192	0.514	Blank	Blank	83.708	n/a	3	7	13	n/a	13	n/a	3	n/a	n/a	n/a	n/a	292.112	n/a
261.723	0.497	angry	Picture	83.194	n/a	3	7	14	n/a	14	97	3	n/a	n/a	n/a	n/a	292.643	BF28ANS.jpg
262.22	0.514	Blank	Blank	82.68	n/a	3	7	14	n/a	14	n/a	3	n/a	n/a	n/a	n/a	293.14	n/a
262.75	0.497	angry	Picture	82.166	n/a	3	7	15	n/a	15	82	3	n/a	n/a	n/a	n/a	293.671	AF03ANS.jpg
263.248	0.514	Blank	Blank	81.652	n/a	3	7	15	n/a	15	n/a	3	n/a	n/a	n/a	n/a	294.168	n/a
263.778	0.497	angry	Picture	81.138	n/a	3	7	16	n/a	16	96	3	n/a	n/a	n/a	n/a	294.698	AF26ANS.jpg
264.276	0.514	Blank	Blank	80.624	n/a	3	7	16	n/a	16	n/a	3	n/a	n/a	n/a	n/a	295.196	n/a
264.806	0.497	angry	Picture	80.11	n/a	3	7	17	n/a	17	109	3	n/a	n/a	n/a	n/a	295.726	AM10ANS.jpg
265.304	0.514	Blank	Blank	79.596	n/a	3	7	17	n/a	17	n/a	3	n/a	n/a	n/a	n/a	296.224	n/a
265.834	0.497	angry	Picture	79.082	n/a	3	7	18	n/a	18	114	3	n/a	n/a	n/a	n/a	296.754	AM22ANS.jpg
266.332	0.514	Blank	Blank	78.568	n/a	3	7	18	n/a	18	n/a	3	n/a	n/a	n/a	n/a	297.252	n/a
266.862	0.497	angry	Picture	78.054	n/a	3	7	19	n/a	19	120	3	n/a	n/a	n/a	n/a	297.782	AM35ANS.jpg
267.359	0.514	Blank	Blank	77.54	n/a	3	7	19	n/a	19	n/a	3	n/a	n/a	n/a	n/a	298.279	n/a
267.89	0.497	angry	Picture	77.026	n/a	3	7	20	n/a	20	81	3	n/a	n/a	n/a	n/a	298.81	AF01ANS.jpg
268.387	0.514	Blank	Blank	76.512	n/a	3	7	20	n/a	20	n/a	3	n/a	n/a	n/a	n/a	299.307	n/a
268.918	10.014	ITI	Fixation+	66.482	n/a	3	n/a	n/a	n/a	n/a	n/a	n/a	n/a	n/a	n/a	n/a	299.838	n/a
278.948	0.497	neutral	Picture	65.968	n/a	3	8	1	n/a	21	28	1	n/a	n/a	n/a	n/a	309.868	AM09NES.jpg
279.445	0.514	Blank	Blank	65.454	n/a	3	8	1	n/a	21	n/a	1	n/a	n/a	n/a	n/a	310.365	n/a
279.976	0.497	neutral	Picture	64.94	n/a	3	8	2	n/a	22	27	1	n/a	n/a	n/a	n/a	310.896	BM08NES.jpg
280.473	0.514	Blank	Blank	64.426	n/a	3	8	2	n/a	22	n/a	1	n/a	n/a	n/a	n/a	311.393	n/a
281.004	0.497	neutral	Picture	63.913	n/a	3	8	3	n/a	23	16	1	n/a	n/a	n/a	n/a	311.924	AF26NES.jpg
281.501	0.514	Blank	Blank	63.399	n/a	3	8	3	n/a	23	n/a	1	n/a	n/a	n/a	n/a	312.421	n/a
282.031	0.497	neutral	Picture	62.885	n/a	3	8	4	n/a	24	3	1	n/a	n/a	n/a	n/a	312.952	BF04NES.jpg
282.529	0.514	Blank	Blank	62.371	n/a	3	8	4	n/a	24	n/a	1	n/a	n/a	n/a	n/a	313.449	n/a
283.059	0.497	neutral	Picture	61.857	n/a	3	8	5	n/a	25	32	1	n/a	n/a	n/a	n/a	313.979	AM14NES.jpg
283.557	0.514	Blank	Blank	61.343	n/a	3	8	5	n/a	25	n/a	1	n/a	n/a	n/a	n/a	314.477	n/a
284.087	0.497	neutral	Picture	60.829	n/a	3	8	6	n/a	26	37	1	n/a	n/a	n/a	n/a	315.007	BM25NES.jpg
284.585	0.514	Blank	Blank	60.315	n/a	3	8	6	n/a	26	n/a	1	n/a	n/a	n/a	n/a	315.505	n/a
285.115	0.497	neutral	Picture	59.801	n/a	3	8	7	n/a	27	15	1	n/a	n/a	n/a	n/a	316.035	AF25NES.jpg
285.613	0.514	Blank	Blank	59.287	n/a	3	8	7	n/a	27	n/a	1	n/a	n/a	n/a	n/a	316.533	n/a
286.143	0.497	neutral	Picture	58.773	n/a	3	8	8	n/a	28	23	1	n/a	n/a	n/a	n/a	317.063	AM04NES.jpg
286.64	0.514	Blank	Blank	58.259	n/a	3	8	8	n/a	28	n/a	1	n/a	n/a	n/a	n/a	317.56	n/a
287.171	0.497	neutral	Picture	57.745	n/a	3	8	9	n/a	29	34	1	n/a	n/a	n/a	n/a	318.091	AM22NES.jpg
287.668	0.514	Blank	Blank	57.231	n/a	3	8	9	n/a	29	n/a	1	n/a	n/a	n/a	n/a	318.588	n/a
288.199	0.497	neutral	Picture	56.717	n/a	3	8	10	n/a	30	24	1	n/a	n/a	n/a	n/a	319.119	BM05NES.jpg
288.696	0.514	Blank	Blank	56.204	n/a	3	8	10	n/a	30	n/a	1	n/a	n/a	n/a	n/a	319.616	n/a
289.227	0.497	neutral	Picture	55.689	n/a	3	8	11	n/a	31	12	1	n/a	n/a	n/a	n/a	320.147	AF21NES.jpg
289.724	0.514	Blank	Blank	55.176	n/a	3	8	11	n/a	31	n/a	1	n/a	n/a	n/a	n/a	320.644	n/a
290.255	0.497	neutral	Picture	54.662	n/a	3	8	12	n/a	32	6	1	n/a	n/a	n/a	n/a	321.175	AF09NES.jpg
290.752	0.514	Blank	Blank	54.148	n/a	3	8	12	n/a	32	n/a	1	n/a	n/a	n/a	n/a	321.672	n/a
291.282	0.497	neutral	Picture	53.634	n/a	3	8	13	n/a	33	17	1	n/a	n/a	n/a	n/a	322.202	BF28NES.jpg
291.78	0.514	Blank	Blank	53.12	n/a	3	8	13	n/a	33	n/a	1	n/a	n/a	n/a	n/a	322.7	n/a
292.31	0.497	neutral	Picture	52.606	n/a	3	8	14	n/a	34	2	1	n/a	n/a	n/a	n/a	323.23	AF03NES.jpg
292.808	0.514	Blank	Blank	52.092	n/a	3	8	14	n/a	34	n/a	1	n/a	n/a	n/a	n/a	323.728	n/a
293.338	0.497	neutral	Picture	51.578	n/a	3	8	15	n/a	35	9	1	n/a	n/a	n/a	n/a	324.258	AF17NES.jpg
293.836	0.514	Blank	Blank	51.064	n/a	3	8	15	n/a	35	n/a	1	n/a	n/a	n/a	n/a	324.756	n/a
294.366	0.497	neutral	Picture	50.55	n/a	3	8	16	n/a	36	25	1	n/a	n/a	n/a	n/a	325.286	BM06NES.jpg
294.863	0.514	Blank	Blank	50.036	n/a	3	8	16	n/a	36	n/a	1	n/a	n/a	n/a	n/a	325.784	n/a
295.394	0.497	neutral	Picture	49.522	n/a	3	8	17	n/a	37	8	1	n/a	n/a	n/a	n/a	326.314	AF14NES.jpg
295.891	0.514	Blank	Blank	49.008	n/a	3	8	17	n/a	37	n/a	1	n/a	n/a	n/a	n/a	326.811	n/a
296.422	0.497	neutral	Picture	48.494	n/a	3	8	18	n/a	38	19	1	n/a	n/a	n/a	n/a	327.342	AF31NES.jpg
296.919	0.514	Blank	Blank	47.98	n/a	3	8	18	n/a	38	n/a	1	n/a	n/a	n/a	n/a	327.839	n/a
297.45	0.497	neutral	Picture	47.466	n/a	3	8	19	n/a	39	14	1	n/a	n/a	n/a	n/a	328.37	AF23NES.jpg
297.947	0.514	Blank	Blank	46.952	n/a	3	8	19	n/a	39	n/a	1	n/a	n/a	n/a	n/a	328.867	n/a
298.478	0.497	neutral	Picture	46.439	n/a	3	8	20	n/a	40	4	1	n/a	n/a	n/a	n/a	329.398	AF05NES.jpg
298.975	0.514	Blank	Blank	45.925	n/a	3	8	20	n/a	40	n/a	1	n/a	n/a	n/a	n/a	329.895	n/a
299.505	10.014	ITI	Fixation+	35.894	n/a	3	n/a	n/a	n/a	n/a	n/a	n/a	n/a	n/a	n/a	n/a	330.425	n/a
309.536	0.497	angry	Picture	35.381	n/a	3	9	1	n/a	41	84	3	n/a	n/a	n/a	n/a	340.456	AF05ANS.jpg
310.033	0.514	Blank	Blank	34.867	n/a	3	9	1	n/a	41	n/a	3	n/a	n/a	n/a	n/a	340.953	n/a
310.563	0.497	angry	Picture	34.353	n/a	3	9	2	n/a	42	92	3	n/a	n/a	n/a	n/a	341.483	AF21ANS.jpg
311.061	0.514	Blank	Blank	33.839	n/a	3	9	2	n/a	42	n/a	3	n/a	n/a	n/a	n/a	341.981	n/a
311.591	0.497	angry	Picture	33.325	n/a	3	9	3	n/a	43	86	3	n/a	n/a	n/a	n/a	342.511	AF09ANS.jpg
312.089	0.514	Blank	Blank	32.811	n/a	3	9	3	n/a	43	n/a	3	n/a	n/a	n/a	n/a	343.009	n/a
312.619	0.497	angry	Picture	32.297	n/a	3	9	4	n/a	44	93	3	n/a	n/a	n/a	n/a	343.539	BF22ANS.jpg
313.117	0.514	Blank	Blank	31.783	n/a	3	9	4	n/a	44	n/a	3	n/a	n/a	n/a	n/a	344.037	n/a
313.647	0.497	angry	Picture	31.269	n/a	3	9	5	n/a	45	88	3	n/a	n/a	n/a	n/a	344.567	AF14ANS.jpg
314.145	0.514	Blank	Blank	30.755	n/a	3	9	5	n/a	45	n/a	3	n/a	n/a	n/a	n/a	345.065	n/a
314.675	0.497	angry	Picture	30.241	n/a	3	9	6	n/a	46	113	3	n/a	n/a	n/a	n/a	345.595	AM21ANS.jpg
315.172	0.514	Blank	Blank	29.727	n/a	3	9	6	n/a	46	n/a	3	n/a	n/a	n/a	n/a	346.092	n/a
315.703	0.497	angry	Picture	29.213	n/a	3	9	7	n/a	47	95	3	n/a	n/a	n/a	n/a	346.623	AF25ANS.jpg
316.2	0.514	Blank	Blank	28.699	n/a	3	9	7	n/a	47	n/a	3	n/a	n/a	n/a	n/a	347.12	n/a
316.731	0.497	angry	Picture	28.185	n/a	3	9	8	n/a	48	102	3	n/a	n/a	n/a	n/a	347.651	BM03ANS.jpg
317.228	0.514	Blank	Blank	27.672	n/a	3	9	8	n/a	48	n/a	3	n/a	n/a	n/a	n/a	348.148	n/a
317.759	0.497	angry	Picture	27.157	n/a	3	9	9	n/a	49	112	3	n/a	n/a	n/a	n/a	348.679	AM14ANS.jpg
318.256	0.514	Blank	Blank	26.644	n/a	3	9	9	n/a	49	n/a	3	n/a	n/a	n/a	n/a	349.176	n/a
318.787	0.497	angry	Picture	26.13	n/a	3	9	10	n/a	50	83	3	n/a	n/a	n/a	n/a	349.707	BF04ANS.jpg
319.284	0.514	Blank	Blank	25.616	n/a	3	9	10	n/a	50	n/a	3	n/a	n/a	n/a	n/a	350.204	n/a
319.815	0.497	angry	Picture	25.102	n/a	3	9	11	n/a	51	90	3	n/a	n/a	n/a	n/a	350.735	AF18ANS.jpg
320.312	0.514	Blank	Blank	24.588	n/a	3	9	11	n/a	51	n/a	3	n/a	n/a	n/a	n/a	351.232	n/a
320.842	0.497	angry	Picture	24.074	n/a	3	9	12	n/a	52	117	3	n/a	n/a	n/a	n/a	351.762	BM25ANS.jpg
321.34	0.514	Blank	Blank	23.56	n/a	3	9	12	n/a	52	n/a	3	n/a	n/a	n/a	n/a	352.26	n/a
321.87	0.497	angry	Picture	23.046	n/a	3	9	13	n/a	53	94	3	n/a	n/a	n/a	n/a	352.79	AF23ANS.jpg
322.368	0.514	Blank	Blank	22.532	n/a	3	9	13	n/a	53	n/a	3	n/a	n/a	n/a	n/a	353.288	n/a
322.898	0.497	angry	Picture	22.018	n/a	3	9	14	n/a	54	106	3	n/a	n/a	n/a	n/a	353.818	AM07ANS.jpg
323.395	0.514	Blank	Blank	21.504	n/a	3	9	14	n/a	54	n/a	3	n/a	n/a	n/a	n/a	354.315	n/a
323.926	0.497	angry	Picture	20.99	n/a	3	9	15	n/a	55	105	3	n/a	n/a	n/a	n/a	354.846	BM06ANS.jpg
324.423	0.514	Blank	Blank	20.476	n/a	3	9	15	n/a	55	n/a	3	n/a	n/a	n/a	n/a	355.343	n/a
324.954	0.497	angry	Picture	19.962	n/a	3	9	16	n/a	56	116	3	n/a	n/a	n/a	n/a	355.874	BM24ANS.jpg
325.451	0.514	Blank	Blank	19.448	n/a	3	9	16	n/a	56	n/a	3	n/a	n/a	n/a	n/a	356.371	n/a
325.982	0.497	angry	Picture	18.935	n/a	3	9	17	n/a	57	89	3	n/a	n/a	n/a	n/a	356.902	AF17ANS.jpg
326.479	0.514	Blank	Blank	18.421	n/a	3	9	17	n/a	57	n/a	3	n/a	n/a	n/a	n/a	357.399	n/a
327.01	0.497	angry	Picture	17.907	n/a	3	9	18	n/a	58	118	3	n/a	n/a	n/a	n/a	357.93	BM26ANS.jpg
327.507	0.514	Blank	Blank	17.393	n/a	3	9	18	n/a	58	n/a	3	n/a	n/a	n/a	n/a	358.427	n/a
328.037	0.497	angry	Picture	16.879	n/a	3	9	19	n/a	59	100	3	n/a	n/a	n/a	n/a	358.957	AF32ANS.jpg
328.535	0.514	Blank	Blank	16.365	n/a	3	9	19	n/a	59	n/a	3	n/a	n/a	n/a	n/a	359.455	n/a
329.065	0.497	angry	Picture	15.851	n/a	3	9	20	n/a	60	119	3	n/a	n/a	n/a	n/a	359.985	BM28ANS.jpg
329.563	0.514	Blank	Blank	15.337	n/a	3	9	20	n/a	60	n/a	3	n/a	n/a	n/a	n/a	360.483	n/a
330.093	10.014	ITI	Fixation+	5.307	n/a	3	n/a	n/a	n/a	n/a	n/a	n/a	n/a	n/a	n/a	n/a	361.013	n/a
345.414	n/a	ConfirmRating	Rate	n/a	5.305	3	n/a	n/a	0	n/a	n/a	n/a	2	Angry	61	51	376.334	n/a
348.495	n/a	ConfirmRating	Rate	n/a	3.05	3	n/a	n/a	1	n/a	n/a	n/a	3	Angry	31	49	379.415	n/a
348.512	10.014	ITI	Fixation+	94.581	n/a	4	n/a	n/a	n/a	n/a	n/a	n/a	n/a	n/a	n/a	n/a	379.432	n/a
358.542	0.497	happy	Picture	94.067	n/a	4	10	1	n/a	61	79	2	n/a	n/a	n/a	n/a	389.462	BM28HAS.jpg
359.04	0.514	Blank	Blank	93.553	n/a	4	10	1	n/a	61	n/a	2	n/a	n/a	n/a	n/a	389.96	n/a
359.57	0.497	happy	Picture	93.039	n/a	4	10	2	n/a	62	61	2	n/a	n/a	n/a	n/a	390.49	AM01HAS.jpg
360.068	0.514	Blank	Blank	92.525	n/a	4	10	2	n/a	62	n/a	2	n/a	n/a	n/a	n/a	390.988	n/a
360.598	0.497	happy	Picture	92.011	n/a	4	10	3	n/a	63	57	2	n/a	n/a	n/a	n/a	391.518	BF28HAS.jpg
361.095	0.514	Blank	Blank	91.497	n/a	4	10	3	n/a	63	n/a	2	n/a	n/a	n/a	n/a	392.015	n/a
361.626	0.497	happy	Picture	90.983	n/a	4	10	4	n/a	64	77	2	n/a	n/a	n/a	n/a	392.546	BM25HAS.jpg
362.123	0.514	Blank	Blank	90.469	n/a	4	10	4	n/a	64	n/a	2	n/a	n/a	n/a	n/a	393.043	n/a
362.654	0.497	happy	Picture	89.955	n/a	4	10	5	n/a	65	47	2	n/a	n/a	n/a	n/a	393.574	BF11HAS.jpg
363.151	0.514	Blank	Blank	89.442	n/a	4	10	5	n/a	65	n/a	2	n/a	n/a	n/a	n/a	394.071	n/a
363.682	0.497	happy	Picture	88.927	n/a	4	10	6	n/a	66	50	2	n/a	n/a	n/a	n/a	394.602	AF18HAS.jpg
364.179	0.514	Blank	Blank	88.414	n/a	4	10	6	n/a	66	n/a	2	n/a	n/a	n/a	n/a	395.099	n/a
364.71	0.497	happy	Picture	87.9	n/a	4	10	7	n/a	67	78	2	n/a	n/a	n/a	n/a	395.63	BM26HAS.jpg
365.207	0.514	Blank	Blank	87.386	n/a	4	10	7	n/a	67	n/a	2	n/a	n/a	n/a	n/a	396.127	n/a
365.738	0.497	happy	Picture	86.872	n/a	4	10	8	n/a	68	45	2	n/a	n/a	n/a	n/a	396.658	BF07HAS.jpg
366.235	0.514	Blank	Blank	86.358	n/a	4	10	8	n/a	68	n/a	2	n/a	n/a	n/a	n/a	397.155	n/a
366.765	0.497	happy	Picture	85.844	n/a	4	10	9	n/a	69	56	2	n/a	n/a	n/a	n/a	397.685	AF26HAS.jpg
367.263	0.514	Blank	Blank	85.33	n/a	4	10	9	n/a	69	n/a	2	n/a	n/a	n/a	n/a	398.183	n/a
367.793	0.497	happy	Picture	84.816	n/a	4	10	10	n/a	70	65	2	n/a	n/a	n/a	n/a	398.713	BM06HAS.jpg
368.291	0.514	Blank	Blank	84.302	n/a	4	10	10	n/a	70	n/a	2	n/a	n/a	n/a	n/a	399.211	n/a
368.821	0.497	happy	Picture	83.788	n/a	4	10	11	n/a	71	73	2	n/a	n/a	n/a	n/a	399.741	AM21HAS.jpg
369.319	0.514	Blank	Blank	83.274	n/a	4	10	11	n/a	71	n/a	2	n/a	n/a	n/a	n/a	400.239	n/a
369.849	0.497	happy	Picture	82.76	n/a	4	10	12	n/a	72	41	2	n/a	n/a	n/a	n/a	400.769	AF01HAS.jpg
370.346	0.514	Blank	Blank	82.246	n/a	4	10	12	n/a	72	n/a	2	n/a	n/a	n/a	n/a	401.267	n/a
370.877	0.497	happy	Picture	81.732	n/a	4	10	13	n/a	73	59	2	n/a	n/a	n/a	n/a	401.797	AF31HAS.jpg
371.374	0.514	Blank	Blank	81.218	n/a	4	10	13	n/a	73	n/a	2	n/a	n/a	n/a	n/a	402.294	n/a
371.905	0.497	happy	Picture	80.704	n/a	4	10	14	n/a	74	64	2	n/a	n/a	n/a	n/a	402.825	BM05HAS.jpg
372.402	0.514	Blank	Blank	80.19	n/a	4	10	14	n/a	74	n/a	2	n/a	n/a	n/a	n/a	403.322	n/a
372.933	0.497	happy	Picture	79.677	n/a	4	10	15	n/a	75	68	2	n/a	n/a	n/a	n/a	403.853	AM09HAS.jpg
373.43	0.514	Blank	Blank	79.163	n/a	4	10	15	n/a	75	n/a	2	n/a	n/a	n/a	n/a	404.35	n/a
373.961	0.497	happy	Picture	78.649	n/a	4	10	16	n/a	76	54	2	n/a	n/a	n/a	n/a	404.881	AF23HAS.jpg
374.458	0.514	Blank	Blank	78.135	n/a	4	10	16	n/a	76	n/a	2	n/a	n/a	n/a	n/a	405.378	n/a
374.988	0.497	happy	Picture	77.621	n/a	4	10	17	n/a	77	53	2	n/a	n/a	n/a	n/a	405.909	BF22HAS.jpg
375.486	0.514	Blank	Blank	77.107	n/a	4	10	17	n/a	77	n/a	2	n/a	n/a	n/a	n/a	406.406	n/a
376.016	0.497	happy	Picture	76.593	n/a	4	10	18	n/a	78	44	2	n/a	n/a	n/a	n/a	406.936	AF05HAS.jpg
376.514	0.514	Blank	Blank	76.079	n/a	4	10	18	n/a	78	n/a	2	n/a	n/a	n/a	n/a	407.434	n/a
377.044	0.497	happy	Picture	75.565	n/a	4	10	19	n/a	79	52	2	n/a	n/a	n/a	n/a	407.964	AF21HAS.jpg
377.542	0.514	Blank	Blank	75.051	n/a	4	10	19	n/a	79	n/a	2	n/a	n/a	n/a	n/a	408.462	n/a
378.072	0.497	happy	Picture	74.537	n/a	4	10	20	n/a	80	62	2	n/a	n/a	n/a	n/a	408.992	BM03HAS.jpg
378.57	0.514	Blank	Blank	74.023	n/a	4	10	20	n/a	80	n/a	2	n/a	n/a	n/a	n/a	409.49	n/a
379.1	10.014	ITI	Fixation+	63.993	n/a	4	n/a	n/a	n/a	n/a	n/a	n/a	n/a	n/a	n/a	n/a	410.02	n/a
389.13	0.497	neutral	Picture	63.479	n/a	4	11	1	n/a	81	23	1	n/a	n/a	n/a	n/a	420.05	AM04NES.jpg
389.628	0.514	Blank	Blank	62.965	n/a	4	11	1	n/a	81	n/a	1	n/a	n/a	n/a	n/a	420.548	n/a
390.158	0.497	neutral	Picture	62.451	n/a	4	11	2	n/a	82	29	1	n/a	n/a	n/a	n/a	421.078	AM10NES.jpg
390.655	0.514	Blank	Blank	61.937	n/a	4	11	2	n/a	82	n/a	1	n/a	n/a	n/a	n/a	421.575	n/a
391.186	0.497	neutral	Picture	61.423	n/a	4	11	3	n/a	83	24	1	n/a	n/a	n/a	n/a	422.106	BM05NES.jpg
391.683	0.514	Blank	Blank	60.909	n/a	4	11	3	n/a	83	n/a	1	n/a	n/a	n/a	n/a	422.603	n/a
392.214	0.497	neutral	Picture	60.395	n/a	4	11	4	n/a	84	12	1	n/a	n/a	n/a	n/a	423.134	AF21NES.jpg
392.711	0.514	Blank	Blank	59.882	n/a	4	11	4	n/a	84	n/a	1	n/a	n/a	n/a	n/a	423.631	n/a
393.242	0.497	neutral	Picture	59.368	n/a	4	11	5	n/a	85	13	1	n/a	n/a	n/a	n/a	424.162	BF22NES.jpg
393.739	0.514	Blank	Blank	58.854	n/a	4	11	5	n/a	85	n/a	1	n/a	n/a	n/a	n/a	424.659	n/a
394.27	0.497	neutral	Picture	58.34	n/a	4	11	6	n/a	86	17	1	n/a	n/a	n/a	n/a	425.19	BF28NES.jpg
394.767	0.514	Blank	Blank	57.826	n/a	4	11	6	n/a	86	n/a	1	n/a	n/a	n/a	n/a	425.687	n/a
395.297	0.497	neutral	Picture	57.312	n/a	4	11	7	n/a	87	4	1	n/a	n/a	n/a	n/a	426.217	AF05NES.jpg
395.795	0.514	Blank	Blank	56.798	n/a	4	11	7	n/a	87	n/a	1	n/a	n/a	n/a	n/a	426.715	n/a
396.325	0.497	neutral	Picture	56.284	n/a	4	11	8	n/a	88	11	1	n/a	n/a	n/a	n/a	427.245	AF20NES.jpg
396.823	0.514	Blank	Blank	55.77	n/a	4	11	8	n/a	88	n/a	1	n/a	n/a	n/a	n/a	427.743	n/a
397.353	0.497	neutral	Picture	55.256	n/a	4	11	9	n/a	89	22	1	n/a	n/a	n/a	n/a	428.273	BM03NES.jpg
397.851	0.514	Blank	Blank	54.742	n/a	4	11	9	n/a	89	n/a	1	n/a	n/a	n/a	n/a	428.771	n/a
398.381	0.497	neutral	Picture	54.228	n/a	4	11	10	n/a	90	15	1	n/a	n/a	n/a	n/a	429.301	AF25NES.jpg
398.878	0.514	Blank	Blank	53.714	n/a	4	11	10	n/a	90	n/a	1	n/a	n/a	n/a	n/a	429.798	n/a
399.409	0.497	neutral	Picture	53.2	n/a	4	11	11	n/a	91	19	1	n/a	n/a	n/a	n/a	430.329	AF31NES.jpg
399.906	0.514	Blank	Blank	52.686	n/a	4	11	11	n/a	91	n/a	1	n/a	n/a	n/a	n/a	430.826	n/a
400.437	0.497	neutral	Picture	52.172	n/a	4	11	12	n/a	92	9	1	n/a	n/a	n/a	n/a	431.357	AF17NES.jpg
400.934	0.514	Blank	Blank	51.659	n/a	4	11	12	n/a	92	n/a	1	n/a	n/a	n/a	n/a	431.854	n/a
401.465	0.497	neutral	Picture	51.145	n/a	4	11	13	n/a	93	14	1	n/a	n/a	n/a	n/a	432.385	AF23NES.jpg
401.962	0.514	Blank	Blank	50.631	n/a	4	11	13	n/a	93	n/a	1	n/a	n/a	n/a	n/a	432.882	n/a
402.493	0.497	neutral	Picture	50.117	n/a	4	11	14	n/a	94	36	1	n/a	n/a	n/a	n/a	433.413	BM24NES.jpg
402.99	0.514	Blank	Blank	49.603	n/a	4	11	14	n/a	94	n/a	1	n/a	n/a	n/a	n/a	433.91	n/a
403.52	0.497	neutral	Picture	49.089	n/a	4	11	15	n/a	95	34	1	n/a	n/a	n/a	n/a	434.44	AM22NES.jpg
404.018	0.514	Blank	Blank	48.575	n/a	4	11	15	n/a	95	n/a	1	n/a	n/a	n/a	n/a	434.938	n/a
404.548	0.497	neutral	Picture	48.061	n/a	4	11	16	n/a	96	10	1	n/a	n/a	n/a	n/a	435.468	AF18NES.jpg
405.046	0.514	Blank	Blank	47.547	n/a	4	11	16	n/a	96	n/a	1	n/a	n/a	n/a	n/a	435.966	n/a
405.576	0.497	neutral	Picture	47.033	n/a	4	11	17	n/a	97	5	1	n/a	n/a	n/a	n/a	436.496	BF07NES.jpg
406.074	0.514	Blank	Blank	46.519	n/a	4	11	17	n/a	97	n/a	1	n/a	n/a	n/a	n/a	436.994	n/a
406.604	0.497	neutral	Picture	46.005	n/a	4	11	18	n/a	98	25	1	n/a	n/a	n/a	n/a	437.524	BM06NES.jpg
407.101	0.514	Blank	Blank	45.491	n/a	4	11	18	n/a	98	n/a	1	n/a	n/a	n/a	n/a	438.022	n/a
407.632	0.497	neutral	Picture	44.977	n/a	4	11	19	n/a	99	39	1	n/a	n/a	n/a	n/a	438.552	AM28NES.jpg
408.129	0.514	Blank	Blank	44.463	n/a	4	11	19	n/a	99	n/a	1	n/a	n/a	n/a	n/a	439.049	n/a
408.66	0.497	neutral	Picture	43.949	n/a	4	11	20	n/a	100	33	1	n/a	n/a	n/a	n/a	439.58	AM21NES.jpg
409.157	0.514	Blank	Blank	43.435	n/a	4	11	20	n/a	100	n/a	1	n/a	n/a	n/a	n/a	440.077	n/a
409.688	10.014	ITI	Fixation+	33.405	n/a	4	n/a	n/a	n/a	n/a	n/a	n/a	n/a	n/a	n/a	n/a	440.608	n/a
419.718	0.497	happy	Picture	32.891	n/a	4	12	1	n/a	101	74	2	n/a	n/a	n/a	n/a	450.638	AM22HAS.jpg
420.215	0.514	Blank	Blank	32.377	n/a	4	12	1	n/a	101	n/a	2	n/a	n/a	n/a	n/a	451.135	n/a
420.746	0.497	happy	Picture	31.863	n/a	4	12	2	n/a	102	76	2	n/a	n/a	n/a	n/a	451.666	BM24HAS.jpg
421.243	0.514	Blank	Blank	31.349	n/a	4	12	2	n/a	102	n/a	2	n/a	n/a	n/a	n/a	452.163	n/a
421.774	0.497	happy	Picture	30.836	n/a	4	12	3	n/a	103	80	2	n/a	n/a	n/a	n/a	452.694	BM35HAS.jpg
422.271	0.514	Blank	Blank	30.322	n/a	4	12	3	n/a	103	n/a	2	n/a	n/a	n/a	n/a	453.191	n/a
422.802	0.497	happy	Picture	29.808	n/a	4	12	4	n/a	104	75	2	n/a	n/a	n/a	n/a	453.722	AM23HAS.jpg
423.299	0.514	Blank	Blank	29.294	n/a	4	12	4	n/a	104	n/a	2	n/a	n/a	n/a	n/a	454.219	n/a
423.829	0.497	happy	Picture	28.78	n/a	4	12	5	n/a	105	49	2	n/a	n/a	n/a	n/a	454.75	AF17HAS.jpg
424.327	0.514	Blank	Blank	28.266	n/a	4	12	5	n/a	105	n/a	2	n/a	n/a	n/a	n/a	455.247	n/a
424.857	0.497	happy	Picture	27.752	n/a	4	12	6	n/a	106	43	2	n/a	n/a	n/a	n/a	455.777	BF04HAS.jpg
425.355	0.514	Blank	Blank	27.238	n/a	4	12	6	n/a	106	n/a	2	n/a	n/a	n/a	n/a	456.275	n/a
425.885	0.497	happy	Picture	26.724	n/a	4	12	7	n/a	107	70	2	n/a	n/a	n/a	n/a	456.805	BM11HAS.jpg
426.383	0.514	Blank	Blank	26.21	n/a	4	12	7	n/a	107	n/a	2	n/a	n/a	n/a	n/a	457.303	n/a
426.913	0.497	happy	Picture	25.696	n/a	4	12	8	n/a	108	66	2	n/a	n/a	n/a	n/a	457.833	BM07HAS.jpg
427.41	0.514	Blank	Blank	25.182	n/a	4	12	8	n/a	108	n/a	2	n/a	n/a	n/a	n/a	458.33	n/a
427.941	0.497	happy	Picture	24.668	n/a	4	12	9	n/a	109	48	2	n/a	n/a	n/a	n/a	458.861	AF14HAS.jpg
428.438	0.514	Blank	Blank	24.154	n/a	4	12	9	n/a	109	n/a	2	n/a	n/a	n/a	n/a	459.358	n/a
428.969	0.497	happy	Picture	23.64	n/a	4	12	10	n/a	110	58	2	n/a	n/a	n/a	n/a	459.889	BF29HAS.jpg
429.466	0.514	Blank	Blank	23.127	n/a	4	12	10	n/a	110	n/a	2	n/a	n/a	n/a	n/a	460.386	n/a
429.997	0.497	happy	Picture	22.613	n/a	4	12	11	n/a	111	63	2	n/a	n/a	n/a	n/a	460.917	AM04HAS.jpg
430.494	0.514	Blank	Blank	22.099	n/a	4	12	11	n/a	111	n/a	2	n/a	n/a	n/a	n/a	461.414	n/a
431.025	0.497	happy	Picture	21.585	n/a	4	12	12	n/a	112	72	2	n/a	n/a	n/a	n/a	461.945	AM14HAS.jpg
431.522	0.514	Blank	Blank	21.071	n/a	4	12	12	n/a	112	n/a	2	n/a	n/a	n/a	n/a	462.442	n/a
432.053	0.497	happy	Picture	20.557	n/a	4	12	13	n/a	113	55	2	n/a	n/a	n/a	n/a	462.973	AF25HAS.jpg
432.55	0.514	Blank	Blank	20.043	n/a	4	12	13	n/a	113	n/a	2	n/a	n/a	n/a	n/a	463.47	n/a
433.08	0.497	happy	Picture	19.529	n/a	4	12	14	n/a	114	42	2	n/a	n/a	n/a	n/a	464.0	AF03HAS.jpg
433.578	0.514	Blank	Blank	19.015	n/a	4	12	14	n/a	114	n/a	2	n/a	n/a	n/a	n/a	464.498	n/a
434.108	0.497	happy	Picture	18.501	n/a	4	12	15	n/a	115	60	2	n/a	n/a	n/a	n/a	465.028	AF32HAS.jpg
434.606	0.514	Blank	Blank	17.987	n/a	4	12	15	n/a	115	n/a	2	n/a	n/a	n/a	n/a	465.526	n/a
435.136	0.497	happy	Picture	17.473	n/a	4	12	16	n/a	116	67	2	n/a	n/a	n/a	n/a	466.056	BM08HAS.jpg
435.634	0.514	Blank	Blank	16.959	n/a	4	12	16	n/a	116	n/a	2	n/a	n/a	n/a	n/a	466.554	n/a
436.164	0.497	happy	Picture	16.445	n/a	4	12	17	n/a	117	51	2	n/a	n/a	n/a	n/a	467.084	AF20HAS.jpg
436.661	0.514	Blank	Blank	15.931	n/a	4	12	17	n/a	117	n/a	2	n/a	n/a	n/a	n/a	467.581	n/a
437.192	0.497	happy	Picture	15.417	n/a	4	12	18	n/a	118	71	2	n/a	n/a	n/a	n/a	468.112	BM12HAS.jpg
437.689	0.514	Blank	Blank	14.903	n/a	4	12	18	n/a	118	n/a	2	n/a	n/a	n/a	n/a	468.609	n/a
438.22	0.497	happy	Picture	14.389	n/a	4	12	19	n/a	119	69	2	n/a	n/a	n/a	n/a	469.14	AM10HAS.jpg
438.717	0.514	Blank	Blank	13.876	n/a	4	12	19	n/a	119	n/a	2	n/a	n/a	n/a	n/a	469.637	n/a
439.248	0.497	happy	Picture	13.362	n/a	4	12	20	n/a	120	46	2	n/a	n/a	n/a	n/a	470.168	AF09HAS.jpg
439.745	0.514	Blank	Blank	12.848	n/a	4	12	20	n/a	120	n/a	2	n/a	n/a	n/a	n/a	470.665	n/a
440.276	10.014	ITI	Fixation+	2.817	n/a	4	n/a	n/a	n/a	n/a	n/a	n/a	n/a	n/a	n/a	n/a	471.196	n/a
453.107	n/a	ConfirmRating	Rate	n/a	2.802	4	n/a	n/a	0	n/a	n/a	n/a	2	Happy	67	51	484.027	n/a
455.018	n/a	ConfirmRating	Rate	n/a	1.906	4	n/a	n/a	1	n/a	n/a	n/a	3	Happy	26	48	485.938	n/a
