onset	duration	trial_type	event_type	time_until_response	response_time	trial_number	block_num_within_trial	image_seq_num_within_block	question_seq_num_within_block	image_seq_num	picture_number	condition	question_type	block_type	rating	rating_computed	onset_uncorrected	KDEV_imagefile
0.005	10.014	ITI	Fixation+	96.673	n/a	1	n/a	n/a	n/a	n/a	n/a	n/a	n/a	n/a	n/a	n/a	26.471	n/a
10.035	0.497	angry	Picture	96.159	n/a	1	1	1	n/a	1	108	3	n/a	n/a	n/a	n/a	36.501	AM09ANS.jpg
10.532	0.514	Blank	Blank	95.645	n/a	1	1	1	n/a	1	n/a	3	n/a	n/a	n/a	n/a	36.998	n/a
11.063	0.497	angry	Picture	95.131	n/a	1	1	2	n/a	2	99	3	n/a	n/a	n/a	n/a	37.529	AF31ANS.jpg
11.56	0.514	Blank	Blank	94.617	n/a	1	1	2	n/a	2	n/a	3	n/a	n/a	n/a	n/a	38.026	n/a
12.091	0.497	angry	Picture	94.103	n/a	1	1	3	n/a	3	98	3	n/a	n/a	n/a	n/a	38.557	BF29ANS.jpg
12.588	0.514	Blank	Blank	93.589	n/a	1	1	3	n/a	3	n/a	3	n/a	n/a	n/a	n/a	39.054	n/a
13.119	0.497	angry	Picture	93.075	n/a	1	1	4	n/a	4	107	3	n/a	n/a	n/a	n/a	39.585	BM08ANS.jpg
13.616	0.514	Blank	Blank	92.561	n/a	1	1	4	n/a	4	n/a	3	n/a	n/a	n/a	n/a	40.082	n/a
14.146	0.497	angry	Picture	92.047	n/a	1	1	5	n/a	5	104	3	n/a	n/a	n/a	n/a	40.613	BM05ANS.jpg
14.644	0.514	Blank	Blank	91.533	n/a	1	1	5	n/a	5	n/a	3	n/a	n/a	n/a	n/a	41.11	n/a
15.174	0.497	angry	Picture	91.019	n/a	1	1	6	n/a	6	101	3	n/a	n/a	n/a	n/a	41.641	AM01ANS.jpg
15.672	0.514	Blank	Blank	90.505	n/a	1	1	6	n/a	6	n/a	3	n/a	n/a	n/a	n/a	42.138	n/a
16.202	0.497	angry	Picture	89.991	n/a	1	1	7	n/a	7	103	3	n/a	n/a	n/a	n/a	42.668	AM04ANS.jpg
16.7	0.514	Blank	Blank	89.478	n/a	1	1	7	n/a	7	n/a	3	n/a	n/a	n/a	n/a	43.166	n/a
17.23	0.497	angry	Picture	88.964	n/a	1	1	8	n/a	8	111	3	n/a	n/a	n/a	n/a	43.696	BM12ANS.jpg
17.728	0.514	Blank	Blank	88.45	n/a	1	1	8	n/a	8	n/a	3	n/a	n/a	n/a	n/a	44.194	n/a
18.258	0.497	angry	Picture	87.936	n/a	1	1	9	n/a	9	110	3	n/a	n/a	n/a	n/a	44.724	AM11ANS.jpg
18.755	0.514	Blank	Blank	87.422	n/a	1	1	9	n/a	9	n/a	3	n/a	n/a	n/a	n/a	45.221	n/a
19.286	0.497	angry	Picture	86.908	n/a	1	1	10	n/a	10	85	3	n/a	n/a	n/a	n/a	45.752	BF07ANS.jpg
19.783	0.514	Blank	Blank	86.394	n/a	1	1	10	n/a	10	n/a	3	n/a	n/a	n/a	n/a	46.249	n/a
20.314	0.497	angry	Picture	85.88	n/a	1	1	11	n/a	11	87	3	n/a	n/a	n/a	n/a	46.78	BF11ANS.jpg
20.811	0.514	Blank	Blank	85.366	n/a	1	1	11	n/a	11	n/a	3	n/a	n/a	n/a	n/a	47.277	n/a
21.342	0.497	angry	Picture	84.852	n/a	1	1	12	n/a	12	91	3	n/a	n/a	n/a	n/a	47.808	AF20ANS.jpg
21.839	0.514	Blank	Blank	84.338	n/a	1	1	12	n/a	12	n/a	3	n/a	n/a	n/a	n/a	48.305	n/a
22.369	0.497	angry	Picture	83.824	n/a	1	1	13	n/a	13	115	3	n/a	n/a	n/a	n/a	48.836	AM23ANS.jpg
22.867	0.514	Blank	Blank	83.31	n/a	1	1	13	n/a	13	n/a	3	n/a	n/a	n/a	n/a	49.333	n/a
23.397	0.497	angry	Picture	82.796	n/a	1	1	14	n/a	14	97	3	n/a	n/a	n/a	n/a	49.864	BF28ANS.jpg
23.895	0.514	Blank	Blank	82.282	n/a	1	1	14	n/a	14	n/a	3	n/a	n/a	n/a	n/a	50.361	n/a
24.425	0.497	angry	Picture	81.768	n/a	1	1	15	n/a	15	82	3	n/a	n/a	n/a	n/a	50.891	AF03ANS.jpg
24.923	0.514	Blank	Blank	81.254	n/a	1	1	15	n/a	15	n/a	3	n/a	n/a	n/a	n/a	51.389	n/a
25.453	0.497	angry	Picture	80.741	n/a	1	1	16	n/a	16	96	3	n/a	n/a	n/a	n/a	51.919	AF26ANS.jpg
25.951	0.514	Blank	Blank	80.227	n/a	1	1	16	n/a	16	n/a	3	n/a	n/a	n/a	n/a	52.417	n/a
26.481	0.497	angry	Picture	79.713	n/a	1	1	17	n/a	17	109	3	n/a	n/a	n/a	n/a	52.947	AM10ANS.jpg
26.978	0.514	Blank	Blank	79.199	n/a	1	1	17	n/a	17	n/a	3	n/a	n/a	n/a	n/a	53.444	n/a
27.509	0.497	angry	Picture	78.685	n/a	1	1	18	n/a	18	114	3	n/a	n/a	n/a	n/a	53.975	AM22ANS.jpg
28.006	0.514	Blank	Blank	78.171	n/a	1	1	18	n/a	18	n/a	3	n/a	n/a	n/a	n/a	54.472	n/a
28.537	0.497	angry	Picture	77.657	n/a	1	1	19	n/a	19	120	3	n/a	n/a	n/a	n/a	55.003	AM35ANS.jpg
29.034	0.514	Blank	Blank	77.143	n/a	1	1	19	n/a	19	n/a	3	n/a	n/a	n/a	n/a	55.5	n/a
29.565	0.497	angry	Picture	76.629	n/a	1	1	20	n/a	20	81	3	n/a	n/a	n/a	n/a	56.031	AF01ANS.jpg
30.062	0.514	Blank	Blank	76.115	n/a	1	1	20	n/a	20	n/a	3	n/a	n/a	n/a	n/a	56.528	n/a
30.593	10.014	ITI	Fixation+	66.085	n/a	1	n/a	n/a	n/a	n/a	n/a	n/a	n/a	n/a	n/a	n/a	57.059	n/a
40.623	0.497	neutral	Picture	65.571	n/a	1	2	1	n/a	21	28	1	n/a	n/a	n/a	n/a	67.089	AM09NES.jpg
41.12	0.514	Blank	Blank	65.057	n/a	1	2	1	n/a	21	n/a	1	n/a	n/a	n/a	n/a	67.586	n/a
41.651	0.497	neutral	Picture	64.543	n/a	1	2	2	n/a	22	27	1	n/a	n/a	n/a	n/a	68.117	BM08NES.jpg
42.148	0.514	Blank	Blank	64.029	n/a	1	2	2	n/a	22	n/a	1	n/a	n/a	n/a	n/a	68.614	n/a
42.678	0.497	neutral	Picture	63.515	n/a	1	2	3	n/a	23	16	1	n/a	n/a	n/a	n/a	69.145	AF26NES.jpg
43.176	0.514	Blank	Blank	63.001	n/a	1	2	3	n/a	23	n/a	1	n/a	n/a	n/a	n/a	69.642	n/a
43.706	0.497	neutral	Picture	62.487	n/a	1	2	4	n/a	24	3	1	n/a	n/a	n/a	n/a	70.172	BF04NES.jpg
44.204	0.514	Blank	Blank	61.973	n/a	1	2	4	n/a	24	n/a	1	n/a	n/a	n/a	n/a	70.67	n/a
44.734	0.497	neutral	Picture	61.459	n/a	1	2	5	n/a	25	32	1	n/a	n/a	n/a	n/a	71.2	AM14NES.jpg
45.232	0.514	Blank	Blank	60.945	n/a	1	2	5	n/a	25	n/a	1	n/a	n/a	n/a	n/a	71.698	n/a
45.762	0.497	neutral	Picture	60.432	n/a	1	2	6	n/a	26	37	1	n/a	n/a	n/a	n/a	72.228	BM25NES.jpg
46.26	0.514	Blank	Blank	59.918	n/a	1	2	6	n/a	26	n/a	1	n/a	n/a	n/a	n/a	72.726	n/a
46.79	0.497	neutral	Picture	59.404	n/a	1	2	7	n/a	27	15	1	n/a	n/a	n/a	n/a	73.256	AF25NES.jpg
47.287	0.514	Blank	Blank	58.89	n/a	1	2	7	n/a	27	n/a	1	n/a	n/a	n/a	n/a	73.754	n/a
47.818	0.497	neutral	Picture	58.376	n/a	1	2	8	n/a	28	23	1	n/a	n/a	n/a	n/a	74.284	AM04NES.jpg
48.315	0.514	Blank	Blank	57.862	n/a	1	2	8	n/a	28	n/a	1	n/a	n/a	n/a	n/a	74.781	n/a
48.846	0.497	neutral	Picture	57.348	n/a	1	2	9	n/a	29	34	1	n/a	n/a	n/a	n/a	75.312	AM22NES.jpg
49.343	0.514	Blank	Blank	56.834	n/a	1	2	9	n/a	29	n/a	1	n/a	n/a	n/a	n/a	75.809	n/a
49.874	0.497	neutral	Picture	56.32	n/a	1	2	10	n/a	30	24	1	n/a	n/a	n/a	n/a	76.34	BM05NES.jpg
50.371	0.514	Blank	Blank	55.806	n/a	1	2	10	n/a	30	n/a	1	n/a	n/a	n/a	n/a	76.837	n/a
50.902	0.497	neutral	Picture	55.292	n/a	1	2	11	n/a	31	12	1	n/a	n/a	n/a	n/a	77.368	AF21NES.jpg
51.399	0.514	Blank	Blank	54.778	n/a	1	2	11	n/a	31	n/a	1	n/a	n/a	n/a	n/a	77.865	n/a
51.929	0.497	neutral	Picture	54.264	n/a	1	2	12	n/a	32	6	1	n/a	n/a	n/a	n/a	78.395	AF09NES.jpg
52.427	0.514	Blank	Blank	53.75	n/a	1	2	12	n/a	32	n/a	1	n/a	n/a	n/a	n/a	78.893	n/a
52.957	0.497	neutral	Picture	53.236	n/a	1	2	13	n/a	33	17	1	n/a	n/a	n/a	n/a	79.423	BF28NES.jpg
53.455	0.514	Blank	Blank	52.722	n/a	1	2	13	n/a	33	n/a	1	n/a	n/a	n/a	n/a	79.921	n/a
53.985	0.497	neutral	Picture	52.208	n/a	1	2	14	n/a	34	2	1	n/a	n/a	n/a	n/a	80.451	AF03NES.jpg
54.483	0.514	Blank	Blank	51.695	n/a	1	2	14	n/a	34	n/a	1	n/a	n/a	n/a	n/a	80.949	n/a
55.013	0.497	neutral	Picture	51.181	n/a	1	2	15	n/a	35	9	1	n/a	n/a	n/a	n/a	81.479	AF17NES.jpg
55.51	0.514	Blank	Blank	50.667	n/a	1	2	15	n/a	35	n/a	1	n/a	n/a	n/a	n/a	81.977	n/a
56.041	0.497	neutral	Picture	50.153	n/a	1	2	16	n/a	36	25	1	n/a	n/a	n/a	n/a	82.507	BM06NES.jpg
56.538	0.514	Blank	Blank	49.639	n/a	1	2	16	n/a	36	n/a	1	n/a	n/a	n/a	n/a	83.004	n/a
57.069	0.497	neutral	Picture	49.125	n/a	1	2	17	n/a	37	8	1	n/a	n/a	n/a	n/a	83.535	AF14NES.jpg
57.566	0.514	Blank	Blank	48.611	n/a	1	2	17	n/a	37	n/a	1	n/a	n/a	n/a	n/a	84.032	n/a
58.097	0.497	neutral	Picture	48.097	n/a	1	2	18	n/a	38	19	1	n/a	n/a	n/a	n/a	84.563	AF31NES.jpg
58.594	0.514	Blank	Blank	47.583	n/a	1	2	18	n/a	38	n/a	1	n/a	n/a	n/a	n/a	85.06	n/a
59.125	0.497	neutral	Picture	47.069	n/a	1	2	19	n/a	39	14	1	n/a	n/a	n/a	n/a	85.591	AF23NES.jpg
59.622	0.514	Blank	Blank	46.555	n/a	1	2	19	n/a	39	n/a	1	n/a	n/a	n/a	n/a	86.088	n/a
60.153	0.497	neutral	Picture	46.041	n/a	1	2	20	n/a	40	4	1	n/a	n/a	n/a	n/a	86.619	AF05NES.jpg
60.65	0.514	Blank	Blank	45.527	n/a	1	2	20	n/a	40	n/a	1	n/a	n/a	n/a	n/a	87.116	n/a
61.18	10.014	ITI	Fixation+	35.497	n/a	1	n/a	n/a	n/a	n/a	n/a	n/a	n/a	n/a	n/a	n/a	87.647	n/a
71.21	0.497	angry	Picture	34.983	n/a	1	3	1	n/a	41	84	3	n/a	n/a	n/a	n/a	97.677	AF05ANS.jpg
71.708	0.514	Blank	Blank	34.469	n/a	1	3	1	n/a	41	n/a	3	n/a	n/a	n/a	n/a	98.174	n/a
72.238	0.497	angry	Picture	33.955	n/a	1	3	2	n/a	42	92	3	n/a	n/a	n/a	n/a	98.704	AF21ANS.jpg
72.736	0.514	Blank	Blank	33.441	n/a	1	3	2	n/a	42	n/a	3	n/a	n/a	n/a	n/a	99.202	n/a
73.266	0.497	angry	Picture	32.927	n/a	1	3	3	n/a	43	86	3	n/a	n/a	n/a	n/a	99.732	AF09ANS.jpg
73.764	0.514	Blank	Blank	32.413	n/a	1	3	3	n/a	43	n/a	3	n/a	n/a	n/a	n/a	100.23	n/a
74.294	0.497	angry	Picture	31.9	n/a	1	3	4	n/a	44	93	3	n/a	n/a	n/a	n/a	100.76	BF22ANS.jpg
74.791	0.514	Blank	Blank	31.386	n/a	1	3	4	n/a	44	n/a	3	n/a	n/a	n/a	n/a	101.258	n/a
75.322	0.497	angry	Picture	30.872	n/a	1	3	5	n/a	45	88	3	n/a	n/a	n/a	n/a	101.788	AF14ANS.jpg
75.819	0.514	Blank	Blank	30.358	n/a	1	3	5	n/a	45	n/a	3	n/a	n/a	n/a	n/a	102.285	n/a
76.35	0.497	angry	Picture	29.844	n/a	1	3	6	n/a	46	113	3	n/a	n/a	n/a	n/a	102.816	AM21ANS.jpg
76.847	0.514	Blank	Blank	29.33	n/a	1	3	6	n/a	46	n/a	3	n/a	n/a	n/a	n/a	103.313	n/a
77.378	0.497	angry	Picture	28.816	n/a	1	3	7	n/a	47	95	3	n/a	n/a	n/a	n/a	103.844	AF25ANS.jpg
77.875	0.514	Blank	Blank	28.302	n/a	1	3	7	n/a	47	n/a	3	n/a	n/a	n/a	n/a	104.341	n/a
78.406	0.497	angry	Picture	27.788	n/a	1	3	8	n/a	48	102	3	n/a	n/a	n/a	n/a	104.872	BM03ANS.jpg
78.903	0.514	Blank	Blank	27.274	n/a	1	3	8	n/a	48	n/a	3	n/a	n/a	n/a	n/a	105.369	n/a
79.434	0.497	angry	Picture	26.76	n/a	1	3	9	n/a	49	112	3	n/a	n/a	n/a	n/a	105.9	AM14ANS.jpg
79.931	0.514	Blank	Blank	26.246	n/a	1	3	9	n/a	49	n/a	3	n/a	n/a	n/a	n/a	106.397	n/a
80.462	0.497	angry	Picture	25.732	n/a	1	3	10	n/a	50	83	3	n/a	n/a	n/a	n/a	106.928	BF04ANS.jpg
80.959	0.514	Blank	Blank	25.218	n/a	1	3	10	n/a	50	n/a	3	n/a	n/a	n/a	n/a	107.425	n/a
81.489	0.497	angry	Picture	24.704	n/a	1	3	11	n/a	51	90	3	n/a	n/a	n/a	n/a	107.955	AF18ANS.jpg
81.987	0.514	Blank	Blank	24.19	n/a	1	3	11	n/a	51	n/a	3	n/a	n/a	n/a	n/a	108.453	n/a
82.517	0.497	angry	Picture	23.676	n/a	1	3	12	n/a	52	117	3	n/a	n/a	n/a	n/a	108.983	BM25ANS.jpg
83.015	0.514	Blank	Blank	23.163	n/a	1	3	12	n/a	52	n/a	3	n/a	n/a	n/a	n/a	109.481	n/a
83.545	0.497	angry	Picture	22.649	n/a	1	3	13	n/a	53	94	3	n/a	n/a	n/a	n/a	110.011	AF23ANS.jpg
84.043	0.514	Blank	Blank	22.135	n/a	1	3	13	n/a	53	n/a	3	n/a	n/a	n/a	n/a	110.509	n/a
84.573	0.497	angry	Picture	21.621	n/a	1	3	14	n/a	54	106	3	n/a	n/a	n/a	n/a	111.039	AM07ANS.jpg
85.07	0.514	Blank	Blank	21.107	n/a	1	3	14	n/a	54	n/a	3	n/a	n/a	n/a	n/a	111.536	n/a
85.601	0.497	angry	Picture	20.593	n/a	1	3	15	n/a	55	105	3	n/a	n/a	n/a	n/a	112.067	BM06ANS.jpg
86.098	0.514	Blank	Blank	20.079	n/a	1	3	15	n/a	55	n/a	3	n/a	n/a	n/a	n/a	112.564	n/a
86.629	0.497	angry	Picture	19.565	n/a	1	3	16	n/a	56	116	3	n/a	n/a	n/a	n/a	113.095	BM24ANS.jpg
87.126	0.514	Blank	Blank	19.051	n/a	1	3	16	n/a	56	n/a	3	n/a	n/a	n/a	n/a	113.592	n/a
87.657	0.497	angry	Picture	18.537	n/a	1	3	17	n/a	57	89	3	n/a	n/a	n/a	n/a	114.123	AF17ANS.jpg
88.154	0.514	Blank	Blank	18.023	n/a	1	3	17	n/a	57	n/a	3	n/a	n/a	n/a	n/a	114.62	n/a
88.684	0.497	angry	Picture	17.509	n/a	1	3	18	n/a	58	118	3	n/a	n/a	n/a	n/a	115.151	BM26ANS.jpg
89.182	0.514	Blank	Blank	16.995	n/a	1	3	18	n/a	58	n/a	3	n/a	n/a	n/a	n/a	115.648	n/a
89.712	0.497	angry	Picture	16.481	n/a	1	3	19	n/a	59	100	3	n/a	n/a	n/a	n/a	116.178	AF32ANS.jpg
90.21	0.514	Blank	Blank	15.967	n/a	1	3	19	n/a	59	n/a	3	n/a	n/a	n/a	n/a	116.676	n/a
90.74	0.497	angry	Picture	15.453	n/a	1	3	20	n/a	60	119	3	n/a	n/a	n/a	n/a	117.206	BM28ANS.jpg
91.238	0.514	Blank	Blank	14.939	n/a	1	3	20	n/a	60	n/a	3	n/a	n/a	n/a	n/a	117.704	n/a
91.768	10.014	ITI	Fixation+	4.909	n/a	1	n/a	n/a	n/a	n/a	n/a	n/a	n/a	n/a	n/a	n/a	118.234	n/a
106.691	n/a	ConfirmRating	Rate	n/a	4.89	1	n/a	n/a	0	n/a	n/a	n/a	2	Angry	42	50	133.157	n/a
109.62	n/a	ConfirmRating	Rate	n/a	2.901	1	n/a	n/a	1	n/a	n/a	n/a	3	Angry	51	50	136.086	n/a
109.64	10.014	ITI	Fixation+	95.317	n/a	2	n/a	n/a	n/a	n/a	n/a	n/a	n/a	n/a	n/a	n/a	136.106	n/a
119.67	0.497	happy	Picture	94.804	n/a	2	4	1	n/a	61	79	2	n/a	n/a	n/a	n/a	146.136	BM28HAS.jpg
120.168	0.514	Blank	Blank	94.29	n/a	2	4	1	n/a	61	n/a	2	n/a	n/a	n/a	n/a	146.634	n/a
120.698	0.497	happy	Picture	93.776	n/a	2	4	2	n/a	62	61	2	n/a	n/a	n/a	n/a	147.164	AM01HAS.jpg
121.195	0.514	Blank	Blank	93.262	n/a	2	4	2	n/a	62	n/a	2	n/a	n/a	n/a	n/a	147.661	n/a
121.726	0.497	happy	Picture	92.748	n/a	2	4	3	n/a	63	57	2	n/a	n/a	n/a	n/a	148.192	BF28HAS.jpg
122.223	0.514	Blank	Blank	92.234	n/a	2	4	3	n/a	63	n/a	2	n/a	n/a	n/a	n/a	148.689	n/a
122.754	0.497	happy	Picture	91.72	n/a	2	4	4	n/a	64	77	2	n/a	n/a	n/a	n/a	149.22	BM25HAS.jpg
123.251	0.514	Blank	Blank	91.206	n/a	2	4	4	n/a	64	n/a	2	n/a	n/a	n/a	n/a	149.717	n/a
123.782	0.497	happy	Picture	90.692	n/a	2	4	5	n/a	65	47	2	n/a	n/a	n/a	n/a	150.248	BF11HAS.jpg
124.279	0.514	Blank	Blank	90.178	n/a	2	4	5	n/a	65	n/a	2	n/a	n/a	n/a	n/a	150.745	n/a
124.81	0.497	happy	Picture	89.664	n/a	2	4	6	n/a	66	50	2	n/a	n/a	n/a	n/a	151.276	AF18HAS.jpg
125.307	0.514	Blank	Blank	89.15	n/a	2	4	6	n/a	66	n/a	2	n/a	n/a	n/a	n/a	151.773	n/a
125.837	0.497	happy	Picture	88.636	n/a	2	4	7	n/a	67	78	2	n/a	n/a	n/a	n/a	152.304	BM26HAS.jpg
126.335	0.514	Blank	Blank	88.122	n/a	2	4	7	n/a	67	n/a	2	n/a	n/a	n/a	n/a	152.801	n/a
126.865	0.497	happy	Picture	87.608	n/a	2	4	8	n/a	68	45	2	n/a	n/a	n/a	n/a	153.332	BF07HAS.jpg
127.363	0.514	Blank	Blank	87.094	n/a	2	4	8	n/a	68	n/a	2	n/a	n/a	n/a	n/a	153.829	n/a
127.893	0.497	happy	Picture	86.58	n/a	2	4	9	n/a	69	56	2	n/a	n/a	n/a	n/a	154.359	AF26HAS.jpg
128.391	0.514	Blank	Blank	86.067	n/a	2	4	9	n/a	69	n/a	2	n/a	n/a	n/a	n/a	154.857	n/a
128.921	0.497	happy	Picture	85.553	n/a	2	4	10	n/a	70	65	2	n/a	n/a	n/a	n/a	155.387	BM06HAS.jpg
129.418	0.514	Blank	Blank	85.039	n/a	2	4	10	n/a	70	n/a	2	n/a	n/a	n/a	n/a	155.885	n/a
129.949	0.497	happy	Picture	84.525	n/a	2	4	11	n/a	71	73	2	n/a	n/a	n/a	n/a	156.415	AM21HAS.jpg
130.446	0.514	Blank	Blank	84.011	n/a	2	4	11	n/a	71	n/a	2	n/a	n/a	n/a	n/a	156.912	n/a
130.977	0.497	happy	Picture	83.497	n/a	2	4	12	n/a	72	41	2	n/a	n/a	n/a	n/a	157.443	AF01HAS.jpg
131.474	0.514	Blank	Blank	82.983	n/a	2	4	12	n/a	72	n/a	2	n/a	n/a	n/a	n/a	157.94	n/a
132.005	0.497	happy	Picture	82.469	n/a	2	4	13	n/a	73	59	2	n/a	n/a	n/a	n/a	158.471	AF31HAS.jpg
132.502	0.514	Blank	Blank	81.955	n/a	2	4	13	n/a	73	n/a	2	n/a	n/a	n/a	n/a	158.968	n/a
133.033	0.497	happy	Picture	81.441	n/a	2	4	14	n/a	74	64	2	n/a	n/a	n/a	n/a	159.499	BM05HAS.jpg
133.53	0.514	Blank	Blank	80.927	n/a	2	4	14	n/a	74	n/a	2	n/a	n/a	n/a	n/a	159.996	n/a
134.06	0.497	happy	Picture	80.413	n/a	2	4	15	n/a	75	68	2	n/a	n/a	n/a	n/a	160.527	AM09HAS.jpg
134.558	0.514	Blank	Blank	79.899	n/a	2	4	15	n/a	75	n/a	2	n/a	n/a	n/a	n/a	161.024	n/a
135.088	0.497	happy	Picture	79.385	n/a	2	4	16	n/a	76	54	2	n/a	n/a	n/a	n/a	161.554	AF23HAS.jpg
135.586	0.514	Blank	Blank	78.871	n/a	2	4	16	n/a	76	n/a	2	n/a	n/a	n/a	n/a	162.052	n/a
136.116	0.497	happy	Picture	78.357	n/a	2	4	17	n/a	77	53	2	n/a	n/a	n/a	n/a	162.582	BF22HAS.jpg
136.614	0.514	Blank	Blank	77.843	n/a	2	4	17	n/a	77	n/a	2	n/a	n/a	n/a	n/a	163.08	n/a
137.144	0.497	happy	Picture	77.33	n/a	2	4	18	n/a	78	44	2	n/a	n/a	n/a	n/a	163.61	AF05HAS.jpg
137.641	0.514	Blank	Blank	76.816	n/a	2	4	18	n/a	78	n/a	2	n/a	n/a	n/a	n/a	164.108	n/a
138.172	0.497	happy	Picture	76.302	n/a	2	4	19	n/a	79	52	2	n/a	n/a	n/a	n/a	164.638	AF21HAS.jpg
138.669	0.514	Blank	Blank	75.788	n/a	2	4	19	n/a	79	n/a	2	n/a	n/a	n/a	n/a	165.136	n/a
139.2	0.497	happy	Picture	75.274	n/a	2	4	20	n/a	80	62	2	n/a	n/a	n/a	n/a	165.666	BM03HAS.jpg
139.697	0.514	Blank	Blank	74.76	n/a	2	4	20	n/a	80	n/a	2	n/a	n/a	n/a	n/a	166.163	n/a
140.228	10.014	ITI	Fixation+	64.73	n/a	2	n/a	n/a	n/a	n/a	n/a	n/a	n/a	n/a	n/a	n/a	166.694	n/a
150.258	0.497	neutral	Picture	64.216	n/a	2	5	1	n/a	81	23	1	n/a	n/a	n/a	n/a	176.724	AM04NES.jpg
150.755	0.514	Blank	Blank	63.702	n/a	2	5	1	n/a	81	n/a	1	n/a	n/a	n/a	n/a	177.221	n/a
151.286	0.497	neutral	Picture	63.188	n/a	2	5	2	n/a	82	29	1	n/a	n/a	n/a	n/a	177.752	AM10NES.jpg
151.783	0.514	Blank	Blank	62.674	n/a	2	5	2	n/a	82	n/a	1	n/a	n/a	n/a	n/a	178.249	n/a
152.314	0.497	neutral	Picture	62.16	n/a	2	5	3	n/a	83	24	1	n/a	n/a	n/a	n/a	178.78	BM05NES.jpg
152.811	0.514	Blank	Blank	61.646	n/a	2	5	3	n/a	83	n/a	1	n/a	n/a	n/a	n/a	179.277	n/a
153.342	0.497	neutral	Picture	61.132	n/a	2	5	4	n/a	84	12	1	n/a	n/a	n/a	n/a	179.808	AF21NES.jpg
153.839	0.514	Blank	Blank	60.618	n/a	2	5	4	n/a	84	n/a	1	n/a	n/a	n/a	n/a	180.305	n/a
154.369	0.497	neutral	Picture	60.104	n/a	2	5	5	n/a	85	13	1	n/a	n/a	n/a	n/a	180.836	BF22NES.jpg
154.867	0.514	Blank	Blank	59.59	n/a	2	5	5	n/a	85	n/a	1	n/a	n/a	n/a	n/a	181.333	n/a
155.397	0.497	neutral	Picture	59.076	n/a	2	5	6	n/a	86	17	1	n/a	n/a	n/a	n/a	181.863	BF28NES.jpg
155.895	0.514	Blank	Blank	58.562	n/a	2	5	6	n/a	86	n/a	1	n/a	n/a	n/a	n/a	182.361	n/a
156.425	0.497	neutral	Picture	58.048	n/a	2	5	7	n/a	87	4	1	n/a	n/a	n/a	n/a	182.891	AF05NES.jpg
156.923	0.514	Blank	Blank	57.534	n/a	2	5	7	n/a	87	n/a	1	n/a	n/a	n/a	n/a	183.389	n/a
157.453	0.497	neutral	Picture	57.021	n/a	2	5	8	n/a	88	11	1	n/a	n/a	n/a	n/a	183.919	AF20NES.jpg
157.95	0.514	Blank	Blank	56.507	n/a	2	5	8	n/a	88	n/a	1	n/a	n/a	n/a	n/a	184.417	n/a
158.481	0.497	neutral	Picture	55.993	n/a	2	5	9	n/a	89	22	1	n/a	n/a	n/a	n/a	184.947	BM03NES.jpg
158.978	0.514	Blank	Blank	55.479	n/a	2	5	9	n/a	89	n/a	1	n/a	n/a	n/a	n/a	185.445	n/a
159.509	0.497	neutral	Picture	54.965	n/a	2	5	10	n/a	90	15	1	n/a	n/a	n/a	n/a	185.975	AF25NES.jpg
160.006	0.514	Blank	Blank	54.451	n/a	2	5	10	n/a	90	n/a	1	n/a	n/a	n/a	n/a	186.472	n/a
160.537	0.497	neutral	Picture	53.937	n/a	2	5	11	n/a	91	19	1	n/a	n/a	n/a	n/a	187.003	AF31NES.jpg
161.034	0.514	Blank	Blank	53.423	n/a	2	5	11	n/a	91	n/a	1	n/a	n/a	n/a	n/a	187.5	n/a
161.565	0.497	neutral	Picture	52.909	n/a	2	5	12	n/a	92	9	1	n/a	n/a	n/a	n/a	188.031	AF17NES.jpg
162.062	0.514	Blank	Blank	52.395	n/a	2	5	12	n/a	92	n/a	1	n/a	n/a	n/a	n/a	188.528	n/a
162.593	0.497	neutral	Picture	51.881	n/a	2	5	13	n/a	93	14	1	n/a	n/a	n/a	n/a	189.059	AF23NES.jpg
163.09	0.514	Blank	Blank	51.367	n/a	2	5	13	n/a	93	n/a	1	n/a	n/a	n/a	n/a	189.556	n/a
163.62	0.497	neutral	Picture	50.853	n/a	2	5	14	n/a	94	36	1	n/a	n/a	n/a	n/a	190.087	BM24NES.jpg
164.118	0.514	Blank	Blank	50.339	n/a	2	5	14	n/a	94	n/a	1	n/a	n/a	n/a	n/a	190.584	n/a
164.648	0.497	neutral	Picture	49.825	n/a	2	5	15	n/a	95	34	1	n/a	n/a	n/a	n/a	191.114	AM22NES.jpg
165.146	0.514	Blank	Blank	49.311	n/a	2	5	15	n/a	95	n/a	1	n/a	n/a	n/a	n/a	191.612	n/a
165.676	0.497	neutral	Picture	48.797	n/a	2	5	16	n/a	96	10	1	n/a	n/a	n/a	n/a	192.142	AF18NES.jpg
166.174	0.514	Blank	Blank	48.284	n/a	2	5	16	n/a	96	n/a	1	n/a	n/a	n/a	n/a	192.64	n/a
166.704	0.497	neutral	Picture	47.77	n/a	2	5	17	n/a	97	5	1	n/a	n/a	n/a	n/a	193.17	BF07NES.jpg
167.201	0.514	Blank	Blank	47.256	n/a	2	5	17	n/a	97	n/a	1	n/a	n/a	n/a	n/a	193.667	n/a
167.732	0.497	neutral	Picture	46.742	n/a	2	5	18	n/a	98	25	1	n/a	n/a	n/a	n/a	194.198	BM06NES.jpg
168.229	0.514	Blank	Blank	46.228	n/a	2	5	18	n/a	98	n/a	1	n/a	n/a	n/a	n/a	194.695	n/a
168.76	0.497	neutral	Picture	45.714	n/a	2	5	19	n/a	99	39	1	n/a	n/a	n/a	n/a	195.226	AM28NES.jpg
169.257	0.514	Blank	Blank	45.2	n/a	2	5	19	n/a	99	n/a	1	n/a	n/a	n/a	n/a	195.723	n/a
169.788	0.497	neutral	Picture	44.686	n/a	2	5	20	n/a	100	33	1	n/a	n/a	n/a	n/a	196.254	AM21NES.jpg
170.285	0.514	Blank	Blank	44.172	n/a	2	5	20	n/a	100	n/a	1	n/a	n/a	n/a	n/a	196.751	n/a
170.816	10.014	ITI	Fixation+	34.142	n/a	2	n/a	n/a	n/a	n/a	n/a	n/a	n/a	n/a	n/a	n/a	197.282	n/a
180.846	0.497	happy	Picture	33.628	n/a	2	6	1	n/a	101	74	2	n/a	n/a	n/a	n/a	207.312	AM22HAS.jpg
181.343	0.514	Blank	Blank	33.114	n/a	2	6	1	n/a	101	n/a	2	n/a	n/a	n/a	n/a	207.809	n/a
181.874	0.497	happy	Picture	32.6	n/a	2	6	2	n/a	102	76	2	n/a	n/a	n/a	n/a	208.34	BM24HAS.jpg
182.371	0.514	Blank	Blank	32.086	n/a	2	6	2	n/a	102	n/a	2	n/a	n/a	n/a	n/a	208.837	n/a
182.901	0.497	happy	Picture	31.572	n/a	2	6	3	n/a	103	80	2	n/a	n/a	n/a	n/a	209.368	BM35HAS.jpg
183.399	0.514	Blank	Blank	31.058	n/a	2	6	3	n/a	103	n/a	2	n/a	n/a	n/a	n/a	209.865	n/a
183.929	0.497	happy	Picture	30.544	n/a	2	6	4	n/a	104	75	2	n/a	n/a	n/a	n/a	210.395	AM23HAS.jpg
184.427	0.514	Blank	Blank	30.03	n/a	2	6	4	n/a	104	n/a	2	n/a	n/a	n/a	n/a	210.893	n/a
184.957	0.497	happy	Picture	29.517	n/a	2	6	5	n/a	105	49	2	n/a	n/a	n/a	n/a	211.423	AF17HAS.jpg
185.455	0.514	Blank	Blank	29.002	n/a	2	6	5	n/a	105	n/a	2	n/a	n/a	n/a	n/a	211.921	n/a
185.985	0.497	happy	Picture	28.489	n/a	2	6	6	n/a	106	43	2	n/a	n/a	n/a	n/a	212.451	BF04HAS.jpg
186.482	0.514	Blank	Blank	27.975	n/a	2	6	6	n/a	106	n/a	2	n/a	n/a	n/a	n/a	212.949	n/a
187.013	0.497	happy	Picture	27.461	n/a	2	6	7	n/a	107	70	2	n/a	n/a	n/a	n/a	213.479	BM11HAS.jpg
187.51	0.514	Blank	Blank	26.947	n/a	2	6	7	n/a	107	n/a	2	n/a	n/a	n/a	n/a	213.976	n/a
188.041	0.497	happy	Picture	26.433	n/a	2	6	8	n/a	108	66	2	n/a	n/a	n/a	n/a	214.507	BM07HAS.jpg
188.538	0.514	Blank	Blank	25.919	n/a	2	6	8	n/a	108	n/a	2	n/a	n/a	n/a	n/a	215.004	n/a
189.069	0.497	happy	Picture	25.405	n/a	2	6	9	n/a	109	48	2	n/a	n/a	n/a	n/a	215.535	AF14HAS.jpg
189.566	0.514	Blank	Blank	24.891	n/a	2	6	9	n/a	109	n/a	2	n/a	n/a	n/a	n/a	216.032	n/a
190.097	0.497	happy	Picture	24.377	n/a	2	6	10	n/a	110	58	2	n/a	n/a	n/a	n/a	216.563	BF29HAS.jpg
190.594	0.514	Blank	Blank	23.863	n/a	2	6	10	n/a	110	n/a	2	n/a	n/a	n/a	n/a	217.06	n/a
191.125	0.497	happy	Picture	23.349	n/a	2	6	11	n/a	111	63	2	n/a	n/a	n/a	n/a	217.591	AM04HAS.jpg
191.622	0.514	Blank	Blank	22.835	n/a	2	6	11	n/a	111	n/a	2	n/a	n/a	n/a	n/a	218.088	n/a
192.152	0.497	happy	Picture	22.321	n/a	2	6	12	n/a	112	72	2	n/a	n/a	n/a	n/a	218.619	AM14HAS.jpg
192.65	0.514	Blank	Blank	21.807	n/a	2	6	12	n/a	112	n/a	2	n/a	n/a	n/a	n/a	219.116	n/a
193.18	0.497	happy	Picture	21.293	n/a	2	6	13	n/a	113	55	2	n/a	n/a	n/a	n/a	219.646	AF25HAS.jpg
193.678	0.514	Blank	Blank	20.779	n/a	2	6	13	n/a	113	n/a	2	n/a	n/a	n/a	n/a	220.144	n/a
194.208	0.497	happy	Picture	20.266	n/a	2	6	14	n/a	114	42	2	n/a	n/a	n/a	n/a	220.674	AF03HAS.jpg
194.706	0.514	Blank	Blank	19.752	n/a	2	6	14	n/a	114	n/a	2	n/a	n/a	n/a	n/a	221.172	n/a
195.236	0.497	happy	Picture	19.238	n/a	2	6	15	n/a	115	60	2	n/a	n/a	n/a	n/a	221.702	AF32HAS.jpg
195.733	0.514	Blank	Blank	18.724	n/a	2	6	15	n/a	115	n/a	2	n/a	n/a	n/a	n/a	222.2	n/a
196.264	0.497	happy	Picture	18.21	n/a	2	6	16	n/a	116	67	2	n/a	n/a	n/a	n/a	222.73	BM08HAS.jpg
196.761	0.514	Blank	Blank	17.696	n/a	2	6	16	n/a	116	n/a	2	n/a	n/a	n/a	n/a	223.227	n/a
197.292	0.497	happy	Picture	17.182	n/a	2	6	17	n/a	117	51	2	n/a	n/a	n/a	n/a	223.758	AF20HAS.jpg
197.789	0.514	Blank	Blank	16.668	n/a	2	6	17	n/a	117	n/a	2	n/a	n/a	n/a	n/a	224.255	n/a
198.32	0.497	happy	Picture	16.154	n/a	2	6	18	n/a	118	71	2	n/a	n/a	n/a	n/a	224.786	BM12HAS.jpg
198.817	0.514	Blank	Blank	15.64	n/a	2	6	18	n/a	118	n/a	2	n/a	n/a	n/a	n/a	225.283	n/a
199.348	0.497	happy	Picture	15.126	n/a	2	6	19	n/a	119	69	2	n/a	n/a	n/a	n/a	225.814	AM10HAS.jpg
199.845	0.514	Blank	Blank	14.612	n/a	2	6	19	n/a	119	n/a	2	n/a	n/a	n/a	n/a	226.311	n/a
200.375	0.497	happy	Picture	14.098	n/a	2	6	20	n/a	120	46	2	n/a	n/a	n/a	n/a	226.842	AF09HAS.jpg
200.873	0.514	Blank	Blank	13.584	n/a	2	6	20	n/a	120	n/a	2	n/a	n/a	n/a	n/a	227.339	n/a
201.403	10.014	ITI	Fixation+	3.554	n/a	2	n/a	n/a	n/a	n/a	n/a	n/a	n/a	n/a	n/a	n/a	227.869	n/a
214.971	n/a	ConfirmRating	Rate	n/a	3.548	2	n/a	n/a	0	n/a	n/a	n/a	2	Happy	72	52	241.437	n/a
219.097	n/a	ConfirmRating	Rate	n/a	4.111	2	n/a	n/a	1	n/a	n/a	n/a	3	Happy	0	47	245.563	n/a
219.126	15.004	Rest	Picture	n/a	n/a	n/a	n/a	n/a	n/a	n/a	n/a	n/a	0	n/a	0	0	245.592	n/a
234.146	10.014	ITI	Fixation+	97.958	n/a	3	n/a	n/a	n/a	n/a	n/a	n/a	n/a	n/a	n/a	n/a	260.613	n/a
244.177	0.497	angry	Picture	97.444	n/a	3	7	1	n/a	1	108	3	n/a	n/a	n/a	n/a	270.643	AM09ANS.jpg
244.674	0.514	Blank	Blank	96.93	n/a	3	7	1	n/a	1	n/a	3	n/a	n/a	n/a	n/a	271.14	n/a
245.204	0.497	angry	Picture	96.416	n/a	3	7	2	n/a	2	99	3	n/a	n/a	n/a	n/a	271.671	AF31ANS.jpg
245.702	0.514	Blank	Blank	95.902	n/a	3	7	2	n/a	2	n/a	3	n/a	n/a	n/a	n/a	272.168	n/a
246.232	0.497	angry	Picture	95.388	n/a	3	7	3	n/a	3	98	3	n/a	n/a	n/a	n/a	272.698	BF29ANS.jpg
246.73	0.514	Blank	Blank	94.874	n/a	3	7	3	n/a	3	n/a	3	n/a	n/a	n/a	n/a	273.196	n/a
247.26	0.497	angry	Picture	94.36	n/a	3	7	4	n/a	4	107	3	n/a	n/a	n/a	n/a	273.726	BM08ANS.jpg
247.758	0.514	Blank	Blank	93.846	n/a	3	7	4	n/a	4	n/a	3	n/a	n/a	n/a	n/a	274.224	n/a
248.288	0.497	angry	Picture	93.332	n/a	3	7	5	n/a	5	104	3	n/a	n/a	n/a	n/a	274.754	BM05ANS.jpg
248.785	0.514	Blank	Blank	92.818	n/a	3	7	5	n/a	5	n/a	3	n/a	n/a	n/a	n/a	275.252	n/a
249.316	0.497	angry	Picture	92.304	n/a	3	7	6	n/a	6	101	3	n/a	n/a	n/a	n/a	275.782	AM01ANS.jpg
249.813	0.514	Blank	Blank	91.79	n/a	3	7	6	n/a	6	n/a	3	n/a	n/a	n/a	n/a	276.279	n/a
250.344	0.497	angry	Picture	91.276	n/a	3	7	7	n/a	7	103	3	n/a	n/a	n/a	n/a	276.81	AM04ANS.jpg
250.841	0.514	Blank	Blank	90.763	n/a	3	7	7	n/a	7	n/a	3	n/a	n/a	n/a	n/a	277.307	n/a
251.372	0.497	angry	Picture	90.249	n/a	3	7	8	n/a	8	111	3	n/a	n/a	n/a	n/a	277.838	BM12ANS.jpg
251.869	0.514	Blank	Blank	89.735	n/a	3	7	8	n/a	8	n/a	3	n/a	n/a	n/a	n/a	278.335	n/a
252.4	0.497	angry	Picture	89.221	n/a	3	7	9	n/a	9	110	3	n/a	n/a	n/a	n/a	278.866	AM11ANS.jpg
252.897	0.514	Blank	Blank	88.707	n/a	3	7	9	n/a	9	n/a	3	n/a	n/a	n/a	n/a	279.363	n/a
253.427	0.497	angry	Picture	88.193	n/a	3	7	10	n/a	10	85	3	n/a	n/a	n/a	n/a	279.894	BF07ANS.jpg
253.925	0.514	Blank	Blank	87.679	n/a	3	7	10	n/a	10	n/a	3	n/a	n/a	n/a	n/a	280.391	n/a
254.455	0.497	angry	Picture	87.165	n/a	3	7	11	n/a	11	87	3	n/a	n/a	n/a	n/a	280.921	BF11ANS.jpg
254.953	0.514	Blank	Blank	86.651	n/a	3	7	11	n/a	11	n/a	3	n/a	n/a	n/a	n/a	281.419	n/a
255.483	0.497	angry	Picture	86.137	n/a	3	7	12	n/a	12	91	3	n/a	n/a	n/a	n/a	281.949	AF20ANS.jpg
255.981	0.514	Blank	Blank	85.623	n/a	3	7	12	n/a	12	n/a	3	n/a	n/a	n/a	n/a	282.447	n/a
256.511	0.497	angry	Picture	85.109	n/a	3	7	13	n/a	13	115	3	n/a	n/a	n/a	n/a	282.977	AM23ANS.jpg
257.009	0.514	Blank	Blank	84.595	n/a	3	7	13	n/a	13	n/a	3	n/a	n/a	n/a	n/a	283.475	n/a
257.539	0.497	angry	Picture	84.081	n/a	3	7	14	n/a	14	97	3	n/a	n/a	n/a	n/a	284.005	BF28ANS.jpg
258.036	0.514	Blank	Blank	83.567	n/a	3	7	14	n/a	14	n/a	3	n/a	n/a	n/a	n/a	284.502	n/a
258.567	0.497	angry	Picture	83.053	n/a	3	7	15	n/a	15	82	3	n/a	n/a	n/a	n/a	285.033	AF03ANS.jpg
259.064	0.514	Blank	Blank	82.54	n/a	3	7	15	n/a	15	n/a	3	n/a	n/a	n/a	n/a	285.53	n/a
259.595	0.497	angry	Picture	82.026	n/a	3	7	16	n/a	16	96	3	n/a	n/a	n/a	n/a	286.061	AF26ANS.jpg
260.092	0.514	Blank	Blank	81.512	n/a	3	7	16	n/a	16	n/a	3	n/a	n/a	n/a	n/a	286.558	n/a
260.623	0.497	angry	Picture	80.998	n/a	3	7	17	n/a	17	109	3	n/a	n/a	n/a	n/a	287.089	AM10ANS.jpg
261.12	0.514	Blank	Blank	80.484	n/a	3	7	17	n/a	17	n/a	3	n/a	n/a	n/a	n/a	287.586	n/a
261.651	0.497	angry	Picture	79.97	n/a	3	7	18	n/a	18	114	3	n/a	n/a	n/a	n/a	288.117	AM22ANS.jpg
262.148	0.514	Blank	Blank	79.456	n/a	3	7	18	n/a	18	n/a	3	n/a	n/a	n/a	n/a	288.614	n/a
262.678	0.497	angry	Picture	78.942	n/a	3	7	19	n/a	19	120	3	n/a	n/a	n/a	n/a	289.144	AM35ANS.jpg
263.176	0.514	Blank	Blank	78.428	n/a	3	7	19	n/a	19	n/a	3	n/a	n/a	n/a	n/a	289.642	n/a
263.706	0.497	angry	Picture	77.914	n/a	3	7	20	n/a	20	81	3	n/a	n/a	n/a	n/a	290.172	AF01ANS.jpg
264.204	0.514	Blank	Blank	77.4	n/a	3	7	20	n/a	20	n/a	3	n/a	n/a	n/a	n/a	290.67	n/a
264.734	10.014	ITI	Fixation+	67.37	n/a	3	n/a	n/a	n/a	n/a	n/a	n/a	n/a	n/a	n/a	n/a	291.2	n/a
274.764	0.497	neutral	Picture	66.856	n/a	3	8	1	n/a	21	28	1	n/a	n/a	n/a	n/a	301.23	AM09NES.jpg
275.262	0.514	Blank	Blank	66.342	n/a	3	8	1	n/a	21	n/a	1	n/a	n/a	n/a	n/a	301.728	n/a
275.792	0.497	neutral	Picture	65.828	n/a	3	8	2	n/a	22	27	1	n/a	n/a	n/a	n/a	302.258	BM08NES.jpg
276.29	0.514	Blank	Blank	65.314	n/a	3	8	2	n/a	22	n/a	1	n/a	n/a	n/a	n/a	302.756	n/a
276.82	0.497	neutral	Picture	64.8	n/a	3	8	3	n/a	23	16	1	n/a	n/a	n/a	n/a	303.286	AF26NES.jpg
277.317	0.514	Blank	Blank	64.286	n/a	3	8	3	n/a	23	n/a	1	n/a	n/a	n/a	n/a	303.784	n/a
277.848	0.497	neutral	Picture	63.772	n/a	3	8	4	n/a	24	3	1	n/a	n/a	n/a	n/a	304.314	BF04NES.jpg
278.345	0.514	Blank	Blank	63.258	n/a	3	8	4	n/a	24	n/a	1	n/a	n/a	n/a	n/a	304.811	n/a
278.876	0.497	neutral	Picture	62.745	n/a	3	8	5	n/a	25	32	1	n/a	n/a	n/a	n/a	305.342	AM14NES.jpg
279.373	0.514	Blank	Blank	62.231	n/a	3	8	5	n/a	25	n/a	1	n/a	n/a	n/a	n/a	305.839	n/a
279.904	0.497	neutral	Picture	61.717	n/a	3	8	6	n/a	26	37	1	n/a	n/a	n/a	n/a	306.37	BM25NES.jpg
280.401	0.514	Blank	Blank	61.203	n/a	3	8	6	n/a	26	n/a	1	n/a	n/a	n/a	n/a	306.867	n/a
280.932	0.497	neutral	Picture	60.689	n/a	3	8	7	n/a	27	15	1	n/a	n/a	n/a	n/a	307.398	AF25NES.jpg
281.429	0.514	Blank	Blank	60.175	n/a	3	8	7	n/a	27	n/a	1	n/a	n/a	n/a	n/a	307.895	n/a
281.959	0.497	neutral	Picture	59.661	n/a	3	8	8	n/a	28	23	1	n/a	n/a	n/a	n/a	308.426	AM04NES.jpg
282.457	0.514	Blank	Blank	59.147	n/a	3	8	8	n/a	28	n/a	1	n/a	n/a	n/a	n/a	308.923	n/a
282.987	0.497	neutral	Picture	58.633	n/a	3	8	9	n/a	29	34	1	n/a	n/a	n/a	n/a	309.454	AM22NES.jpg
283.485	0.514	Blank	Blank	58.119	n/a	3	8	9	n/a	29	n/a	1	n/a	n/a	n/a	n/a	309.951	n/a
284.015	0.497	neutral	Picture	57.605	n/a	3	8	10	n/a	30	24	1	n/a	n/a	n/a	n/a	310.481	BM05NES.jpg
284.513	0.514	Blank	Blank	57.091	n/a	3	8	10	n/a	30	n/a	1	n/a	n/a	n/a	n/a	310.979	n/a
285.043	0.497	neutral	Picture	56.577	n/a	3	8	11	n/a	31	12	1	n/a	n/a	n/a	n/a	311.509	AF21NES.jpg
285.541	0.514	Blank	Blank	56.063	n/a	3	8	11	n/a	31	n/a	1	n/a	n/a	n/a	n/a	312.007	n/a
286.071	0.497	neutral	Picture	55.549	n/a	3	8	12	n/a	32	6	1	n/a	n/a	n/a	n/a	312.537	AF09NES.jpg
286.568	0.514	Blank	Blank	55.035	n/a	3	8	12	n/a	32	n/a	1	n/a	n/a	n/a	n/a	313.034	n/a
287.099	0.497	neutral	Picture	54.521	n/a	3	8	13	n/a	33	17	1	n/a	n/a	n/a	n/a	313.565	BF28NES.jpg
287.596	0.514	Blank	Blank	54.007	n/a	3	8	13	n/a	33	n/a	1	n/a	n/a	n/a	n/a	314.062	n/a
288.127	0.497	neutral	Picture	53.493	n/a	3	8	14	n/a	34	2	1	n/a	n/a	n/a	n/a	314.593	AF03NES.jpg
288.624	0.514	Blank	Blank	52.98	n/a	3	8	14	n/a	34	n/a	1	n/a	n/a	n/a	n/a	315.09	n/a
289.155	0.497	neutral	Picture	52.466	n/a	3	8	15	n/a	35	9	1	n/a	n/a	n/a	n/a	315.621	AF17NES.jpg
289.652	0.514	Blank	Blank	51.952	n/a	3	8	15	n/a	35	n/a	1	n/a	n/a	n/a	n/a	316.118	n/a
290.183	0.497	neutral	Picture	51.438	n/a	3	8	16	n/a	36	25	1	n/a	n/a	n/a	n/a	316.649	BM06NES.jpg
290.68	0.514	Blank	Blank	50.924	n/a	3	8	16	n/a	36	n/a	1	n/a	n/a	n/a	n/a	317.146	n/a
291.21	0.497	neutral	Picture	50.41	n/a	3	8	17	n/a	37	8	1	n/a	n/a	n/a	n/a	317.676	AF14NES.jpg
291.708	0.514	Blank	Blank	49.896	n/a	3	8	17	n/a	37	n/a	1	n/a	n/a	n/a	n/a	318.174	n/a
292.238	0.497	neutral	Picture	49.382	n/a	3	8	18	n/a	38	19	1	n/a	n/a	n/a	n/a	318.704	AF31NES.jpg
292.736	0.514	Blank	Blank	48.868	n/a	3	8	18	n/a	38	n/a	1	n/a	n/a	n/a	n/a	319.202	n/a
293.266	0.497	neutral	Picture	48.354	n/a	3	8	19	n/a	39	14	1	n/a	n/a	n/a	n/a	319.732	AF23NES.jpg
293.764	0.514	Blank	Blank	47.84	n/a	3	8	19	n/a	39	n/a	1	n/a	n/a	n/a	n/a	320.23	n/a
294.294	0.497	neutral	Picture	47.326	n/a	3	8	20	n/a	40	4	1	n/a	n/a	n/a	n/a	320.76	AF05NES.jpg
294.792	0.514	Blank	Blank	46.812	n/a	3	8	20	n/a	40	n/a	1	n/a	n/a	n/a	n/a	321.258	n/a
295.322	10.014	ITI	Fixation+	36.782	n/a	3	n/a	n/a	n/a	n/a	n/a	n/a	n/a	n/a	n/a	n/a	321.788	n/a
305.352	0.497	angry	Picture	36.268	n/a	3	9	1	n/a	41	84	3	n/a	n/a	n/a	n/a	331.818	AF05ANS.jpg
305.85	0.514	Blank	Blank	35.754	n/a	3	9	1	n/a	41	n/a	3	n/a	n/a	n/a	n/a	332.316	n/a
306.38	0.497	angry	Picture	35.24	n/a	3	9	2	n/a	42	92	3	n/a	n/a	n/a	n/a	332.846	AF21ANS.jpg
306.877	0.514	Blank	Blank	34.726	n/a	3	9	2	n/a	42	n/a	3	n/a	n/a	n/a	n/a	333.344	n/a
307.408	0.497	angry	Picture	34.212	n/a	3	9	3	n/a	43	86	3	n/a	n/a	n/a	n/a	333.874	AF09ANS.jpg
307.905	0.514	Blank	Blank	33.698	n/a	3	9	3	n/a	43	n/a	3	n/a	n/a	n/a	n/a	334.371	n/a
308.436	0.497	angry	Picture	33.185	n/a	3	9	4	n/a	44	93	3	n/a	n/a	n/a	n/a	334.902	BF22ANS.jpg
308.933	0.514	Blank	Blank	32.671	n/a	3	9	4	n/a	44	n/a	3	n/a	n/a	n/a	n/a	335.399	n/a
309.464	0.497	angry	Picture	32.157	n/a	3	9	5	n/a	45	88	3	n/a	n/a	n/a	n/a	335.93	AF14ANS.jpg
309.961	0.514	Blank	Blank	31.643	n/a	3	9	5	n/a	45	n/a	3	n/a	n/a	n/a	n/a	336.427	n/a
310.492	0.497	angry	Picture	31.129	n/a	3	9	6	n/a	46	113	3	n/a	n/a	n/a	n/a	336.958	AM21ANS.jpg
310.989	0.514	Blank	Blank	30.615	n/a	3	9	6	n/a	46	n/a	3	n/a	n/a	n/a	n/a	337.455	n/a
311.519	0.497	angry	Picture	30.101	n/a	3	9	7	n/a	47	95	3	n/a	n/a	n/a	n/a	337.986	AF25ANS.jpg
312.017	0.514	Blank	Blank	29.587	n/a	3	9	7	n/a	47	n/a	3	n/a	n/a	n/a	n/a	338.483	n/a
312.547	0.497	angry	Picture	29.073	n/a	3	9	8	n/a	48	102	3	n/a	n/a	n/a	n/a	339.013	BM03ANS.jpg
313.045	0.514	Blank	Blank	28.559	n/a	3	9	8	n/a	48	n/a	3	n/a	n/a	n/a	n/a	339.511	n/a
313.575	0.497	angry	Picture	28.045	n/a	3	9	9	n/a	49	112	3	n/a	n/a	n/a	n/a	340.041	AM14ANS.jpg
314.072	0.514	Blank	Blank	27.531	n/a	3	9	9	n/a	49	n/a	3	n/a	n/a	n/a	n/a	340.539	n/a
314.603	0.497	angry	Picture	27.017	n/a	3	9	10	n/a	50	83	3	n/a	n/a	n/a	n/a	341.069	BF04ANS.jpg
315.1	0.514	Blank	Blank	26.503	n/a	3	9	10	n/a	50	n/a	3	n/a	n/a	n/a	n/a	341.567	n/a
315.631	0.497	angry	Picture	25.989	n/a	3	9	11	n/a	51	90	3	n/a	n/a	n/a	n/a	342.097	AF18ANS.jpg
316.128	0.514	Blank	Blank	25.476	n/a	3	9	11	n/a	51	n/a	3	n/a	n/a	n/a	n/a	342.594	n/a
316.659	0.497	angry	Picture	24.961	n/a	3	9	12	n/a	52	117	3	n/a	n/a	n/a	n/a	343.125	BM25ANS.jpg
317.156	0.514	Blank	Blank	24.448	n/a	3	9	12	n/a	52	n/a	3	n/a	n/a	n/a	n/a	343.622	n/a
317.687	0.497	angry	Picture	23.934	n/a	3	9	13	n/a	53	94	3	n/a	n/a	n/a	n/a	344.153	AF23ANS.jpg
318.184	0.514	Blank	Blank	23.42	n/a	3	9	13	n/a	53	n/a	3	n/a	n/a	n/a	n/a	344.65	n/a
318.715	0.497	angry	Picture	22.906	n/a	3	9	14	n/a	54	106	3	n/a	n/a	n/a	n/a	345.181	AM07ANS.jpg
319.212	0.514	Blank	Blank	22.392	n/a	3	9	14	n/a	54	n/a	3	n/a	n/a	n/a	n/a	345.678	n/a
319.743	0.497	angry	Picture	21.878	n/a	3	9	15	n/a	55	105	3	n/a	n/a	n/a	n/a	346.209	BM06ANS.jpg
320.24	0.514	Blank	Blank	21.364	n/a	3	9	15	n/a	55	n/a	3	n/a	n/a	n/a	n/a	346.706	n/a
320.77	0.497	angry	Picture	20.85	n/a	3	9	16	n/a	56	116	3	n/a	n/a	n/a	n/a	347.236	BM24ANS.jpg
321.268	0.514	Blank	Blank	20.336	n/a	3	9	16	n/a	56	n/a	3	n/a	n/a	n/a	n/a	347.734	n/a
321.798	0.497	angry	Picture	19.822	n/a	3	9	17	n/a	57	89	3	n/a	n/a	n/a	n/a	348.264	AF17ANS.jpg
322.296	0.514	Blank	Blank	19.308	n/a	3	9	17	n/a	57	n/a	3	n/a	n/a	n/a	n/a	348.762	n/a
322.826	0.497	angry	Picture	18.794	n/a	3	9	18	n/a	58	118	3	n/a	n/a	n/a	n/a	349.292	BM26ANS.jpg
323.324	0.514	Blank	Blank	18.28	n/a	3	9	18	n/a	58	n/a	3	n/a	n/a	n/a	n/a	349.79	n/a
323.854	0.497	angry	Picture	17.766	n/a	3	9	19	n/a	59	100	3	n/a	n/a	n/a	n/a	350.32	AF32ANS.jpg
324.351	0.514	Blank	Blank	17.252	n/a	3	9	19	n/a	59	n/a	3	n/a	n/a	n/a	n/a	350.817	n/a
324.882	0.497	angry	Picture	16.738	n/a	3	9	20	n/a	60	119	3	n/a	n/a	n/a	n/a	351.348	BM28ANS.jpg
325.379	0.514	Blank	Blank	16.224	n/a	3	9	20	n/a	60	n/a	3	n/a	n/a	n/a	n/a	351.845	n/a
325.91	10.014	ITI	Fixation+	6.194	n/a	3	n/a	n/a	n/a	n/a	n/a	n/a	n/a	n/a	n/a	n/a	352.376	n/a
342.118	n/a	ConfirmRating	Rate	n/a	6.183	3	n/a	n/a	0	n/a	n/a	n/a	2	Angry	38	51	368.584	n/a
346.669	n/a	ConfirmRating	Rate	n/a	4.543	3	n/a	n/a	1	n/a	n/a	n/a	3	Angry	43	49	373.135	n/a
346.7	10.014	ITI	Fixation+	96.018	n/a	4	n/a	n/a	n/a	n/a	n/a	n/a	n/a	n/a	n/a	n/a	373.166	n/a
356.73	0.497	happy	Picture	95.504	n/a	4	10	1	n/a	61	79	2	n/a	n/a	n/a	n/a	383.196	BM28HAS.jpg
357.227	0.514	Blank	Blank	94.99	n/a	4	10	1	n/a	61	n/a	2	n/a	n/a	n/a	n/a	383.693	n/a
357.757	0.497	happy	Picture	94.476	n/a	4	10	2	n/a	62	61	2	n/a	n/a	n/a	n/a	384.224	AM01HAS.jpg
358.255	0.514	Blank	Blank	93.962	n/a	4	10	2	n/a	62	n/a	2	n/a	n/a	n/a	n/a	384.721	n/a
358.785	0.497	happy	Picture	93.448	n/a	4	10	3	n/a	63	57	2	n/a	n/a	n/a	n/a	385.252	BF28HAS.jpg
359.283	0.514	Blank	Blank	92.934	n/a	4	10	3	n/a	63	n/a	2	n/a	n/a	n/a	n/a	385.749	n/a
359.813	0.497	happy	Picture	92.42	n/a	4	10	4	n/a	64	77	2	n/a	n/a	n/a	n/a	386.279	BM25HAS.jpg
360.311	0.514	Blank	Blank	91.906	n/a	4	10	4	n/a	64	n/a	2	n/a	n/a	n/a	n/a	386.777	n/a
360.841	0.497	happy	Picture	91.392	n/a	4	10	5	n/a	65	47	2	n/a	n/a	n/a	n/a	387.307	BF11HAS.jpg
361.339	0.514	Blank	Blank	90.878	n/a	4	10	5	n/a	65	n/a	2	n/a	n/a	n/a	n/a	387.805	n/a
361.869	0.497	happy	Picture	90.364	n/a	4	10	6	n/a	66	50	2	n/a	n/a	n/a	n/a	388.335	AF18HAS.jpg
362.366	0.514	Blank	Blank	89.85	n/a	4	10	6	n/a	66	n/a	2	n/a	n/a	n/a	n/a	388.832	n/a
362.897	0.497	happy	Picture	89.336	n/a	4	10	7	n/a	67	78	2	n/a	n/a	n/a	n/a	389.363	BM26HAS.jpg
363.394	0.514	Blank	Blank	88.822	n/a	4	10	7	n/a	67	n/a	2	n/a	n/a	n/a	n/a	389.86	n/a
363.925	0.497	happy	Picture	88.308	n/a	4	10	8	n/a	68	45	2	n/a	n/a	n/a	n/a	390.391	BF07HAS.jpg
364.422	0.514	Blank	Blank	87.795	n/a	4	10	8	n/a	68	n/a	2	n/a	n/a	n/a	n/a	390.888	n/a
364.953	0.497	happy	Picture	87.281	n/a	4	10	9	n/a	69	56	2	n/a	n/a	n/a	n/a	391.419	AF26HAS.jpg
365.45	0.514	Blank	Blank	86.767	n/a	4	10	9	n/a	69	n/a	2	n/a	n/a	n/a	n/a	391.916	n/a
365.981	0.497	happy	Picture	86.253	n/a	4	10	10	n/a	70	65	2	n/a	n/a	n/a	n/a	392.447	BM06HAS.jpg
366.478	0.514	Blank	Blank	85.739	n/a	4	10	10	n/a	70	n/a	2	n/a	n/a	n/a	n/a	392.944	n/a
367.009	0.497	happy	Picture	85.225	n/a	4	10	11	n/a	71	73	2	n/a	n/a	n/a	n/a	393.475	AM21HAS.jpg
367.506	0.514	Blank	Blank	84.711	n/a	4	10	11	n/a	71	n/a	2	n/a	n/a	n/a	n/a	393.972	n/a
368.036	0.497	happy	Picture	84.197	n/a	4	10	12	n/a	72	41	2	n/a	n/a	n/a	n/a	394.502	AF01HAS.jpg
368.534	0.514	Blank	Blank	83.683	n/a	4	10	12	n/a	72	n/a	2	n/a	n/a	n/a	n/a	395.0	n/a
369.064	0.497	happy	Picture	83.169	n/a	4	10	13	n/a	73	59	2	n/a	n/a	n/a	n/a	395.53	AF31HAS.jpg
369.562	0.514	Blank	Blank	82.655	n/a	4	10	13	n/a	73	n/a	2	n/a	n/a	n/a	n/a	396.028	n/a
370.092	0.497	happy	Picture	82.141	n/a	4	10	14	n/a	74	64	2	n/a	n/a	n/a	n/a	396.558	BM05HAS.jpg
370.59	0.514	Blank	Blank	81.627	n/a	4	10	14	n/a	74	n/a	2	n/a	n/a	n/a	n/a	397.056	n/a
371.12	0.497	happy	Picture	81.113	n/a	4	10	15	n/a	75	68	2	n/a	n/a	n/a	n/a	397.586	AM09HAS.jpg
371.617	0.514	Blank	Blank	80.599	n/a	4	10	15	n/a	75	n/a	2	n/a	n/a	n/a	n/a	398.083	n/a
372.148	0.497	happy	Picture	80.086	n/a	4	10	16	n/a	76	54	2	n/a	n/a	n/a	n/a	398.614	AF23HAS.jpg
372.645	0.514	Blank	Blank	79.571	n/a	4	10	16	n/a	76	n/a	2	n/a	n/a	n/a	n/a	399.111	n/a
373.176	0.497	happy	Picture	79.058	n/a	4	10	17	n/a	77	53	2	n/a	n/a	n/a	n/a	399.642	BF22HAS.jpg
373.673	0.514	Blank	Blank	78.544	n/a	4	10	17	n/a	77	n/a	2	n/a	n/a	n/a	n/a	400.139	n/a
374.204	0.497	happy	Picture	78.03	n/a	4	10	18	n/a	78	44	2	n/a	n/a	n/a	n/a	400.67	AF05HAS.jpg
374.701	0.514	Blank	Blank	77.516	n/a	4	10	18	n/a	78	n/a	2	n/a	n/a	n/a	n/a	401.167	n/a
375.232	0.497	happy	Picture	77.002	n/a	4	10	19	n/a	79	52	2	n/a	n/a	n/a	n/a	401.698	AF21HAS.jpg
375.729	0.514	Blank	Blank	76.488	n/a	4	10	19	n/a	79	n/a	2	n/a	n/a	n/a	n/a	402.195	n/a
376.259	0.497	happy	Picture	75.974	n/a	4	10	20	n/a	80	62	2	n/a	n/a	n/a	n/a	402.726	BM03HAS.jpg
376.757	0.514	Blank	Blank	75.46	n/a	4	10	20	n/a	80	n/a	2	n/a	n/a	n/a	n/a	403.223	n/a
377.287	10.014	ITI	Fixation+	65.43	n/a	4	n/a	n/a	n/a	n/a	n/a	n/a	n/a	n/a	n/a	n/a	403.753	n/a
387.317	0.497	neutral	Picture	64.916	n/a	4	11	1	n/a	81	23	1	n/a	n/a	n/a	n/a	413.784	AM04NES.jpg
387.815	0.514	Blank	Blank	64.402	n/a	4	11	1	n/a	81	n/a	1	n/a	n/a	n/a	n/a	414.281	n/a
388.345	0.497	neutral	Picture	63.888	n/a	4	11	2	n/a	82	29	1	n/a	n/a	n/a	n/a	414.811	AM10NES.jpg
388.843	0.514	Blank	Blank	63.374	n/a	4	11	2	n/a	82	n/a	1	n/a	n/a	n/a	n/a	415.309	n/a
389.373	0.497	neutral	Picture	62.86	n/a	4	11	3	n/a	83	24	1	n/a	n/a	n/a	n/a	415.839	BM05NES.jpg
389.87	0.514	Blank	Blank	62.346	n/a	4	11	3	n/a	83	n/a	1	n/a	n/a	n/a	n/a	416.337	n/a
390.401	0.497	neutral	Picture	61.832	n/a	4	11	4	n/a	84	12	1	n/a	n/a	n/a	n/a	416.867	AF21NES.jpg
390.898	0.514	Blank	Blank	61.318	n/a	4	11	4	n/a	84	n/a	1	n/a	n/a	n/a	n/a	417.365	n/a
391.429	0.497	neutral	Picture	60.804	n/a	4	11	5	n/a	85	13	1	n/a	n/a	n/a	n/a	417.895	BF22NES.jpg
391.926	0.514	Blank	Blank	60.291	n/a	4	11	5	n/a	85	n/a	1	n/a	n/a	n/a	n/a	418.392	n/a
392.457	0.497	neutral	Picture	59.776	n/a	4	11	6	n/a	86	17	1	n/a	n/a	n/a	n/a	418.923	BF28NES.jpg
392.954	0.514	Blank	Blank	59.263	n/a	4	11	6	n/a	86	n/a	1	n/a	n/a	n/a	n/a	419.42	n/a
393.485	0.497	neutral	Picture	58.749	n/a	4	11	7	n/a	87	4	1	n/a	n/a	n/a	n/a	419.951	AF05NES.jpg
393.982	0.514	Blank	Blank	58.235	n/a	4	11	7	n/a	87	n/a	1	n/a	n/a	n/a	n/a	420.448	n/a
394.513	0.497	neutral	Picture	57.721	n/a	4	11	8	n/a	88	11	1	n/a	n/a	n/a	n/a	420.979	AF20NES.jpg
395.01	0.514	Blank	Blank	57.207	n/a	4	11	8	n/a	88	n/a	1	n/a	n/a	n/a	n/a	421.476	n/a
395.541	0.497	neutral	Picture	56.693	n/a	4	11	9	n/a	89	22	1	n/a	n/a	n/a	n/a	422.007	BM03NES.jpg
396.038	0.514	Blank	Blank	56.179	n/a	4	11	9	n/a	89	n/a	1	n/a	n/a	n/a	n/a	422.504	n/a
396.568	0.497	neutral	Picture	55.665	n/a	4	11	10	n/a	90	15	1	n/a	n/a	n/a	n/a	423.034	AF25NES.jpg
397.066	0.514	Blank	Blank	55.151	n/a	4	11	10	n/a	90	n/a	1	n/a	n/a	n/a	n/a	423.532	n/a
397.596	0.497	neutral	Picture	54.637	n/a	4	11	11	n/a	91	19	1	n/a	n/a	n/a	n/a	424.062	AF31NES.jpg
398.094	0.514	Blank	Blank	54.123	n/a	4	11	11	n/a	91	n/a	1	n/a	n/a	n/a	n/a	424.56	n/a
398.624	0.497	neutral	Picture	53.609	n/a	4	11	12	n/a	92	9	1	n/a	n/a	n/a	n/a	425.09	AF17NES.jpg
399.122	0.514	Blank	Blank	53.095	n/a	4	11	12	n/a	92	n/a	1	n/a	n/a	n/a	n/a	425.588	n/a
399.652	0.497	neutral	Picture	52.581	n/a	4	11	13	n/a	93	14	1	n/a	n/a	n/a	n/a	426.118	AF23NES.jpg
400.149	0.514	Blank	Blank	52.067	n/a	4	11	13	n/a	93	n/a	1	n/a	n/a	n/a	n/a	426.615	n/a
400.68	0.497	neutral	Picture	51.553	n/a	4	11	14	n/a	94	36	1	n/a	n/a	n/a	n/a	427.146	BM24NES.jpg
401.177	0.514	Blank	Blank	51.039	n/a	4	11	14	n/a	94	n/a	1	n/a	n/a	n/a	n/a	427.643	n/a
401.708	0.497	neutral	Picture	50.526	n/a	4	11	15	n/a	95	34	1	n/a	n/a	n/a	n/a	428.174	AM22NES.jpg
402.205	0.514	Blank	Blank	50.012	n/a	4	11	15	n/a	95	n/a	1	n/a	n/a	n/a	n/a	428.671	n/a
402.736	0.497	neutral	Picture	49.498	n/a	4	11	16	n/a	96	10	1	n/a	n/a	n/a	n/a	429.202	AF18NES.jpg
403.233	0.514	Blank	Blank	48.984	n/a	4	11	16	n/a	96	n/a	1	n/a	n/a	n/a	n/a	429.699	n/a
403.764	0.497	neutral	Picture	48.47	n/a	4	11	17	n/a	97	5	1	n/a	n/a	n/a	n/a	430.23	BF07NES.jpg
404.261	0.514	Blank	Blank	47.956	n/a	4	11	17	n/a	97	n/a	1	n/a	n/a	n/a	n/a	430.727	n/a
404.791	0.497	neutral	Picture	47.442	n/a	4	11	18	n/a	98	25	1	n/a	n/a	n/a	n/a	431.257	BM06NES.jpg
405.289	0.514	Blank	Blank	46.928	n/a	4	11	18	n/a	98	n/a	1	n/a	n/a	n/a	n/a	431.755	n/a
405.819	0.497	neutral	Picture	46.414	n/a	4	11	19	n/a	99	39	1	n/a	n/a	n/a	n/a	432.285	AM28NES.jpg
406.317	0.514	Blank	Blank	45.9	n/a	4	11	19	n/a	99	n/a	1	n/a	n/a	n/a	n/a	432.783	n/a
406.847	0.497	neutral	Picture	45.386	n/a	4	11	20	n/a	100	33	1	n/a	n/a	n/a	n/a	433.313	AM21NES.jpg
407.345	0.514	Blank	Blank	44.872	n/a	4	11	20	n/a	100	n/a	1	n/a	n/a	n/a	n/a	433.811	n/a
407.875	10.014	ITI	Fixation+	34.842	n/a	4	n/a	n/a	n/a	n/a	n/a	n/a	n/a	n/a	n/a	n/a	434.341	n/a
417.905	0.497	happy	Picture	34.328	n/a	4	12	1	n/a	101	74	2	n/a	n/a	n/a	n/a	444.371	AM22HAS.jpg
418.403	0.514	Blank	Blank	33.814	n/a	4	12	1	n/a	101	n/a	2	n/a	n/a	n/a	n/a	444.869	n/a
418.933	0.497	happy	Picture	33.3	n/a	4	12	2	n/a	102	76	2	n/a	n/a	n/a	n/a	445.399	BM24HAS.jpg
419.43	0.514	Blank	Blank	32.786	n/a	4	12	2	n/a	102	n/a	2	n/a	n/a	n/a	n/a	445.897	n/a
419.961	0.497	happy	Picture	32.272	n/a	4	12	3	n/a	103	80	2	n/a	n/a	n/a	n/a	446.427	BM35HAS.jpg
420.458	0.514	Blank	Blank	31.758	n/a	4	12	3	n/a	103	n/a	2	n/a	n/a	n/a	n/a	446.924	n/a
420.989	0.497	happy	Picture	31.244	n/a	4	12	4	n/a	104	75	2	n/a	n/a	n/a	n/a	447.455	AM23HAS.jpg
421.486	0.514	Blank	Blank	30.731	n/a	4	12	4	n/a	104	n/a	2	n/a	n/a	n/a	n/a	447.952	n/a
422.017	0.497	happy	Picture	30.217	n/a	4	12	5	n/a	105	49	2	n/a	n/a	n/a	n/a	448.483	AF17HAS.jpg
422.514	0.514	Blank	Blank	29.703	n/a	4	12	5	n/a	105	n/a	2	n/a	n/a	n/a	n/a	448.98	n/a
423.045	0.497	happy	Picture	29.189	n/a	4	12	6	n/a	106	43	2	n/a	n/a	n/a	n/a	449.511	BF04HAS.jpg
423.542	0.514	Blank	Blank	28.675	n/a	4	12	6	n/a	106	n/a	2	n/a	n/a	n/a	n/a	450.008	n/a
424.072	0.497	happy	Picture	28.161	n/a	4	12	7	n/a	107	70	2	n/a	n/a	n/a	n/a	450.539	BM11HAS.jpg
424.57	0.514	Blank	Blank	27.647	n/a	4	12	7	n/a	107	n/a	2	n/a	n/a	n/a	n/a	451.036	n/a
425.1	0.497	happy	Picture	27.133	n/a	4	12	8	n/a	108	66	2	n/a	n/a	n/a	n/a	451.567	BM07HAS.jpg
425.598	0.514	Blank	Blank	26.619	n/a	4	12	8	n/a	108	n/a	2	n/a	n/a	n/a	n/a	452.064	n/a
426.128	0.497	happy	Picture	26.105	n/a	4	12	9	n/a	109	48	2	n/a	n/a	n/a	n/a	452.594	AF14HAS.jpg
426.626	0.514	Blank	Blank	25.591	n/a	4	12	9	n/a	109	n/a	2	n/a	n/a	n/a	n/a	453.092	n/a
427.156	0.497	happy	Picture	25.077	n/a	4	12	10	n/a	110	58	2	n/a	n/a	n/a	n/a	453.622	BF29HAS.jpg
427.654	0.514	Blank	Blank	24.563	n/a	4	12	10	n/a	110	n/a	2	n/a	n/a	n/a	n/a	454.12	n/a
428.184	0.497	happy	Picture	24.049	n/a	4	12	11	n/a	111	63	2	n/a	n/a	n/a	n/a	454.65	AM04HAS.jpg
428.681	0.514	Blank	Blank	23.535	n/a	4	12	11	n/a	111	n/a	2	n/a	n/a	n/a	n/a	455.147	n/a
429.212	0.497	happy	Picture	23.021	n/a	4	12	12	n/a	112	72	2	n/a	n/a	n/a	n/a	455.678	AM14HAS.jpg
429.709	0.514	Blank	Blank	22.507	n/a	4	12	12	n/a	112	n/a	2	n/a	n/a	n/a	n/a	456.175	n/a
430.24	0.497	happy	Picture	21.994	n/a	4	12	13	n/a	113	55	2	n/a	n/a	n/a	n/a	456.706	AF25HAS.jpg
430.737	0.514	Blank	Blank	21.48	n/a	4	12	13	n/a	113	n/a	2	n/a	n/a	n/a	n/a	457.203	n/a
431.268	0.497	happy	Picture	20.966	n/a	4	12	14	n/a	114	42	2	n/a	n/a	n/a	n/a	457.734	AF03HAS.jpg
431.765	0.514	Blank	Blank	20.452	n/a	4	12	14	n/a	114	n/a	2	n/a	n/a	n/a	n/a	458.231	n/a
432.296	0.497	happy	Picture	19.938	n/a	4	12	15	n/a	115	60	2	n/a	n/a	n/a	n/a	458.762	AF32HAS.jpg
432.793	0.514	Blank	Blank	19.424	n/a	4	12	15	n/a	115	n/a	2	n/a	n/a	n/a	n/a	459.259	n/a
433.323	0.497	happy	Picture	18.91	n/a	4	12	16	n/a	116	67	2	n/a	n/a	n/a	n/a	459.789	BM08HAS.jpg
433.821	0.514	Blank	Blank	18.396	n/a	4	12	16	n/a	116	n/a	2	n/a	n/a	n/a	n/a	460.287	n/a
434.351	0.497	happy	Picture	17.882	n/a	4	12	17	n/a	117	51	2	n/a	n/a	n/a	n/a	460.817	AF20HAS.jpg
434.849	0.514	Blank	Blank	17.368	n/a	4	12	17	n/a	117	n/a	2	n/a	n/a	n/a	n/a	461.315	n/a
435.379	0.497	happy	Picture	16.854	n/a	4	12	18	n/a	118	71	2	n/a	n/a	n/a	n/a	461.845	BM12HAS.jpg
435.877	0.514	Blank	Blank	16.34	n/a	4	12	18	n/a	118	n/a	2	n/a	n/a	n/a	n/a	462.343	n/a
436.407	0.497	happy	Picture	15.826	n/a	4	12	19	n/a	119	69	2	n/a	n/a	n/a	n/a	462.873	AM10HAS.jpg
436.904	0.514	Blank	Blank	15.312	n/a	4	12	19	n/a	119	n/a	2	n/a	n/a	n/a	n/a	463.37	n/a
437.435	0.497	happy	Picture	14.798	n/a	4	12	20	n/a	120	46	2	n/a	n/a	n/a	n/a	463.901	AF09HAS.jpg
437.932	0.514	Blank	Blank	14.284	n/a	4	12	20	n/a	120	n/a	2	n/a	n/a	n/a	n/a	464.398	n/a
438.463	10.014	ITI	Fixation+	4.254	n/a	4	n/a	n/a	n/a	n/a	n/a	n/a	n/a	n/a	n/a	n/a	464.929	n/a
452.731	n/a	ConfirmRating	Rate	n/a	4.244	4	n/a	n/a	0	n/a	n/a	n/a	2	Happy	54	50	479.197	n/a
454.598	n/a	ConfirmRating	Rate	n/a	1.857	4	n/a	n/a	1	n/a	n/a	n/a	3	Happy	13	49	481.064	n/a
