onset	duration	trial_type	event_type	time_until_response	response_time	trial_number	block_num_within_trial	image_seq_num_within_block	question_seq_num_within_block	image_seq_num	picture_number	condition	question_type	block_type	rating	rating_computed	onset_uncorrected	KDEV_imagefile
0.01	10.014	ITI	Fixation+	96.218	n/a	1	n/a	n/a	n/a	n/a	n/a	n/a	n/a	n/a	n/a	n/a	29.422	n/a
10.04	0.497	happy	Picture	95.704	n/a	1	1	1	n/a	1	108	3	n/a	n/a	n/a	n/a	39.452	AM09ANS.jpg
10.538	0.514	Blank	Blank	95.19	n/a	1	1	1	n/a	1	n/a	3	n/a	n/a	n/a	n/a	39.95	n/a
11.068	0.497	happy	Picture	94.676	n/a	1	1	2	n/a	2	99	3	n/a	n/a	n/a	n/a	40.48	AF31ANS.jpg
11.565	0.514	Blank	Blank	94.162	n/a	1	1	2	n/a	2	n/a	3	n/a	n/a	n/a	n/a	40.978	n/a
12.096	0.497	happy	Picture	93.648	n/a	1	1	3	n/a	3	98	3	n/a	n/a	n/a	n/a	41.508	BF29ANS.jpg
12.593	0.514	Blank	Blank	93.135	n/a	1	1	3	n/a	3	n/a	3	n/a	n/a	n/a	n/a	42.005	n/a
13.124	0.497	happy	Picture	92.621	n/a	1	1	4	n/a	4	107	3	n/a	n/a	n/a	n/a	42.536	BM08ANS.jpg
13.621	0.514	Blank	Blank	92.107	n/a	1	1	4	n/a	4	n/a	3	n/a	n/a	n/a	n/a	43.033	n/a
14.152	0.497	happy	Picture	91.593	n/a	1	1	5	n/a	5	104	3	n/a	n/a	n/a	n/a	43.564	BM05ANS.jpg
14.649	0.514	Blank	Blank	91.079	n/a	1	1	5	n/a	5	n/a	3	n/a	n/a	n/a	n/a	44.061	n/a
15.18	0.497	happy	Picture	90.565	n/a	1	1	6	n/a	6	101	3	n/a	n/a	n/a	n/a	44.592	AM01ANS.jpg
15.677	0.514	Blank	Blank	90.051	n/a	1	1	6	n/a	6	n/a	3	n/a	n/a	n/a	n/a	45.089	n/a
16.208	0.497	happy	Picture	89.537	n/a	1	1	7	n/a	7	103	3	n/a	n/a	n/a	n/a	45.62	AM04ANS.jpg
16.705	0.514	Blank	Blank	89.023	n/a	1	1	7	n/a	7	n/a	3	n/a	n/a	n/a	n/a	46.117	n/a
17.235	0.497	happy	Picture	88.509	n/a	1	1	8	n/a	8	111	3	n/a	n/a	n/a	n/a	46.648	BM12ANS.jpg
17.733	0.514	Blank	Blank	87.995	n/a	1	1	8	n/a	8	n/a	3	n/a	n/a	n/a	n/a	47.145	n/a
18.263	0.497	happy	Picture	87.481	n/a	1	1	9	n/a	9	110	3	n/a	n/a	n/a	n/a	47.675	AM11ANS.jpg
18.761	0.514	Blank	Blank	86.967	n/a	1	1	9	n/a	9	n/a	3	n/a	n/a	n/a	n/a	48.173	n/a
19.291	0.497	happy	Picture	86.453	n/a	1	1	10	n/a	10	85	3	n/a	n/a	n/a	n/a	48.703	BF07ANS.jpg
19.789	0.514	Blank	Blank	85.939	n/a	1	1	10	n/a	10	n/a	3	n/a	n/a	n/a	n/a	49.201	n/a
20.319	0.497	happy	Picture	85.425	n/a	1	1	11	n/a	11	87	3	n/a	n/a	n/a	n/a	49.731	BF11ANS.jpg
20.817	0.514	Blank	Blank	84.911	n/a	1	1	11	n/a	11	n/a	3	n/a	n/a	n/a	n/a	50.229	n/a
21.347	0.497	happy	Picture	84.397	n/a	1	1	12	n/a	12	91	3	n/a	n/a	n/a	n/a	50.759	AF20ANS.jpg
21.844	0.514	Blank	Blank	83.883	n/a	1	1	12	n/a	12	n/a	3	n/a	n/a	n/a	n/a	51.257	n/a
22.375	0.497	happy	Picture	83.37	n/a	1	1	13	n/a	13	115	3	n/a	n/a	n/a	n/a	51.787	AM23ANS.jpg
22.872	0.514	Blank	Blank	82.856	n/a	1	1	13	n/a	13	n/a	3	n/a	n/a	n/a	n/a	52.284	n/a
23.403	0.497	happy	Picture	82.342	n/a	1	1	14	n/a	14	97	3	n/a	n/a	n/a	n/a	52.815	BF28ANS.jpg
23.9	0.514	Blank	Blank	81.828	n/a	1	1	14	n/a	14	n/a	3	n/a	n/a	n/a	n/a	53.312	n/a
24.431	0.497	happy	Picture	81.314	n/a	1	1	15	n/a	15	82	3	n/a	n/a	n/a	n/a	53.843	AF03ANS.jpg
24.928	0.514	Blank	Blank	80.8	n/a	1	1	15	n/a	15	n/a	3	n/a	n/a	n/a	n/a	54.34	n/a
25.459	0.497	happy	Picture	80.286	n/a	1	1	16	n/a	16	96	3	n/a	n/a	n/a	n/a	54.871	AF26ANS.jpg
25.956	0.514	Blank	Blank	79.772	n/a	1	1	16	n/a	16	n/a	3	n/a	n/a	n/a	n/a	55.368	n/a
26.486	0.497	happy	Picture	79.258	n/a	1	1	17	n/a	17	109	3	n/a	n/a	n/a	n/a	55.899	AM10ANS.jpg
26.984	0.514	Blank	Blank	78.744	n/a	1	1	17	n/a	17	n/a	3	n/a	n/a	n/a	n/a	56.396	n/a
27.514	0.497	happy	Picture	78.23	n/a	1	1	18	n/a	18	114	3	n/a	n/a	n/a	n/a	56.926	AM22ANS.jpg
28.012	0.514	Blank	Blank	77.716	n/a	1	1	18	n/a	18	n/a	3	n/a	n/a	n/a	n/a	57.424	n/a
28.542	0.497	happy	Picture	77.202	n/a	1	1	19	n/a	19	120	3	n/a	n/a	n/a	n/a	57.954	AM35ANS.jpg
29.04	0.514	Blank	Blank	76.688	n/a	1	1	19	n/a	19	n/a	3	n/a	n/a	n/a	n/a	58.452	n/a
29.57	0.497	happy	Picture	76.174	n/a	1	1	20	n/a	20	81	3	n/a	n/a	n/a	n/a	58.982	AF01ANS.jpg
30.068	0.514	Blank	Blank	75.66	n/a	1	1	20	n/a	20	n/a	3	n/a	n/a	n/a	n/a	59.48	n/a
30.598	10.014	ITI	Fixation+	65.63	n/a	1	n/a	n/a	n/a	n/a	n/a	n/a	n/a	n/a	n/a	n/a	60.01	n/a
40.628	0.497	neutral	Picture	65.116	n/a	1	2	1	n/a	21	28	1	n/a	n/a	n/a	n/a	70.04	AM09NES.jpg
41.126	0.514	Blank	Blank	64.602	n/a	1	2	1	n/a	21	n/a	1	n/a	n/a	n/a	n/a	70.538	n/a
41.656	0.497	neutral	Picture	64.088	n/a	1	2	2	n/a	22	27	1	n/a	n/a	n/a	n/a	71.068	BM08NES.jpg
42.154	0.514	Blank	Blank	63.574	n/a	1	2	2	n/a	22	n/a	1	n/a	n/a	n/a	n/a	71.566	n/a
42.684	0.497	neutral	Picture	63.06	n/a	1	2	3	n/a	23	16	1	n/a	n/a	n/a	n/a	72.096	AF26NES.jpg
43.181	0.514	Blank	Blank	62.547	n/a	1	2	3	n/a	23	n/a	1	n/a	n/a	n/a	n/a	72.594	n/a
43.712	0.497	neutral	Picture	62.032	n/a	1	2	4	n/a	24	3	1	n/a	n/a	n/a	n/a	73.124	BF04NES.jpg
44.209	0.514	Blank	Blank	61.519	n/a	1	2	4	n/a	24	n/a	1	n/a	n/a	n/a	n/a	73.621	n/a
44.74	0.497	neutral	Picture	61.005	n/a	1	2	5	n/a	25	32	1	n/a	n/a	n/a	n/a	74.152	AM14NES.jpg
45.237	0.514	Blank	Blank	60.491	n/a	1	2	5	n/a	25	n/a	1	n/a	n/a	n/a	n/a	74.649	n/a
45.768	0.497	neutral	Picture	59.977	n/a	1	2	6	n/a	26	37	1	n/a	n/a	n/a	n/a	75.18	BM25NES.jpg
46.265	0.514	Blank	Blank	59.463	n/a	1	2	6	n/a	26	n/a	1	n/a	n/a	n/a	n/a	75.677	n/a
46.796	0.497	neutral	Picture	58.949	n/a	1	2	7	n/a	27	15	1	n/a	n/a	n/a	n/a	76.208	AF25NES.jpg
47.293	0.514	Blank	Blank	58.435	n/a	1	2	7	n/a	27	n/a	1	n/a	n/a	n/a	n/a	76.705	n/a
47.823	0.497	neutral	Picture	57.921	n/a	1	2	8	n/a	28	23	1	n/a	n/a	n/a	n/a	77.236	AM04NES.jpg
48.321	0.514	Blank	Blank	57.407	n/a	1	2	8	n/a	28	n/a	1	n/a	n/a	n/a	n/a	77.733	n/a
48.851	0.497	neutral	Picture	56.893	n/a	1	2	9	n/a	29	34	1	n/a	n/a	n/a	n/a	78.263	AM22NES.jpg
49.349	0.514	Blank	Blank	56.379	n/a	1	2	9	n/a	29	n/a	1	n/a	n/a	n/a	n/a	78.761	n/a
49.879	0.497	neutral	Picture	55.865	n/a	1	2	10	n/a	30	24	1	n/a	n/a	n/a	n/a	79.291	BM05NES.jpg
50.377	0.514	Blank	Blank	55.351	n/a	1	2	10	n/a	30	n/a	1	n/a	n/a	n/a	n/a	79.789	n/a
50.907	0.497	neutral	Picture	54.837	n/a	1	2	11	n/a	31	12	1	n/a	n/a	n/a	n/a	80.319	AF21NES.jpg
51.404	0.514	Blank	Blank	54.323	n/a	1	2	11	n/a	31	n/a	1	n/a	n/a	n/a	n/a	80.817	n/a
51.935	0.497	neutral	Picture	53.809	n/a	1	2	12	n/a	32	6	1	n/a	n/a	n/a	n/a	81.347	AF09NES.jpg
52.432	0.514	Blank	Blank	53.295	n/a	1	2	12	n/a	32	n/a	1	n/a	n/a	n/a	n/a	81.845	n/a
52.963	0.497	neutral	Picture	52.781	n/a	1	2	13	n/a	33	17	1	n/a	n/a	n/a	n/a	82.375	BF28NES.jpg
53.46	0.514	Blank	Blank	52.268	n/a	1	2	13	n/a	33	n/a	1	n/a	n/a	n/a	n/a	82.873	n/a
53.991	0.497	neutral	Picture	51.754	n/a	1	2	14	n/a	34	2	1	n/a	n/a	n/a	n/a	83.403	AF03NES.jpg
54.488	0.514	Blank	Blank	51.24	n/a	1	2	14	n/a	34	n/a	1	n/a	n/a	n/a	n/a	83.9	n/a
55.019	0.497	neutral	Picture	50.726	n/a	1	2	15	n/a	35	9	1	n/a	n/a	n/a	n/a	84.431	AF17NES.jpg
55.516	0.514	Blank	Blank	50.212	n/a	1	2	15	n/a	35	n/a	1	n/a	n/a	n/a	n/a	84.928	n/a
56.047	0.497	neutral	Picture	49.698	n/a	1	2	16	n/a	36	25	1	n/a	n/a	n/a	n/a	85.459	BM06NES.jpg
56.544	0.514	Blank	Blank	49.184	n/a	1	2	16	n/a	36	n/a	1	n/a	n/a	n/a	n/a	85.956	n/a
57.075	0.497	neutral	Picture	48.67	n/a	1	2	17	n/a	37	8	1	n/a	n/a	n/a	n/a	86.487	AF14NES.jpg
57.572	0.514	Blank	Blank	48.156	n/a	1	2	17	n/a	37	n/a	1	n/a	n/a	n/a	n/a	86.984	n/a
58.102	0.497	neutral	Picture	47.642	n/a	1	2	18	n/a	38	19	1	n/a	n/a	n/a	n/a	87.515	AF31NES.jpg
58.6	0.514	Blank	Blank	47.128	n/a	1	2	18	n/a	38	n/a	1	n/a	n/a	n/a	n/a	88.012	n/a
59.13	0.497	neutral	Picture	46.614	n/a	1	2	19	n/a	39	14	1	n/a	n/a	n/a	n/a	88.542	AF23NES.jpg
59.628	0.514	Blank	Blank	46.1	n/a	1	2	19	n/a	39	n/a	1	n/a	n/a	n/a	n/a	89.04	n/a
60.158	0.497	neutral	Picture	45.586	n/a	1	2	20	n/a	40	4	1	n/a	n/a	n/a	n/a	89.57	AF05NES.jpg
60.656	0.514	Blank	Blank	45.072	n/a	1	2	20	n/a	40	n/a	1	n/a	n/a	n/a	n/a	90.068	n/a
61.186	10.014	ITI	Fixation+	35.042	n/a	1	n/a	n/a	n/a	n/a	n/a	n/a	n/a	n/a	n/a	n/a	90.598	n/a
71.216	0.497	happy	Picture	34.528	n/a	1	3	1	n/a	41	84	3	n/a	n/a	n/a	n/a	100.628	AF05ANS.jpg
71.714	0.514	Blank	Blank	34.014	n/a	1	3	1	n/a	41	n/a	3	n/a	n/a	n/a	n/a	101.126	n/a
72.244	0.497	happy	Picture	33.5	n/a	1	3	2	n/a	42	92	3	n/a	n/a	n/a	n/a	101.656	AF21ANS.jpg
72.742	0.514	Blank	Blank	32.986	n/a	1	3	2	n/a	42	n/a	3	n/a	n/a	n/a	n/a	102.154	n/a
73.272	0.497	happy	Picture	32.472	n/a	1	3	3	n/a	43	86	3	n/a	n/a	n/a	n/a	102.684	AF09ANS.jpg
73.769	0.514	Blank	Blank	31.958	n/a	1	3	3	n/a	43	n/a	3	n/a	n/a	n/a	n/a	103.182	n/a
74.3	0.497	happy	Picture	31.444	n/a	1	3	4	n/a	44	93	3	n/a	n/a	n/a	n/a	103.712	BF22ANS.jpg
74.797	0.514	Blank	Blank	30.931	n/a	1	3	4	n/a	44	n/a	3	n/a	n/a	n/a	n/a	104.21	n/a
75.328	0.497	happy	Picture	30.417	n/a	1	3	5	n/a	45	88	3	n/a	n/a	n/a	n/a	104.74	AF14ANS.jpg
75.825	0.514	Blank	Blank	29.903	n/a	1	3	5	n/a	45	n/a	3	n/a	n/a	n/a	n/a	105.237	n/a
76.356	0.497	happy	Picture	29.389	n/a	1	3	6	n/a	46	113	3	n/a	n/a	n/a	n/a	105.768	AM21ANS.jpg
76.853	0.514	Blank	Blank	28.875	n/a	1	3	6	n/a	46	n/a	3	n/a	n/a	n/a	n/a	106.265	n/a
77.384	0.497	happy	Picture	28.361	n/a	1	3	7	n/a	47	95	3	n/a	n/a	n/a	n/a	106.796	AF25ANS.jpg
77.881	0.514	Blank	Blank	27.847	n/a	1	3	7	n/a	47	n/a	3	n/a	n/a	n/a	n/a	107.293	n/a
78.412	0.497	happy	Picture	27.333	n/a	1	3	8	n/a	48	102	3	n/a	n/a	n/a	n/a	107.824	BM03ANS.jpg
78.909	0.514	Blank	Blank	26.819	n/a	1	3	8	n/a	48	n/a	3	n/a	n/a	n/a	n/a	108.321	n/a
79.439	0.497	happy	Picture	26.305	n/a	1	3	9	n/a	49	112	3	n/a	n/a	n/a	n/a	108.852	AM14ANS.jpg
79.937	0.514	Blank	Blank	25.791	n/a	1	3	9	n/a	49	n/a	3	n/a	n/a	n/a	n/a	109.349	n/a
80.467	0.497	happy	Picture	25.277	n/a	1	3	10	n/a	50	83	3	n/a	n/a	n/a	n/a	109.879	BF04ANS.jpg
80.965	0.514	Blank	Blank	24.763	n/a	1	3	10	n/a	50	n/a	3	n/a	n/a	n/a	n/a	110.377	n/a
81.495	0.497	happy	Picture	24.249	n/a	1	3	11	n/a	51	90	3	n/a	n/a	n/a	n/a	110.907	AF18ANS.jpg
81.993	0.514	Blank	Blank	23.735	n/a	1	3	11	n/a	51	n/a	3	n/a	n/a	n/a	n/a	111.405	n/a
82.523	0.497	happy	Picture	23.221	n/a	1	3	12	n/a	52	117	3	n/a	n/a	n/a	n/a	111.935	BM25ANS.jpg
83.02	0.514	Blank	Blank	22.707	n/a	1	3	12	n/a	52	n/a	3	n/a	n/a	n/a	n/a	112.433	n/a
83.551	0.497	happy	Picture	22.194	n/a	1	3	13	n/a	53	94	3	n/a	n/a	n/a	n/a	112.963	AF23ANS.jpg
84.048	0.514	Blank	Blank	21.68	n/a	1	3	13	n/a	53	n/a	3	n/a	n/a	n/a	n/a	113.46	n/a
84.579	0.497	happy	Picture	21.166	n/a	1	3	14	n/a	54	106	3	n/a	n/a	n/a	n/a	113.991	AM07ANS.jpg
85.076	0.514	Blank	Blank	20.652	n/a	1	3	14	n/a	54	n/a	3	n/a	n/a	n/a	n/a	114.488	n/a
85.607	0.497	happy	Picture	20.138	n/a	1	3	15	n/a	55	105	3	n/a	n/a	n/a	n/a	115.019	BM06ANS.jpg
86.104	0.514	Blank	Blank	19.624	n/a	1	3	15	n/a	55	n/a	3	n/a	n/a	n/a	n/a	115.516	n/a
86.635	0.497	happy	Picture	19.11	n/a	1	3	16	n/a	56	116	3	n/a	n/a	n/a	n/a	116.047	BM24ANS.jpg
87.132	0.514	Blank	Blank	18.596	n/a	1	3	16	n/a	56	n/a	3	n/a	n/a	n/a	n/a	116.544	n/a
87.663	0.497	happy	Picture	18.082	n/a	1	3	17	n/a	57	89	3	n/a	n/a	n/a	n/a	117.075	AF17ANS.jpg
88.16	0.514	Blank	Blank	17.568	n/a	1	3	17	n/a	57	n/a	3	n/a	n/a	n/a	n/a	117.572	n/a
88.69	0.497	happy	Picture	17.054	n/a	1	3	18	n/a	58	118	3	n/a	n/a	n/a	n/a	118.103	BM26ANS.jpg
89.188	0.514	Blank	Blank	16.54	n/a	1	3	18	n/a	58	n/a	3	n/a	n/a	n/a	n/a	118.6	n/a
89.718	0.497	happy	Picture	16.026	n/a	1	3	19	n/a	59	100	3	n/a	n/a	n/a	n/a	119.13	AF32ANS.jpg
90.216	0.514	Blank	Blank	15.512	n/a	1	3	19	n/a	59	n/a	3	n/a	n/a	n/a	n/a	119.628	n/a
90.746	0.497	happy	Picture	14.998	n/a	1	3	20	n/a	60	119	3	n/a	n/a	n/a	n/a	120.158	BM28ANS.jpg
91.243	0.514	Blank	Blank	14.484	n/a	1	3	20	n/a	60	n/a	3	n/a	n/a	n/a	n/a	120.656	n/a
91.774	10.014	ITI	Fixation+	4.454	n/a	1	n/a	n/a	n/a	n/a	n/a	n/a	n/a	n/a	n/a	n/a	121.186	n/a
106.242	n/a	ConfirmRating	Rate	n/a	4.426	1	n/a	n/a	0	n/a	n/a	n/a	2	Happy	62	51	135.654	n/a
111.807	n/a	ConfirmRating	Rate	n/a	5.554	1	n/a	n/a	1	n/a	n/a	n/a	3	Happy	11	47	141.219	n/a
111.835	10.014	ITI	Fixation+	95.983	n/a	2	n/a	n/a	n/a	n/a	n/a	n/a	n/a	n/a	n/a	n/a	141.247	n/a
121.865	0.497	angry	Picture	95.469	n/a	2	4	1	n/a	61	79	2	n/a	n/a	n/a	n/a	151.277	BM28HAS.jpg
122.362	0.514	Blank	Blank	94.955	n/a	2	4	1	n/a	61	n/a	2	n/a	n/a	n/a	n/a	151.774	n/a
122.893	0.497	angry	Picture	94.441	n/a	2	4	2	n/a	62	61	2	n/a	n/a	n/a	n/a	152.305	AM01HAS.jpg
123.39	0.514	Blank	Blank	93.927	n/a	2	4	2	n/a	62	n/a	2	n/a	n/a	n/a	n/a	152.802	n/a
123.92	0.497	angry	Picture	93.413	n/a	2	4	3	n/a	63	57	2	n/a	n/a	n/a	n/a	153.333	BF28HAS.jpg
124.418	0.514	Blank	Blank	92.899	n/a	2	4	3	n/a	63	n/a	2	n/a	n/a	n/a	n/a	153.83	n/a
124.948	0.497	angry	Picture	92.385	n/a	2	4	4	n/a	64	77	2	n/a	n/a	n/a	n/a	154.361	BM25HAS.jpg
125.446	0.514	Blank	Blank	91.871	n/a	2	4	4	n/a	64	n/a	2	n/a	n/a	n/a	n/a	154.858	n/a
125.976	0.497	angry	Picture	91.357	n/a	2	4	5	n/a	65	47	2	n/a	n/a	n/a	n/a	155.388	BF11HAS.jpg
126.474	0.514	Blank	Blank	90.843	n/a	2	4	5	n/a	65	n/a	2	n/a	n/a	n/a	n/a	155.886	n/a
127.004	0.497	angry	Picture	90.329	n/a	2	4	6	n/a	66	50	2	n/a	n/a	n/a	n/a	156.416	AF18HAS.jpg
127.502	0.514	Blank	Blank	89.815	n/a	2	4	6	n/a	66	n/a	2	n/a	n/a	n/a	n/a	156.914	n/a
128.032	0.497	angry	Picture	89.301	n/a	2	4	7	n/a	67	78	2	n/a	n/a	n/a	n/a	157.444	BM26HAS.jpg
128.529	0.514	Blank	Blank	88.787	n/a	2	4	7	n/a	67	n/a	2	n/a	n/a	n/a	n/a	157.942	n/a
129.06	0.497	angry	Picture	88.273	n/a	2	4	8	n/a	68	45	2	n/a	n/a	n/a	n/a	158.472	BF07HAS.jpg
129.557	0.514	Blank	Blank	87.759	n/a	2	4	8	n/a	68	n/a	2	n/a	n/a	n/a	n/a	158.97	n/a
130.088	0.497	angry	Picture	87.245	n/a	2	4	9	n/a	69	56	2	n/a	n/a	n/a	n/a	159.5	AF26HAS.jpg
130.585	0.514	Blank	Blank	86.732	n/a	2	4	9	n/a	69	n/a	2	n/a	n/a	n/a	n/a	159.997	n/a
131.116	0.497	angry	Picture	86.218	n/a	2	4	10	n/a	70	65	2	n/a	n/a	n/a	n/a	160.528	BM06HAS.jpg
131.613	0.514	Blank	Blank	85.704	n/a	2	4	10	n/a	70	n/a	2	n/a	n/a	n/a	n/a	161.025	n/a
132.144	0.497	angry	Picture	85.19	n/a	2	4	11	n/a	71	73	2	n/a	n/a	n/a	n/a	161.556	AM21HAS.jpg
132.641	0.514	Blank	Blank	84.676	n/a	2	4	11	n/a	71	n/a	2	n/a	n/a	n/a	n/a	162.053	n/a
133.171	0.497	angry	Picture	84.162	n/a	2	4	12	n/a	72	41	2	n/a	n/a	n/a	n/a	162.584	AF01HAS.jpg
133.669	0.514	Blank	Blank	83.648	n/a	2	4	12	n/a	72	n/a	2	n/a	n/a	n/a	n/a	163.081	n/a
134.199	0.497	angry	Picture	83.134	n/a	2	4	13	n/a	73	59	2	n/a	n/a	n/a	n/a	163.612	AF31HAS.jpg
134.697	0.514	Blank	Blank	82.62	n/a	2	4	13	n/a	73	n/a	2	n/a	n/a	n/a	n/a	164.109	n/a
135.227	0.497	angry	Picture	82.106	n/a	2	4	14	n/a	74	64	2	n/a	n/a	n/a	n/a	164.639	BM05HAS.jpg
135.725	0.514	Blank	Blank	81.592	n/a	2	4	14	n/a	74	n/a	2	n/a	n/a	n/a	n/a	165.137	n/a
136.255	0.497	angry	Picture	81.078	n/a	2	4	15	n/a	75	68	2	n/a	n/a	n/a	n/a	165.667	AM09HAS.jpg
136.752	0.514	Blank	Blank	80.564	n/a	2	4	15	n/a	75	n/a	2	n/a	n/a	n/a	n/a	166.165	n/a
137.283	0.497	angry	Picture	80.05	n/a	2	4	16	n/a	76	54	2	n/a	n/a	n/a	n/a	166.695	AF23HAS.jpg
137.78	0.514	Blank	Blank	79.536	n/a	2	4	16	n/a	76	n/a	2	n/a	n/a	n/a	n/a	167.193	n/a
138.311	0.497	angry	Picture	79.022	n/a	2	4	17	n/a	77	53	2	n/a	n/a	n/a	n/a	167.723	BF22HAS.jpg
138.808	0.514	Blank	Blank	78.508	n/a	2	4	17	n/a	77	n/a	2	n/a	n/a	n/a	n/a	168.22	n/a
139.339	0.497	angry	Picture	77.994	n/a	2	4	18	n/a	78	44	2	n/a	n/a	n/a	n/a	168.751	AF05HAS.jpg
139.836	0.514	Blank	Blank	77.48	n/a	2	4	18	n/a	78	n/a	2	n/a	n/a	n/a	n/a	169.248	n/a
140.367	0.497	angry	Picture	76.967	n/a	2	4	19	n/a	79	52	2	n/a	n/a	n/a	n/a	169.779	AF21HAS.jpg
140.864	0.514	Blank	Blank	76.453	n/a	2	4	19	n/a	79	n/a	2	n/a	n/a	n/a	n/a	170.276	n/a
141.395	0.497	angry	Picture	75.939	n/a	2	4	20	n/a	80	62	2	n/a	n/a	n/a	n/a	170.807	BM03HAS.jpg
141.892	0.514	Blank	Blank	75.425	n/a	2	4	20	n/a	80	n/a	2	n/a	n/a	n/a	n/a	171.304	n/a
142.423	10.014	ITI	Fixation+	65.394	n/a	2	n/a	n/a	n/a	n/a	n/a	n/a	n/a	n/a	n/a	n/a	171.835	n/a
152.453	0.497	neutral	Picture	64.881	n/a	2	5	1	n/a	81	23	1	n/a	n/a	n/a	n/a	181.865	AM04NES.jpg
152.95	0.514	Blank	Blank	64.367	n/a	2	5	1	n/a	81	n/a	1	n/a	n/a	n/a	n/a	182.362	n/a
153.481	0.497	neutral	Picture	63.853	n/a	2	5	2	n/a	82	29	1	n/a	n/a	n/a	n/a	182.893	AM10NES.jpg
153.978	0.514	Blank	Blank	63.339	n/a	2	5	2	n/a	82	n/a	1	n/a	n/a	n/a	n/a	183.39	n/a
154.509	0.497	neutral	Picture	62.825	n/a	2	5	3	n/a	83	24	1	n/a	n/a	n/a	n/a	183.921	BM05NES.jpg
155.006	0.514	Blank	Blank	62.311	n/a	2	5	3	n/a	83	n/a	1	n/a	n/a	n/a	n/a	184.418	n/a
155.536	0.497	neutral	Picture	61.797	n/a	2	5	4	n/a	84	12	1	n/a	n/a	n/a	n/a	184.949	AF21NES.jpg
156.034	0.514	Blank	Blank	61.283	n/a	2	5	4	n/a	84	n/a	1	n/a	n/a	n/a	n/a	185.446	n/a
156.564	0.497	neutral	Picture	60.769	n/a	2	5	5	n/a	85	13	1	n/a	n/a	n/a	n/a	185.976	BF22NES.jpg
157.062	0.514	Blank	Blank	60.255	n/a	2	5	5	n/a	85	n/a	1	n/a	n/a	n/a	n/a	186.474	n/a
157.592	0.497	neutral	Picture	59.741	n/a	2	5	6	n/a	86	17	1	n/a	n/a	n/a	n/a	187.004	BF28NES.jpg
158.09	0.514	Blank	Blank	59.227	n/a	2	5	6	n/a	86	n/a	1	n/a	n/a	n/a	n/a	187.502	n/a
158.62	0.497	neutral	Picture	58.713	n/a	2	5	7	n/a	87	4	1	n/a	n/a	n/a	n/a	188.032	AF05NES.jpg
159.117	0.514	Blank	Blank	58.199	n/a	2	5	7	n/a	87	n/a	1	n/a	n/a	n/a	n/a	188.53	n/a
159.648	0.497	neutral	Picture	57.685	n/a	2	5	8	n/a	88	11	1	n/a	n/a	n/a	n/a	189.06	AF20NES.jpg
160.145	0.514	Blank	Blank	57.171	n/a	2	5	8	n/a	88	n/a	1	n/a	n/a	n/a	n/a	189.558	n/a
160.676	0.497	neutral	Picture	56.657	n/a	2	5	9	n/a	89	22	1	n/a	n/a	n/a	n/a	190.088	BM03NES.jpg
161.173	0.514	Blank	Blank	56.143	n/a	2	5	9	n/a	89	n/a	1	n/a	n/a	n/a	n/a	190.585	n/a
161.704	0.497	neutral	Picture	55.63	n/a	2	5	10	n/a	90	15	1	n/a	n/a	n/a	n/a	191.116	AF25NES.jpg
162.201	0.514	Blank	Blank	55.116	n/a	2	5	10	n/a	90	n/a	1	n/a	n/a	n/a	n/a	191.613	n/a
162.732	0.497	neutral	Picture	54.602	n/a	2	5	11	n/a	91	19	1	n/a	n/a	n/a	n/a	192.144	AF31NES.jpg
163.229	0.514	Blank	Blank	54.088	n/a	2	5	11	n/a	91	n/a	1	n/a	n/a	n/a	n/a	192.641	n/a
163.76	0.497	neutral	Picture	53.574	n/a	2	5	12	n/a	92	9	1	n/a	n/a	n/a	n/a	193.172	AF17NES.jpg
164.257	0.514	Blank	Blank	53.06	n/a	2	5	12	n/a	92	n/a	1	n/a	n/a	n/a	n/a	193.669	n/a
164.787	0.497	neutral	Picture	52.546	n/a	2	5	13	n/a	93	14	1	n/a	n/a	n/a	n/a	194.2	AF23NES.jpg
165.285	0.514	Blank	Blank	52.032	n/a	2	5	13	n/a	93	n/a	1	n/a	n/a	n/a	n/a	194.697	n/a
165.815	0.497	neutral	Picture	51.518	n/a	2	5	14	n/a	94	36	1	n/a	n/a	n/a	n/a	195.227	BM24NES.jpg
166.313	0.514	Blank	Blank	51.004	n/a	2	5	14	n/a	94	n/a	1	n/a	n/a	n/a	n/a	195.725	n/a
166.843	0.497	neutral	Picture	50.49	n/a	2	5	15	n/a	95	34	1	n/a	n/a	n/a	n/a	196.255	AM22NES.jpg
167.341	0.514	Blank	Blank	49.976	n/a	2	5	15	n/a	95	n/a	1	n/a	n/a	n/a	n/a	196.753	n/a
167.871	0.497	neutral	Picture	49.462	n/a	2	5	16	n/a	96	10	1	n/a	n/a	n/a	n/a	197.283	AF18NES.jpg
168.368	0.514	Blank	Blank	48.948	n/a	2	5	16	n/a	96	n/a	1	n/a	n/a	n/a	n/a	197.781	n/a
168.899	0.497	neutral	Picture	48.434	n/a	2	5	17	n/a	97	5	1	n/a	n/a	n/a	n/a	198.311	BF07NES.jpg
169.396	0.514	Blank	Blank	47.92	n/a	2	5	17	n/a	97	n/a	1	n/a	n/a	n/a	n/a	198.809	n/a
169.927	0.497	neutral	Picture	47.406	n/a	2	5	18	n/a	98	25	1	n/a	n/a	n/a	n/a	199.339	BM06NES.jpg
170.424	0.514	Blank	Blank	46.892	n/a	2	5	18	n/a	98	n/a	1	n/a	n/a	n/a	n/a	199.836	n/a
170.955	0.497	neutral	Picture	46.379	n/a	2	5	19	n/a	99	39	1	n/a	n/a	n/a	n/a	200.367	AM28NES.jpg
171.452	0.514	Blank	Blank	45.865	n/a	2	5	19	n/a	99	n/a	1	n/a	n/a	n/a	n/a	200.864	n/a
171.983	0.497	neutral	Picture	45.351	n/a	2	5	20	n/a	100	33	1	n/a	n/a	n/a	n/a	201.395	AM21NES.jpg
172.48	0.514	Blank	Blank	44.837	n/a	2	5	20	n/a	100	n/a	1	n/a	n/a	n/a	n/a	201.892	n/a
173.01	10.014	ITI	Fixation+	34.806	n/a	2	n/a	n/a	n/a	n/a	n/a	n/a	n/a	n/a	n/a	n/a	202.423	n/a
183.041	0.497	angry	Picture	34.293	n/a	2	6	1	n/a	101	74	2	n/a	n/a	n/a	n/a	212.453	AM22HAS.jpg
183.538	0.514	Blank	Blank	33.779	n/a	2	6	1	n/a	101	n/a	2	n/a	n/a	n/a	n/a	212.95	n/a
184.069	0.497	angry	Picture	33.265	n/a	2	6	2	n/a	102	76	2	n/a	n/a	n/a	n/a	213.481	BM24HAS.jpg
184.566	0.514	Blank	Blank	32.751	n/a	2	6	2	n/a	102	n/a	2	n/a	n/a	n/a	n/a	213.978	n/a
185.097	0.497	angry	Picture	32.237	n/a	2	6	3	n/a	103	80	2	n/a	n/a	n/a	n/a	214.509	BM35HAS.jpg
185.594	0.514	Blank	Blank	31.723	n/a	2	6	3	n/a	103	n/a	2	n/a	n/a	n/a	n/a	215.006	n/a
186.124	0.497	angry	Picture	31.209	n/a	2	6	4	n/a	104	75	2	n/a	n/a	n/a	n/a	215.537	AM23HAS.jpg
186.622	0.514	Blank	Blank	30.695	n/a	2	6	4	n/a	104	n/a	2	n/a	n/a	n/a	n/a	216.034	n/a
187.152	0.497	angry	Picture	30.181	n/a	2	6	5	n/a	105	49	2	n/a	n/a	n/a	n/a	216.565	AF17HAS.jpg
187.65	0.514	Blank	Blank	29.667	n/a	2	6	5	n/a	105	n/a	2	n/a	n/a	n/a	n/a	217.062	n/a
188.18	0.497	angry	Picture	29.153	n/a	2	6	6	n/a	106	43	2	n/a	n/a	n/a	n/a	217.592	BF04HAS.jpg
188.678	0.514	Blank	Blank	28.639	n/a	2	6	6	n/a	106	n/a	2	n/a	n/a	n/a	n/a	218.09	n/a
189.208	0.497	angry	Picture	28.125	n/a	2	6	7	n/a	107	70	2	n/a	n/a	n/a	n/a	218.62	BM11HAS.jpg
189.706	0.514	Blank	Blank	27.611	n/a	2	6	7	n/a	107	n/a	2	n/a	n/a	n/a	n/a	219.118	n/a
190.236	0.497	angry	Picture	27.097	n/a	2	6	8	n/a	108	66	2	n/a	n/a	n/a	n/a	219.648	BM07HAS.jpg
190.733	0.514	Blank	Blank	26.583	n/a	2	6	8	n/a	108	n/a	2	n/a	n/a	n/a	n/a	220.146	n/a
191.264	0.497	angry	Picture	26.069	n/a	2	6	9	n/a	109	48	2	n/a	n/a	n/a	n/a	220.676	AF14HAS.jpg
191.761	0.514	Blank	Blank	25.555	n/a	2	6	9	n/a	109	n/a	2	n/a	n/a	n/a	n/a	221.173	n/a
192.292	0.497	angry	Picture	25.042	n/a	2	6	10	n/a	110	58	2	n/a	n/a	n/a	n/a	221.704	BF29HAS.jpg
192.789	0.514	Blank	Blank	24.528	n/a	2	6	10	n/a	110	n/a	2	n/a	n/a	n/a	n/a	222.201	n/a
193.32	0.497	angry	Picture	24.014	n/a	2	6	11	n/a	111	63	2	n/a	n/a	n/a	n/a	222.732	AM04HAS.jpg
193.817	0.514	Blank	Blank	23.5	n/a	2	6	11	n/a	111	n/a	2	n/a	n/a	n/a	n/a	223.229	n/a
194.348	0.497	angry	Picture	22.986	n/a	2	6	12	n/a	112	72	2	n/a	n/a	n/a	n/a	223.76	AM14HAS.jpg
194.845	0.514	Blank	Blank	22.472	n/a	2	6	12	n/a	112	n/a	2	n/a	n/a	n/a	n/a	224.257	n/a
195.375	0.497	angry	Picture	21.958	n/a	2	6	13	n/a	113	55	2	n/a	n/a	n/a	n/a	224.788	AF25HAS.jpg
195.873	0.514	Blank	Blank	21.444	n/a	2	6	13	n/a	113	n/a	2	n/a	n/a	n/a	n/a	225.285	n/a
196.403	0.497	angry	Picture	20.93	n/a	2	6	14	n/a	114	42	2	n/a	n/a	n/a	n/a	225.815	AF03HAS.jpg
196.901	0.514	Blank	Blank	20.416	n/a	2	6	14	n/a	114	n/a	2	n/a	n/a	n/a	n/a	226.313	n/a
197.431	0.497	angry	Picture	19.902	n/a	2	6	15	n/a	115	60	2	n/a	n/a	n/a	n/a	226.843	AF32HAS.jpg
197.929	0.514	Blank	Blank	19.388	n/a	2	6	15	n/a	115	n/a	2	n/a	n/a	n/a	n/a	227.341	n/a
198.459	0.497	angry	Picture	18.874	n/a	2	6	16	n/a	116	67	2	n/a	n/a	n/a	n/a	227.871	BM08HAS.jpg
198.957	0.514	Blank	Blank	18.36	n/a	2	6	16	n/a	116	n/a	2	n/a	n/a	n/a	n/a	228.369	n/a
199.487	0.497	angry	Picture	17.846	n/a	2	6	17	n/a	117	51	2	n/a	n/a	n/a	n/a	228.899	AF20HAS.jpg
199.984	0.514	Blank	Blank	17.332	n/a	2	6	17	n/a	117	n/a	2	n/a	n/a	n/a	n/a	229.397	n/a
200.515	0.497	angry	Picture	16.818	n/a	2	6	18	n/a	118	71	2	n/a	n/a	n/a	n/a	229.927	BM12HAS.jpg
201.012	0.514	Blank	Blank	16.304	n/a	2	6	18	n/a	118	n/a	2	n/a	n/a	n/a	n/a	230.424	n/a
201.543	0.497	angry	Picture	15.79	n/a	2	6	19	n/a	119	69	2	n/a	n/a	n/a	n/a	230.955	AM10HAS.jpg
202.04	0.514	Blank	Blank	15.277	n/a	2	6	19	n/a	119	n/a	2	n/a	n/a	n/a	n/a	231.452	n/a
202.571	0.497	angry	Picture	14.763	n/a	2	6	20	n/a	120	46	2	n/a	n/a	n/a	n/a	231.983	AF09HAS.jpg
203.068	0.514	Blank	Blank	14.249	n/a	2	6	20	n/a	120	n/a	2	n/a	n/a	n/a	n/a	232.48	n/a
203.599	10.014	ITI	Fixation+	4.219	n/a	2	n/a	n/a	n/a	n/a	n/a	n/a	n/a	n/a	n/a	n/a	233.011	n/a
217.831	n/a	ConfirmRating	Rate	n/a	4.211	2	n/a	n/a	0	n/a	n/a	n/a	2	Angry	65	51	247.243	n/a
221.745	n/a	ConfirmRating	Rate	n/a	3.896	2	n/a	n/a	1	n/a	n/a	n/a	3	Angry	10	49	251.157	n/a
221.769	15.004	Rest	Picture	n/a	n/a	n/a	n/a	n/a	n/a	n/a	n/a	n/a	0	n/a	0	0	251.181	n/a
236.79	10.014	ITI	Fixation+	95.607	n/a	3	n/a	n/a	n/a	n/a	n/a	n/a	n/a	n/a	n/a	n/a	266.202	n/a
246.82	0.497	happy	Picture	95.093	n/a	3	7	1	n/a	1	108	3	n/a	n/a	n/a	n/a	276.232	AM09ANS.jpg
247.317	0.514	Blank	Blank	94.579	n/a	3	7	1	n/a	1	n/a	3	n/a	n/a	n/a	n/a	276.729	n/a
247.848	0.497	happy	Picture	94.065	n/a	3	7	2	n/a	2	99	3	n/a	n/a	n/a	n/a	277.26	AF31ANS.jpg
248.345	0.514	Blank	Blank	93.551	n/a	3	7	2	n/a	2	n/a	3	n/a	n/a	n/a	n/a	277.757	n/a
248.875	0.497	happy	Picture	93.037	n/a	3	7	3	n/a	3	98	3	n/a	n/a	n/a	n/a	278.288	BF29ANS.jpg
249.373	0.514	Blank	Blank	92.523	n/a	3	7	3	n/a	3	n/a	3	n/a	n/a	n/a	n/a	278.785	n/a
249.903	0.497	happy	Picture	92.01	n/a	3	7	4	n/a	4	107	3	n/a	n/a	n/a	n/a	279.316	BM08ANS.jpg
250.401	0.514	Blank	Blank	91.496	n/a	3	7	4	n/a	4	n/a	3	n/a	n/a	n/a	n/a	279.813	n/a
250.931	0.497	happy	Picture	90.982	n/a	3	7	5	n/a	5	104	3	n/a	n/a	n/a	n/a	280.344	BM05ANS.jpg
251.429	0.514	Blank	Blank	90.468	n/a	3	7	5	n/a	5	n/a	3	n/a	n/a	n/a	n/a	280.841	n/a
251.959	0.497	happy	Picture	89.954	n/a	3	7	6	n/a	6	101	3	n/a	n/a	n/a	n/a	281.371	AM01ANS.jpg
252.457	0.514	Blank	Blank	89.44	n/a	3	7	6	n/a	6	n/a	3	n/a	n/a	n/a	n/a	281.869	n/a
252.987	0.497	happy	Picture	88.926	n/a	3	7	7	n/a	7	103	3	n/a	n/a	n/a	n/a	282.399	AM04ANS.jpg
253.484	0.514	Blank	Blank	88.412	n/a	3	7	7	n/a	7	n/a	3	n/a	n/a	n/a	n/a	282.897	n/a
254.015	0.497	happy	Picture	87.898	n/a	3	7	8	n/a	8	111	3	n/a	n/a	n/a	n/a	283.427	BM12ANS.jpg
254.512	0.514	Blank	Blank	87.384	n/a	3	7	8	n/a	8	n/a	3	n/a	n/a	n/a	n/a	283.925	n/a
255.043	0.497	happy	Picture	86.87	n/a	3	7	9	n/a	9	110	3	n/a	n/a	n/a	n/a	284.455	AM11ANS.jpg
255.54	0.514	Blank	Blank	86.356	n/a	3	7	9	n/a	9	n/a	3	n/a	n/a	n/a	n/a	284.952	n/a
256.071	0.497	happy	Picture	85.842	n/a	3	7	10	n/a	10	85	3	n/a	n/a	n/a	n/a	285.483	BF07ANS.jpg
256.568	0.514	Blank	Blank	85.328	n/a	3	7	10	n/a	10	n/a	3	n/a	n/a	n/a	n/a	285.98	n/a
257.099	0.497	happy	Picture	84.814	n/a	3	7	11	n/a	11	87	3	n/a	n/a	n/a	n/a	286.511	BF11ANS.jpg
257.596	0.514	Blank	Blank	84.3	n/a	3	7	11	n/a	11	n/a	3	n/a	n/a	n/a	n/a	287.008	n/a
258.127	0.497	happy	Picture	83.786	n/a	3	7	12	n/a	12	91	3	n/a	n/a	n/a	n/a	287.539	AF20ANS.jpg
258.624	0.514	Blank	Blank	83.273	n/a	3	7	12	n/a	12	n/a	3	n/a	n/a	n/a	n/a	288.036	n/a
259.154	0.497	happy	Picture	82.758	n/a	3	7	13	n/a	13	115	3	n/a	n/a	n/a	n/a	288.567	AM23ANS.jpg
259.652	0.514	Blank	Blank	82.245	n/a	3	7	13	n/a	13	n/a	3	n/a	n/a	n/a	n/a	289.064	n/a
260.182	0.497	happy	Picture	81.731	n/a	3	7	14	n/a	14	97	3	n/a	n/a	n/a	n/a	289.594	BF28ANS.jpg
260.68	0.514	Blank	Blank	81.217	n/a	3	7	14	n/a	14	n/a	3	n/a	n/a	n/a	n/a	290.092	n/a
261.21	0.497	happy	Picture	80.703	n/a	3	7	15	n/a	15	82	3	n/a	n/a	n/a	n/a	290.622	AF03ANS.jpg
261.708	0.514	Blank	Blank	80.189	n/a	3	7	15	n/a	15	n/a	3	n/a	n/a	n/a	n/a	291.12	n/a
262.238	0.497	happy	Picture	79.675	n/a	3	7	16	n/a	16	96	3	n/a	n/a	n/a	n/a	291.65	AF26ANS.jpg
262.735	0.514	Blank	Blank	79.161	n/a	3	7	16	n/a	16	n/a	3	n/a	n/a	n/a	n/a	292.148	n/a
263.266	0.497	happy	Picture	78.647	n/a	3	7	17	n/a	17	109	3	n/a	n/a	n/a	n/a	292.678	AM10ANS.jpg
263.763	0.514	Blank	Blank	78.133	n/a	3	7	17	n/a	17	n/a	3	n/a	n/a	n/a	n/a	293.175	n/a
264.294	0.497	happy	Picture	77.619	n/a	3	7	18	n/a	18	114	3	n/a	n/a	n/a	n/a	293.706	AM22ANS.jpg
264.791	0.514	Blank	Blank	77.105	n/a	3	7	18	n/a	18	n/a	3	n/a	n/a	n/a	n/a	294.203	n/a
265.322	0.497	happy	Picture	76.591	n/a	3	7	19	n/a	19	120	3	n/a	n/a	n/a	n/a	294.734	AM35ANS.jpg
265.819	0.514	Blank	Blank	76.077	n/a	3	7	19	n/a	19	n/a	3	n/a	n/a	n/a	n/a	295.231	n/a
266.35	0.497	happy	Picture	75.563	n/a	3	7	20	n/a	20	81	3	n/a	n/a	n/a	n/a	295.762	AF01ANS.jpg
266.847	0.514	Blank	Blank	75.049	n/a	3	7	20	n/a	20	n/a	3	n/a	n/a	n/a	n/a	296.259	n/a
267.377	10.014	ITI	Fixation+	65.019	n/a	3	n/a	n/a	n/a	n/a	n/a	n/a	n/a	n/a	n/a	n/a	296.79	n/a
277.408	0.497	neutral	Picture	64.505	n/a	3	8	1	n/a	21	28	1	n/a	n/a	n/a	n/a	306.82	AM09NES.jpg
277.905	0.514	Blank	Blank	63.991	n/a	3	8	1	n/a	21	n/a	1	n/a	n/a	n/a	n/a	307.317	n/a
278.436	0.497	neutral	Picture	63.477	n/a	3	8	2	n/a	22	27	1	n/a	n/a	n/a	n/a	307.848	BM08NES.jpg
278.933	0.514	Blank	Blank	62.963	n/a	3	8	2	n/a	22	n/a	1	n/a	n/a	n/a	n/a	308.345	n/a
279.464	0.497	neutral	Picture	62.449	n/a	3	8	3	n/a	23	16	1	n/a	n/a	n/a	n/a	308.876	AF26NES.jpg
279.961	0.514	Blank	Blank	61.935	n/a	3	8	3	n/a	23	n/a	1	n/a	n/a	n/a	n/a	309.373	n/a
280.491	0.497	neutral	Picture	61.421	n/a	3	8	4	n/a	24	3	1	n/a	n/a	n/a	n/a	309.904	BF04NES.jpg
280.989	0.514	Blank	Blank	60.908	n/a	3	8	4	n/a	24	n/a	1	n/a	n/a	n/a	n/a	310.401	n/a
281.519	0.497	neutral	Picture	60.394	n/a	3	8	5	n/a	25	32	1	n/a	n/a	n/a	n/a	310.932	AM14NES.jpg
282.017	0.514	Blank	Blank	59.88	n/a	3	8	5	n/a	25	n/a	1	n/a	n/a	n/a	n/a	311.429	n/a
282.547	0.497	neutral	Picture	59.366	n/a	3	8	6	n/a	26	37	1	n/a	n/a	n/a	n/a	311.959	BM25NES.jpg
283.045	0.514	Blank	Blank	58.852	n/a	3	8	6	n/a	26	n/a	1	n/a	n/a	n/a	n/a	312.457	n/a
283.575	0.497	neutral	Picture	58.338	n/a	3	8	7	n/a	27	15	1	n/a	n/a	n/a	n/a	312.987	AF25NES.jpg
284.072	0.514	Blank	Blank	57.824	n/a	3	8	7	n/a	27	n/a	1	n/a	n/a	n/a	n/a	313.485	n/a
284.603	0.497	neutral	Picture	57.31	n/a	3	8	8	n/a	28	23	1	n/a	n/a	n/a	n/a	314.015	AM04NES.jpg
285.1	0.514	Blank	Blank	56.796	n/a	3	8	8	n/a	28	n/a	1	n/a	n/a	n/a	n/a	314.512	n/a
285.631	0.497	neutral	Picture	56.282	n/a	3	8	9	n/a	29	34	1	n/a	n/a	n/a	n/a	315.043	AM22NES.jpg
286.128	0.514	Blank	Blank	55.768	n/a	3	8	9	n/a	29	n/a	1	n/a	n/a	n/a	n/a	315.54	n/a
286.659	0.497	neutral	Picture	55.254	n/a	3	8	10	n/a	30	24	1	n/a	n/a	n/a	n/a	316.071	BM05NES.jpg
287.156	0.514	Blank	Blank	54.74	n/a	3	8	10	n/a	30	n/a	1	n/a	n/a	n/a	n/a	316.568	n/a
287.687	0.497	neutral	Picture	54.226	n/a	3	8	11	n/a	31	12	1	n/a	n/a	n/a	n/a	317.099	AF21NES.jpg
288.184	0.514	Blank	Blank	53.712	n/a	3	8	11	n/a	31	n/a	1	n/a	n/a	n/a	n/a	317.596	n/a
288.715	0.497	neutral	Picture	53.198	n/a	3	8	12	n/a	32	6	1	n/a	n/a	n/a	n/a	318.127	AF09NES.jpg
289.212	0.514	Blank	Blank	52.685	n/a	3	8	12	n/a	32	n/a	1	n/a	n/a	n/a	n/a	318.624	n/a
289.742	0.497	neutral	Picture	52.17	n/a	3	8	13	n/a	33	17	1	n/a	n/a	n/a	n/a	319.155	BF28NES.jpg
290.24	0.514	Blank	Blank	51.657	n/a	3	8	13	n/a	33	n/a	1	n/a	n/a	n/a	n/a	319.652	n/a
290.77	0.497	neutral	Picture	51.143	n/a	3	8	14	n/a	34	2	1	n/a	n/a	n/a	n/a	320.183	AF03NES.jpg
291.268	0.514	Blank	Blank	50.629	n/a	3	8	14	n/a	34	n/a	1	n/a	n/a	n/a	n/a	320.68	n/a
291.798	0.497	neutral	Picture	50.115	n/a	3	8	15	n/a	35	9	1	n/a	n/a	n/a	n/a	321.21	AF17NES.jpg
292.296	0.514	Blank	Blank	49.601	n/a	3	8	15	n/a	35	n/a	1	n/a	n/a	n/a	n/a	321.708	n/a
292.826	0.497	neutral	Picture	49.087	n/a	3	8	16	n/a	36	25	1	n/a	n/a	n/a	n/a	322.238	BM06NES.jpg
293.324	0.514	Blank	Blank	48.573	n/a	3	8	16	n/a	36	n/a	1	n/a	n/a	n/a	n/a	322.736	n/a
293.854	0.497	neutral	Picture	48.059	n/a	3	8	17	n/a	37	8	1	n/a	n/a	n/a	n/a	323.266	AF14NES.jpg
294.351	0.514	Blank	Blank	47.545	n/a	3	8	17	n/a	37	n/a	1	n/a	n/a	n/a	n/a	323.764	n/a
294.882	0.497	neutral	Picture	47.031	n/a	3	8	18	n/a	38	19	1	n/a	n/a	n/a	n/a	324.294	AF31NES.jpg
295.379	0.514	Blank	Blank	46.517	n/a	3	8	18	n/a	38	n/a	1	n/a	n/a	n/a	n/a	324.791	n/a
295.91	0.497	neutral	Picture	46.003	n/a	3	8	19	n/a	39	14	1	n/a	n/a	n/a	n/a	325.322	AF23NES.jpg
296.407	0.514	Blank	Blank	45.489	n/a	3	8	19	n/a	39	n/a	1	n/a	n/a	n/a	n/a	325.819	n/a
296.938	0.497	neutral	Picture	44.975	n/a	3	8	20	n/a	40	4	1	n/a	n/a	n/a	n/a	326.35	AF05NES.jpg
297.435	0.514	Blank	Blank	44.461	n/a	3	8	20	n/a	40	n/a	1	n/a	n/a	n/a	n/a	326.847	n/a
297.966	10.014	ITI	Fixation+	34.431	n/a	3	n/a	n/a	n/a	n/a	n/a	n/a	n/a	n/a	n/a	n/a	327.378	n/a
307.996	0.497	happy	Picture	33.917	n/a	3	9	1	n/a	41	84	3	n/a	n/a	n/a	n/a	337.408	AF05ANS.jpg
308.493	0.514	Blank	Blank	33.403	n/a	3	9	1	n/a	41	n/a	3	n/a	n/a	n/a	n/a	337.905	n/a
309.024	0.497	happy	Picture	32.889	n/a	3	9	2	n/a	42	92	3	n/a	n/a	n/a	n/a	338.436	AF21ANS.jpg
309.521	0.514	Blank	Blank	32.375	n/a	3	9	2	n/a	42	n/a	3	n/a	n/a	n/a	n/a	338.933	n/a
310.052	0.497	happy	Picture	31.861	n/a	3	9	3	n/a	43	86	3	n/a	n/a	n/a	n/a	339.464	AF09ANS.jpg
310.549	0.514	Blank	Blank	31.347	n/a	3	9	3	n/a	43	n/a	3	n/a	n/a	n/a	n/a	339.961	n/a
311.079	0.497	happy	Picture	30.833	n/a	3	9	4	n/a	44	93	3	n/a	n/a	n/a	n/a	340.492	BF22ANS.jpg
311.577	0.514	Blank	Blank	30.32	n/a	3	9	4	n/a	44	n/a	3	n/a	n/a	n/a	n/a	340.989	n/a
312.107	0.497	happy	Picture	29.806	n/a	3	9	5	n/a	45	88	3	n/a	n/a	n/a	n/a	341.519	AF14ANS.jpg
312.605	0.514	Blank	Blank	29.292	n/a	3	9	5	n/a	45	n/a	3	n/a	n/a	n/a	n/a	342.017	n/a
313.135	0.497	happy	Picture	28.778	n/a	3	9	6	n/a	46	113	3	n/a	n/a	n/a	n/a	342.547	AM21ANS.jpg
313.633	0.514	Blank	Blank	28.264	n/a	3	9	6	n/a	46	n/a	3	n/a	n/a	n/a	n/a	343.045	n/a
314.163	0.497	happy	Picture	27.75	n/a	3	9	7	n/a	47	95	3	n/a	n/a	n/a	n/a	343.575	AF25ANS.jpg
314.661	0.514	Blank	Blank	27.236	n/a	3	9	7	n/a	47	n/a	3	n/a	n/a	n/a	n/a	344.073	n/a
315.191	0.497	happy	Picture	26.722	n/a	3	9	8	n/a	48	102	3	n/a	n/a	n/a	n/a	344.603	BM03ANS.jpg
315.688	0.514	Blank	Blank	26.208	n/a	3	9	8	n/a	48	n/a	3	n/a	n/a	n/a	n/a	345.101	n/a
316.219	0.497	happy	Picture	25.694	n/a	3	9	9	n/a	49	112	3	n/a	n/a	n/a	n/a	345.631	AM14ANS.jpg
316.716	0.514	Blank	Blank	25.18	n/a	3	9	9	n/a	49	n/a	3	n/a	n/a	n/a	n/a	346.128	n/a
317.247	0.497	happy	Picture	24.666	n/a	3	9	10	n/a	50	83	3	n/a	n/a	n/a	n/a	346.659	BF04ANS.jpg
317.744	0.514	Blank	Blank	24.152	n/a	3	9	10	n/a	50	n/a	3	n/a	n/a	n/a	n/a	347.156	n/a
318.275	0.497	happy	Picture	23.638	n/a	3	9	11	n/a	51	90	3	n/a	n/a	n/a	n/a	347.687	AF18ANS.jpg
318.772	0.514	Blank	Blank	23.124	n/a	3	9	11	n/a	51	n/a	3	n/a	n/a	n/a	n/a	348.184	n/a
319.303	0.497	happy	Picture	22.61	n/a	3	9	12	n/a	52	117	3	n/a	n/a	n/a	n/a	348.715	BM25ANS.jpg
319.8	0.514	Blank	Blank	22.096	n/a	3	9	12	n/a	52	n/a	3	n/a	n/a	n/a	n/a	349.212	n/a
320.33	0.497	happy	Picture	21.582	n/a	3	9	13	n/a	53	94	3	n/a	n/a	n/a	n/a	349.743	AF23ANS.jpg
320.828	0.514	Blank	Blank	21.068	n/a	3	9	13	n/a	53	n/a	3	n/a	n/a	n/a	n/a	350.24	n/a
321.358	0.497	happy	Picture	20.555	n/a	3	9	14	n/a	54	106	3	n/a	n/a	n/a	n/a	350.771	AM07ANS.jpg
321.856	0.514	Blank	Blank	20.041	n/a	3	9	14	n/a	54	n/a	3	n/a	n/a	n/a	n/a	351.268	n/a
322.386	0.497	happy	Picture	19.527	n/a	3	9	15	n/a	55	105	3	n/a	n/a	n/a	n/a	351.798	BM06ANS.jpg
322.884	0.514	Blank	Blank	19.013	n/a	3	9	15	n/a	55	n/a	3	n/a	n/a	n/a	n/a	352.296	n/a
323.414	0.497	happy	Picture	18.499	n/a	3	9	16	n/a	56	116	3	n/a	n/a	n/a	n/a	352.826	BM24ANS.jpg
323.911	0.514	Blank	Blank	17.985	n/a	3	9	16	n/a	56	n/a	3	n/a	n/a	n/a	n/a	353.324	n/a
324.442	0.497	happy	Picture	17.471	n/a	3	9	17	n/a	57	89	3	n/a	n/a	n/a	n/a	353.854	AF17ANS.jpg
324.939	0.514	Blank	Blank	16.957	n/a	3	9	17	n/a	57	n/a	3	n/a	n/a	n/a	n/a	354.352	n/a
325.47	0.497	happy	Picture	16.443	n/a	3	9	18	n/a	58	118	3	n/a	n/a	n/a	n/a	354.882	BM26ANS.jpg
325.967	0.514	Blank	Blank	15.929	n/a	3	9	18	n/a	58	n/a	3	n/a	n/a	n/a	n/a	355.38	n/a
326.498	0.497	happy	Picture	15.415	n/a	3	9	19	n/a	59	100	3	n/a	n/a	n/a	n/a	355.91	AF32ANS.jpg
326.995	0.514	Blank	Blank	14.901	n/a	3	9	19	n/a	59	n/a	3	n/a	n/a	n/a	n/a	356.407	n/a
327.526	0.497	happy	Picture	14.387	n/a	3	9	20	n/a	60	119	3	n/a	n/a	n/a	n/a	356.938	BM28ANS.jpg
328.023	0.514	Blank	Blank	13.873	n/a	3	9	20	n/a	60	n/a	3	n/a	n/a	n/a	n/a	357.435	n/a
328.554	10.014	ITI	Fixation+	3.843	n/a	3	n/a	n/a	n/a	n/a	n/a	n/a	n/a	n/a	n/a	n/a	357.966	n/a
342.41	n/a	ConfirmRating	Rate	n/a	3.829	3	n/a	n/a	0	n/a	n/a	n/a	2	Happy	63	51	371.822	n/a
345.842	n/a	ConfirmRating	Rate	n/a	3.415	3	n/a	n/a	1	n/a	n/a	n/a	3	Happy	21	49	375.255	n/a
345.862	10.014	ITI	Fixation+	94.414	n/a	4	n/a	n/a	n/a	n/a	n/a	n/a	n/a	n/a	n/a	n/a	375.274	n/a
355.892	0.497	angry	Picture	93.9	n/a	4	10	1	n/a	61	79	2	n/a	n/a	n/a	n/a	385.304	BM28HAS.jpg
356.389	0.514	Blank	Blank	93.386	n/a	4	10	1	n/a	61	n/a	2	n/a	n/a	n/a	n/a	385.802	n/a
356.92	0.497	angry	Picture	92.872	n/a	4	10	2	n/a	62	61	2	n/a	n/a	n/a	n/a	386.332	AM01HAS.jpg
357.417	0.514	Blank	Blank	92.358	n/a	4	10	2	n/a	62	n/a	2	n/a	n/a	n/a	n/a	386.83	n/a
357.948	0.497	angry	Picture	91.844	n/a	4	10	3	n/a	63	57	2	n/a	n/a	n/a	n/a	387.36	BF28HAS.jpg
358.445	0.514	Blank	Blank	91.33	n/a	4	10	3	n/a	63	n/a	2	n/a	n/a	n/a	n/a	387.858	n/a
358.976	0.497	angry	Picture	90.816	n/a	4	10	4	n/a	64	77	2	n/a	n/a	n/a	n/a	388.388	BM25HAS.jpg
359.473	0.514	Blank	Blank	90.302	n/a	4	10	4	n/a	64	n/a	2	n/a	n/a	n/a	n/a	388.885	n/a
360.004	0.497	angry	Picture	89.788	n/a	4	10	5	n/a	65	47	2	n/a	n/a	n/a	n/a	389.416	BF11HAS.jpg
360.501	0.514	Blank	Blank	89.274	n/a	4	10	5	n/a	65	n/a	2	n/a	n/a	n/a	n/a	389.913	n/a
361.032	0.497	angry	Picture	88.76	n/a	4	10	6	n/a	66	50	2	n/a	n/a	n/a	n/a	390.444	AF18HAS.jpg
361.529	0.514	Blank	Blank	88.246	n/a	4	10	6	n/a	66	n/a	2	n/a	n/a	n/a	n/a	390.941	n/a
362.06	0.497	angry	Picture	87.732	n/a	4	10	7	n/a	67	78	2	n/a	n/a	n/a	n/a	391.472	BM26HAS.jpg
362.557	0.514	Blank	Blank	87.218	n/a	4	10	7	n/a	67	n/a	2	n/a	n/a	n/a	n/a	391.969	n/a
363.087	0.497	angry	Picture	86.704	n/a	4	10	8	n/a	68	45	2	n/a	n/a	n/a	n/a	392.5	BF07HAS.jpg
363.585	0.514	Blank	Blank	86.19	n/a	4	10	8	n/a	68	n/a	2	n/a	n/a	n/a	n/a	392.997	n/a
364.115	0.497	angry	Picture	85.677	n/a	4	10	9	n/a	69	56	2	n/a	n/a	n/a	n/a	393.527	AF26HAS.jpg
364.613	0.514	Blank	Blank	85.163	n/a	4	10	9	n/a	69	n/a	2	n/a	n/a	n/a	n/a	394.025	n/a
365.143	0.497	angry	Picture	84.649	n/a	4	10	10	n/a	70	65	2	n/a	n/a	n/a	n/a	394.555	BM06HAS.jpg
365.641	0.514	Blank	Blank	84.135	n/a	4	10	10	n/a	70	n/a	2	n/a	n/a	n/a	n/a	395.053	n/a
366.171	0.497	angry	Picture	83.621	n/a	4	10	11	n/a	71	73	2	n/a	n/a	n/a	n/a	395.583	AM21HAS.jpg
366.668	0.514	Blank	Blank	83.107	n/a	4	10	11	n/a	71	n/a	2	n/a	n/a	n/a	n/a	396.081	n/a
367.199	0.497	angry	Picture	82.593	n/a	4	10	12	n/a	72	41	2	n/a	n/a	n/a	n/a	396.611	AF01HAS.jpg
367.696	0.514	Blank	Blank	82.079	n/a	4	10	12	n/a	72	n/a	2	n/a	n/a	n/a	n/a	397.108	n/a
368.227	0.497	angry	Picture	81.565	n/a	4	10	13	n/a	73	59	2	n/a	n/a	n/a	n/a	397.639	AF31HAS.jpg
368.724	0.514	Blank	Blank	81.051	n/a	4	10	13	n/a	73	n/a	2	n/a	n/a	n/a	n/a	398.136	n/a
369.255	0.497	angry	Picture	80.537	n/a	4	10	14	n/a	74	64	2	n/a	n/a	n/a	n/a	398.667	BM05HAS.jpg
369.752	0.514	Blank	Blank	80.023	n/a	4	10	14	n/a	74	n/a	2	n/a	n/a	n/a	n/a	399.164	n/a
370.283	0.497	angry	Picture	79.509	n/a	4	10	15	n/a	75	68	2	n/a	n/a	n/a	n/a	399.695	AM09HAS.jpg
370.78	0.514	Blank	Blank	78.995	n/a	4	10	15	n/a	75	n/a	2	n/a	n/a	n/a	n/a	400.192	n/a
371.31	0.497	angry	Picture	78.481	n/a	4	10	16	n/a	76	54	2	n/a	n/a	n/a	n/a	400.723	AF23HAS.jpg
371.808	0.514	Blank	Blank	77.967	n/a	4	10	16	n/a	76	n/a	2	n/a	n/a	n/a	n/a	401.22	n/a
372.338	0.497	angry	Picture	77.453	n/a	4	10	17	n/a	77	53	2	n/a	n/a	n/a	n/a	401.751	BF22HAS.jpg
372.836	0.514	Blank	Blank	76.94	n/a	4	10	17	n/a	77	n/a	2	n/a	n/a	n/a	n/a	402.248	n/a
373.366	0.497	angry	Picture	76.426	n/a	4	10	18	n/a	78	44	2	n/a	n/a	n/a	n/a	402.779	AF05HAS.jpg
373.864	0.514	Blank	Blank	75.912	n/a	4	10	18	n/a	78	n/a	2	n/a	n/a	n/a	n/a	403.276	n/a
374.394	0.497	angry	Picture	75.398	n/a	4	10	19	n/a	79	52	2	n/a	n/a	n/a	n/a	403.806	AF21HAS.jpg
374.892	0.514	Blank	Blank	74.884	n/a	4	10	19	n/a	79	n/a	2	n/a	n/a	n/a	n/a	404.304	n/a
375.422	0.497	angry	Picture	74.37	n/a	4	10	20	n/a	80	62	2	n/a	n/a	n/a	n/a	404.834	BM03HAS.jpg
375.919	0.514	Blank	Blank	73.856	n/a	4	10	20	n/a	80	n/a	2	n/a	n/a	n/a	n/a	405.332	n/a
376.45	10.014	ITI	Fixation+	63.826	n/a	4	n/a	n/a	n/a	n/a	n/a	n/a	n/a	n/a	n/a	n/a	405.862	n/a
386.48	0.497	neutral	Picture	63.312	n/a	4	11	1	n/a	81	23	1	n/a	n/a	n/a	n/a	415.892	AM04NES.jpg
386.978	0.514	Blank	Blank	62.798	n/a	4	11	1	n/a	81	n/a	1	n/a	n/a	n/a	n/a	416.39	n/a
387.508	0.497	neutral	Picture	62.284	n/a	4	11	2	n/a	82	29	1	n/a	n/a	n/a	n/a	416.92	AM10NES.jpg
388.005	0.514	Blank	Blank	61.77	n/a	4	11	2	n/a	82	n/a	1	n/a	n/a	n/a	n/a	417.418	n/a
388.536	0.497	neutral	Picture	61.256	n/a	4	11	3	n/a	83	24	1	n/a	n/a	n/a	n/a	417.948	BM05NES.jpg
389.033	0.514	Blank	Blank	60.742	n/a	4	11	3	n/a	83	n/a	1	n/a	n/a	n/a	n/a	418.445	n/a
389.564	0.497	neutral	Picture	60.228	n/a	4	11	4	n/a	84	12	1	n/a	n/a	n/a	n/a	418.976	AF21NES.jpg
390.061	0.514	Blank	Blank	59.714	n/a	4	11	4	n/a	84	n/a	1	n/a	n/a	n/a	n/a	419.473	n/a
390.592	0.497	neutral	Picture	59.2	n/a	4	11	5	n/a	85	13	1	n/a	n/a	n/a	n/a	420.004	BF22NES.jpg
391.089	0.514	Blank	Blank	58.686	n/a	4	11	5	n/a	85	n/a	1	n/a	n/a	n/a	n/a	420.501	n/a
391.62	0.497	neutral	Picture	58.172	n/a	4	11	6	n/a	86	17	1	n/a	n/a	n/a	n/a	421.032	BF28NES.jpg
392.117	0.514	Blank	Blank	57.658	n/a	4	11	6	n/a	86	n/a	1	n/a	n/a	n/a	n/a	421.529	n/a
392.648	0.497	neutral	Picture	57.144	n/a	4	11	7	n/a	87	4	1	n/a	n/a	n/a	n/a	422.06	AF05NES.jpg
393.145	0.514	Blank	Blank	56.63	n/a	4	11	7	n/a	87	n/a	1	n/a	n/a	n/a	n/a	422.557	n/a
393.675	0.497	neutral	Picture	56.116	n/a	4	11	8	n/a	88	11	1	n/a	n/a	n/a	n/a	423.088	AF20NES.jpg
394.173	0.514	Blank	Blank	55.603	n/a	4	11	8	n/a	88	n/a	1	n/a	n/a	n/a	n/a	423.585	n/a
394.703	0.497	neutral	Picture	55.088	n/a	4	11	9	n/a	89	22	1	n/a	n/a	n/a	n/a	424.115	BM03NES.jpg
395.201	0.514	Blank	Blank	54.575	n/a	4	11	9	n/a	89	n/a	1	n/a	n/a	n/a	n/a	424.613	n/a
395.731	0.497	neutral	Picture	54.061	n/a	4	11	10	n/a	90	15	1	n/a	n/a	n/a	n/a	425.143	AF25NES.jpg
396.228	0.514	Blank	Blank	53.547	n/a	4	11	10	n/a	90	n/a	1	n/a	n/a	n/a	n/a	425.641	n/a
396.759	0.497	neutral	Picture	53.033	n/a	4	11	11	n/a	91	19	1	n/a	n/a	n/a	n/a	426.171	AF31NES.jpg
397.256	0.514	Blank	Blank	52.519	n/a	4	11	11	n/a	91	n/a	1	n/a	n/a	n/a	n/a	426.669	n/a
397.787	0.497	neutral	Picture	52.005	n/a	4	11	12	n/a	92	9	1	n/a	n/a	n/a	n/a	427.199	AF17NES.jpg
398.284	0.514	Blank	Blank	51.491	n/a	4	11	12	n/a	92	n/a	1	n/a	n/a	n/a	n/a	427.697	n/a
398.815	0.497	neutral	Picture	50.977	n/a	4	11	13	n/a	93	14	1	n/a	n/a	n/a	n/a	428.227	AF23NES.jpg
399.312	0.514	Blank	Blank	50.463	n/a	4	11	13	n/a	93	n/a	1	n/a	n/a	n/a	n/a	428.724	n/a
399.843	0.497	neutral	Picture	49.949	n/a	4	11	14	n/a	94	36	1	n/a	n/a	n/a	n/a	429.255	BM24NES.jpg
400.34	0.514	Blank	Blank	49.435	n/a	4	11	14	n/a	94	n/a	1	n/a	n/a	n/a	n/a	429.752	n/a
400.871	0.497	neutral	Picture	48.921	n/a	4	11	15	n/a	95	34	1	n/a	n/a	n/a	n/a	430.283	AM22NES.jpg
401.368	0.514	Blank	Blank	48.407	n/a	4	11	15	n/a	95	n/a	1	n/a	n/a	n/a	n/a	430.78	n/a
401.899	0.497	neutral	Picture	47.893	n/a	4	11	16	n/a	96	10	1	n/a	n/a	n/a	n/a	431.311	AF18NES.jpg
402.396	0.514	Blank	Blank	47.379	n/a	4	11	16	n/a	96	n/a	1	n/a	n/a	n/a	n/a	431.808	n/a
402.926	0.497	neutral	Picture	46.865	n/a	4	11	17	n/a	97	5	1	n/a	n/a	n/a	n/a	432.339	BF07NES.jpg
403.424	0.514	Blank	Blank	46.351	n/a	4	11	17	n/a	97	n/a	1	n/a	n/a	n/a	n/a	432.836	n/a
403.954	0.497	neutral	Picture	45.837	n/a	4	11	18	n/a	98	25	1	n/a	n/a	n/a	n/a	433.366	BM06NES.jpg
404.452	0.514	Blank	Blank	45.324	n/a	4	11	18	n/a	98	n/a	1	n/a	n/a	n/a	n/a	433.864	n/a
404.982	0.497	neutral	Picture	44.81	n/a	4	11	19	n/a	99	39	1	n/a	n/a	n/a	n/a	434.394	AM28NES.jpg
405.48	0.514	Blank	Blank	44.296	n/a	4	11	19	n/a	99	n/a	1	n/a	n/a	n/a	n/a	434.892	n/a
406.01	0.497	neutral	Picture	43.782	n/a	4	11	20	n/a	100	33	1	n/a	n/a	n/a	n/a	435.422	AM21NES.jpg
406.507	0.514	Blank	Blank	43.268	n/a	4	11	20	n/a	100	n/a	1	n/a	n/a	n/a	n/a	435.92	n/a
407.038	10.014	ITI	Fixation+	33.238	n/a	4	n/a	n/a	n/a	n/a	n/a	n/a	n/a	n/a	n/a	n/a	436.45	n/a
417.068	0.497	angry	Picture	32.724	n/a	4	12	1	n/a	101	74	2	n/a	n/a	n/a	n/a	446.48	AM22HAS.jpg
417.566	0.514	Blank	Blank	32.21	n/a	4	12	1	n/a	101	n/a	2	n/a	n/a	n/a	n/a	446.978	n/a
418.096	0.497	angry	Picture	31.696	n/a	4	12	2	n/a	102	76	2	n/a	n/a	n/a	n/a	447.508	BM24HAS.jpg
418.594	0.514	Blank	Blank	31.182	n/a	4	12	2	n/a	102	n/a	2	n/a	n/a	n/a	n/a	448.006	n/a
419.124	0.497	angry	Picture	30.668	n/a	4	12	3	n/a	103	80	2	n/a	n/a	n/a	n/a	448.536	BM35HAS.jpg
419.621	0.514	Blank	Blank	30.154	n/a	4	12	3	n/a	103	n/a	2	n/a	n/a	n/a	n/a	449.034	n/a
420.152	0.497	angry	Picture	29.64	n/a	4	12	4	n/a	104	75	2	n/a	n/a	n/a	n/a	449.564	AM23HAS.jpg
420.649	0.514	Blank	Blank	29.126	n/a	4	12	4	n/a	104	n/a	2	n/a	n/a	n/a	n/a	450.061	n/a
421.18	0.497	angry	Picture	28.612	n/a	4	12	5	n/a	105	49	2	n/a	n/a	n/a	n/a	450.592	AF17HAS.jpg
421.677	0.514	Blank	Blank	28.098	n/a	4	12	5	n/a	105	n/a	2	n/a	n/a	n/a	n/a	451.089	n/a
422.208	0.497	angry	Picture	27.584	n/a	4	12	6	n/a	106	43	2	n/a	n/a	n/a	n/a	451.62	BF04HAS.jpg
422.705	0.514	Blank	Blank	27.07	n/a	4	12	6	n/a	106	n/a	2	n/a	n/a	n/a	n/a	452.117	n/a
423.236	0.497	angry	Picture	26.556	n/a	4	12	7	n/a	107	70	2	n/a	n/a	n/a	n/a	452.648	BM11HAS.jpg
423.733	0.514	Blank	Blank	26.042	n/a	4	12	7	n/a	107	n/a	2	n/a	n/a	n/a	n/a	453.145	n/a
424.263	0.497	angry	Picture	25.528	n/a	4	12	8	n/a	108	66	2	n/a	n/a	n/a	n/a	453.676	BM07HAS.jpg
424.761	0.514	Blank	Blank	25.014	n/a	4	12	8	n/a	108	n/a	2	n/a	n/a	n/a	n/a	454.173	n/a
425.291	0.497	angry	Picture	24.5	n/a	4	12	9	n/a	109	48	2	n/a	n/a	n/a	n/a	454.704	AF14HAS.jpg
425.789	0.514	Blank	Blank	23.987	n/a	4	12	9	n/a	109	n/a	2	n/a	n/a	n/a	n/a	455.201	n/a
426.319	0.497	angry	Picture	23.473	n/a	4	12	10	n/a	110	58	2	n/a	n/a	n/a	n/a	455.731	BF29HAS.jpg
426.817	0.514	Blank	Blank	22.959	n/a	4	12	10	n/a	110	n/a	2	n/a	n/a	n/a	n/a	456.229	n/a
427.347	0.497	angry	Picture	22.445	n/a	4	12	11	n/a	111	63	2	n/a	n/a	n/a	n/a	456.759	AM04HAS.jpg
427.845	0.514	Blank	Blank	21.931	n/a	4	12	11	n/a	111	n/a	2	n/a	n/a	n/a	n/a	457.257	n/a
428.375	0.497	angry	Picture	21.417	n/a	4	12	12	n/a	112	72	2	n/a	n/a	n/a	n/a	457.787	AM14HAS.jpg
428.872	0.514	Blank	Blank	20.903	n/a	4	12	12	n/a	112	n/a	2	n/a	n/a	n/a	n/a	458.285	n/a
429.403	0.497	angry	Picture	20.389	n/a	4	12	13	n/a	113	55	2	n/a	n/a	n/a	n/a	458.815	AF25HAS.jpg
429.9	0.514	Blank	Blank	19.875	n/a	4	12	13	n/a	113	n/a	2	n/a	n/a	n/a	n/a	459.313	n/a
430.431	0.497	angry	Picture	19.361	n/a	4	12	14	n/a	114	42	2	n/a	n/a	n/a	n/a	459.843	AF03HAS.jpg
430.928	0.514	Blank	Blank	18.847	n/a	4	12	14	n/a	114	n/a	2	n/a	n/a	n/a	n/a	460.34	n/a
431.459	0.497	angry	Picture	18.333	n/a	4	12	15	n/a	115	60	2	n/a	n/a	n/a	n/a	460.871	AF32HAS.jpg
431.956	0.514	Blank	Blank	17.819	n/a	4	12	15	n/a	115	n/a	2	n/a	n/a	n/a	n/a	461.368	n/a
432.487	0.497	angry	Picture	17.305	n/a	4	12	16	n/a	116	67	2	n/a	n/a	n/a	n/a	461.899	BM08HAS.jpg
432.984	0.514	Blank	Blank	16.791	n/a	4	12	16	n/a	116	n/a	2	n/a	n/a	n/a	n/a	462.396	n/a
433.514	0.497	angry	Picture	16.277	n/a	4	12	17	n/a	117	51	2	n/a	n/a	n/a	n/a	462.927	AF20HAS.jpg
434.012	0.514	Blank	Blank	15.763	n/a	4	12	17	n/a	117	n/a	2	n/a	n/a	n/a	n/a	463.424	n/a
434.542	0.497	angry	Picture	15.249	n/a	4	12	18	n/a	118	71	2	n/a	n/a	n/a	n/a	463.954	BM12HAS.jpg
435.04	0.514	Blank	Blank	14.736	n/a	4	12	18	n/a	118	n/a	2	n/a	n/a	n/a	n/a	464.452	n/a
435.57	0.497	angry	Picture	14.222	n/a	4	12	19	n/a	119	69	2	n/a	n/a	n/a	n/a	464.982	AM10HAS.jpg
436.068	0.514	Blank	Blank	13.708	n/a	4	12	19	n/a	119	n/a	2	n/a	n/a	n/a	n/a	465.48	n/a
436.598	0.497	angry	Picture	13.194	n/a	4	12	20	n/a	120	46	2	n/a	n/a	n/a	n/a	466.01	AF09HAS.jpg
437.096	0.514	Blank	Blank	12.68	n/a	4	12	20	n/a	120	n/a	2	n/a	n/a	n/a	n/a	466.508	n/a
437.626	10.014	ITI	Fixation+	2.65	n/a	4	n/a	n/a	n/a	n/a	n/a	n/a	n/a	n/a	n/a	n/a	467.038	n/a
450.289	n/a	ConfirmRating	Rate	n/a	2.636	4	n/a	n/a	0	n/a	n/a	n/a	2	Angry	37	49	479.701	n/a
453.892	n/a	ConfirmRating	Rate	n/a	3.597	4	n/a	n/a	1	n/a	n/a	n/a	3	Angry	57	51	483.304	n/a
