onset	duration	trial_type	event_type	time_until_response	response_time	trial_number	block_num_within_trial	image_seq_num_within_block	question_seq_num_within_block	image_seq_num	picture_number	condition	question_type	block_type	rating	rating_computed	onset_uncorrected	KDEV_imagefile
0.01	10.014	ITI	Fixation+	96.396	n/a	1	n/a	n/a	n/a	n/a	n/a	n/a	n/a	n/a	n/a	n/a	29.306	n/a
10.04	0.497	happy	Picture	95.882	n/a	1	1	1	n/a	1	108	3	n/a	n/a	n/a	n/a	39.336	AM09ANS.jpg
10.537	0.514	Blank	Blank	95.368	n/a	1	1	1	n/a	1	n/a	3	n/a	n/a	n/a	n/a	39.833	n/a
11.068	0.497	happy	Picture	94.854	n/a	1	1	2	n/a	2	99	3	n/a	n/a	n/a	n/a	40.364	AF31ANS.jpg
11.565	0.514	Blank	Blank	94.34	n/a	1	1	2	n/a	2	n/a	3	n/a	n/a	n/a	n/a	40.861	n/a
12.096	0.497	happy	Picture	93.826	n/a	1	1	3	n/a	3	98	3	n/a	n/a	n/a	n/a	41.392	BF29ANS.jpg
12.593	0.514	Blank	Blank	93.312	n/a	1	1	3	n/a	3	n/a	3	n/a	n/a	n/a	n/a	41.889	n/a
13.124	0.497	happy	Picture	92.798	n/a	1	1	4	n/a	4	107	3	n/a	n/a	n/a	n/a	42.42	BM08ANS.jpg
13.621	0.514	Blank	Blank	92.285	n/a	1	1	4	n/a	4	n/a	3	n/a	n/a	n/a	n/a	42.917	n/a
14.152	0.497	happy	Picture	91.77	n/a	1	1	5	n/a	5	104	3	n/a	n/a	n/a	n/a	43.448	BM05ANS.jpg
14.649	0.514	Blank	Blank	91.257	n/a	1	1	5	n/a	5	n/a	3	n/a	n/a	n/a	n/a	43.945	n/a
15.179	0.497	happy	Picture	90.743	n/a	1	1	6	n/a	6	101	3	n/a	n/a	n/a	n/a	44.475	AM01ANS.jpg
15.677	0.514	Blank	Blank	90.229	n/a	1	1	6	n/a	6	n/a	3	n/a	n/a	n/a	n/a	44.973	n/a
16.207	0.497	happy	Picture	89.715	n/a	1	1	7	n/a	7	103	3	n/a	n/a	n/a	n/a	45.503	AM04ANS.jpg
16.705	0.514	Blank	Blank	89.201	n/a	1	1	7	n/a	7	n/a	3	n/a	n/a	n/a	n/a	46.001	n/a
17.235	0.497	happy	Picture	88.687	n/a	1	1	8	n/a	8	111	3	n/a	n/a	n/a	n/a	46.531	BM12ANS.jpg
17.733	0.514	Blank	Blank	88.173	n/a	1	1	8	n/a	8	n/a	3	n/a	n/a	n/a	n/a	47.029	n/a
18.263	0.497	happy	Picture	87.659	n/a	1	1	9	n/a	9	110	3	n/a	n/a	n/a	n/a	47.559	AM11ANS.jpg
18.761	0.514	Blank	Blank	87.145	n/a	1	1	9	n/a	9	n/a	3	n/a	n/a	n/a	n/a	48.056	n/a
19.291	0.497	happy	Picture	86.631	n/a	1	1	10	n/a	10	85	3	n/a	n/a	n/a	n/a	48.587	BF07ANS.jpg
19.788	0.514	Blank	Blank	86.117	n/a	1	1	10	n/a	10	n/a	3	n/a	n/a	n/a	n/a	49.084	n/a
20.319	0.497	happy	Picture	85.603	n/a	1	1	11	n/a	11	87	3	n/a	n/a	n/a	n/a	49.615	BF11ANS.jpg
20.816	0.514	Blank	Blank	85.089	n/a	1	1	11	n/a	11	n/a	3	n/a	n/a	n/a	n/a	50.112	n/a
21.347	0.497	happy	Picture	84.575	n/a	1	1	12	n/a	12	91	3	n/a	n/a	n/a	n/a	50.643	AF20ANS.jpg
21.844	0.514	Blank	Blank	84.061	n/a	1	1	12	n/a	12	n/a	3	n/a	n/a	n/a	n/a	51.14	n/a
22.375	0.497	happy	Picture	83.547	n/a	1	1	13	n/a	13	115	3	n/a	n/a	n/a	n/a	51.671	AM23ANS.jpg
22.872	0.514	Blank	Blank	83.034	n/a	1	1	13	n/a	13	n/a	3	n/a	n/a	n/a	n/a	52.168	n/a
23.403	0.497	happy	Picture	82.52	n/a	1	1	14	n/a	14	97	3	n/a	n/a	n/a	n/a	52.699	BF28ANS.jpg
23.9	0.514	Blank	Blank	82.006	n/a	1	1	14	n/a	14	n/a	3	n/a	n/a	n/a	n/a	53.196	n/a
24.43	0.497	happy	Picture	81.492	n/a	1	1	15	n/a	15	82	3	n/a	n/a	n/a	n/a	53.726	AF03ANS.jpg
24.928	0.514	Blank	Blank	80.978	n/a	1	1	15	n/a	15	n/a	3	n/a	n/a	n/a	n/a	54.224	n/a
25.458	0.497	happy	Picture	80.464	n/a	1	1	16	n/a	16	96	3	n/a	n/a	n/a	n/a	54.754	AF26ANS.jpg
25.956	0.514	Blank	Blank	79.95	n/a	1	1	16	n/a	16	n/a	3	n/a	n/a	n/a	n/a	55.252	n/a
26.486	0.497	happy	Picture	79.436	n/a	1	1	17	n/a	17	109	3	n/a	n/a	n/a	n/a	55.782	AM10ANS.jpg
26.984	0.514	Blank	Blank	78.922	n/a	1	1	17	n/a	17	n/a	3	n/a	n/a	n/a	n/a	56.28	n/a
27.514	0.497	happy	Picture	78.408	n/a	1	1	18	n/a	18	114	3	n/a	n/a	n/a	n/a	56.81	AM22ANS.jpg
28.011	0.514	Blank	Blank	77.894	n/a	1	1	18	n/a	18	n/a	3	n/a	n/a	n/a	n/a	57.307	n/a
28.542	0.497	happy	Picture	77.38	n/a	1	1	19	n/a	19	120	3	n/a	n/a	n/a	n/a	57.838	AM35ANS.jpg
29.039	0.514	Blank	Blank	76.866	n/a	1	1	19	n/a	19	n/a	3	n/a	n/a	n/a	n/a	58.335	n/a
29.57	0.497	happy	Picture	76.352	n/a	1	1	20	n/a	20	81	3	n/a	n/a	n/a	n/a	58.866	AF01ANS.jpg
30.067	0.514	Blank	Blank	75.838	n/a	1	1	20	n/a	20	n/a	3	n/a	n/a	n/a	n/a	59.363	n/a
30.598	10.014	ITI	Fixation+	65.808	n/a	1	n/a	n/a	n/a	n/a	n/a	n/a	n/a	n/a	n/a	n/a	59.894	n/a
40.628	0.497	neutral	Picture	65.294	n/a	1	2	1	n/a	21	28	1	n/a	n/a	n/a	n/a	69.924	AM09NES.jpg
41.125	0.514	Blank	Blank	64.78	n/a	1	2	1	n/a	21	n/a	1	n/a	n/a	n/a	n/a	70.421	n/a
41.656	0.497	neutral	Picture	64.266	n/a	1	2	2	n/a	22	27	1	n/a	n/a	n/a	n/a	70.952	BM08NES.jpg
42.153	0.514	Blank	Blank	63.752	n/a	1	2	2	n/a	22	n/a	1	n/a	n/a	n/a	n/a	71.449	n/a
42.684	0.497	neutral	Picture	63.238	n/a	1	2	3	n/a	23	16	1	n/a	n/a	n/a	n/a	71.98	AF26NES.jpg
43.181	0.514	Blank	Blank	62.725	n/a	1	2	3	n/a	23	n/a	1	n/a	n/a	n/a	n/a	72.477	n/a
43.711	0.497	neutral	Picture	62.211	n/a	1	2	4	n/a	24	3	1	n/a	n/a	n/a	n/a	73.007	BF04NES.jpg
44.209	0.514	Blank	Blank	61.697	n/a	1	2	4	n/a	24	n/a	1	n/a	n/a	n/a	n/a	73.505	n/a
44.739	0.497	neutral	Picture	61.183	n/a	1	2	5	n/a	25	32	1	n/a	n/a	n/a	n/a	74.035	AM14NES.jpg
45.237	0.514	Blank	Blank	60.669	n/a	1	2	5	n/a	25	n/a	1	n/a	n/a	n/a	n/a	74.533	n/a
45.767	0.497	neutral	Picture	60.155	n/a	1	2	6	n/a	26	37	1	n/a	n/a	n/a	n/a	75.063	BM25NES.jpg
46.265	0.514	Blank	Blank	59.641	n/a	1	2	6	n/a	26	n/a	1	n/a	n/a	n/a	n/a	75.561	n/a
46.795	0.497	neutral	Picture	59.127	n/a	1	2	7	n/a	27	15	1	n/a	n/a	n/a	n/a	76.091	AF25NES.jpg
47.292	0.514	Blank	Blank	58.613	n/a	1	2	7	n/a	27	n/a	1	n/a	n/a	n/a	n/a	76.588	n/a
47.823	0.497	neutral	Picture	58.099	n/a	1	2	8	n/a	28	23	1	n/a	n/a	n/a	n/a	77.119	AM04NES.jpg
48.32	0.514	Blank	Blank	57.585	n/a	1	2	8	n/a	28	n/a	1	n/a	n/a	n/a	n/a	77.616	n/a
48.851	0.497	neutral	Picture	57.071	n/a	1	2	9	n/a	29	34	1	n/a	n/a	n/a	n/a	78.147	AM22NES.jpg
49.348	0.514	Blank	Blank	56.557	n/a	1	2	9	n/a	29	n/a	1	n/a	n/a	n/a	n/a	78.644	n/a
49.879	0.497	neutral	Picture	56.043	n/a	1	2	10	n/a	30	24	1	n/a	n/a	n/a	n/a	79.175	BM05NES.jpg
50.376	0.514	Blank	Blank	55.529	n/a	1	2	10	n/a	30	n/a	1	n/a	n/a	n/a	n/a	79.672	n/a
50.907	0.497	neutral	Picture	55.015	n/a	1	2	11	n/a	31	12	1	n/a	n/a	n/a	n/a	80.203	AF21NES.jpg
51.404	0.514	Blank	Blank	54.501	n/a	1	2	11	n/a	31	n/a	1	n/a	n/a	n/a	n/a	80.7	n/a
51.935	0.497	neutral	Picture	53.988	n/a	1	2	12	n/a	32	6	1	n/a	n/a	n/a	n/a	81.231	AF09NES.jpg
52.432	0.514	Blank	Blank	53.474	n/a	1	2	12	n/a	32	n/a	1	n/a	n/a	n/a	n/a	81.728	n/a
52.962	0.497	neutral	Picture	52.96	n/a	1	2	13	n/a	33	17	1	n/a	n/a	n/a	n/a	82.258	BF28NES.jpg
53.46	0.514	Blank	Blank	52.446	n/a	1	2	13	n/a	33	n/a	1	n/a	n/a	n/a	n/a	82.756	n/a
53.99	0.497	neutral	Picture	51.932	n/a	1	2	14	n/a	34	2	1	n/a	n/a	n/a	n/a	83.286	AF03NES.jpg
54.488	0.514	Blank	Blank	51.418	n/a	1	2	14	n/a	34	n/a	1	n/a	n/a	n/a	n/a	83.784	n/a
55.018	0.497	neutral	Picture	50.904	n/a	1	2	15	n/a	35	9	1	n/a	n/a	n/a	n/a	84.314	AF17NES.jpg
55.516	0.514	Blank	Blank	50.39	n/a	1	2	15	n/a	35	n/a	1	n/a	n/a	n/a	n/a	84.812	n/a
56.046	0.497	neutral	Picture	49.876	n/a	1	2	16	n/a	36	25	1	n/a	n/a	n/a	n/a	85.342	BM06NES.jpg
56.544	0.514	Blank	Blank	49.362	n/a	1	2	16	n/a	36	n/a	1	n/a	n/a	n/a	n/a	85.84	n/a
57.074	0.497	neutral	Picture	48.848	n/a	1	2	17	n/a	37	8	1	n/a	n/a	n/a	n/a	86.37	AF14NES.jpg
57.571	0.514	Blank	Blank	48.334	n/a	1	2	17	n/a	37	n/a	1	n/a	n/a	n/a	n/a	86.867	n/a
58.102	0.497	neutral	Picture	47.82	n/a	1	2	18	n/a	38	19	1	n/a	n/a	n/a	n/a	87.398	AF31NES.jpg
58.599	0.514	Blank	Blank	47.306	n/a	1	2	18	n/a	38	n/a	1	n/a	n/a	n/a	n/a	87.895	n/a
59.13	0.497	neutral	Picture	46.792	n/a	1	2	19	n/a	39	14	1	n/a	n/a	n/a	n/a	88.426	AF23NES.jpg
59.627	0.514	Blank	Blank	46.278	n/a	1	2	19	n/a	39	n/a	1	n/a	n/a	n/a	n/a	88.923	n/a
60.158	0.497	neutral	Picture	45.764	n/a	1	2	20	n/a	40	4	1	n/a	n/a	n/a	n/a	89.454	AF05NES.jpg
60.655	0.514	Blank	Blank	45.251	n/a	1	2	20	n/a	40	n/a	1	n/a	n/a	n/a	n/a	89.951	n/a
61.185	10.014	ITI	Fixation+	35.22	n/a	1	n/a	n/a	n/a	n/a	n/a	n/a	n/a	n/a	n/a	n/a	90.481	n/a
71.216	0.497	happy	Picture	34.706	n/a	1	3	1	n/a	41	84	3	n/a	n/a	n/a	n/a	100.512	AF05ANS.jpg
71.713	0.514	Blank	Blank	34.192	n/a	1	3	1	n/a	41	n/a	3	n/a	n/a	n/a	n/a	101.009	n/a
72.244	0.497	happy	Picture	33.679	n/a	1	3	2	n/a	42	92	3	n/a	n/a	n/a	n/a	101.54	AF21ANS.jpg
72.741	0.514	Blank	Blank	33.165	n/a	1	3	2	n/a	42	n/a	3	n/a	n/a	n/a	n/a	102.037	n/a
73.272	0.497	happy	Picture	32.651	n/a	1	3	3	n/a	43	86	3	n/a	n/a	n/a	n/a	102.567	AF09ANS.jpg
73.769	0.514	Blank	Blank	32.137	n/a	1	3	3	n/a	43	n/a	3	n/a	n/a	n/a	n/a	103.065	n/a
74.299	0.497	happy	Picture	31.623	n/a	1	3	4	n/a	44	93	3	n/a	n/a	n/a	n/a	103.595	BF22ANS.jpg
74.797	0.514	Blank	Blank	31.109	n/a	1	3	4	n/a	44	n/a	3	n/a	n/a	n/a	n/a	104.093	n/a
75.327	0.497	happy	Picture	30.595	n/a	1	3	5	n/a	45	88	3	n/a	n/a	n/a	n/a	104.623	AF14ANS.jpg
75.825	0.514	Blank	Blank	30.081	n/a	1	3	5	n/a	45	n/a	3	n/a	n/a	n/a	n/a	105.121	n/a
76.355	0.497	happy	Picture	29.567	n/a	1	3	6	n/a	46	113	3	n/a	n/a	n/a	n/a	105.651	AM21ANS.jpg
76.852	0.514	Blank	Blank	29.053	n/a	1	3	6	n/a	46	n/a	3	n/a	n/a	n/a	n/a	106.148	n/a
77.383	0.497	happy	Picture	28.539	n/a	1	3	7	n/a	47	95	3	n/a	n/a	n/a	n/a	106.679	AF25ANS.jpg
77.88	0.514	Blank	Blank	28.025	n/a	1	3	7	n/a	47	n/a	3	n/a	n/a	n/a	n/a	107.176	n/a
78.411	0.497	happy	Picture	27.511	n/a	1	3	8	n/a	48	102	3	n/a	n/a	n/a	n/a	107.707	BM03ANS.jpg
78.908	0.514	Blank	Blank	26.997	n/a	1	3	8	n/a	48	n/a	3	n/a	n/a	n/a	n/a	108.204	n/a
79.439	0.497	happy	Picture	26.483	n/a	1	3	9	n/a	49	112	3	n/a	n/a	n/a	n/a	108.735	AM14ANS.jpg
79.936	0.514	Blank	Blank	25.969	n/a	1	3	9	n/a	49	n/a	3	n/a	n/a	n/a	n/a	109.232	n/a
80.467	0.497	happy	Picture	25.456	n/a	1	3	10	n/a	50	83	3	n/a	n/a	n/a	n/a	109.763	BF04ANS.jpg
80.964	0.514	Blank	Blank	24.942	n/a	1	3	10	n/a	50	n/a	3	n/a	n/a	n/a	n/a	110.26	n/a
81.494	0.497	happy	Picture	24.428	n/a	1	3	11	n/a	51	90	3	n/a	n/a	n/a	n/a	110.79	AF18ANS.jpg
81.992	0.514	Blank	Blank	23.914	n/a	1	3	11	n/a	51	n/a	3	n/a	n/a	n/a	n/a	111.288	n/a
82.522	0.497	happy	Picture	23.4	n/a	1	3	12	n/a	52	117	3	n/a	n/a	n/a	n/a	111.818	BM25ANS.jpg
83.02	0.514	Blank	Blank	22.886	n/a	1	3	12	n/a	52	n/a	3	n/a	n/a	n/a	n/a	112.316	n/a
83.55	0.497	happy	Picture	22.372	n/a	1	3	13	n/a	53	94	3	n/a	n/a	n/a	n/a	112.846	AF23ANS.jpg
84.048	0.514	Blank	Blank	21.858	n/a	1	3	13	n/a	53	n/a	3	n/a	n/a	n/a	n/a	113.344	n/a
84.578	0.497	happy	Picture	21.344	n/a	1	3	14	n/a	54	106	3	n/a	n/a	n/a	n/a	113.874	AM07ANS.jpg
85.076	0.514	Blank	Blank	20.83	n/a	1	3	14	n/a	54	n/a	3	n/a	n/a	n/a	n/a	114.371	n/a
85.606	0.497	happy	Picture	20.316	n/a	1	3	15	n/a	55	105	3	n/a	n/a	n/a	n/a	114.902	BM06ANS.jpg
86.103	0.514	Blank	Blank	19.802	n/a	1	3	15	n/a	55	n/a	3	n/a	n/a	n/a	n/a	115.399	n/a
86.634	0.497	happy	Picture	19.288	n/a	1	3	16	n/a	56	116	3	n/a	n/a	n/a	n/a	115.93	BM24ANS.jpg
87.131	0.514	Blank	Blank	18.774	n/a	1	3	16	n/a	56	n/a	3	n/a	n/a	n/a	n/a	116.427	n/a
87.662	0.497	happy	Picture	18.26	n/a	1	3	17	n/a	57	89	3	n/a	n/a	n/a	n/a	116.958	AF17ANS.jpg
88.159	0.514	Blank	Blank	17.746	n/a	1	3	17	n/a	57	n/a	3	n/a	n/a	n/a	n/a	117.455	n/a
88.69	0.497	happy	Picture	17.232	n/a	1	3	18	n/a	58	118	3	n/a	n/a	n/a	n/a	117.986	BM26ANS.jpg
89.187	0.514	Blank	Blank	16.719	n/a	1	3	18	n/a	58	n/a	3	n/a	n/a	n/a	n/a	118.483	n/a
89.718	0.497	happy	Picture	16.204	n/a	1	3	19	n/a	59	100	3	n/a	n/a	n/a	n/a	119.014	AF32ANS.jpg
90.215	0.514	Blank	Blank	15.691	n/a	1	3	19	n/a	59	n/a	3	n/a	n/a	n/a	n/a	119.511	n/a
90.745	0.497	happy	Picture	15.177	n/a	1	3	20	n/a	60	119	3	n/a	n/a	n/a	n/a	120.041	BM28ANS.jpg
91.243	0.514	Blank	Blank	14.663	n/a	1	3	20	n/a	60	n/a	3	n/a	n/a	n/a	n/a	120.539	n/a
91.773	10.014	ITI	Fixation+	4.633	n/a	1	n/a	n/a	n/a	n/a	n/a	n/a	n/a	n/a	n/a	n/a	121.069	n/a
106.419	n/a	ConfirmRating	Rate	n/a	4.609	1	n/a	n/a	0	n/a	n/a	n/a	2	Happy	67	51	135.715	n/a
112.336	n/a	ConfirmRating	Rate	n/a	5.902	1	n/a	n/a	1	n/a	n/a	n/a	3	Happy	1	49	141.632	n/a
112.364	10.014	ITI	Fixation+	98.951	n/a	2	n/a	n/a	n/a	n/a	n/a	n/a	n/a	n/a	n/a	n/a	141.66	n/a
122.394	0.497	angry	Picture	98.437	n/a	2	4	1	n/a	61	79	2	n/a	n/a	n/a	n/a	151.69	BM28HAS.jpg
122.892	0.514	Blank	Blank	97.923	n/a	2	4	1	n/a	61	n/a	2	n/a	n/a	n/a	n/a	152.188	n/a
123.422	0.497	angry	Picture	97.409	n/a	2	4	2	n/a	62	61	2	n/a	n/a	n/a	n/a	152.718	AM01HAS.jpg
123.92	0.514	Blank	Blank	96.895	n/a	2	4	2	n/a	62	n/a	2	n/a	n/a	n/a	n/a	153.216	n/a
124.45	0.497	angry	Picture	96.381	n/a	2	4	3	n/a	63	57	2	n/a	n/a	n/a	n/a	153.746	BF28HAS.jpg
124.948	0.514	Blank	Blank	95.867	n/a	2	4	3	n/a	63	n/a	2	n/a	n/a	n/a	n/a	154.244	n/a
125.478	0.497	angry	Picture	95.353	n/a	2	4	4	n/a	64	77	2	n/a	n/a	n/a	n/a	154.774	BM25HAS.jpg
125.975	0.514	Blank	Blank	94.84	n/a	2	4	4	n/a	64	n/a	2	n/a	n/a	n/a	n/a	155.271	n/a
126.506	0.497	angry	Picture	94.326	n/a	2	4	5	n/a	65	47	2	n/a	n/a	n/a	n/a	155.802	BF11HAS.jpg
127.003	0.514	Blank	Blank	93.812	n/a	2	4	5	n/a	65	n/a	2	n/a	n/a	n/a	n/a	156.299	n/a
127.534	0.497	angry	Picture	93.298	n/a	2	4	6	n/a	66	50	2	n/a	n/a	n/a	n/a	156.83	AF18HAS.jpg
128.031	0.514	Blank	Blank	92.784	n/a	2	4	6	n/a	66	n/a	2	n/a	n/a	n/a	n/a	157.327	n/a
128.562	0.497	angry	Picture	92.27	n/a	2	4	7	n/a	67	78	2	n/a	n/a	n/a	n/a	157.858	BM26HAS.jpg
129.059	0.514	Blank	Blank	91.756	n/a	2	4	7	n/a	67	n/a	2	n/a	n/a	n/a	n/a	158.355	n/a
129.59	0.497	angry	Picture	91.242	n/a	2	4	8	n/a	68	45	2	n/a	n/a	n/a	n/a	158.886	BF07HAS.jpg
130.087	0.514	Blank	Blank	90.728	n/a	2	4	8	n/a	68	n/a	2	n/a	n/a	n/a	n/a	159.383	n/a
130.617	0.497	angry	Picture	90.214	n/a	2	4	9	n/a	69	56	2	n/a	n/a	n/a	n/a	159.913	AF26HAS.jpg
131.115	0.514	Blank	Blank	89.7	n/a	2	4	9	n/a	69	n/a	2	n/a	n/a	n/a	n/a	160.411	n/a
131.645	0.497	angry	Picture	89.186	n/a	2	4	10	n/a	70	65	2	n/a	n/a	n/a	n/a	160.941	BM06HAS.jpg
132.143	0.514	Blank	Blank	88.672	n/a	2	4	10	n/a	70	n/a	2	n/a	n/a	n/a	n/a	161.439	n/a
132.673	0.497	angry	Picture	88.158	n/a	2	4	11	n/a	71	73	2	n/a	n/a	n/a	n/a	161.969	AM21HAS.jpg
133.171	0.514	Blank	Blank	87.644	n/a	2	4	11	n/a	71	n/a	2	n/a	n/a	n/a	n/a	162.466	n/a
133.701	0.497	angry	Picture	87.13	n/a	2	4	12	n/a	72	41	2	n/a	n/a	n/a	n/a	162.997	AF01HAS.jpg
134.198	0.513	Blank	Blank	86.617	n/a	2	4	12	n/a	72	n/a	2	n/a	n/a	n/a	n/a	163.494	n/a
134.729	0.497	angry	Picture	86.102	n/a	2	4	13	n/a	73	59	2	n/a	n/a	n/a	n/a	164.025	AF31HAS.jpg
135.226	0.514	Blank	Blank	85.589	n/a	2	4	13	n/a	73	n/a	2	n/a	n/a	n/a	n/a	164.522	n/a
135.757	0.497	angry	Picture	85.075	n/a	2	4	14	n/a	74	64	2	n/a	n/a	n/a	n/a	165.053	BM05HAS.jpg
136.254	0.514	Blank	Blank	84.561	n/a	2	4	14	n/a	74	n/a	2	n/a	n/a	n/a	n/a	165.55	n/a
136.785	0.497	angry	Picture	84.047	n/a	2	4	15	n/a	75	68	2	n/a	n/a	n/a	n/a	166.081	AM09HAS.jpg
137.282	0.514	Blank	Blank	83.533	n/a	2	4	15	n/a	75	n/a	2	n/a	n/a	n/a	n/a	166.578	n/a
137.813	0.497	angry	Picture	83.019	n/a	2	4	16	n/a	76	54	2	n/a	n/a	n/a	n/a	167.109	AF23HAS.jpg
138.31	0.514	Blank	Blank	82.505	n/a	2	4	16	n/a	76	n/a	2	n/a	n/a	n/a	n/a	167.606	n/a
138.841	0.497	angry	Picture	81.991	n/a	2	4	17	n/a	77	53	2	n/a	n/a	n/a	n/a	168.137	BF22HAS.jpg
139.338	0.514	Blank	Blank	81.477	n/a	2	4	17	n/a	77	n/a	2	n/a	n/a	n/a	n/a	168.634	n/a
139.868	0.497	angry	Picture	80.963	n/a	2	4	18	n/a	78	44	2	n/a	n/a	n/a	n/a	169.164	AF05HAS.jpg
140.366	0.514	Blank	Blank	80.449	n/a	2	4	18	n/a	78	n/a	2	n/a	n/a	n/a	n/a	169.662	n/a
140.896	0.497	angry	Picture	79.935	n/a	2	4	19	n/a	79	52	2	n/a	n/a	n/a	n/a	170.192	AF21HAS.jpg
141.394	0.514	Blank	Blank	79.421	n/a	2	4	19	n/a	79	n/a	2	n/a	n/a	n/a	n/a	170.69	n/a
141.924	0.497	angry	Picture	78.907	n/a	2	4	20	n/a	80	62	2	n/a	n/a	n/a	n/a	171.22	BM03HAS.jpg
142.422	0.514	Blank	Blank	78.393	n/a	2	4	20	n/a	80	n/a	2	n/a	n/a	n/a	n/a	171.718	n/a
142.952	10.014	ITI	Fixation+	68.363	n/a	2	n/a	n/a	n/a	n/a	n/a	n/a	n/a	n/a	n/a	n/a	172.248	n/a
152.982	0.497	neutral	Picture	67.849	n/a	2	5	1	n/a	81	23	1	n/a	n/a	n/a	n/a	182.278	AM04NES.jpg
153.48	0.514	Blank	Blank	67.335	n/a	2	5	1	n/a	81	n/a	1	n/a	n/a	n/a	n/a	182.775	n/a
154.01	0.497	neutral	Picture	66.821	n/a	2	5	2	n/a	82	29	1	n/a	n/a	n/a	n/a	183.306	AM10NES.jpg
154.507	0.514	Blank	Blank	66.307	n/a	2	5	2	n/a	82	n/a	1	n/a	n/a	n/a	n/a	183.803	n/a
155.038	0.497	neutral	Picture	65.793	n/a	2	5	3	n/a	83	24	1	n/a	n/a	n/a	n/a	184.334	BM05NES.jpg
155.535	0.514	Blank	Blank	65.28	n/a	2	5	3	n/a	83	n/a	1	n/a	n/a	n/a	n/a	184.831	n/a
156.066	0.497	neutral	Picture	64.766	n/a	2	5	4	n/a	84	12	1	n/a	n/a	n/a	n/a	185.362	AF21NES.jpg
156.563	0.514	Blank	Blank	64.252	n/a	2	5	4	n/a	84	n/a	1	n/a	n/a	n/a	n/a	185.859	n/a
157.094	0.497	neutral	Picture	63.738	n/a	2	5	5	n/a	85	13	1	n/a	n/a	n/a	n/a	186.39	BF22NES.jpg
157.591	0.514	Blank	Blank	63.224	n/a	2	5	5	n/a	85	n/a	1	n/a	n/a	n/a	n/a	186.887	n/a
158.122	0.497	neutral	Picture	62.71	n/a	2	5	6	n/a	86	17	1	n/a	n/a	n/a	n/a	187.418	BF28NES.jpg
158.619	0.514	Blank	Blank	62.196	n/a	2	5	6	n/a	86	n/a	1	n/a	n/a	n/a	n/a	187.915	n/a
159.149	0.497	neutral	Picture	61.682	n/a	2	5	7	n/a	87	4	1	n/a	n/a	n/a	n/a	188.445	AF05NES.jpg
159.647	0.514	Blank	Blank	61.168	n/a	2	5	7	n/a	87	n/a	1	n/a	n/a	n/a	n/a	188.943	n/a
160.177	0.497	neutral	Picture	60.654	n/a	2	5	8	n/a	88	11	1	n/a	n/a	n/a	n/a	189.473	AF20NES.jpg
160.675	0.514	Blank	Blank	60.14	n/a	2	5	8	n/a	88	n/a	1	n/a	n/a	n/a	n/a	189.971	n/a
161.205	0.497	neutral	Picture	59.626	n/a	2	5	9	n/a	89	22	1	n/a	n/a	n/a	n/a	190.501	BM03NES.jpg
161.703	0.514	Blank	Blank	59.112	n/a	2	5	9	n/a	89	n/a	1	n/a	n/a	n/a	n/a	190.999	n/a
162.233	0.497	neutral	Picture	58.598	n/a	2	5	10	n/a	90	15	1	n/a	n/a	n/a	n/a	191.529	AF25NES.jpg
162.731	0.514	Blank	Blank	58.084	n/a	2	5	10	n/a	90	n/a	1	n/a	n/a	n/a	n/a	192.026	n/a
163.261	0.497	neutral	Picture	57.571	n/a	2	5	11	n/a	91	19	1	n/a	n/a	n/a	n/a	192.557	AF31NES.jpg
163.758	0.514	Blank	Blank	57.056	n/a	2	5	11	n/a	91	n/a	1	n/a	n/a	n/a	n/a	193.054	n/a
164.289	0.497	neutral	Picture	56.543	n/a	2	5	12	n/a	92	9	1	n/a	n/a	n/a	n/a	193.585	AF17NES.jpg
164.786	0.514	Blank	Blank	56.029	n/a	2	5	12	n/a	92	n/a	1	n/a	n/a	n/a	n/a	194.082	n/a
165.317	0.497	neutral	Picture	55.515	n/a	2	5	13	n/a	93	14	1	n/a	n/a	n/a	n/a	194.613	AF23NES.jpg
165.814	0.514	Blank	Blank	55.001	n/a	2	5	13	n/a	93	n/a	1	n/a	n/a	n/a	n/a	195.11	n/a
166.345	0.497	neutral	Picture	54.487	n/a	2	5	14	n/a	94	36	1	n/a	n/a	n/a	n/a	195.641	BM24NES.jpg
166.842	0.514	Blank	Blank	53.973	n/a	2	5	14	n/a	94	n/a	1	n/a	n/a	n/a	n/a	196.138	n/a
167.373	0.497	neutral	Picture	53.459	n/a	2	5	15	n/a	95	34	1	n/a	n/a	n/a	n/a	196.668	AM22NES.jpg
167.87	0.514	Blank	Blank	52.945	n/a	2	5	15	n/a	95	n/a	1	n/a	n/a	n/a	n/a	197.166	n/a
168.4	0.497	neutral	Picture	52.431	n/a	2	5	16	n/a	96	10	1	n/a	n/a	n/a	n/a	197.696	AF18NES.jpg
168.898	0.514	Blank	Blank	51.917	n/a	2	5	16	n/a	96	n/a	1	n/a	n/a	n/a	n/a	198.194	n/a
169.428	0.497	neutral	Picture	51.403	n/a	2	5	17	n/a	97	5	1	n/a	n/a	n/a	n/a	198.724	BF07NES.jpg
169.926	0.514	Blank	Blank	50.889	n/a	2	5	17	n/a	97	n/a	1	n/a	n/a	n/a	n/a	199.222	n/a
170.456	0.497	neutral	Picture	50.375	n/a	2	5	18	n/a	98	25	1	n/a	n/a	n/a	n/a	199.752	BM06NES.jpg
170.954	0.514	Blank	Blank	49.861	n/a	2	5	18	n/a	98	n/a	1	n/a	n/a	n/a	n/a	200.25	n/a
171.484	0.497	neutral	Picture	49.347	n/a	2	5	19	n/a	99	39	1	n/a	n/a	n/a	n/a	200.78	AM28NES.jpg
171.981	0.514	Blank	Blank	48.833	n/a	2	5	19	n/a	99	n/a	1	n/a	n/a	n/a	n/a	201.277	n/a
172.512	0.497	neutral	Picture	48.32	n/a	2	5	20	n/a	100	33	1	n/a	n/a	n/a	n/a	201.808	AM21NES.jpg
173.009	0.514	Blank	Blank	47.806	n/a	2	5	20	n/a	100	n/a	1	n/a	n/a	n/a	n/a	202.305	n/a
173.54	10.014	ITI	Fixation+	37.775	n/a	2	n/a	n/a	n/a	n/a	n/a	n/a	n/a	n/a	n/a	n/a	202.836	n/a
183.57	0.497	angry	Picture	37.261	n/a	2	6	1	n/a	101	74	2	n/a	n/a	n/a	n/a	212.866	AM22HAS.jpg
184.067	0.514	Blank	Blank	36.747	n/a	2	6	1	n/a	101	n/a	2	n/a	n/a	n/a	n/a	213.363	n/a
184.598	0.497	angry	Picture	36.234	n/a	2	6	2	n/a	102	76	2	n/a	n/a	n/a	n/a	213.894	BM24HAS.jpg
185.095	0.514	Blank	Blank	35.72	n/a	2	6	2	n/a	102	n/a	2	n/a	n/a	n/a	n/a	214.391	n/a
185.626	0.497	angry	Picture	35.206	n/a	2	6	3	n/a	103	80	2	n/a	n/a	n/a	n/a	214.922	BM35HAS.jpg
186.123	0.514	Blank	Blank	34.692	n/a	2	6	3	n/a	103	n/a	2	n/a	n/a	n/a	n/a	215.419	n/a
186.654	0.497	angry	Picture	34.178	n/a	2	6	4	n/a	104	75	2	n/a	n/a	n/a	n/a	215.95	AM23HAS.jpg
187.151	0.514	Blank	Blank	33.664	n/a	2	6	4	n/a	104	n/a	2	n/a	n/a	n/a	n/a	216.447	n/a
187.681	0.497	angry	Picture	33.15	n/a	2	6	5	n/a	105	49	2	n/a	n/a	n/a	n/a	216.977	AF17HAS.jpg
188.179	0.514	Blank	Blank	32.636	n/a	2	6	5	n/a	105	n/a	2	n/a	n/a	n/a	n/a	217.475	n/a
188.709	0.498	angry	Picture	32.122	n/a	2	6	6	n/a	106	43	2	n/a	n/a	n/a	n/a	218.005	BF04HAS.jpg
189.207	0.514	Blank	Blank	31.608	n/a	2	6	6	n/a	106	n/a	2	n/a	n/a	n/a	n/a	218.503	n/a
189.737	0.497	angry	Picture	31.094	n/a	2	6	7	n/a	107	70	2	n/a	n/a	n/a	n/a	219.033	BM11HAS.jpg
190.235	0.514	Blank	Blank	30.58	n/a	2	6	7	n/a	107	n/a	2	n/a	n/a	n/a	n/a	219.531	n/a
190.765	0.497	angry	Picture	30.066	n/a	2	6	8	n/a	108	66	2	n/a	n/a	n/a	n/a	220.061	BM07HAS.jpg
191.263	0.514	Blank	Blank	29.552	n/a	2	6	8	n/a	108	n/a	2	n/a	n/a	n/a	n/a	220.559	n/a
191.793	0.497	angry	Picture	29.038	n/a	2	6	9	n/a	109	48	2	n/a	n/a	n/a	n/a	221.089	AF14HAS.jpg
192.29	0.514	Blank	Blank	28.524	n/a	2	6	9	n/a	109	n/a	2	n/a	n/a	n/a	n/a	221.586	n/a
192.821	0.497	angry	Picture	28.011	n/a	2	6	10	n/a	110	58	2	n/a	n/a	n/a	n/a	222.117	BF29HAS.jpg
193.318	0.514	Blank	Blank	27.497	n/a	2	6	10	n/a	110	n/a	2	n/a	n/a	n/a	n/a	222.614	n/a
193.849	0.497	angry	Picture	26.983	n/a	2	6	11	n/a	111	63	2	n/a	n/a	n/a	n/a	223.145	AM04HAS.jpg
194.346	0.514	Blank	Blank	26.469	n/a	2	6	11	n/a	111	n/a	2	n/a	n/a	n/a	n/a	223.642	n/a
194.877	0.497	angry	Picture	25.955	n/a	2	6	12	n/a	112	72	2	n/a	n/a	n/a	n/a	224.173	AM14HAS.jpg
195.374	0.514	Blank	Blank	25.441	n/a	2	6	12	n/a	112	n/a	2	n/a	n/a	n/a	n/a	224.67	n/a
195.905	0.497	angry	Picture	24.927	n/a	2	6	13	n/a	113	55	2	n/a	n/a	n/a	n/a	225.201	AF25HAS.jpg
196.402	0.514	Blank	Blank	24.413	n/a	2	6	13	n/a	113	n/a	2	n/a	n/a	n/a	n/a	225.698	n/a
196.932	0.497	angry	Picture	23.899	n/a	2	6	14	n/a	114	42	2	n/a	n/a	n/a	n/a	226.228	AF03HAS.jpg
197.43	0.514	Blank	Blank	23.385	n/a	2	6	14	n/a	114	n/a	2	n/a	n/a	n/a	n/a	226.726	n/a
197.96	0.497	angry	Picture	22.871	n/a	2	6	15	n/a	115	60	2	n/a	n/a	n/a	n/a	227.256	AF32HAS.jpg
198.458	0.514	Blank	Blank	22.357	n/a	2	6	15	n/a	115	n/a	2	n/a	n/a	n/a	n/a	227.754	n/a
198.988	0.497	angry	Picture	21.843	n/a	2	6	16	n/a	116	67	2	n/a	n/a	n/a	n/a	228.284	BM08HAS.jpg
199.486	0.514	Blank	Blank	21.329	n/a	2	6	16	n/a	116	n/a	2	n/a	n/a	n/a	n/a	228.782	n/a
200.016	0.497	angry	Picture	20.815	n/a	2	6	17	n/a	117	51	2	n/a	n/a	n/a	n/a	229.312	AF20HAS.jpg
200.514	0.514	Blank	Blank	20.301	n/a	2	6	17	n/a	117	n/a	2	n/a	n/a	n/a	n/a	229.81	n/a
201.044	0.497	angry	Picture	19.787	n/a	2	6	18	n/a	118	71	2	n/a	n/a	n/a	n/a	230.34	BM12HAS.jpg
201.541	0.514	Blank	Blank	19.273	n/a	2	6	18	n/a	118	n/a	2	n/a	n/a	n/a	n/a	230.837	n/a
202.072	0.497	angry	Picture	18.76	n/a	2	6	19	n/a	119	69	2	n/a	n/a	n/a	n/a	231.368	AM10HAS.jpg
202.569	0.514	Blank	Blank	18.246	n/a	2	6	19	n/a	119	n/a	2	n/a	n/a	n/a	n/a	231.865	n/a
203.1	0.497	angry	Picture	17.732	n/a	2	6	20	n/a	120	46	2	n/a	n/a	n/a	n/a	232.396	AF09HAS.jpg
203.597	0.514	Blank	Blank	17.218	n/a	2	6	20	n/a	120	n/a	2	n/a	n/a	n/a	n/a	232.893	n/a
204.128	10.014	ITI	Fixation+	7.188	n/a	2	n/a	n/a	n/a	n/a	n/a	n/a	n/a	n/a	n/a	n/a	233.424	n/a
221.329	n/a	ConfirmRating	Rate	n/a	7.179	2	n/a	n/a	0	n/a	n/a	n/a	2	Angry	71	51	250.625	n/a
227.223	n/a	ConfirmRating	Rate	n/a	5.885	2	n/a	n/a	1	n/a	n/a	n/a	3	Angry	2	48	256.519	n/a
227.255	15.004	Rest	Picture	n/a	n/a	n/a	n/a	n/a	n/a	n/a	n/a	n/a	0	n/a	0	0	256.551	n/a
242.275	10.014	ITI	Fixation+	95.608	n/a	3	n/a	n/a	n/a	n/a	n/a	n/a	n/a	n/a	n/a	n/a	271.571	n/a
252.305	0.497	happy	Picture	95.094	n/a	3	7	1	n/a	1	108	3	n/a	n/a	n/a	n/a	281.601	AM09ANS.jpg
252.803	0.514	Blank	Blank	94.58	n/a	3	7	1	n/a	1	n/a	3	n/a	n/a	n/a	n/a	282.099	n/a
253.333	0.497	happy	Picture	94.066	n/a	3	7	2	n/a	2	99	3	n/a	n/a	n/a	n/a	282.629	AF31ANS.jpg
253.831	0.514	Blank	Blank	93.552	n/a	3	7	2	n/a	2	n/a	3	n/a	n/a	n/a	n/a	283.127	n/a
254.361	0.497	happy	Picture	93.038	n/a	3	7	3	n/a	3	98	3	n/a	n/a	n/a	n/a	283.657	BF29ANS.jpg
254.859	0.514	Blank	Blank	92.524	n/a	3	7	3	n/a	3	n/a	3	n/a	n/a	n/a	n/a	284.155	n/a
255.389	0.497	happy	Picture	92.01	n/a	3	7	4	n/a	4	107	3	n/a	n/a	n/a	n/a	284.685	BM08ANS.jpg
255.887	0.514	Blank	Blank	91.496	n/a	3	7	4	n/a	4	n/a	3	n/a	n/a	n/a	n/a	285.183	n/a
256.417	0.497	happy	Picture	90.983	n/a	3	7	5	n/a	5	104	3	n/a	n/a	n/a	n/a	285.713	BM05ANS.jpg
256.914	0.514	Blank	Blank	90.469	n/a	3	7	5	n/a	5	n/a	3	n/a	n/a	n/a	n/a	286.21	n/a
257.445	0.497	happy	Picture	89.955	n/a	3	7	6	n/a	6	101	3	n/a	n/a	n/a	n/a	286.741	AM01ANS.jpg
257.942	0.514	Blank	Blank	89.441	n/a	3	7	6	n/a	6	n/a	3	n/a	n/a	n/a	n/a	287.238	n/a
258.473	0.497	happy	Picture	88.927	n/a	3	7	7	n/a	7	103	3	n/a	n/a	n/a	n/a	287.769	AM04ANS.jpg
258.97	0.514	Blank	Blank	88.413	n/a	3	7	7	n/a	7	n/a	3	n/a	n/a	n/a	n/a	288.266	n/a
259.501	0.497	happy	Picture	87.899	n/a	3	7	8	n/a	8	111	3	n/a	n/a	n/a	n/a	288.797	BM12ANS.jpg
259.998	0.514	Blank	Blank	87.385	n/a	3	7	8	n/a	8	n/a	3	n/a	n/a	n/a	n/a	289.294	n/a
260.529	0.497	happy	Picture	86.871	n/a	3	7	9	n/a	9	110	3	n/a	n/a	n/a	n/a	289.825	AM11ANS.jpg
261.026	0.514	Blank	Blank	86.357	n/a	3	7	9	n/a	9	n/a	3	n/a	n/a	n/a	n/a	290.322	n/a
261.557	0.497	happy	Picture	85.843	n/a	3	7	10	n/a	10	85	3	n/a	n/a	n/a	n/a	290.853	BF07ANS.jpg
262.054	0.514	Blank	Blank	85.329	n/a	3	7	10	n/a	10	n/a	3	n/a	n/a	n/a	n/a	291.35	n/a
262.584	0.497	happy	Picture	84.815	n/a	3	7	11	n/a	11	87	3	n/a	n/a	n/a	n/a	291.88	BF11ANS.jpg
263.082	0.514	Blank	Blank	84.301	n/a	3	7	11	n/a	11	n/a	3	n/a	n/a	n/a	n/a	292.378	n/a
263.612	0.497	happy	Picture	83.787	n/a	3	7	12	n/a	12	91	3	n/a	n/a	n/a	n/a	292.908	AF20ANS.jpg
264.11	0.514	Blank	Blank	83.274	n/a	3	7	12	n/a	12	n/a	3	n/a	n/a	n/a	n/a	293.406	n/a
264.64	0.497	happy	Picture	82.759	n/a	3	7	13	n/a	13	115	3	n/a	n/a	n/a	n/a	293.936	AM23ANS.jpg
265.137	0.514	Blank	Blank	82.246	n/a	3	7	13	n/a	13	n/a	3	n/a	n/a	n/a	n/a	294.433	n/a
265.668	0.497	happy	Picture	81.732	n/a	3	7	14	n/a	14	97	3	n/a	n/a	n/a	n/a	294.964	BF28ANS.jpg
266.165	0.514	Blank	Blank	81.218	n/a	3	7	14	n/a	14	n/a	3	n/a	n/a	n/a	n/a	295.461	n/a
266.696	0.497	happy	Picture	80.704	n/a	3	7	15	n/a	15	82	3	n/a	n/a	n/a	n/a	295.992	AF03ANS.jpg
267.193	0.514	Blank	Blank	80.19	n/a	3	7	15	n/a	15	n/a	3	n/a	n/a	n/a	n/a	296.489	n/a
267.724	0.497	happy	Picture	79.676	n/a	3	7	16	n/a	16	96	3	n/a	n/a	n/a	n/a	297.02	AF26ANS.jpg
268.221	0.514	Blank	Blank	79.162	n/a	3	7	16	n/a	16	n/a	3	n/a	n/a	n/a	n/a	297.517	n/a
268.752	0.497	happy	Picture	78.648	n/a	3	7	17	n/a	17	109	3	n/a	n/a	n/a	n/a	298.048	AM10ANS.jpg
269.249	0.514	Blank	Blank	78.134	n/a	3	7	17	n/a	17	n/a	3	n/a	n/a	n/a	n/a	298.545	n/a
269.779	0.497	happy	Picture	77.62	n/a	3	7	18	n/a	18	114	3	n/a	n/a	n/a	n/a	299.075	AM22ANS.jpg
270.277	0.514	Blank	Blank	77.106	n/a	3	7	18	n/a	18	n/a	3	n/a	n/a	n/a	n/a	299.573	n/a
270.807	0.497	happy	Picture	76.592	n/a	3	7	19	n/a	19	120	3	n/a	n/a	n/a	n/a	300.103	AM35ANS.jpg
271.305	0.514	Blank	Blank	76.078	n/a	3	7	19	n/a	19	n/a	3	n/a	n/a	n/a	n/a	300.601	n/a
271.835	0.497	happy	Picture	75.564	n/a	3	7	20	n/a	20	81	3	n/a	n/a	n/a	n/a	301.131	AF01ANS.jpg
272.333	0.514	Blank	Blank	75.05	n/a	3	7	20	n/a	20	n/a	3	n/a	n/a	n/a	n/a	301.629	n/a
272.863	10.014	ITI	Fixation+	65.02	n/a	3	n/a	n/a	n/a	n/a	n/a	n/a	n/a	n/a	n/a	n/a	302.159	n/a
282.893	0.497	neutral	Picture	64.506	n/a	3	8	1	n/a	21	28	1	n/a	n/a	n/a	n/a	312.189	AM09NES.jpg
283.391	0.514	Blank	Blank	63.992	n/a	3	8	1	n/a	21	n/a	1	n/a	n/a	n/a	n/a	312.687	n/a
283.921	0.497	neutral	Picture	63.478	n/a	3	8	2	n/a	22	27	1	n/a	n/a	n/a	n/a	313.217	BM08NES.jpg
284.419	0.514	Blank	Blank	62.964	n/a	3	8	2	n/a	22	n/a	1	n/a	n/a	n/a	n/a	313.715	n/a
284.949	0.497	neutral	Picture	62.45	n/a	3	8	3	n/a	23	16	1	n/a	n/a	n/a	n/a	314.245	AF26NES.jpg
285.447	0.514	Blank	Blank	61.937	n/a	3	8	3	n/a	23	n/a	1	n/a	n/a	n/a	n/a	314.743	n/a
285.977	0.497	neutral	Picture	61.423	n/a	3	8	4	n/a	24	3	1	n/a	n/a	n/a	n/a	315.273	BF04NES.jpg
286.474	0.514	Blank	Blank	60.909	n/a	3	8	4	n/a	24	n/a	1	n/a	n/a	n/a	n/a	315.77	n/a
287.005	0.497	neutral	Picture	60.395	n/a	3	8	5	n/a	25	32	1	n/a	n/a	n/a	n/a	316.301	AM14NES.jpg
287.502	0.514	Blank	Blank	59.881	n/a	3	8	5	n/a	25	n/a	1	n/a	n/a	n/a	n/a	316.798	n/a
288.033	0.497	neutral	Picture	59.367	n/a	3	8	6	n/a	26	37	1	n/a	n/a	n/a	n/a	317.329	BM25NES.jpg
288.53	0.514	Blank	Blank	58.853	n/a	3	8	6	n/a	26	n/a	1	n/a	n/a	n/a	n/a	317.826	n/a
289.061	0.497	neutral	Picture	58.339	n/a	3	8	7	n/a	27	15	1	n/a	n/a	n/a	n/a	318.357	AF25NES.jpg
289.558	0.514	Blank	Blank	57.825	n/a	3	8	7	n/a	27	n/a	1	n/a	n/a	n/a	n/a	318.854	n/a
290.089	0.497	neutral	Picture	57.311	n/a	3	8	8	n/a	28	23	1	n/a	n/a	n/a	n/a	319.385	AM04NES.jpg
290.586	0.514	Blank	Blank	56.797	n/a	3	8	8	n/a	28	n/a	1	n/a	n/a	n/a	n/a	319.882	n/a
291.116	0.497	neutral	Picture	56.283	n/a	3	8	9	n/a	29	34	1	n/a	n/a	n/a	n/a	320.412	AM22NES.jpg
291.614	0.514	Blank	Blank	55.769	n/a	3	8	9	n/a	29	n/a	1	n/a	n/a	n/a	n/a	320.91	n/a
292.144	0.497	neutral	Picture	55.255	n/a	3	8	10	n/a	30	24	1	n/a	n/a	n/a	n/a	321.44	BM05NES.jpg
292.642	0.514	Blank	Blank	54.741	n/a	3	8	10	n/a	30	n/a	1	n/a	n/a	n/a	n/a	321.938	n/a
293.172	0.497	neutral	Picture	54.227	n/a	3	8	11	n/a	31	12	1	n/a	n/a	n/a	n/a	322.468	AF21NES.jpg
293.67	0.514	Blank	Blank	53.713	n/a	3	8	11	n/a	31	n/a	1	n/a	n/a	n/a	n/a	322.966	n/a
294.2	0.497	neutral	Picture	53.2	n/a	3	8	12	n/a	32	6	1	n/a	n/a	n/a	n/a	323.496	AF09NES.jpg
294.697	0.514	Blank	Blank	52.686	n/a	3	8	12	n/a	32	n/a	1	n/a	n/a	n/a	n/a	323.993	n/a
295.228	0.497	neutral	Picture	52.172	n/a	3	8	13	n/a	33	17	1	n/a	n/a	n/a	n/a	324.524	BF28NES.jpg
295.725	0.514	Blank	Blank	51.658	n/a	3	8	13	n/a	33	n/a	1	n/a	n/a	n/a	n/a	325.021	n/a
296.256	0.497	neutral	Picture	51.144	n/a	3	8	14	n/a	34	2	1	n/a	n/a	n/a	n/a	325.552	AF03NES.jpg
296.753	0.514	Blank	Blank	50.63	n/a	3	8	14	n/a	34	n/a	1	n/a	n/a	n/a	n/a	326.049	n/a
297.284	0.497	neutral	Picture	50.116	n/a	3	8	15	n/a	35	9	1	n/a	n/a	n/a	n/a	326.58	AF17NES.jpg
297.781	0.514	Blank	Blank	49.602	n/a	3	8	15	n/a	35	n/a	1	n/a	n/a	n/a	n/a	327.077	n/a
298.312	0.497	neutral	Picture	49.088	n/a	3	8	16	n/a	36	25	1	n/a	n/a	n/a	n/a	327.608	BM06NES.jpg
298.809	0.514	Blank	Blank	48.574	n/a	3	8	16	n/a	36	n/a	1	n/a	n/a	n/a	n/a	328.105	n/a
299.339	0.497	neutral	Picture	48.06	n/a	3	8	17	n/a	37	8	1	n/a	n/a	n/a	n/a	328.635	AF14NES.jpg
299.837	0.514	Blank	Blank	47.546	n/a	3	8	17	n/a	37	n/a	1	n/a	n/a	n/a	n/a	329.133	n/a
300.367	0.497	neutral	Picture	47.032	n/a	3	8	18	n/a	38	19	1	n/a	n/a	n/a	n/a	329.663	AF31NES.jpg
300.865	0.514	Blank	Blank	46.518	n/a	3	8	18	n/a	38	n/a	1	n/a	n/a	n/a	n/a	330.161	n/a
301.395	0.497	neutral	Picture	46.004	n/a	3	8	19	n/a	39	14	1	n/a	n/a	n/a	n/a	330.691	AF23NES.jpg
301.893	0.514	Blank	Blank	45.49	n/a	3	8	19	n/a	39	n/a	1	n/a	n/a	n/a	n/a	331.189	n/a
302.423	0.497	neutral	Picture	44.976	n/a	3	8	20	n/a	40	4	1	n/a	n/a	n/a	n/a	331.719	AF05NES.jpg
302.921	0.514	Blank	Blank	44.463	n/a	3	8	20	n/a	40	n/a	1	n/a	n/a	n/a	n/a	332.216	n/a
303.451	10.014	ITI	Fixation+	34.432	n/a	3	n/a	n/a	n/a	n/a	n/a	n/a	n/a	n/a	n/a	n/a	332.747	n/a
313.481	0.497	happy	Picture	33.918	n/a	3	9	1	n/a	41	84	3	n/a	n/a	n/a	n/a	342.777	AF05ANS.jpg
313.978	0.514	Blank	Blank	33.405	n/a	3	9	1	n/a	41	n/a	3	n/a	n/a	n/a	n/a	343.274	n/a
314.509	0.497	happy	Picture	32.891	n/a	3	9	2	n/a	42	92	3	n/a	n/a	n/a	n/a	343.805	AF21ANS.jpg
315.006	0.514	Blank	Blank	32.377	n/a	3	9	2	n/a	42	n/a	3	n/a	n/a	n/a	n/a	344.302	n/a
315.537	0.497	happy	Picture	31.863	n/a	3	9	3	n/a	43	86	3	n/a	n/a	n/a	n/a	344.833	AF09ANS.jpg
316.034	0.514	Blank	Blank	31.349	n/a	3	9	3	n/a	43	n/a	3	n/a	n/a	n/a	n/a	345.33	n/a
316.565	0.497	happy	Picture	30.835	n/a	3	9	4	n/a	44	93	3	n/a	n/a	n/a	n/a	345.861	BF22ANS.jpg
317.062	0.514	Blank	Blank	30.321	n/a	3	9	4	n/a	44	n/a	3	n/a	n/a	n/a	n/a	346.358	n/a
317.593	0.497	happy	Picture	29.807	n/a	3	9	5	n/a	45	88	3	n/a	n/a	n/a	n/a	346.889	AF14ANS.jpg
318.09	0.514	Blank	Blank	29.293	n/a	3	9	5	n/a	45	n/a	3	n/a	n/a	n/a	n/a	347.386	n/a
318.621	0.497	happy	Picture	28.779	n/a	3	9	6	n/a	46	113	3	n/a	n/a	n/a	n/a	347.917	AM21ANS.jpg
319.118	0.514	Blank	Blank	28.265	n/a	3	9	6	n/a	46	n/a	3	n/a	n/a	n/a	n/a	348.414	n/a
319.648	0.497	happy	Picture	27.751	n/a	3	9	7	n/a	47	95	3	n/a	n/a	n/a	n/a	348.944	AF25ANS.jpg
320.146	0.514	Blank	Blank	27.237	n/a	3	9	7	n/a	47	n/a	3	n/a	n/a	n/a	n/a	349.442	n/a
320.676	0.497	happy	Picture	26.723	n/a	3	9	8	n/a	48	102	3	n/a	n/a	n/a	n/a	349.972	BM03ANS.jpg
321.174	0.514	Blank	Blank	26.209	n/a	3	9	8	n/a	48	n/a	3	n/a	n/a	n/a	n/a	350.47	n/a
321.704	0.497	happy	Picture	25.695	n/a	3	9	9	n/a	49	112	3	n/a	n/a	n/a	n/a	351.0	AM14ANS.jpg
322.202	0.514	Blank	Blank	25.182	n/a	3	9	9	n/a	49	n/a	3	n/a	n/a	n/a	n/a	351.498	n/a
322.732	0.497	happy	Picture	24.667	n/a	3	9	10	n/a	50	83	3	n/a	n/a	n/a	n/a	352.028	BF04ANS.jpg
323.23	0.514	Blank	Blank	24.154	n/a	3	9	10	n/a	50	n/a	3	n/a	n/a	n/a	n/a	352.526	n/a
323.76	0.497	happy	Picture	23.64	n/a	3	9	11	n/a	51	90	3	n/a	n/a	n/a	n/a	353.056	AF18ANS.jpg
324.257	0.514	Blank	Blank	23.126	n/a	3	9	11	n/a	51	n/a	3	n/a	n/a	n/a	n/a	353.553	n/a
324.788	0.497	happy	Picture	22.612	n/a	3	9	12	n/a	52	117	3	n/a	n/a	n/a	n/a	354.084	BM25ANS.jpg
325.285	0.514	Blank	Blank	22.098	n/a	3	9	12	n/a	52	n/a	3	n/a	n/a	n/a	n/a	354.581	n/a
325.816	0.497	happy	Picture	21.584	n/a	3	9	13	n/a	53	94	3	n/a	n/a	n/a	n/a	355.112	AF23ANS.jpg
326.313	0.514	Blank	Blank	21.07	n/a	3	9	13	n/a	53	n/a	3	n/a	n/a	n/a	n/a	355.609	n/a
326.844	0.497	happy	Picture	20.556	n/a	3	9	14	n/a	54	106	3	n/a	n/a	n/a	n/a	356.14	AM07ANS.jpg
327.341	0.514	Blank	Blank	20.042	n/a	3	9	14	n/a	54	n/a	3	n/a	n/a	n/a	n/a	356.637	n/a
327.872	0.497	happy	Picture	19.528	n/a	3	9	15	n/a	55	105	3	n/a	n/a	n/a	n/a	357.168	BM06ANS.jpg
328.369	0.514	Blank	Blank	19.014	n/a	3	9	15	n/a	55	n/a	3	n/a	n/a	n/a	n/a	357.665	n/a
328.899	0.497	happy	Picture	18.5	n/a	3	9	16	n/a	56	116	3	n/a	n/a	n/a	n/a	358.195	BM24ANS.jpg
329.397	0.514	Blank	Blank	17.986	n/a	3	9	16	n/a	56	n/a	3	n/a	n/a	n/a	n/a	358.693	n/a
329.927	0.497	happy	Picture	17.472	n/a	3	9	17	n/a	57	89	3	n/a	n/a	n/a	n/a	359.223	AF17ANS.jpg
330.425	0.514	Blank	Blank	16.958	n/a	3	9	17	n/a	57	n/a	3	n/a	n/a	n/a	n/a	359.721	n/a
330.955	0.497	happy	Picture	16.445	n/a	3	9	18	n/a	58	118	3	n/a	n/a	n/a	n/a	360.251	BM26ANS.jpg
331.452	0.514	Blank	Blank	15.93	n/a	3	9	18	n/a	58	n/a	3	n/a	n/a	n/a	n/a	360.748	n/a
331.983	0.497	happy	Picture	15.417	n/a	3	9	19	n/a	59	100	3	n/a	n/a	n/a	n/a	361.279	AF32ANS.jpg
332.48	0.514	Blank	Blank	14.903	n/a	3	9	19	n/a	59	n/a	3	n/a	n/a	n/a	n/a	361.776	n/a
333.011	0.497	happy	Picture	14.389	n/a	3	9	20	n/a	60	119	3	n/a	n/a	n/a	n/a	362.307	BM28ANS.jpg
333.508	0.514	Blank	Blank	13.875	n/a	3	9	20	n/a	60	n/a	3	n/a	n/a	n/a	n/a	362.804	n/a
334.039	10.014	ITI	Fixation+	3.845	n/a	3	n/a	n/a	n/a	n/a	n/a	n/a	n/a	n/a	n/a	n/a	363.335	n/a
347.897	n/a	ConfirmRating	Rate	n/a	3.829	3	n/a	n/a	0	n/a	n/a	n/a	2	Happy	69	51	377.193	n/a
350.165	n/a	ConfirmRating	Rate	n/a	2.255	3	n/a	n/a	1	n/a	n/a	n/a	3	Happy	5	49	379.461	n/a
350.187	10.014	ITI	Fixation+	103.212	n/a	4	n/a	n/a	n/a	n/a	n/a	n/a	n/a	n/a	n/a	n/a	379.483	n/a
360.217	0.497	angry	Picture	102.698	n/a	4	10	1	n/a	61	79	2	n/a	n/a	n/a	n/a	389.513	BM28HAS.jpg
360.714	0.514	Blank	Blank	102.184	n/a	4	10	1	n/a	61	n/a	2	n/a	n/a	n/a	n/a	390.01	n/a
361.245	0.497	angry	Picture	101.67	n/a	4	10	2	n/a	62	61	2	n/a	n/a	n/a	n/a	390.541	AM01HAS.jpg
361.742	0.514	Blank	Blank	101.156	n/a	4	10	2	n/a	62	n/a	2	n/a	n/a	n/a	n/a	391.038	n/a
362.272	0.497	angry	Picture	100.642	n/a	4	10	3	n/a	63	57	2	n/a	n/a	n/a	n/a	391.568	BF28HAS.jpg
362.77	0.514	Blank	Blank	100.129	n/a	4	10	3	n/a	63	n/a	2	n/a	n/a	n/a	n/a	392.066	n/a
363.3	0.497	angry	Picture	99.615	n/a	4	10	4	n/a	64	77	2	n/a	n/a	n/a	n/a	392.596	BM25HAS.jpg
363.798	0.514	Blank	Blank	99.101	n/a	4	10	4	n/a	64	n/a	2	n/a	n/a	n/a	n/a	393.094	n/a
364.328	0.497	angry	Picture	98.587	n/a	4	10	5	n/a	65	47	2	n/a	n/a	n/a	n/a	393.624	BF11HAS.jpg
364.826	0.514	Blank	Blank	98.073	n/a	4	10	5	n/a	65	n/a	2	n/a	n/a	n/a	n/a	394.122	n/a
365.356	0.497	angry	Picture	97.559	n/a	4	10	6	n/a	66	50	2	n/a	n/a	n/a	n/a	394.652	AF18HAS.jpg
365.853	0.514	Blank	Blank	97.045	n/a	4	10	6	n/a	66	n/a	2	n/a	n/a	n/a	n/a	395.149	n/a
366.384	0.497	angry	Picture	96.531	n/a	4	10	7	n/a	67	78	2	n/a	n/a	n/a	n/a	395.68	BM26HAS.jpg
366.881	0.514	Blank	Blank	96.017	n/a	4	10	7	n/a	67	n/a	2	n/a	n/a	n/a	n/a	396.177	n/a
367.412	0.497	angry	Picture	95.503	n/a	4	10	8	n/a	68	45	2	n/a	n/a	n/a	n/a	396.708	BF07HAS.jpg
367.909	0.514	Blank	Blank	94.989	n/a	4	10	8	n/a	68	n/a	2	n/a	n/a	n/a	n/a	397.205	n/a
368.44	0.497	angry	Picture	94.475	n/a	4	10	9	n/a	69	56	2	n/a	n/a	n/a	n/a	397.736	AF26HAS.jpg
368.937	0.514	Blank	Blank	93.961	n/a	4	10	9	n/a	69	n/a	2	n/a	n/a	n/a	n/a	398.233	n/a
369.468	0.497	angry	Picture	93.447	n/a	4	10	10	n/a	70	65	2	n/a	n/a	n/a	n/a	398.764	BM06HAS.jpg
369.965	0.514	Blank	Blank	92.933	n/a	4	10	10	n/a	70	n/a	2	n/a	n/a	n/a	n/a	399.261	n/a
370.495	0.497	angry	Picture	92.419	n/a	4	10	11	n/a	71	73	2	n/a	n/a	n/a	n/a	399.791	AM21HAS.jpg
370.993	0.514	Blank	Blank	91.906	n/a	4	10	11	n/a	71	n/a	2	n/a	n/a	n/a	n/a	400.289	n/a
371.523	0.497	angry	Picture	91.392	n/a	4	10	12	n/a	72	41	2	n/a	n/a	n/a	n/a	400.819	AF01HAS.jpg
372.021	0.514	Blank	Blank	90.878	n/a	4	10	12	n/a	72	n/a	2	n/a	n/a	n/a	n/a	401.317	n/a
372.551	0.497	angry	Picture	90.364	n/a	4	10	13	n/a	73	59	2	n/a	n/a	n/a	n/a	401.847	AF31HAS.jpg
373.049	0.514	Blank	Blank	89.85	n/a	4	10	13	n/a	73	n/a	2	n/a	n/a	n/a	n/a	402.345	n/a
373.579	0.497	angry	Picture	89.336	n/a	4	10	14	n/a	74	64	2	n/a	n/a	n/a	n/a	402.875	BM05HAS.jpg
374.077	0.514	Blank	Blank	88.822	n/a	4	10	14	n/a	74	n/a	2	n/a	n/a	n/a	n/a	403.373	n/a
374.607	0.497	angry	Picture	88.308	n/a	4	10	15	n/a	75	68	2	n/a	n/a	n/a	n/a	403.903	AM09HAS.jpg
375.104	0.514	Blank	Blank	87.794	n/a	4	10	15	n/a	75	n/a	2	n/a	n/a	n/a	n/a	404.4	n/a
375.635	0.497	angry	Picture	87.28	n/a	4	10	16	n/a	76	54	2	n/a	n/a	n/a	n/a	404.931	AF23HAS.jpg
376.132	0.514	Blank	Blank	86.766	n/a	4	10	16	n/a	76	n/a	2	n/a	n/a	n/a	n/a	405.428	n/a
376.663	0.497	angry	Picture	86.252	n/a	4	10	17	n/a	77	53	2	n/a	n/a	n/a	n/a	405.959	BF22HAS.jpg
377.16	0.514	Blank	Blank	85.738	n/a	4	10	17	n/a	77	n/a	2	n/a	n/a	n/a	n/a	406.456	n/a
377.691	0.497	angry	Picture	85.224	n/a	4	10	18	n/a	78	44	2	n/a	n/a	n/a	n/a	406.987	AF05HAS.jpg
378.188	0.514	Blank	Blank	84.71	n/a	4	10	18	n/a	78	n/a	2	n/a	n/a	n/a	n/a	407.484	n/a
378.719	0.497	angry	Picture	84.196	n/a	4	10	19	n/a	79	52	2	n/a	n/a	n/a	n/a	408.015	AF21HAS.jpg
379.216	0.514	Blank	Blank	83.682	n/a	4	10	19	n/a	79	n/a	2	n/a	n/a	n/a	n/a	408.512	n/a
379.747	0.497	angry	Picture	83.168	n/a	4	10	20	n/a	80	62	2	n/a	n/a	n/a	n/a	409.043	BM03HAS.jpg
380.244	0.514	Blank	Blank	82.654	n/a	4	10	20	n/a	80	n/a	2	n/a	n/a	n/a	n/a	409.54	n/a
380.774	10.014	ITI	Fixation+	72.624	n/a	4	n/a	n/a	n/a	n/a	n/a	n/a	n/a	n/a	n/a	n/a	410.07	n/a
390.805	0.497	neutral	Picture	72.111	n/a	4	11	1	n/a	81	23	1	n/a	n/a	n/a	n/a	420.101	AM04NES.jpg
391.302	0.514	Blank	Blank	71.596	n/a	4	11	1	n/a	81	n/a	1	n/a	n/a	n/a	n/a	420.598	n/a
391.832	0.497	neutral	Picture	71.083	n/a	4	11	2	n/a	82	29	1	n/a	n/a	n/a	n/a	421.128	AM10NES.jpg
392.33	0.514	Blank	Blank	70.569	n/a	4	11	2	n/a	82	n/a	1	n/a	n/a	n/a	n/a	421.626	n/a
392.86	0.497	neutral	Picture	70.055	n/a	4	11	3	n/a	83	24	1	n/a	n/a	n/a	n/a	422.156	BM05NES.jpg
393.358	0.514	Blank	Blank	69.541	n/a	4	11	3	n/a	83	n/a	1	n/a	n/a	n/a	n/a	422.654	n/a
393.888	0.497	neutral	Picture	69.027	n/a	4	11	4	n/a	84	12	1	n/a	n/a	n/a	n/a	423.184	AF21NES.jpg
394.386	0.514	Blank	Blank	68.513	n/a	4	11	4	n/a	84	n/a	1	n/a	n/a	n/a	n/a	423.682	n/a
394.916	0.497	neutral	Picture	67.999	n/a	4	11	5	n/a	85	13	1	n/a	n/a	n/a	n/a	424.212	BF22NES.jpg
395.413	0.514	Blank	Blank	67.485	n/a	4	11	5	n/a	85	n/a	1	n/a	n/a	n/a	n/a	424.709	n/a
395.944	0.497	neutral	Picture	66.971	n/a	4	11	6	n/a	86	17	1	n/a	n/a	n/a	n/a	425.24	BF28NES.jpg
396.441	0.514	Blank	Blank	66.457	n/a	4	11	6	n/a	86	n/a	1	n/a	n/a	n/a	n/a	425.737	n/a
396.972	0.497	neutral	Picture	65.943	n/a	4	11	7	n/a	87	4	1	n/a	n/a	n/a	n/a	426.268	AF05NES.jpg
397.469	0.514	Blank	Blank	65.429	n/a	4	11	7	n/a	87	n/a	1	n/a	n/a	n/a	n/a	426.765	n/a
398.0	0.497	neutral	Picture	64.915	n/a	4	11	8	n/a	88	11	1	n/a	n/a	n/a	n/a	427.296	AF20NES.jpg
398.497	0.514	Blank	Blank	64.401	n/a	4	11	8	n/a	88	n/a	1	n/a	n/a	n/a	n/a	427.793	n/a
399.028	0.497	neutral	Picture	63.887	n/a	4	11	9	n/a	89	22	1	n/a	n/a	n/a	n/a	428.324	BM03NES.jpg
399.525	0.514	Blank	Blank	63.373	n/a	4	11	9	n/a	89	n/a	1	n/a	n/a	n/a	n/a	428.821	n/a
400.055	0.497	neutral	Picture	62.859	n/a	4	11	10	n/a	90	15	1	n/a	n/a	n/a	n/a	429.351	AF25NES.jpg
400.553	0.514	Blank	Blank	62.346	n/a	4	11	10	n/a	90	n/a	1	n/a	n/a	n/a	n/a	429.849	n/a
401.083	0.497	neutral	Picture	61.832	n/a	4	11	11	n/a	91	19	1	n/a	n/a	n/a	n/a	430.379	AF31NES.jpg
401.581	0.514	Blank	Blank	61.318	n/a	4	11	11	n/a	91	n/a	1	n/a	n/a	n/a	n/a	430.877	n/a
402.111	0.497	neutral	Picture	60.804	n/a	4	11	12	n/a	92	9	1	n/a	n/a	n/a	n/a	431.407	AF17NES.jpg
402.609	0.514	Blank	Blank	60.29	n/a	4	11	12	n/a	92	n/a	1	n/a	n/a	n/a	n/a	431.905	n/a
403.139	0.497	neutral	Picture	59.776	n/a	4	11	13	n/a	93	14	1	n/a	n/a	n/a	n/a	432.435	AF23NES.jpg
403.636	0.514	Blank	Blank	59.262	n/a	4	11	13	n/a	93	n/a	1	n/a	n/a	n/a	n/a	432.932	n/a
404.167	0.497	neutral	Picture	58.748	n/a	4	11	14	n/a	94	36	1	n/a	n/a	n/a	n/a	433.463	BM24NES.jpg
404.664	0.514	Blank	Blank	58.234	n/a	4	11	14	n/a	94	n/a	1	n/a	n/a	n/a	n/a	433.96	n/a
405.195	0.497	neutral	Picture	57.72	n/a	4	11	15	n/a	95	34	1	n/a	n/a	n/a	n/a	434.491	AM22NES.jpg
405.692	0.514	Blank	Blank	57.206	n/a	4	11	15	n/a	95	n/a	1	n/a	n/a	n/a	n/a	434.988	n/a
406.223	0.497	neutral	Picture	56.692	n/a	4	11	16	n/a	96	10	1	n/a	n/a	n/a	n/a	435.519	AF18NES.jpg
406.72	0.514	Blank	Blank	56.178	n/a	4	11	16	n/a	96	n/a	1	n/a	n/a	n/a	n/a	436.016	n/a
407.251	0.497	neutral	Picture	55.664	n/a	4	11	17	n/a	97	5	1	n/a	n/a	n/a	n/a	436.547	BF07NES.jpg
407.748	0.514	Blank	Blank	55.15	n/a	4	11	17	n/a	97	n/a	1	n/a	n/a	n/a	n/a	437.044	n/a
408.279	0.497	neutral	Picture	54.636	n/a	4	11	18	n/a	98	25	1	n/a	n/a	n/a	n/a	437.575	BM06NES.jpg
408.776	0.514	Blank	Blank	54.123	n/a	4	11	18	n/a	98	n/a	1	n/a	n/a	n/a	n/a	438.072	n/a
409.306	0.497	neutral	Picture	53.609	n/a	4	11	19	n/a	99	39	1	n/a	n/a	n/a	n/a	438.602	AM28NES.jpg
409.804	0.514	Blank	Blank	53.095	n/a	4	11	19	n/a	99	n/a	1	n/a	n/a	n/a	n/a	439.1	n/a
410.334	0.497	neutral	Picture	52.581	n/a	4	11	20	n/a	100	33	1	n/a	n/a	n/a	n/a	439.63	AM21NES.jpg
410.832	0.514	Blank	Blank	52.067	n/a	4	11	20	n/a	100	n/a	1	n/a	n/a	n/a	n/a	440.128	n/a
411.362	10.014	ITI	Fixation+	42.037	n/a	4	n/a	n/a	n/a	n/a	n/a	n/a	n/a	n/a	n/a	n/a	440.658	n/a
421.392	0.497	angry	Picture	41.523	n/a	4	12	1	n/a	101	74	2	n/a	n/a	n/a	n/a	450.688	AM22HAS.jpg
421.89	0.514	Blank	Blank	41.009	n/a	4	12	1	n/a	101	n/a	2	n/a	n/a	n/a	n/a	451.186	n/a
422.42	0.497	angry	Picture	40.495	n/a	4	12	2	n/a	102	76	2	n/a	n/a	n/a	n/a	451.716	BM24HAS.jpg
422.918	0.514	Blank	Blank	39.981	n/a	4	12	2	n/a	102	n/a	2	n/a	n/a	n/a	n/a	452.214	n/a
423.448	0.497	angry	Picture	39.467	n/a	4	12	3	n/a	103	80	2	n/a	n/a	n/a	n/a	452.744	BM35HAS.jpg
423.945	0.514	Blank	Blank	38.953	n/a	4	12	3	n/a	103	n/a	2	n/a	n/a	n/a	n/a	453.241	n/a
424.476	0.497	angry	Picture	38.439	n/a	4	12	4	n/a	104	75	2	n/a	n/a	n/a	n/a	453.772	AM23HAS.jpg
424.973	0.514	Blank	Blank	37.925	n/a	4	12	4	n/a	104	n/a	2	n/a	n/a	n/a	n/a	454.269	n/a
425.504	0.497	angry	Picture	37.411	n/a	4	12	5	n/a	105	49	2	n/a	n/a	n/a	n/a	454.8	AF17HAS.jpg
426.001	0.514	Blank	Blank	36.897	n/a	4	12	5	n/a	105	n/a	2	n/a	n/a	n/a	n/a	455.297	n/a
426.532	0.497	angry	Picture	36.383	n/a	4	12	6	n/a	106	43	2	n/a	n/a	n/a	n/a	455.828	BF04HAS.jpg
427.029	0.514	Blank	Blank	35.869	n/a	4	12	6	n/a	106	n/a	2	n/a	n/a	n/a	n/a	456.325	n/a
427.56	0.497	angry	Picture	35.355	n/a	4	12	7	n/a	107	70	2	n/a	n/a	n/a	n/a	456.856	BM11HAS.jpg
428.057	0.514	Blank	Blank	34.841	n/a	4	12	7	n/a	107	n/a	2	n/a	n/a	n/a	n/a	457.353	n/a
428.588	0.497	angry	Picture	34.327	n/a	4	12	8	n/a	108	66	2	n/a	n/a	n/a	n/a	457.884	BM07HAS.jpg
429.085	0.514	Blank	Blank	33.813	n/a	4	12	8	n/a	108	n/a	2	n/a	n/a	n/a	n/a	458.381	n/a
429.615	0.497	angry	Picture	33.3	n/a	4	12	9	n/a	109	48	2	n/a	n/a	n/a	n/a	458.911	AF14HAS.jpg
430.113	0.514	Blank	Blank	32.786	n/a	4	12	9	n/a	109	n/a	2	n/a	n/a	n/a	n/a	459.409	n/a
430.643	0.497	angry	Picture	32.272	n/a	4	12	10	n/a	110	58	2	n/a	n/a	n/a	n/a	459.939	BF29HAS.jpg
431.141	0.514	Blank	Blank	31.758	n/a	4	12	10	n/a	110	n/a	2	n/a	n/a	n/a	n/a	460.437	n/a
431.671	0.497	angry	Picture	31.244	n/a	4	12	11	n/a	111	63	2	n/a	n/a	n/a	n/a	460.967	AM04HAS.jpg
432.168	0.514	Blank	Blank	30.73	n/a	4	12	11	n/a	111	n/a	2	n/a	n/a	n/a	n/a	461.464	n/a
432.699	0.497	angry	Picture	30.216	n/a	4	12	12	n/a	112	72	2	n/a	n/a	n/a	n/a	461.995	AM14HAS.jpg
433.196	0.514	Blank	Blank	29.702	n/a	4	12	12	n/a	112	n/a	2	n/a	n/a	n/a	n/a	462.492	n/a
433.727	0.497	angry	Picture	29.188	n/a	4	12	13	n/a	113	55	2	n/a	n/a	n/a	n/a	463.023	AF25HAS.jpg
434.224	0.514	Blank	Blank	28.674	n/a	4	12	13	n/a	113	n/a	2	n/a	n/a	n/a	n/a	463.52	n/a
434.755	0.497	angry	Picture	28.16	n/a	4	12	14	n/a	114	42	2	n/a	n/a	n/a	n/a	464.051	AF03HAS.jpg
435.252	0.514	Blank	Blank	27.646	n/a	4	12	14	n/a	114	n/a	2	n/a	n/a	n/a	n/a	464.548	n/a
435.783	0.497	angry	Picture	27.132	n/a	4	12	15	n/a	115	60	2	n/a	n/a	n/a	n/a	465.079	AF32HAS.jpg
436.28	0.514	Blank	Blank	26.618	n/a	4	12	15	n/a	115	n/a	2	n/a	n/a	n/a	n/a	465.576	n/a
436.81	0.497	angry	Picture	26.104	n/a	4	12	16	n/a	116	67	2	n/a	n/a	n/a	n/a	466.106	BM08HAS.jpg
437.308	0.514	Blank	Blank	25.59	n/a	4	12	16	n/a	116	n/a	2	n/a	n/a	n/a	n/a	466.604	n/a
437.838	0.497	angry	Picture	25.076	n/a	4	12	17	n/a	117	51	2	n/a	n/a	n/a	n/a	467.134	AF20HAS.jpg
438.336	0.514	Blank	Blank	24.563	n/a	4	12	17	n/a	117	n/a	2	n/a	n/a	n/a	n/a	467.632	n/a
438.866	0.497	angry	Picture	24.049	n/a	4	12	18	n/a	118	71	2	n/a	n/a	n/a	n/a	468.162	BM12HAS.jpg
439.364	0.514	Blank	Blank	23.535	n/a	4	12	18	n/a	118	n/a	2	n/a	n/a	n/a	n/a	468.66	n/a
439.894	0.497	angry	Picture	23.021	n/a	4	12	19	n/a	119	69	2	n/a	n/a	n/a	n/a	469.19	AM10HAS.jpg
440.392	0.514	Blank	Blank	22.507	n/a	4	12	19	n/a	119	n/a	2	n/a	n/a	n/a	n/a	469.688	n/a
440.922	0.497	angry	Picture	21.993	n/a	4	12	20	n/a	120	46	2	n/a	n/a	n/a	n/a	470.218	AF09HAS.jpg
441.419	0.514	Blank	Blank	21.479	n/a	4	12	20	n/a	120	n/a	2	n/a	n/a	n/a	n/a	470.715	n/a
441.95	10.014	ITI	Fixation+	11.449	n/a	4	n/a	n/a	n/a	n/a	n/a	n/a	n/a	n/a	n/a	n/a	471.246	n/a
463.412	n/a	ConfirmRating	Rate	n/a	11.439	4	n/a	n/a	0	n/a	n/a	n/a	2	Angry	67	50	492.708	n/a
466.923	n/a	ConfirmRating	Rate	n/a	3.498	4	n/a	n/a	1	n/a	n/a	n/a	3	Angry	9	49	496.219	n/a
