onset	duration	trial_type	event_type	time_until_response	response_time	trial_number	block_num_within_trial	image_seq_num_within_block	question_seq_num_within_block	image_seq_num	picture_number	condition	question_type	block_type	rating	rating_computed	onset_uncorrected	KDEV_imagefile
0.017	10.014	ITI	Fixation+	99.868	n/a	1	n/a	n/a	n/a	n/a	n/a	n/a	n/a	n/a	n/a	n/a	30.052	n/a
10.047	0.497	angry	Picture	99.354	n/a	1	1	1	n/a	1	108	3	n/a	n/a	n/a	n/a	40.082	AM09ANS.jpg
10.545	0.514	Blank	Blank	98.84	n/a	1	1	1	n/a	1	n/a	3	n/a	n/a	n/a	n/a	40.579	n/a
11.075	0.497	angry	Picture	98.326	n/a	1	1	2	n/a	2	99	3	n/a	n/a	n/a	n/a	41.11	AF31ANS.jpg
11.573	0.514	Blank	Blank	97.812	n/a	1	1	2	n/a	2	n/a	3	n/a	n/a	n/a	n/a	41.607	n/a
12.103	0.497	angry	Picture	97.298	n/a	1	1	3	n/a	3	98	3	n/a	n/a	n/a	n/a	42.138	BF29ANS.jpg
12.6	0.514	Blank	Blank	96.784	n/a	1	1	3	n/a	3	n/a	3	n/a	n/a	n/a	n/a	42.635	n/a
13.131	0.497	angry	Picture	96.27	n/a	1	1	4	n/a	4	107	3	n/a	n/a	n/a	n/a	43.166	BM08ANS.jpg
13.628	0.514	Blank	Blank	95.756	n/a	1	1	4	n/a	4	n/a	3	n/a	n/a	n/a	n/a	43.663	n/a
14.159	0.497	angry	Picture	95.242	n/a	1	1	5	n/a	5	104	3	n/a	n/a	n/a	n/a	44.193	BM05ANS.jpg
14.656	0.514	Blank	Blank	94.728	n/a	1	1	5	n/a	5	n/a	3	n/a	n/a	n/a	n/a	44.691	n/a
15.187	0.497	angry	Picture	94.215	n/a	1	1	6	n/a	6	101	3	n/a	n/a	n/a	n/a	45.221	AM01ANS.jpg
15.684	0.514	Blank	Blank	93.701	n/a	1	1	6	n/a	6	n/a	3	n/a	n/a	n/a	n/a	45.719	n/a
16.215	0.497	angry	Picture	93.187	n/a	1	1	7	n/a	7	103	3	n/a	n/a	n/a	n/a	46.249	AM04ANS.jpg
16.712	0.514	Blank	Blank	92.673	n/a	1	1	7	n/a	7	n/a	3	n/a	n/a	n/a	n/a	46.746	n/a
17.242	0.497	angry	Picture	92.159	n/a	1	1	8	n/a	8	111	3	n/a	n/a	n/a	n/a	47.277	BM12ANS.jpg
17.74	0.514	Blank	Blank	91.645	n/a	1	1	8	n/a	8	n/a	3	n/a	n/a	n/a	n/a	47.774	n/a
18.27	0.497	angry	Picture	91.131	n/a	1	1	9	n/a	9	110	3	n/a	n/a	n/a	n/a	48.305	AM11ANS.jpg
18.768	0.514	Blank	Blank	90.617	n/a	1	1	9	n/a	9	n/a	3	n/a	n/a	n/a	n/a	48.802	n/a
19.298	0.497	angry	Picture	90.103	n/a	1	1	10	n/a	10	85	3	n/a	n/a	n/a	n/a	49.333	BF07ANS.jpg
19.796	0.514	Blank	Blank	89.589	n/a	1	1	10	n/a	10	n/a	3	n/a	n/a	n/a	n/a	49.83	n/a
20.326	0.497	angry	Picture	89.075	n/a	1	1	11	n/a	11	87	3	n/a	n/a	n/a	n/a	50.361	BF11ANS.jpg
20.823	0.514	Blank	Blank	88.561	n/a	1	1	11	n/a	11	n/a	3	n/a	n/a	n/a	n/a	50.858	n/a
21.354	0.497	angry	Picture	88.047	n/a	1	1	12	n/a	12	91	3	n/a	n/a	n/a	n/a	51.389	AF20ANS.jpg
21.851	0.514	Blank	Blank	87.533	n/a	1	1	12	n/a	12	n/a	3	n/a	n/a	n/a	n/a	51.886	n/a
22.382	0.497	angry	Picture	87.019	n/a	1	1	13	n/a	13	115	3	n/a	n/a	n/a	n/a	52.416	AM23ANS.jpg
22.879	0.514	Blank	Blank	86.505	n/a	1	1	13	n/a	13	n/a	3	n/a	n/a	n/a	n/a	52.914	n/a
23.41	0.497	angry	Picture	85.991	n/a	1	1	14	n/a	14	97	3	n/a	n/a	n/a	n/a	53.444	BF28ANS.jpg
23.907	0.514	Blank	Blank	85.478	n/a	1	1	14	n/a	14	n/a	3	n/a	n/a	n/a	n/a	53.942	n/a
24.438	0.497	angry	Picture	84.964	n/a	1	1	15	n/a	15	82	3	n/a	n/a	n/a	n/a	54.472	AF03ANS.jpg
24.935	0.514	Blank	Blank	84.45	n/a	1	1	15	n/a	15	n/a	3	n/a	n/a	n/a	n/a	54.969	n/a
25.466	0.497	angry	Picture	83.936	n/a	1	1	16	n/a	16	96	3	n/a	n/a	n/a	n/a	55.5	AF26ANS.jpg
25.963	0.514	Blank	Blank	83.422	n/a	1	1	16	n/a	16	n/a	3	n/a	n/a	n/a	n/a	55.997	n/a
26.493	0.497	angry	Picture	82.908	n/a	1	1	17	n/a	17	109	3	n/a	n/a	n/a	n/a	56.528	AM10ANS.jpg
26.991	0.514	Blank	Blank	82.394	n/a	1	1	17	n/a	17	n/a	3	n/a	n/a	n/a	n/a	57.025	n/a
27.521	0.497	angry	Picture	81.88	n/a	1	1	18	n/a	18	114	3	n/a	n/a	n/a	n/a	57.556	AM22ANS.jpg
28.019	0.514	Blank	Blank	81.366	n/a	1	1	18	n/a	18	n/a	3	n/a	n/a	n/a	n/a	58.053	n/a
28.549	0.497	angry	Picture	80.852	n/a	1	1	19	n/a	19	120	3	n/a	n/a	n/a	n/a	58.584	AM35ANS.jpg
29.046	0.514	Blank	Blank	80.338	n/a	1	1	19	n/a	19	n/a	3	n/a	n/a	n/a	n/a	59.081	n/a
29.577	0.497	angry	Picture	79.824	n/a	1	1	20	n/a	20	81	3	n/a	n/a	n/a	n/a	59.612	AF01ANS.jpg
30.074	0.514	Blank	Blank	79.31	n/a	1	1	20	n/a	20	n/a	3	n/a	n/a	n/a	n/a	60.109	n/a
30.605	10.014	ITI	Fixation+	69.28	n/a	1	n/a	n/a	n/a	n/a	n/a	n/a	n/a	n/a	n/a	n/a	60.639	n/a
40.635	0.497	neutral	Picture	68.766	n/a	1	2	1	n/a	21	28	1	n/a	n/a	n/a	n/a	70.67	AM09NES.jpg
41.132	0.514	Blank	Blank	68.252	n/a	1	2	1	n/a	21	n/a	1	n/a	n/a	n/a	n/a	71.167	n/a
41.663	0.497	neutral	Picture	67.738	n/a	1	2	2	n/a	22	27	1	n/a	n/a	n/a	n/a	71.697	BM08NES.jpg
42.16	0.514	Blank	Blank	67.224	n/a	1	2	2	n/a	22	n/a	1	n/a	n/a	n/a	n/a	72.195	n/a
42.691	0.497	neutral	Picture	66.71	n/a	1	2	3	n/a	23	16	1	n/a	n/a	n/a	n/a	72.725	AF26NES.jpg
43.188	0.514	Blank	Blank	66.196	n/a	1	2	3	n/a	23	n/a	1	n/a	n/a	n/a	n/a	73.223	n/a
43.719	0.497	neutral	Picture	65.683	n/a	1	2	4	n/a	24	3	1	n/a	n/a	n/a	n/a	73.753	BF04NES.jpg
44.216	0.514	Blank	Blank	65.169	n/a	1	2	4	n/a	24	n/a	1	n/a	n/a	n/a	n/a	74.251	n/a
44.746	0.497	neutral	Picture	64.655	n/a	1	2	5	n/a	25	32	1	n/a	n/a	n/a	n/a	74.781	AM14NES.jpg
45.244	0.514	Blank	Blank	64.141	n/a	1	2	5	n/a	25	n/a	1	n/a	n/a	n/a	n/a	75.278	n/a
45.774	0.497	neutral	Picture	63.627	n/a	1	2	6	n/a	26	37	1	n/a	n/a	n/a	n/a	75.809	BM25NES.jpg
46.272	0.514	Blank	Blank	63.113	n/a	1	2	6	n/a	26	n/a	1	n/a	n/a	n/a	n/a	76.306	n/a
46.802	0.497	neutral	Picture	62.599	n/a	1	2	7	n/a	27	15	1	n/a	n/a	n/a	n/a	76.837	AF25NES.jpg
47.3	0.514	Blank	Blank	62.085	n/a	1	2	7	n/a	27	n/a	1	n/a	n/a	n/a	n/a	77.334	n/a
47.83	0.497	neutral	Picture	61.571	n/a	1	2	8	n/a	28	23	1	n/a	n/a	n/a	n/a	77.865	AM04NES.jpg
48.328	0.514	Blank	Blank	61.057	n/a	1	2	8	n/a	28	n/a	1	n/a	n/a	n/a	n/a	78.362	n/a
48.858	0.497	neutral	Picture	60.543	n/a	1	2	9	n/a	29	34	1	n/a	n/a	n/a	n/a	78.893	AM22NES.jpg
49.355	0.514	Blank	Blank	60.029	n/a	1	2	9	n/a	29	n/a	1	n/a	n/a	n/a	n/a	79.39	n/a
49.886	0.497	neutral	Picture	59.515	n/a	1	2	10	n/a	30	24	1	n/a	n/a	n/a	n/a	79.921	BM05NES.jpg
50.383	0.514	Blank	Blank	59.001	n/a	1	2	10	n/a	30	n/a	1	n/a	n/a	n/a	n/a	80.418	n/a
50.914	0.497	neutral	Picture	58.487	n/a	1	2	11	n/a	31	12	1	n/a	n/a	n/a	n/a	80.948	AF21NES.jpg
51.411	0.514	Blank	Blank	57.973	n/a	1	2	11	n/a	31	n/a	1	n/a	n/a	n/a	n/a	81.446	n/a
51.942	0.497	neutral	Picture	57.459	n/a	1	2	12	n/a	32	6	1	n/a	n/a	n/a	n/a	81.976	AF09NES.jpg
52.439	0.514	Blank	Blank	56.946	n/a	1	2	12	n/a	32	n/a	1	n/a	n/a	n/a	n/a	82.474	n/a
52.969	0.497	neutral	Picture	56.432	n/a	1	2	13	n/a	33	17	1	n/a	n/a	n/a	n/a	83.004	BF28NES.jpg
53.467	0.514	Blank	Blank	55.918	n/a	1	2	13	n/a	33	n/a	1	n/a	n/a	n/a	n/a	83.501	n/a
53.997	0.497	neutral	Picture	55.404	n/a	1	2	14	n/a	34	2	1	n/a	n/a	n/a	n/a	84.032	AF03NES.jpg
54.495	0.514	Blank	Blank	54.89	n/a	1	2	14	n/a	34	n/a	1	n/a	n/a	n/a	n/a	84.529	n/a
55.025	0.497	neutral	Picture	54.376	n/a	1	2	15	n/a	35	9	1	n/a	n/a	n/a	n/a	85.06	AF17NES.jpg
55.523	0.514	Blank	Blank	53.862	n/a	1	2	15	n/a	35	n/a	1	n/a	n/a	n/a	n/a	85.557	n/a
56.053	0.497	neutral	Picture	53.348	n/a	1	2	16	n/a	36	25	1	n/a	n/a	n/a	n/a	86.088	BM06NES.jpg
56.55	0.514	Blank	Blank	52.834	n/a	1	2	16	n/a	36	n/a	1	n/a	n/a	n/a	n/a	86.585	n/a
57.081	0.497	neutral	Picture	52.32	n/a	1	2	17	n/a	37	8	1	n/a	n/a	n/a	n/a	87.116	AF14NES.jpg
57.578	0.514	Blank	Blank	51.806	n/a	1	2	17	n/a	37	n/a	1	n/a	n/a	n/a	n/a	87.613	n/a
58.109	0.497	neutral	Picture	51.292	n/a	1	2	18	n/a	38	19	1	n/a	n/a	n/a	n/a	88.144	AF31NES.jpg
58.606	0.514	Blank	Blank	50.778	n/a	1	2	18	n/a	38	n/a	1	n/a	n/a	n/a	n/a	88.641	n/a
59.137	0.497	neutral	Picture	50.264	n/a	1	2	19	n/a	39	14	1	n/a	n/a	n/a	n/a	89.171	AF23NES.jpg
59.634	0.514	Blank	Blank	49.75	n/a	1	2	19	n/a	39	n/a	1	n/a	n/a	n/a	n/a	89.669	n/a
60.165	0.497	neutral	Picture	49.236	n/a	1	2	20	n/a	40	4	1	n/a	n/a	n/a	n/a	90.199	AF05NES.jpg
60.662	0.514	Blank	Blank	48.723	n/a	1	2	20	n/a	40	n/a	1	n/a	n/a	n/a	n/a	90.697	n/a
61.192	10.014	ITI	Fixation+	38.693	n/a	1	n/a	n/a	n/a	n/a	n/a	n/a	n/a	n/a	n/a	n/a	91.227	n/a
71.223	0.497	angry	Picture	38.178	n/a	1	3	1	n/a	41	84	3	n/a	n/a	n/a	n/a	101.257	AF05ANS.jpg
71.72	0.514	Blank	Blank	37.665	n/a	1	3	1	n/a	41	n/a	3	n/a	n/a	n/a	n/a	101.755	n/a
72.251	0.497	angry	Picture	37.151	n/a	1	3	2	n/a	42	92	3	n/a	n/a	n/a	n/a	102.285	AF21ANS.jpg
72.748	0.514	Blank	Blank	36.637	n/a	1	3	2	n/a	42	n/a	3	n/a	n/a	n/a	n/a	102.782	n/a
73.278	0.497	angry	Picture	36.123	n/a	1	3	3	n/a	43	86	3	n/a	n/a	n/a	n/a	103.313	AF09ANS.jpg
73.776	0.514	Blank	Blank	35.609	n/a	1	3	3	n/a	43	n/a	3	n/a	n/a	n/a	n/a	103.81	n/a
74.306	0.497	angry	Picture	35.095	n/a	1	3	4	n/a	44	93	3	n/a	n/a	n/a	n/a	104.341	BF22ANS.jpg
74.804	0.514	Blank	Blank	34.581	n/a	1	3	4	n/a	44	n/a	3	n/a	n/a	n/a	n/a	104.838	n/a
75.334	0.497	angry	Picture	34.067	n/a	1	3	5	n/a	45	88	3	n/a	n/a	n/a	n/a	105.369	AF14ANS.jpg
75.832	0.514	Blank	Blank	33.553	n/a	1	3	5	n/a	45	n/a	3	n/a	n/a	n/a	n/a	105.866	n/a
76.362	0.497	angry	Picture	33.039	n/a	1	3	6	n/a	46	113	3	n/a	n/a	n/a	n/a	106.397	AM21ANS.jpg
76.859	0.514	Blank	Blank	32.525	n/a	1	3	6	n/a	46	n/a	3	n/a	n/a	n/a	n/a	106.894	n/a
77.39	0.497	angry	Picture	32.011	n/a	1	3	7	n/a	47	95	3	n/a	n/a	n/a	n/a	107.424	AF25ANS.jpg
77.887	0.514	Blank	Blank	31.497	n/a	1	3	7	n/a	47	n/a	3	n/a	n/a	n/a	n/a	107.922	n/a
78.418	0.497	angry	Picture	30.983	n/a	1	3	8	n/a	48	102	3	n/a	n/a	n/a	n/a	108.452	BM03ANS.jpg
78.915	0.514	Blank	Blank	30.469	n/a	1	3	8	n/a	48	n/a	3	n/a	n/a	n/a	n/a	108.95	n/a
79.446	0.497	angry	Picture	29.956	n/a	1	3	9	n/a	49	112	3	n/a	n/a	n/a	n/a	109.48	AM14ANS.jpg
79.943	0.514	Blank	Blank	29.442	n/a	1	3	9	n/a	49	n/a	3	n/a	n/a	n/a	n/a	109.978	n/a
80.474	0.497	angry	Picture	28.928	n/a	1	3	10	n/a	50	83	3	n/a	n/a	n/a	n/a	110.508	BF04ANS.jpg
80.971	0.514	Blank	Blank	28.414	n/a	1	3	10	n/a	50	n/a	3	n/a	n/a	n/a	n/a	111.005	n/a
81.501	0.497	angry	Picture	27.9	n/a	1	3	11	n/a	51	90	3	n/a	n/a	n/a	n/a	111.536	AF18ANS.jpg
81.999	0.514	Blank	Blank	27.386	n/a	1	3	11	n/a	51	n/a	3	n/a	n/a	n/a	n/a	112.033	n/a
82.529	0.497	angry	Picture	26.872	n/a	1	3	12	n/a	52	117	3	n/a	n/a	n/a	n/a	112.564	BM25ANS.jpg
83.027	0.514	Blank	Blank	26.358	n/a	1	3	12	n/a	52	n/a	3	n/a	n/a	n/a	n/a	113.061	n/a
83.557	0.497	angry	Picture	25.844	n/a	1	3	13	n/a	53	94	3	n/a	n/a	n/a	n/a	113.592	AF23ANS.jpg
84.055	0.514	Blank	Blank	25.33	n/a	1	3	13	n/a	53	n/a	3	n/a	n/a	n/a	n/a	114.089	n/a
84.585	0.497	angry	Picture	24.816	n/a	1	3	14	n/a	54	106	3	n/a	n/a	n/a	n/a	114.62	AM07ANS.jpg
85.082	0.514	Blank	Blank	24.302	n/a	1	3	14	n/a	54	n/a	3	n/a	n/a	n/a	n/a	115.117	n/a
85.613	0.497	angry	Picture	23.788	n/a	1	3	15	n/a	55	105	3	n/a	n/a	n/a	n/a	115.647	BM06ANS.jpg
86.11	0.514	Blank	Blank	23.274	n/a	1	3	15	n/a	55	n/a	3	n/a	n/a	n/a	n/a	116.145	n/a
86.641	0.497	angry	Picture	22.76	n/a	1	3	16	n/a	56	116	3	n/a	n/a	n/a	n/a	116.675	BM24ANS.jpg
87.138	0.514	Blank	Blank	22.246	n/a	1	3	16	n/a	56	n/a	3	n/a	n/a	n/a	n/a	117.173	n/a
87.669	0.497	angry	Picture	21.733	n/a	1	3	17	n/a	57	89	3	n/a	n/a	n/a	n/a	117.703	AF17ANS.jpg
88.166	0.514	Blank	Blank	21.219	n/a	1	3	17	n/a	57	n/a	3	n/a	n/a	n/a	n/a	118.201	n/a
88.697	0.497	angry	Picture	20.705	n/a	1	3	18	n/a	58	118	3	n/a	n/a	n/a	n/a	118.731	BM26ANS.jpg
89.194	0.514	Blank	Blank	20.191	n/a	1	3	18	n/a	58	n/a	3	n/a	n/a	n/a	n/a	119.228	n/a
89.724	0.497	angry	Picture	19.677	n/a	1	3	19	n/a	59	100	3	n/a	n/a	n/a	n/a	119.759	AF32ANS.jpg
90.222	0.514	Blank	Blank	19.163	n/a	1	3	19	n/a	59	n/a	3	n/a	n/a	n/a	n/a	120.256	n/a
90.752	0.497	angry	Picture	18.649	n/a	1	3	20	n/a	60	119	3	n/a	n/a	n/a	n/a	120.787	BM28ANS.jpg
91.25	0.514	Blank	Blank	18.135	n/a	1	3	20	n/a	60	n/a	3	n/a	n/a	n/a	n/a	121.284	n/a
91.78	10.014	ITI	Fixation+	8.105	n/a	1	n/a	n/a	n/a	n/a	n/a	n/a	n/a	n/a	n/a	n/a	121.815	n/a
109.898	n/a	ConfirmRating	Rate	n/a	8.091	1	n/a	n/a	0	n/a	n/a	n/a	2	Angry	3	47	139.933	n/a
116.669	n/a	ConfirmRating	Rate	n/a	6.765	1	n/a	n/a	1	n/a	n/a	n/a	3	Angry	96	52	146.704	n/a
116.698	10.014	ITI	Fixation+	98.111	n/a	2	n/a	n/a	n/a	n/a	n/a	n/a	n/a	n/a	n/a	n/a	146.732	n/a
126.728	0.497	happy	Picture	97.597	n/a	2	4	1	n/a	61	79	2	n/a	n/a	n/a	n/a	156.763	BM28HAS.jpg
127.225	0.514	Blank	Blank	97.083	n/a	2	4	1	n/a	61	n/a	2	n/a	n/a	n/a	n/a	157.26	n/a
127.756	0.497	happy	Picture	96.569	n/a	2	4	2	n/a	62	61	2	n/a	n/a	n/a	n/a	157.791	AM01HAS.jpg
128.253	0.514	Blank	Blank	96.055	n/a	2	4	2	n/a	62	n/a	2	n/a	n/a	n/a	n/a	158.288	n/a
128.784	0.497	happy	Picture	95.541	n/a	2	4	3	n/a	63	57	2	n/a	n/a	n/a	n/a	158.818	BF28HAS.jpg
129.281	0.514	Blank	Blank	95.027	n/a	2	4	3	n/a	63	n/a	2	n/a	n/a	n/a	n/a	159.316	n/a
129.812	0.497	happy	Picture	94.513	n/a	2	4	4	n/a	64	77	2	n/a	n/a	n/a	n/a	159.846	BM25HAS.jpg
130.309	0.514	Blank	Blank	93.999	n/a	2	4	4	n/a	64	n/a	2	n/a	n/a	n/a	n/a	160.344	n/a
130.839	0.497	happy	Picture	93.485	n/a	2	4	5	n/a	65	47	2	n/a	n/a	n/a	n/a	160.874	BF11HAS.jpg
131.337	0.514	Blank	Blank	92.971	n/a	2	4	5	n/a	65	n/a	2	n/a	n/a	n/a	n/a	161.371	n/a
131.867	0.497	happy	Picture	92.457	n/a	2	4	6	n/a	66	50	2	n/a	n/a	n/a	n/a	161.902	AF18HAS.jpg
132.365	0.514	Blank	Blank	91.943	n/a	2	4	6	n/a	66	n/a	2	n/a	n/a	n/a	n/a	162.399	n/a
132.895	0.497	happy	Picture	91.429	n/a	2	4	7	n/a	67	78	2	n/a	n/a	n/a	n/a	162.93	BM26HAS.jpg
133.393	0.514	Blank	Blank	90.915	n/a	2	4	7	n/a	67	n/a	2	n/a	n/a	n/a	n/a	163.427	n/a
133.923	0.497	happy	Picture	90.401	n/a	2	4	8	n/a	68	45	2	n/a	n/a	n/a	n/a	163.958	BF07HAS.jpg
134.42	0.514	Blank	Blank	89.887	n/a	2	4	8	n/a	68	n/a	2	n/a	n/a	n/a	n/a	164.455	n/a
134.951	0.497	happy	Picture	89.374	n/a	2	4	9	n/a	69	56	2	n/a	n/a	n/a	n/a	164.986	AF26HAS.jpg
135.448	0.514	Blank	Blank	88.86	n/a	2	4	9	n/a	69	n/a	2	n/a	n/a	n/a	n/a	165.483	n/a
135.979	0.497	happy	Picture	88.346	n/a	2	4	10	n/a	70	65	2	n/a	n/a	n/a	n/a	166.013	BM06HAS.jpg
136.476	0.514	Blank	Blank	87.832	n/a	2	4	10	n/a	70	n/a	2	n/a	n/a	n/a	n/a	166.511	n/a
137.007	0.497	happy	Picture	87.318	n/a	2	4	11	n/a	71	73	2	n/a	n/a	n/a	n/a	167.041	AM21HAS.jpg
137.504	0.514	Blank	Blank	86.804	n/a	2	4	11	n/a	71	n/a	2	n/a	n/a	n/a	n/a	167.539	n/a
138.035	0.497	happy	Picture	86.29	n/a	2	4	12	n/a	72	41	2	n/a	n/a	n/a	n/a	168.069	AF01HAS.jpg
138.532	0.514	Blank	Blank	85.776	n/a	2	4	12	n/a	72	n/a	2	n/a	n/a	n/a	n/a	168.567	n/a
139.063	0.497	happy	Picture	85.262	n/a	2	4	13	n/a	73	59	2	n/a	n/a	n/a	n/a	169.097	AF31HAS.jpg
139.56	0.514	Blank	Blank	84.748	n/a	2	4	13	n/a	73	n/a	2	n/a	n/a	n/a	n/a	169.595	n/a
140.09	0.497	happy	Picture	84.234	n/a	2	4	14	n/a	74	64	2	n/a	n/a	n/a	n/a	170.125	BM05HAS.jpg
140.588	0.514	Blank	Blank	83.72	n/a	2	4	14	n/a	74	n/a	2	n/a	n/a	n/a	n/a	170.622	n/a
141.118	0.497	happy	Picture	83.206	n/a	2	4	15	n/a	75	68	2	n/a	n/a	n/a	n/a	171.153	AM09HAS.jpg
141.616	0.514	Blank	Blank	82.692	n/a	2	4	15	n/a	75	n/a	2	n/a	n/a	n/a	n/a	171.65	n/a
142.146	0.497	happy	Picture	82.178	n/a	2	4	16	n/a	76	54	2	n/a	n/a	n/a	n/a	172.181	AF23HAS.jpg
142.643	0.514	Blank	Blank	81.664	n/a	2	4	16	n/a	76	n/a	2	n/a	n/a	n/a	n/a	172.678	n/a
143.174	0.497	happy	Picture	81.151	n/a	2	4	17	n/a	77	53	2	n/a	n/a	n/a	n/a	173.209	BF22HAS.jpg
143.671	0.514	Blank	Blank	80.637	n/a	2	4	17	n/a	77	n/a	2	n/a	n/a	n/a	n/a	173.706	n/a
144.202	0.497	happy	Picture	80.123	n/a	2	4	18	n/a	78	44	2	n/a	n/a	n/a	n/a	174.237	AF05HAS.jpg
144.699	0.514	Blank	Blank	79.609	n/a	2	4	18	n/a	78	n/a	2	n/a	n/a	n/a	n/a	174.734	n/a
145.23	0.497	happy	Picture	79.095	n/a	2	4	19	n/a	79	52	2	n/a	n/a	n/a	n/a	175.264	AF21HAS.jpg
145.727	0.514	Blank	Blank	78.581	n/a	2	4	19	n/a	79	n/a	2	n/a	n/a	n/a	n/a	175.762	n/a
146.258	0.497	happy	Picture	78.067	n/a	2	4	20	n/a	80	62	2	n/a	n/a	n/a	n/a	176.292	BM03HAS.jpg
146.755	0.514	Blank	Blank	77.553	n/a	2	4	20	n/a	80	n/a	2	n/a	n/a	n/a	n/a	176.79	n/a
147.286	10.014	ITI	Fixation+	67.523	n/a	2	n/a	n/a	n/a	n/a	n/a	n/a	n/a	n/a	n/a	n/a	177.32	n/a
157.316	0.497	neutral	Picture	67.009	n/a	2	5	1	n/a	81	23	1	n/a	n/a	n/a	n/a	187.35	AM04NES.jpg
157.813	0.514	Blank	Blank	66.495	n/a	2	5	1	n/a	81	n/a	1	n/a	n/a	n/a	n/a	187.848	n/a
158.344	0.497	neutral	Picture	65.981	n/a	2	5	2	n/a	82	29	1	n/a	n/a	n/a	n/a	188.378	AM10NES.jpg
158.841	0.514	Blank	Blank	65.467	n/a	2	5	2	n/a	82	n/a	1	n/a	n/a	n/a	n/a	188.875	n/a
159.371	0.497	neutral	Picture	64.953	n/a	2	5	3	n/a	83	24	1	n/a	n/a	n/a	n/a	189.406	BM05NES.jpg
159.869	0.514	Blank	Blank	64.439	n/a	2	5	3	n/a	83	n/a	1	n/a	n/a	n/a	n/a	189.903	n/a
160.399	0.497	neutral	Picture	63.925	n/a	2	5	4	n/a	84	12	1	n/a	n/a	n/a	n/a	190.434	AF21NES.jpg
160.897	0.514	Blank	Blank	63.411	n/a	2	5	4	n/a	84	n/a	1	n/a	n/a	n/a	n/a	190.931	n/a
161.427	0.497	neutral	Picture	62.897	n/a	2	5	5	n/a	85	13	1	n/a	n/a	n/a	n/a	191.462	BF22NES.jpg
161.924	0.514	Blank	Blank	62.383	n/a	2	5	5	n/a	85	n/a	1	n/a	n/a	n/a	n/a	191.959	n/a
162.455	0.497	neutral	Picture	61.87	n/a	2	5	6	n/a	86	17	1	n/a	n/a	n/a	n/a	192.49	BF28NES.jpg
162.952	0.514	Blank	Blank	61.356	n/a	2	5	6	n/a	86	n/a	1	n/a	n/a	n/a	n/a	192.987	n/a
163.483	0.497	neutral	Picture	60.842	n/a	2	5	7	n/a	87	4	1	n/a	n/a	n/a	n/a	193.518	AF05NES.jpg
163.98	0.514	Blank	Blank	60.328	n/a	2	5	7	n/a	87	n/a	1	n/a	n/a	n/a	n/a	194.015	n/a
164.511	0.497	neutral	Picture	59.814	n/a	2	5	8	n/a	88	11	1	n/a	n/a	n/a	n/a	194.545	AF20NES.jpg
165.008	0.514	Blank	Blank	59.3	n/a	2	5	8	n/a	88	n/a	1	n/a	n/a	n/a	n/a	195.043	n/a
165.539	0.497	neutral	Picture	58.786	n/a	2	5	9	n/a	89	22	1	n/a	n/a	n/a	n/a	195.573	BM03NES.jpg
166.036	0.514	Blank	Blank	58.272	n/a	2	5	9	n/a	89	n/a	1	n/a	n/a	n/a	n/a	196.071	n/a
166.567	0.497	neutral	Picture	57.758	n/a	2	5	10	n/a	90	15	1	n/a	n/a	n/a	n/a	196.601	AF25NES.jpg
167.064	0.514	Blank	Blank	57.244	n/a	2	5	10	n/a	90	n/a	1	n/a	n/a	n/a	n/a	197.099	n/a
167.594	0.497	neutral	Picture	56.73	n/a	2	5	11	n/a	91	19	1	n/a	n/a	n/a	n/a	197.629	AF31NES.jpg
168.092	0.514	Blank	Blank	56.216	n/a	2	5	11	n/a	91	n/a	1	n/a	n/a	n/a	n/a	198.126	n/a
168.622	0.497	neutral	Picture	55.702	n/a	2	5	12	n/a	92	9	1	n/a	n/a	n/a	n/a	198.657	AF17NES.jpg
169.12	0.514	Blank	Blank	55.188	n/a	2	5	12	n/a	92	n/a	1	n/a	n/a	n/a	n/a	199.154	n/a
169.65	0.497	neutral	Picture	54.674	n/a	2	5	13	n/a	93	14	1	n/a	n/a	n/a	n/a	199.685	AF23NES.jpg
170.148	0.514	Blank	Blank	54.16	n/a	2	5	13	n/a	93	n/a	1	n/a	n/a	n/a	n/a	200.182	n/a
170.678	0.497	neutral	Picture	53.647	n/a	2	5	14	n/a	94	36	1	n/a	n/a	n/a	n/a	200.713	BM24NES.jpg
171.175	0.514	Blank	Blank	53.132	n/a	2	5	14	n/a	94	n/a	1	n/a	n/a	n/a	n/a	201.21	n/a
171.706	0.497	neutral	Picture	52.619	n/a	2	5	15	n/a	95	34	1	n/a	n/a	n/a	n/a	201.741	AM22NES.jpg
172.203	0.514	Blank	Blank	52.105	n/a	2	5	15	n/a	95	n/a	1	n/a	n/a	n/a	n/a	202.238	n/a
172.734	0.497	neutral	Picture	51.591	n/a	2	5	16	n/a	96	10	1	n/a	n/a	n/a	n/a	202.768	AF18NES.jpg
173.231	0.514	Blank	Blank	51.077	n/a	2	5	16	n/a	96	n/a	1	n/a	n/a	n/a	n/a	203.266	n/a
173.762	0.497	neutral	Picture	50.563	n/a	2	5	17	n/a	97	5	1	n/a	n/a	n/a	n/a	203.796	BF07NES.jpg
174.259	0.514	Blank	Blank	50.049	n/a	2	5	17	n/a	97	n/a	1	n/a	n/a	n/a	n/a	204.294	n/a
174.79	0.497	neutral	Picture	49.535	n/a	2	5	18	n/a	98	25	1	n/a	n/a	n/a	n/a	204.824	BM06NES.jpg
175.287	0.514	Blank	Blank	49.021	n/a	2	5	18	n/a	98	n/a	1	n/a	n/a	n/a	n/a	205.322	n/a
175.817	0.497	neutral	Picture	48.507	n/a	2	5	19	n/a	99	39	1	n/a	n/a	n/a	n/a	205.852	AM28NES.jpg
176.315	0.514	Blank	Blank	47.993	n/a	2	5	19	n/a	99	n/a	1	n/a	n/a	n/a	n/a	206.349	n/a
176.845	0.497	neutral	Picture	47.479	n/a	2	5	20	n/a	100	33	1	n/a	n/a	n/a	n/a	206.88	AM21NES.jpg
177.343	0.514	Blank	Blank	46.965	n/a	2	5	20	n/a	100	n/a	1	n/a	n/a	n/a	n/a	207.377	n/a
177.873	10.014	ITI	Fixation+	36.935	n/a	2	n/a	n/a	n/a	n/a	n/a	n/a	n/a	n/a	n/a	n/a	207.908	n/a
187.903	0.497	happy	Picture	36.421	n/a	2	6	1	n/a	101	74	2	n/a	n/a	n/a	n/a	217.938	AM22HAS.jpg
188.401	0.514	Blank	Blank	35.907	n/a	2	6	1	n/a	101	n/a	2	n/a	n/a	n/a	n/a	218.435	n/a
188.931	0.497	happy	Picture	35.393	n/a	2	6	2	n/a	102	76	2	n/a	n/a	n/a	n/a	218.966	BM24HAS.jpg
189.429	0.514	Blank	Blank	34.879	n/a	2	6	2	n/a	102	n/a	2	n/a	n/a	n/a	n/a	219.463	n/a
189.959	0.497	happy	Picture	34.365	n/a	2	6	3	n/a	103	80	2	n/a	n/a	n/a	n/a	219.994	BM35HAS.jpg
190.456	0.514	Blank	Blank	33.852	n/a	2	6	3	n/a	103	n/a	2	n/a	n/a	n/a	n/a	220.491	n/a
190.987	0.497	happy	Picture	33.338	n/a	2	6	4	n/a	104	75	2	n/a	n/a	n/a	n/a	221.022	AM23HAS.jpg
191.484	0.514	Blank	Blank	32.824	n/a	2	6	4	n/a	104	n/a	2	n/a	n/a	n/a	n/a	221.519	n/a
192.015	0.497	happy	Picture	32.31	n/a	2	6	5	n/a	105	49	2	n/a	n/a	n/a	n/a	222.049	AF17HAS.jpg
192.512	0.514	Blank	Blank	31.796	n/a	2	6	5	n/a	105	n/a	2	n/a	n/a	n/a	n/a	222.547	n/a
193.043	0.497	happy	Picture	31.282	n/a	2	6	6	n/a	106	43	2	n/a	n/a	n/a	n/a	223.077	BF04HAS.jpg
193.54	0.514	Blank	Blank	30.768	n/a	2	6	6	n/a	106	n/a	2	n/a	n/a	n/a	n/a	223.575	n/a
194.071	0.497	happy	Picture	30.254	n/a	2	6	7	n/a	107	70	2	n/a	n/a	n/a	n/a	224.105	BM11HAS.jpg
194.568	0.514	Blank	Blank	29.74	n/a	2	6	7	n/a	107	n/a	2	n/a	n/a	n/a	n/a	224.603	n/a
195.099	0.497	happy	Picture	29.226	n/a	2	6	8	n/a	108	66	2	n/a	n/a	n/a	n/a	225.133	BM07HAS.jpg
195.596	0.514	Blank	Blank	28.712	n/a	2	6	8	n/a	108	n/a	2	n/a	n/a	n/a	n/a	225.63	n/a
196.126	0.497	happy	Picture	28.198	n/a	2	6	9	n/a	109	48	2	n/a	n/a	n/a	n/a	226.161	AF14HAS.jpg
196.624	0.514	Blank	Blank	27.684	n/a	2	6	9	n/a	109	n/a	2	n/a	n/a	n/a	n/a	226.658	n/a
197.154	0.497	happy	Picture	27.17	n/a	2	6	10	n/a	110	58	2	n/a	n/a	n/a	n/a	227.189	BF29HAS.jpg
197.652	0.514	Blank	Blank	26.656	n/a	2	6	10	n/a	110	n/a	2	n/a	n/a	n/a	n/a	227.686	n/a
198.182	0.497	happy	Picture	26.142	n/a	2	6	11	n/a	111	63	2	n/a	n/a	n/a	n/a	228.217	AM04HAS.jpg
198.679	0.514	Blank	Blank	25.629	n/a	2	6	11	n/a	111	n/a	2	n/a	n/a	n/a	n/a	228.714	n/a
199.21	0.497	happy	Picture	25.115	n/a	2	6	12	n/a	112	72	2	n/a	n/a	n/a	n/a	229.245	AM14HAS.jpg
199.707	0.514	Blank	Blank	24.601	n/a	2	6	12	n/a	112	n/a	2	n/a	n/a	n/a	n/a	229.742	n/a
200.238	0.497	happy	Picture	24.087	n/a	2	6	13	n/a	113	55	2	n/a	n/a	n/a	n/a	230.273	AF25HAS.jpg
200.735	0.514	Blank	Blank	23.573	n/a	2	6	13	n/a	113	n/a	2	n/a	n/a	n/a	n/a	230.77	n/a
201.266	0.497	happy	Picture	23.059	n/a	2	6	14	n/a	114	42	2	n/a	n/a	n/a	n/a	231.3	AF03HAS.jpg
201.763	0.514	Blank	Blank	22.545	n/a	2	6	14	n/a	114	n/a	2	n/a	n/a	n/a	n/a	231.798	n/a
202.294	0.497	happy	Picture	22.031	n/a	2	6	15	n/a	115	60	2	n/a	n/a	n/a	n/a	232.328	AF32HAS.jpg
202.791	0.514	Blank	Blank	21.517	n/a	2	6	15	n/a	115	n/a	2	n/a	n/a	n/a	n/a	232.826	n/a
203.321	0.497	happy	Picture	21.003	n/a	2	6	16	n/a	116	67	2	n/a	n/a	n/a	n/a	233.356	BM08HAS.jpg
203.819	0.514	Blank	Blank	20.489	n/a	2	6	16	n/a	116	n/a	2	n/a	n/a	n/a	n/a	233.853	n/a
204.349	0.497	happy	Picture	19.975	n/a	2	6	17	n/a	117	51	2	n/a	n/a	n/a	n/a	234.384	AF20HAS.jpg
204.847	0.514	Blank	Blank	19.461	n/a	2	6	17	n/a	117	n/a	2	n/a	n/a	n/a	n/a	234.881	n/a
205.377	0.497	happy	Picture	18.947	n/a	2	6	18	n/a	118	71	2	n/a	n/a	n/a	n/a	235.412	BM12HAS.jpg
205.875	0.514	Blank	Blank	18.433	n/a	2	6	18	n/a	118	n/a	2	n/a	n/a	n/a	n/a	235.909	n/a
206.405	0.497	happy	Picture	17.919	n/a	2	6	19	n/a	119	69	2	n/a	n/a	n/a	n/a	236.44	AM10HAS.jpg
206.902	0.514	Blank	Blank	17.406	n/a	2	6	19	n/a	119	n/a	2	n/a	n/a	n/a	n/a	236.937	n/a
207.433	0.497	happy	Picture	16.892	n/a	2	6	20	n/a	120	46	2	n/a	n/a	n/a	n/a	237.468	AF09HAS.jpg
207.93	0.514	Blank	Blank	16.378	n/a	2	6	20	n/a	120	n/a	2	n/a	n/a	n/a	n/a	237.965	n/a
208.461	10.014	ITI	Fixation+	6.348	n/a	2	n/a	n/a	n/a	n/a	n/a	n/a	n/a	n/a	n/a	n/a	238.495	n/a
224.822	n/a	ConfirmRating	Rate	n/a	6.333	2	n/a	n/a	0	n/a	n/a	n/a	2	Happy	17	48	254.857	n/a
235.725	n/a	ConfirmRating	Rate	n/a	10.892	2	n/a	n/a	1	n/a	n/a	n/a	3	Happy	0	45	265.759	n/a
235.749	15.004	Rest	Picture	n/a	n/a	n/a	n/a	n/a	n/a	n/a	n/a	n/a	0	n/a	0	0	265.784	n/a
250.77	10.014	ITI	Fixation+	99.237	n/a	3	n/a	n/a	n/a	n/a	n/a	n/a	n/a	n/a	n/a	n/a	280.804	n/a
260.8	0.497	angry	Picture	98.723	n/a	3	7	1	n/a	1	108	3	n/a	n/a	n/a	n/a	290.834	AM09ANS.jpg
261.297	0.514	Blank	Blank	98.209	n/a	3	7	1	n/a	1	n/a	3	n/a	n/a	n/a	n/a	291.332	n/a
261.828	0.497	angry	Picture	97.695	n/a	3	7	2	n/a	2	99	3	n/a	n/a	n/a	n/a	291.862	AF31ANS.jpg
262.325	0.514	Blank	Blank	97.181	n/a	3	7	2	n/a	2	n/a	3	n/a	n/a	n/a	n/a	292.36	n/a
262.856	0.497	angry	Picture	96.667	n/a	3	7	3	n/a	3	98	3	n/a	n/a	n/a	n/a	292.89	BF29ANS.jpg
263.353	0.514	Blank	Blank	96.153	n/a	3	7	3	n/a	3	n/a	3	n/a	n/a	n/a	n/a	293.387	n/a
263.883	0.497	angry	Picture	95.639	n/a	3	7	4	n/a	4	107	3	n/a	n/a	n/a	n/a	293.918	BM08ANS.jpg
264.381	0.514	Blank	Blank	95.125	n/a	3	7	4	n/a	4	n/a	3	n/a	n/a	n/a	n/a	294.415	n/a
264.911	0.497	angry	Picture	94.611	n/a	3	7	5	n/a	5	104	3	n/a	n/a	n/a	n/a	294.946	BM05ANS.jpg
265.409	0.514	Blank	Blank	94.097	n/a	3	7	5	n/a	5	n/a	3	n/a	n/a	n/a	n/a	295.443	n/a
265.939	0.497	angry	Picture	93.583	n/a	3	7	6	n/a	6	101	3	n/a	n/a	n/a	n/a	295.974	AM01ANS.jpg
266.436	0.514	Blank	Blank	93.069	n/a	3	7	6	n/a	6	n/a	3	n/a	n/a	n/a	n/a	296.471	n/a
266.967	0.497	angry	Picture	92.555	n/a	3	7	7	n/a	7	103	3	n/a	n/a	n/a	n/a	297.002	AM04ANS.jpg
267.464	0.514	Blank	Blank	92.042	n/a	3	7	7	n/a	7	n/a	3	n/a	n/a	n/a	n/a	297.499	n/a
267.995	0.497	angry	Picture	91.528	n/a	3	7	8	n/a	8	111	3	n/a	n/a	n/a	n/a	298.029	BM12ANS.jpg
268.492	0.514	Blank	Blank	91.014	n/a	3	7	8	n/a	8	n/a	3	n/a	n/a	n/a	n/a	298.527	n/a
269.023	0.497	angry	Picture	90.5	n/a	3	7	9	n/a	9	110	3	n/a	n/a	n/a	n/a	299.057	AM11ANS.jpg
269.52	0.514	Blank	Blank	89.986	n/a	3	7	9	n/a	9	n/a	3	n/a	n/a	n/a	n/a	299.555	n/a
270.051	0.497	angry	Picture	89.472	n/a	3	7	10	n/a	10	85	3	n/a	n/a	n/a	n/a	300.085	BF07ANS.jpg
270.548	0.514	Blank	Blank	88.958	n/a	3	7	10	n/a	10	n/a	3	n/a	n/a	n/a	n/a	300.583	n/a
271.079	0.497	angry	Picture	88.444	n/a	3	7	11	n/a	11	87	3	n/a	n/a	n/a	n/a	301.113	BF11ANS.jpg
271.576	0.514	Blank	Blank	87.93	n/a	3	7	11	n/a	11	n/a	3	n/a	n/a	n/a	n/a	301.611	n/a
272.106	0.497	angry	Picture	87.416	n/a	3	7	12	n/a	12	91	3	n/a	n/a	n/a	n/a	302.141	AF20ANS.jpg
272.604	0.514	Blank	Blank	86.902	n/a	3	7	12	n/a	12	n/a	3	n/a	n/a	n/a	n/a	302.638	n/a
273.134	0.497	angry	Picture	86.388	n/a	3	7	13	n/a	13	115	3	n/a	n/a	n/a	n/a	303.169	AM23ANS.jpg
273.632	0.514	Blank	Blank	85.874	n/a	3	7	13	n/a	13	n/a	3	n/a	n/a	n/a	n/a	303.666	n/a
274.162	0.497	angry	Picture	85.36	n/a	3	7	14	n/a	14	97	3	n/a	n/a	n/a	n/a	304.197	BF28ANS.jpg
274.66	0.514	Blank	Blank	84.846	n/a	3	7	14	n/a	14	n/a	3	n/a	n/a	n/a	n/a	304.694	n/a
275.19	0.497	angry	Picture	84.333	n/a	3	7	15	n/a	15	82	3	n/a	n/a	n/a	n/a	305.225	AF03ANS.jpg
275.687	0.514	Blank	Blank	83.819	n/a	3	7	15	n/a	15	n/a	3	n/a	n/a	n/a	n/a	305.722	n/a
276.218	0.497	angry	Picture	83.305	n/a	3	7	16	n/a	16	96	3	n/a	n/a	n/a	n/a	306.252	AF26ANS.jpg
276.715	0.514	Blank	Blank	82.791	n/a	3	7	16	n/a	16	n/a	3	n/a	n/a	n/a	n/a	306.75	n/a
277.246	0.497	angry	Picture	82.277	n/a	3	7	17	n/a	17	109	3	n/a	n/a	n/a	n/a	307.28	AM10ANS.jpg
277.743	0.514	Blank	Blank	81.763	n/a	3	7	17	n/a	17	n/a	3	n/a	n/a	n/a	n/a	307.778	n/a
278.274	0.497	angry	Picture	81.249	n/a	3	7	18	n/a	18	114	3	n/a	n/a	n/a	n/a	308.308	AM22ANS.jpg
278.771	0.514	Blank	Blank	80.735	n/a	3	7	18	n/a	18	n/a	3	n/a	n/a	n/a	n/a	308.806	n/a
279.302	0.497	angry	Picture	80.221	n/a	3	7	19	n/a	19	120	3	n/a	n/a	n/a	n/a	309.336	AM35ANS.jpg
279.799	0.514	Blank	Blank	79.707	n/a	3	7	19	n/a	19	n/a	3	n/a	n/a	n/a	n/a	309.834	n/a
280.329	0.497	angry	Picture	79.193	n/a	3	7	20	n/a	20	81	3	n/a	n/a	n/a	n/a	310.364	AF01ANS.jpg
280.827	0.514	Blank	Blank	78.679	n/a	3	7	20	n/a	20	n/a	3	n/a	n/a	n/a	n/a	310.861	n/a
281.357	10.014	ITI	Fixation+	68.649	n/a	3	n/a	n/a	n/a	n/a	n/a	n/a	n/a	n/a	n/a	n/a	311.392	n/a
291.387	0.497	neutral	Picture	68.135	n/a	3	8	1	n/a	21	28	1	n/a	n/a	n/a	n/a	321.422	AM09NES.jpg
291.885	0.514	Blank	Blank	67.621	n/a	3	8	1	n/a	21	n/a	1	n/a	n/a	n/a	n/a	321.919	n/a
292.415	0.497	neutral	Picture	67.107	n/a	3	8	2	n/a	22	27	1	n/a	n/a	n/a	n/a	322.45	BM08NES.jpg
292.913	0.514	Blank	Blank	66.593	n/a	3	8	2	n/a	22	n/a	1	n/a	n/a	n/a	n/a	322.947	n/a
293.443	0.497	neutral	Picture	66.079	n/a	3	8	3	n/a	23	16	1	n/a	n/a	n/a	n/a	323.478	AF26NES.jpg
293.941	0.514	Blank	Blank	65.565	n/a	3	8	3	n/a	23	n/a	1	n/a	n/a	n/a	n/a	323.975	n/a
294.471	0.497	neutral	Picture	65.052	n/a	3	8	4	n/a	24	3	1	n/a	n/a	n/a	n/a	324.506	BF04NES.jpg
294.968	0.514	Blank	Blank	64.538	n/a	3	8	4	n/a	24	n/a	1	n/a	n/a	n/a	n/a	325.003	n/a
295.499	0.497	neutral	Picture	64.024	n/a	3	8	5	n/a	25	32	1	n/a	n/a	n/a	n/a	325.534	AM14NES.jpg
295.996	0.514	Blank	Blank	63.51	n/a	3	8	5	n/a	25	n/a	1	n/a	n/a	n/a	n/a	326.031	n/a
296.527	0.497	neutral	Picture	62.996	n/a	3	8	6	n/a	26	37	1	n/a	n/a	n/a	n/a	326.561	BM25NES.jpg
297.024	0.514	Blank	Blank	62.482	n/a	3	8	6	n/a	26	n/a	1	n/a	n/a	n/a	n/a	327.059	n/a
297.555	0.497	neutral	Picture	61.968	n/a	3	8	7	n/a	27	15	1	n/a	n/a	n/a	n/a	327.589	AF25NES.jpg
298.052	0.514	Blank	Blank	61.454	n/a	3	8	7	n/a	27	n/a	1	n/a	n/a	n/a	n/a	328.087	n/a
298.583	0.497	neutral	Picture	60.94	n/a	3	8	8	n/a	28	23	1	n/a	n/a	n/a	n/a	328.617	AM04NES.jpg
299.08	0.514	Blank	Blank	60.426	n/a	3	8	8	n/a	28	n/a	1	n/a	n/a	n/a	n/a	329.115	n/a
299.611	0.497	neutral	Picture	59.912	n/a	3	8	9	n/a	29	34	1	n/a	n/a	n/a	n/a	329.645	AM22NES.jpg
300.108	0.514	Blank	Blank	59.398	n/a	3	8	9	n/a	29	n/a	1	n/a	n/a	n/a	n/a	330.142	n/a
300.638	0.497	neutral	Picture	58.884	n/a	3	8	10	n/a	30	24	1	n/a	n/a	n/a	n/a	330.673	BM05NES.jpg
301.136	0.514	Blank	Blank	58.37	n/a	3	8	10	n/a	30	n/a	1	n/a	n/a	n/a	n/a	331.17	n/a
301.666	0.497	neutral	Picture	57.856	n/a	3	8	11	n/a	31	12	1	n/a	n/a	n/a	n/a	331.701	AF21NES.jpg
302.164	0.514	Blank	Blank	57.342	n/a	3	8	11	n/a	31	n/a	1	n/a	n/a	n/a	n/a	332.198	n/a
302.694	0.497	neutral	Picture	56.828	n/a	3	8	12	n/a	32	6	1	n/a	n/a	n/a	n/a	332.729	AF09NES.jpg
303.191	0.514	Blank	Blank	56.315	n/a	3	8	12	n/a	32	n/a	1	n/a	n/a	n/a	n/a	333.226	n/a
303.722	0.497	neutral	Picture	55.801	n/a	3	8	13	n/a	33	17	1	n/a	n/a	n/a	n/a	333.757	BF28NES.jpg
304.219	0.514	Blank	Blank	55.287	n/a	3	8	13	n/a	33	n/a	1	n/a	n/a	n/a	n/a	334.254	n/a
304.75	0.497	neutral	Picture	54.773	n/a	3	8	14	n/a	34	2	1	n/a	n/a	n/a	n/a	334.784	AF03NES.jpg
305.247	0.514	Blank	Blank	54.259	n/a	3	8	14	n/a	34	n/a	1	n/a	n/a	n/a	n/a	335.282	n/a
305.778	0.497	neutral	Picture	53.745	n/a	3	8	15	n/a	35	9	1	n/a	n/a	n/a	n/a	335.812	AF17NES.jpg
306.275	0.514	Blank	Blank	53.231	n/a	3	8	15	n/a	35	n/a	1	n/a	n/a	n/a	n/a	336.31	n/a
306.806	0.497	neutral	Picture	52.717	n/a	3	8	16	n/a	36	25	1	n/a	n/a	n/a	n/a	336.84	BM06NES.jpg
307.303	0.514	Blank	Blank	52.203	n/a	3	8	16	n/a	36	n/a	1	n/a	n/a	n/a	n/a	337.338	n/a
307.834	0.497	neutral	Picture	51.689	n/a	3	8	17	n/a	37	8	1	n/a	n/a	n/a	n/a	337.868	AF14NES.jpg
308.331	0.514	Blank	Blank	51.175	n/a	3	8	17	n/a	37	n/a	1	n/a	n/a	n/a	n/a	338.365	n/a
308.861	0.497	neutral	Picture	50.661	n/a	3	8	18	n/a	38	19	1	n/a	n/a	n/a	n/a	338.896	AF31NES.jpg
309.359	0.514	Blank	Blank	50.147	n/a	3	8	18	n/a	38	n/a	1	n/a	n/a	n/a	n/a	339.393	n/a
309.889	0.497	neutral	Picture	49.633	n/a	3	8	19	n/a	39	14	1	n/a	n/a	n/a	n/a	339.924	AF23NES.jpg
310.387	0.514	Blank	Blank	49.119	n/a	3	8	19	n/a	39	n/a	1	n/a	n/a	n/a	n/a	340.421	n/a
310.917	0.497	neutral	Picture	48.605	n/a	3	8	20	n/a	40	4	1	n/a	n/a	n/a	n/a	340.952	AF05NES.jpg
311.414	0.514	Blank	Blank	48.092	n/a	3	8	20	n/a	40	n/a	1	n/a	n/a	n/a	n/a	341.449	n/a
311.945	10.014	ITI	Fixation+	38.061	n/a	3	n/a	n/a	n/a	n/a	n/a	n/a	n/a	n/a	n/a	n/a	341.98	n/a
321.975	0.497	angry	Picture	37.547	n/a	3	9	1	n/a	41	84	3	n/a	n/a	n/a	n/a	352.01	AF05ANS.jpg
322.472	0.514	Blank	Blank	37.034	n/a	3	9	1	n/a	41	n/a	3	n/a	n/a	n/a	n/a	352.507	n/a
323.003	0.497	angry	Picture	36.52	n/a	3	9	2	n/a	42	92	3	n/a	n/a	n/a	n/a	353.038	AF21ANS.jpg
323.5	0.514	Blank	Blank	36.006	n/a	3	9	2	n/a	42	n/a	3	n/a	n/a	n/a	n/a	353.535	n/a
324.031	0.497	angry	Picture	35.492	n/a	3	9	3	n/a	43	86	3	n/a	n/a	n/a	n/a	354.065	AF09ANS.jpg
324.528	0.514	Blank	Blank	34.978	n/a	3	9	3	n/a	43	n/a	3	n/a	n/a	n/a	n/a	354.563	n/a
325.059	0.497	angry	Picture	34.464	n/a	3	9	4	n/a	44	93	3	n/a	n/a	n/a	n/a	355.093	BF22ANS.jpg
325.556	0.514	Blank	Blank	33.95	n/a	3	9	4	n/a	44	n/a	3	n/a	n/a	n/a	n/a	355.591	n/a
326.087	0.497	angry	Picture	33.436	n/a	3	9	5	n/a	45	88	3	n/a	n/a	n/a	n/a	356.121	AF14ANS.jpg
326.584	0.514	Blank	Blank	32.922	n/a	3	9	5	n/a	45	n/a	3	n/a	n/a	n/a	n/a	356.619	n/a
327.114	0.497	angry	Picture	32.408	n/a	3	9	6	n/a	46	113	3	n/a	n/a	n/a	n/a	357.149	AM21ANS.jpg
327.612	0.514	Blank	Blank	31.894	n/a	3	9	6	n/a	46	n/a	3	n/a	n/a	n/a	n/a	357.646	n/a
328.142	0.497	angry	Picture	31.38	n/a	3	9	7	n/a	47	95	3	n/a	n/a	n/a	n/a	358.177	AF25ANS.jpg
328.64	0.514	Blank	Blank	30.866	n/a	3	9	7	n/a	47	n/a	3	n/a	n/a	n/a	n/a	358.674	n/a
329.17	0.497	angry	Picture	30.352	n/a	3	9	8	n/a	48	102	3	n/a	n/a	n/a	n/a	359.205	BM03ANS.jpg
329.668	0.514	Blank	Blank	29.838	n/a	3	9	8	n/a	48	n/a	3	n/a	n/a	n/a	n/a	359.702	n/a
330.198	0.497	angry	Picture	29.324	n/a	3	9	9	n/a	49	112	3	n/a	n/a	n/a	n/a	360.233	AM14ANS.jpg
330.695	0.514	Blank	Blank	28.811	n/a	3	9	9	n/a	49	n/a	3	n/a	n/a	n/a	n/a	360.73	n/a
331.226	0.497	angry	Picture	28.296	n/a	3	9	10	n/a	50	83	3	n/a	n/a	n/a	n/a	361.261	BF04ANS.jpg
331.723	0.514	Blank	Blank	27.783	n/a	3	9	10	n/a	50	n/a	3	n/a	n/a	n/a	n/a	361.758	n/a
332.254	0.497	angry	Picture	27.269	n/a	3	9	11	n/a	51	90	3	n/a	n/a	n/a	n/a	362.288	AF18ANS.jpg
332.751	0.514	Blank	Blank	26.755	n/a	3	9	11	n/a	51	n/a	3	n/a	n/a	n/a	n/a	362.786	n/a
333.282	0.497	angry	Picture	26.241	n/a	3	9	12	n/a	52	117	3	n/a	n/a	n/a	n/a	363.316	BM25ANS.jpg
333.779	0.514	Blank	Blank	25.727	n/a	3	9	12	n/a	52	n/a	3	n/a	n/a	n/a	n/a	363.814	n/a
334.31	0.497	angry	Picture	25.213	n/a	3	9	13	n/a	53	94	3	n/a	n/a	n/a	n/a	364.344	AF23ANS.jpg
334.807	0.514	Blank	Blank	24.699	n/a	3	9	13	n/a	53	n/a	3	n/a	n/a	n/a	n/a	364.842	n/a
335.337	0.497	angry	Picture	24.185	n/a	3	9	14	n/a	54	106	3	n/a	n/a	n/a	n/a	365.372	AM07ANS.jpg
335.835	0.514	Blank	Blank	23.671	n/a	3	9	14	n/a	54	n/a	3	n/a	n/a	n/a	n/a	365.87	n/a
336.365	0.497	angry	Picture	23.157	n/a	3	9	15	n/a	55	105	3	n/a	n/a	n/a	n/a	366.4	BM06ANS.jpg
336.863	0.514	Blank	Blank	22.643	n/a	3	9	15	n/a	55	n/a	3	n/a	n/a	n/a	n/a	366.897	n/a
337.393	0.497	angry	Picture	22.129	n/a	3	9	16	n/a	56	116	3	n/a	n/a	n/a	n/a	367.428	BM24ANS.jpg
337.891	0.514	Blank	Blank	21.615	n/a	3	9	16	n/a	56	n/a	3	n/a	n/a	n/a	n/a	367.925	n/a
338.421	0.497	angry	Picture	21.101	n/a	3	9	17	n/a	57	89	3	n/a	n/a	n/a	n/a	368.456	AF17ANS.jpg
338.918	0.514	Blank	Blank	20.588	n/a	3	9	17	n/a	57	n/a	3	n/a	n/a	n/a	n/a	368.953	n/a
339.449	0.497	angry	Picture	20.073	n/a	3	9	18	n/a	58	118	3	n/a	n/a	n/a	n/a	369.484	BM26ANS.jpg
339.946	0.514	Blank	Blank	19.56	n/a	3	9	18	n/a	58	n/a	3	n/a	n/a	n/a	n/a	369.981	n/a
340.477	0.497	angry	Picture	19.046	n/a	3	9	19	n/a	59	100	3	n/a	n/a	n/a	n/a	370.512	AF32ANS.jpg
340.974	0.514	Blank	Blank	18.532	n/a	3	9	19	n/a	59	n/a	3	n/a	n/a	n/a	n/a	371.009	n/a
341.505	0.497	angry	Picture	18.018	n/a	3	9	20	n/a	60	119	3	n/a	n/a	n/a	n/a	371.539	BM28ANS.jpg
342.002	0.514	Blank	Blank	17.504	n/a	3	9	20	n/a	60	n/a	3	n/a	n/a	n/a	n/a	372.037	n/a
342.533	10.014	ITI	Fixation+	7.474	n/a	3	n/a	n/a	n/a	n/a	n/a	n/a	n/a	n/a	n/a	n/a	372.567	n/a
360.02	n/a	ConfirmRating	Rate	n/a	7.46	3	n/a	n/a	0	n/a	n/a	n/a	2	Angry	0	47	390.055	n/a
365.108	n/a	ConfirmRating	Rate	n/a	5.073	3	n/a	n/a	1	n/a	n/a	n/a	3	Angry	67	51	395.142	n/a
365.129	10.014	ITI	Fixation+	95.784	n/a	4	n/a	n/a	n/a	n/a	n/a	n/a	n/a	n/a	n/a	n/a	395.164	n/a
375.159	0.497	happy	Picture	95.271	n/a	4	10	1	n/a	61	79	2	n/a	n/a	n/a	n/a	405.194	BM28HAS.jpg
375.657	0.514	Blank	Blank	94.757	n/a	4	10	1	n/a	61	n/a	2	n/a	n/a	n/a	n/a	405.691	n/a
376.187	0.497	happy	Picture	94.243	n/a	4	10	2	n/a	62	61	2	n/a	n/a	n/a	n/a	406.222	AM01HAS.jpg
376.685	0.514	Blank	Blank	93.729	n/a	4	10	2	n/a	62	n/a	2	n/a	n/a	n/a	n/a	406.719	n/a
377.215	0.497	happy	Picture	93.215	n/a	4	10	3	n/a	63	57	2	n/a	n/a	n/a	n/a	407.25	BF28HAS.jpg
377.713	0.514	Blank	Blank	92.701	n/a	4	10	3	n/a	63	n/a	2	n/a	n/a	n/a	n/a	407.747	n/a
378.243	0.497	happy	Picture	92.187	n/a	4	10	4	n/a	64	77	2	n/a	n/a	n/a	n/a	408.278	BM25HAS.jpg
378.74	0.514	Blank	Blank	91.673	n/a	4	10	4	n/a	64	n/a	2	n/a	n/a	n/a	n/a	408.775	n/a
379.271	0.497	happy	Picture	91.159	n/a	4	10	5	n/a	65	47	2	n/a	n/a	n/a	n/a	409.306	BF11HAS.jpg
379.768	0.514	Blank	Blank	90.645	n/a	4	10	5	n/a	65	n/a	2	n/a	n/a	n/a	n/a	409.803	n/a
380.299	0.497	happy	Picture	90.131	n/a	4	10	6	n/a	66	50	2	n/a	n/a	n/a	n/a	410.334	AF18HAS.jpg
380.796	0.514	Blank	Blank	89.617	n/a	4	10	6	n/a	66	n/a	2	n/a	n/a	n/a	n/a	410.831	n/a
381.327	0.497	happy	Picture	89.103	n/a	4	10	7	n/a	67	78	2	n/a	n/a	n/a	n/a	411.361	BM26HAS.jpg
381.824	0.514	Blank	Blank	88.589	n/a	4	10	7	n/a	67	n/a	2	n/a	n/a	n/a	n/a	411.859	n/a
382.355	0.497	happy	Picture	88.075	n/a	4	10	8	n/a	68	45	2	n/a	n/a	n/a	n/a	412.389	BF07HAS.jpg
382.852	0.514	Blank	Blank	87.562	n/a	4	10	8	n/a	68	n/a	2	n/a	n/a	n/a	n/a	412.887	n/a
383.382	0.497	happy	Picture	87.047	n/a	4	10	9	n/a	69	56	2	n/a	n/a	n/a	n/a	413.417	AF26HAS.jpg
383.88	0.514	Blank	Blank	86.534	n/a	4	10	9	n/a	69	n/a	2	n/a	n/a	n/a	n/a	413.914	n/a
384.41	0.497	happy	Picture	86.02	n/a	4	10	10	n/a	70	65	2	n/a	n/a	n/a	n/a	414.445	BM06HAS.jpg
384.908	0.514	Blank	Blank	85.506	n/a	4	10	10	n/a	70	n/a	2	n/a	n/a	n/a	n/a	414.942	n/a
385.438	0.497	happy	Picture	84.992	n/a	4	10	11	n/a	71	73	2	n/a	n/a	n/a	n/a	415.473	AM21HAS.jpg
385.936	0.514	Blank	Blank	84.478	n/a	4	10	11	n/a	71	n/a	2	n/a	n/a	n/a	n/a	415.97	n/a
386.466	0.497	happy	Picture	83.964	n/a	4	10	12	n/a	72	41	2	n/a	n/a	n/a	n/a	416.501	AF01HAS.jpg
386.964	0.514	Blank	Blank	83.45	n/a	4	10	12	n/a	72	n/a	2	n/a	n/a	n/a	n/a	416.998	n/a
387.494	0.497	happy	Picture	82.936	n/a	4	10	13	n/a	73	59	2	n/a	n/a	n/a	n/a	417.529	AF31HAS.jpg
387.991	0.514	Blank	Blank	82.422	n/a	4	10	13	n/a	73	n/a	2	n/a	n/a	n/a	n/a	418.026	n/a
388.522	0.497	happy	Picture	81.908	n/a	4	10	14	n/a	74	64	2	n/a	n/a	n/a	n/a	418.557	BM05HAS.jpg
389.019	0.514	Blank	Blank	81.394	n/a	4	10	14	n/a	74	n/a	2	n/a	n/a	n/a	n/a	419.054	n/a
389.55	0.497	happy	Picture	80.88	n/a	4	10	15	n/a	75	68	2	n/a	n/a	n/a	n/a	419.584	AM09HAS.jpg
390.047	0.514	Blank	Blank	80.366	n/a	4	10	15	n/a	75	n/a	2	n/a	n/a	n/a	n/a	420.082	n/a
390.578	0.497	happy	Picture	79.852	n/a	4	10	16	n/a	76	54	2	n/a	n/a	n/a	n/a	420.612	AF23HAS.jpg
391.075	0.514	Blank	Blank	79.338	n/a	4	10	16	n/a	76	n/a	2	n/a	n/a	n/a	n/a	421.11	n/a
391.606	0.497	happy	Picture	78.824	n/a	4	10	17	n/a	77	53	2	n/a	n/a	n/a	n/a	421.64	BF22HAS.jpg
392.103	0.514	Blank	Blank	78.311	n/a	4	10	17	n/a	77	n/a	2	n/a	n/a	n/a	n/a	422.137	n/a
392.633	0.497	happy	Picture	77.797	n/a	4	10	18	n/a	78	44	2	n/a	n/a	n/a	n/a	422.668	AF05HAS.jpg
393.131	0.514	Blank	Blank	77.283	n/a	4	10	18	n/a	78	n/a	2	n/a	n/a	n/a	n/a	423.165	n/a
393.661	0.497	happy	Picture	76.769	n/a	4	10	19	n/a	79	52	2	n/a	n/a	n/a	n/a	423.696	AF21HAS.jpg
394.159	0.514	Blank	Blank	76.255	n/a	4	10	19	n/a	79	n/a	2	n/a	n/a	n/a	n/a	424.193	n/a
394.689	0.497	happy	Picture	75.741	n/a	4	10	20	n/a	80	62	2	n/a	n/a	n/a	n/a	424.724	BM03HAS.jpg
395.186	0.514	Blank	Blank	75.227	n/a	4	10	20	n/a	80	n/a	2	n/a	n/a	n/a	n/a	425.221	n/a
395.717	10.014	ITI	Fixation+	65.197	n/a	4	n/a	n/a	n/a	n/a	n/a	n/a	n/a	n/a	n/a	n/a	425.752	n/a
405.747	0.497	neutral	Picture	64.683	n/a	4	11	1	n/a	81	23	1	n/a	n/a	n/a	n/a	435.782	AM04NES.jpg
406.245	0.514	Blank	Blank	64.169	n/a	4	11	1	n/a	81	n/a	1	n/a	n/a	n/a	n/a	436.279	n/a
406.775	0.497	neutral	Picture	63.655	n/a	4	11	2	n/a	82	29	1	n/a	n/a	n/a	n/a	436.81	AM10NES.jpg
407.272	0.514	Blank	Blank	63.141	n/a	4	11	2	n/a	82	n/a	1	n/a	n/a	n/a	n/a	437.307	n/a
407.803	0.497	neutral	Picture	62.627	n/a	4	11	3	n/a	83	24	1	n/a	n/a	n/a	n/a	437.837	BM05NES.jpg
408.3	0.514	Blank	Blank	62.113	n/a	4	11	3	n/a	83	n/a	1	n/a	n/a	n/a	n/a	438.335	n/a
408.831	0.497	neutral	Picture	61.599	n/a	4	11	4	n/a	84	12	1	n/a	n/a	n/a	n/a	438.865	AF21NES.jpg
409.328	0.514	Blank	Blank	61.085	n/a	4	11	4	n/a	84	n/a	1	n/a	n/a	n/a	n/a	439.363	n/a
409.859	0.497	neutral	Picture	60.571	n/a	4	11	5	n/a	85	13	1	n/a	n/a	n/a	n/a	439.893	BF22NES.jpg
410.356	0.514	Blank	Blank	60.057	n/a	4	11	5	n/a	85	n/a	1	n/a	n/a	n/a	n/a	440.391	n/a
410.887	0.497	neutral	Picture	59.543	n/a	4	11	6	n/a	86	17	1	n/a	n/a	n/a	n/a	440.921	BF28NES.jpg
411.384	0.514	Blank	Blank	59.03	n/a	4	11	6	n/a	86	n/a	1	n/a	n/a	n/a	n/a	441.418	n/a
411.914	0.497	neutral	Picture	58.516	n/a	4	11	7	n/a	87	4	1	n/a	n/a	n/a	n/a	441.949	AF05NES.jpg
412.412	0.514	Blank	Blank	58.002	n/a	4	11	7	n/a	87	n/a	1	n/a	n/a	n/a	n/a	442.446	n/a
412.942	0.497	neutral	Picture	57.488	n/a	4	11	8	n/a	88	11	1	n/a	n/a	n/a	n/a	442.977	AF20NES.jpg
413.44	0.514	Blank	Blank	56.974	n/a	4	11	8	n/a	88	n/a	1	n/a	n/a	n/a	n/a	443.474	n/a
413.97	0.497	neutral	Picture	56.46	n/a	4	11	9	n/a	89	22	1	n/a	n/a	n/a	n/a	444.005	BM03NES.jpg
414.467	0.514	Blank	Blank	55.946	n/a	4	11	9	n/a	89	n/a	1	n/a	n/a	n/a	n/a	444.502	n/a
414.998	0.497	neutral	Picture	55.432	n/a	4	11	10	n/a	90	15	1	n/a	n/a	n/a	n/a	445.033	AF25NES.jpg
415.495	0.514	Blank	Blank	54.918	n/a	4	11	10	n/a	90	n/a	1	n/a	n/a	n/a	n/a	445.53	n/a
416.026	0.497	neutral	Picture	54.404	n/a	4	11	11	n/a	91	19	1	n/a	n/a	n/a	n/a	446.06	AF31NES.jpg
416.523	0.514	Blank	Blank	53.89	n/a	4	11	11	n/a	91	n/a	1	n/a	n/a	n/a	n/a	446.558	n/a
417.054	0.497	neutral	Picture	53.376	n/a	4	11	12	n/a	92	9	1	n/a	n/a	n/a	n/a	447.088	AF17NES.jpg
417.551	0.514	Blank	Blank	52.862	n/a	4	11	12	n/a	92	n/a	1	n/a	n/a	n/a	n/a	447.586	n/a
418.082	0.497	neutral	Picture	52.348	n/a	4	11	13	n/a	93	14	1	n/a	n/a	n/a	n/a	448.116	AF23NES.jpg
418.579	0.514	Blank	Blank	51.834	n/a	4	11	13	n/a	93	n/a	1	n/a	n/a	n/a	n/a	448.614	n/a
419.11	0.497	neutral	Picture	51.32	n/a	4	11	14	n/a	94	36	1	n/a	n/a	n/a	n/a	449.144	BM24NES.jpg
419.607	0.514	Blank	Blank	50.806	n/a	4	11	14	n/a	94	n/a	1	n/a	n/a	n/a	n/a	449.642	n/a
420.137	0.497	neutral	Picture	50.293	n/a	4	11	15	n/a	95	34	1	n/a	n/a	n/a	n/a	450.172	AM22NES.jpg
420.635	0.514	Blank	Blank	49.779	n/a	4	11	15	n/a	95	n/a	1	n/a	n/a	n/a	n/a	450.669	n/a
421.165	0.497	neutral	Picture	49.265	n/a	4	11	16	n/a	96	10	1	n/a	n/a	n/a	n/a	451.2	AF18NES.jpg
421.663	0.514	Blank	Blank	48.751	n/a	4	11	16	n/a	96	n/a	1	n/a	n/a	n/a	n/a	451.697	n/a
422.193	0.497	neutral	Picture	48.237	n/a	4	11	17	n/a	97	5	1	n/a	n/a	n/a	n/a	452.228	BF07NES.jpg
422.691	0.514	Blank	Blank	47.723	n/a	4	11	17	n/a	97	n/a	1	n/a	n/a	n/a	n/a	452.725	n/a
423.221	0.497	neutral	Picture	47.209	n/a	4	11	18	n/a	98	25	1	n/a	n/a	n/a	n/a	453.256	BM06NES.jpg
423.718	0.514	Blank	Blank	46.695	n/a	4	11	18	n/a	98	n/a	1	n/a	n/a	n/a	n/a	453.753	n/a
424.249	0.497	neutral	Picture	46.181	n/a	4	11	19	n/a	99	39	1	n/a	n/a	n/a	n/a	454.284	AM28NES.jpg
424.746	0.514	Blank	Blank	45.667	n/a	4	11	19	n/a	99	n/a	1	n/a	n/a	n/a	n/a	454.781	n/a
425.277	0.497	neutral	Picture	45.153	n/a	4	11	20	n/a	100	33	1	n/a	n/a	n/a	n/a	455.311	AM21NES.jpg
425.774	0.514	Blank	Blank	44.639	n/a	4	11	20	n/a	100	n/a	1	n/a	n/a	n/a	n/a	455.809	n/a
426.305	10.014	ITI	Fixation+	34.609	n/a	4	n/a	n/a	n/a	n/a	n/a	n/a	n/a	n/a	n/a	n/a	456.339	n/a
436.335	0.497	happy	Picture	34.095	n/a	4	12	1	n/a	101	74	2	n/a	n/a	n/a	n/a	466.369	AM22HAS.jpg
436.832	0.514	Blank	Blank	33.581	n/a	4	12	1	n/a	101	n/a	2	n/a	n/a	n/a	n/a	466.867	n/a
437.363	0.497	happy	Picture	33.067	n/a	4	12	2	n/a	102	76	2	n/a	n/a	n/a	n/a	467.397	BM24HAS.jpg
437.86	0.514	Blank	Blank	32.553	n/a	4	12	2	n/a	102	n/a	2	n/a	n/a	n/a	n/a	467.895	n/a
438.391	0.497	happy	Picture	32.039	n/a	4	12	3	n/a	103	80	2	n/a	n/a	n/a	n/a	468.425	BM35HAS.jpg
438.888	0.514	Blank	Blank	31.525	n/a	4	12	3	n/a	103	n/a	2	n/a	n/a	n/a	n/a	468.923	n/a
439.418	0.497	happy	Picture	31.012	n/a	4	12	4	n/a	104	75	2	n/a	n/a	n/a	n/a	469.453	AM23HAS.jpg
439.916	0.514	Blank	Blank	30.498	n/a	4	12	4	n/a	104	n/a	2	n/a	n/a	n/a	n/a	469.95	n/a
440.446	0.497	happy	Picture	29.984	n/a	4	12	5	n/a	105	49	2	n/a	n/a	n/a	n/a	470.481	AF17HAS.jpg
440.944	0.514	Blank	Blank	29.47	n/a	4	12	5	n/a	105	n/a	2	n/a	n/a	n/a	n/a	470.978	n/a
441.474	0.497	happy	Picture	28.956	n/a	4	12	6	n/a	106	43	2	n/a	n/a	n/a	n/a	471.509	BF04HAS.jpg
441.972	0.514	Blank	Blank	28.442	n/a	4	12	6	n/a	106	n/a	2	n/a	n/a	n/a	n/a	472.006	n/a
442.502	0.497	happy	Picture	27.928	n/a	4	12	7	n/a	107	70	2	n/a	n/a	n/a	n/a	472.537	BM11HAS.jpg
442.999	0.514	Blank	Blank	27.414	n/a	4	12	7	n/a	107	n/a	2	n/a	n/a	n/a	n/a	473.034	n/a
443.53	0.497	happy	Picture	26.9	n/a	4	12	8	n/a	108	66	2	n/a	n/a	n/a	n/a	473.565	BM07HAS.jpg
444.027	0.514	Blank	Blank	26.386	n/a	4	12	8	n/a	108	n/a	2	n/a	n/a	n/a	n/a	474.062	n/a
444.558	0.497	happy	Picture	25.872	n/a	4	12	9	n/a	109	48	2	n/a	n/a	n/a	n/a	474.592	AF14HAS.jpg
445.055	0.514	Blank	Blank	25.358	n/a	4	12	9	n/a	109	n/a	2	n/a	n/a	n/a	n/a	475.09	n/a
445.586	0.497	happy	Picture	24.844	n/a	4	12	10	n/a	110	58	2	n/a	n/a	n/a	n/a	475.62	BF29HAS.jpg
446.083	0.514	Blank	Blank	24.33	n/a	4	12	10	n/a	110	n/a	2	n/a	n/a	n/a	n/a	476.118	n/a
446.614	0.497	happy	Picture	23.817	n/a	4	12	11	n/a	111	63	2	n/a	n/a	n/a	n/a	476.648	AM04HAS.jpg
447.111	0.514	Blank	Blank	23.302	n/a	4	12	11	n/a	111	n/a	2	n/a	n/a	n/a	n/a	477.146	n/a
447.642	0.497	happy	Picture	22.789	n/a	4	12	12	n/a	112	72	2	n/a	n/a	n/a	n/a	477.676	AM14HAS.jpg
448.139	0.514	Blank	Blank	22.275	n/a	4	12	12	n/a	112	n/a	2	n/a	n/a	n/a	n/a	478.173	n/a
448.669	0.497	happy	Picture	21.761	n/a	4	12	13	n/a	113	55	2	n/a	n/a	n/a	n/a	478.704	AF25HAS.jpg
449.167	0.514	Blank	Blank	21.247	n/a	4	12	13	n/a	113	n/a	2	n/a	n/a	n/a	n/a	479.201	n/a
449.697	0.497	happy	Picture	20.733	n/a	4	12	14	n/a	114	42	2	n/a	n/a	n/a	n/a	479.732	AF03HAS.jpg
450.195	0.514	Blank	Blank	20.219	n/a	4	12	14	n/a	114	n/a	2	n/a	n/a	n/a	n/a	480.229	n/a
450.725	0.497	happy	Picture	19.705	n/a	4	12	15	n/a	115	60	2	n/a	n/a	n/a	n/a	480.76	AF32HAS.jpg
451.222	0.514	Blank	Blank	19.191	n/a	4	12	15	n/a	115	n/a	2	n/a	n/a	n/a	n/a	481.257	n/a
451.753	0.497	happy	Picture	18.677	n/a	4	12	16	n/a	116	67	2	n/a	n/a	n/a	n/a	481.788	BM08HAS.jpg
452.25	0.514	Blank	Blank	18.163	n/a	4	12	16	n/a	116	n/a	2	n/a	n/a	n/a	n/a	482.285	n/a
452.781	0.497	happy	Picture	17.649	n/a	4	12	17	n/a	117	51	2	n/a	n/a	n/a	n/a	482.815	AF20HAS.jpg
453.278	0.514	Blank	Blank	17.135	n/a	4	12	17	n/a	117	n/a	2	n/a	n/a	n/a	n/a	483.313	n/a
453.809	0.497	happy	Picture	16.621	n/a	4	12	18	n/a	118	71	2	n/a	n/a	n/a	n/a	483.843	BM12HAS.jpg
454.306	0.514	Blank	Blank	16.107	n/a	4	12	18	n/a	118	n/a	2	n/a	n/a	n/a	n/a	484.341	n/a
454.837	0.497	happy	Picture	15.593	n/a	4	12	19	n/a	119	69	2	n/a	n/a	n/a	n/a	484.871	AM10HAS.jpg
455.334	0.514	Blank	Blank	15.079	n/a	4	12	19	n/a	119	n/a	2	n/a	n/a	n/a	n/a	485.369	n/a
455.864	0.497	happy	Picture	14.566	n/a	4	12	20	n/a	120	46	2	n/a	n/a	n/a	n/a	485.899	AF09HAS.jpg
456.362	0.514	Blank	Blank	14.052	n/a	4	12	20	n/a	120	n/a	2	n/a	n/a	n/a	n/a	486.396	n/a
456.892	10.014	ITI	Fixation+	4.021	n/a	4	n/a	n/a	n/a	n/a	n/a	n/a	n/a	n/a	n/a	n/a	486.927	n/a
470.927	n/a	ConfirmRating	Rate	n/a	4.012	4	n/a	n/a	0	n/a	n/a	n/a	2	Happy	15	48	500.962	n/a
476.369	n/a	ConfirmRating	Rate	n/a	5.421	4	n/a	n/a	1	n/a	n/a	n/a	3	Happy	0	49	506.404	n/a
