onset	duration	trial_type	event_type	time_until_response	response_time	trial_number	block_num_within_trial	image_seq_num_within_block	question_seq_num_within_block	image_seq_num	picture_number	condition	question_type	block_type	rating	rating_computed	onset_uncorrected	KDEV_imagefile
0.003	10.014	ITI	Fixation+	96.762	n/a	1	n/a	n/a	n/a	n/a	n/a	n/a	n/a	n/a	n/a	n/a	30.499	n/a
10.033	0.497	angry	Picture	96.248	n/a	1	1	1	n/a	1	46	2	n/a	n/a	n/a	n/a	40.53	AF09HAS.jpg
10.53	0.514	Blank	Blank	95.734	n/a	1	1	1	n/a	1	n/a	2	n/a	n/a	n/a	n/a	41.027	n/a
11.061	0.497	angry	Picture	95.22	n/a	1	1	2	n/a	2	69	2	n/a	n/a	n/a	n/a	41.557	AM10HAS.jpg
11.558	0.514	Blank	Blank	94.706	n/a	1	1	2	n/a	2	n/a	2	n/a	n/a	n/a	n/a	42.055	n/a
12.089	0.497	angry	Picture	94.192	n/a	1	1	3	n/a	3	71	2	n/a	n/a	n/a	n/a	42.585	BM12HAS.jpg
12.586	0.514	Blank	Blank	93.678	n/a	1	1	3	n/a	3	n/a	2	n/a	n/a	n/a	n/a	43.083	n/a
13.117	0.497	angry	Picture	93.164	n/a	1	1	4	n/a	4	51	2	n/a	n/a	n/a	n/a	43.613	AF20HAS.jpg
13.614	0.514	Blank	Blank	92.65	n/a	1	1	4	n/a	4	n/a	2	n/a	n/a	n/a	n/a	44.111	n/a
14.145	0.497	angry	Picture	92.136	n/a	1	1	5	n/a	5	67	2	n/a	n/a	n/a	n/a	44.641	BM08HAS.jpg
14.642	0.514	Blank	Blank	91.622	n/a	1	1	5	n/a	5	n/a	2	n/a	n/a	n/a	n/a	45.138	n/a
15.172	0.498	angry	Picture	91.108	n/a	1	1	6	n/a	6	60	2	n/a	n/a	n/a	n/a	45.668	AF32HAS.jpg
15.67	0.514	Blank	Blank	90.594	n/a	1	1	6	n/a	6	n/a	2	n/a	n/a	n/a	n/a	46.166	n/a
16.2	0.497	angry	Picture	90.08	n/a	1	1	7	n/a	7	42	2	n/a	n/a	n/a	n/a	46.697	AF03HAS.jpg
16.698	0.514	Blank	Blank	89.566	n/a	1	1	7	n/a	7	n/a	2	n/a	n/a	n/a	n/a	47.194	n/a
17.228	0.497	angry	Picture	89.052	n/a	1	1	8	n/a	8	55	2	n/a	n/a	n/a	n/a	47.725	AF25HAS.jpg
17.725	0.514	Blank	Blank	88.539	n/a	1	1	8	n/a	8	n/a	2	n/a	n/a	n/a	n/a	48.222	n/a
18.256	0.497	angry	Picture	88.025	n/a	1	1	9	n/a	9	72	2	n/a	n/a	n/a	n/a	48.753	AM14HAS.jpg
18.753	0.514	Blank	Blank	87.511	n/a	1	1	9	n/a	9	n/a	2	n/a	n/a	n/a	n/a	49.25	n/a
19.284	0.497	angry	Picture	86.997	n/a	1	1	10	n/a	10	63	2	n/a	n/a	n/a	n/a	49.781	AM04HAS.jpg
19.781	0.514	Blank	Blank	86.483	n/a	1	1	10	n/a	10	n/a	2	n/a	n/a	n/a	n/a	50.278	n/a
20.312	0.497	angry	Picture	85.969	n/a	1	1	11	n/a	11	58	2	n/a	n/a	n/a	n/a	50.808	BF29HAS.jpg
20.809	0.514	Blank	Blank	85.455	n/a	1	1	11	n/a	11	n/a	2	n/a	n/a	n/a	n/a	51.306	n/a
21.34	0.497	angry	Picture	84.941	n/a	1	1	12	n/a	12	48	2	n/a	n/a	n/a	n/a	51.836	AF14HAS.jpg
21.837	0.514	Blank	Blank	84.427	n/a	1	1	12	n/a	12	n/a	2	n/a	n/a	n/a	n/a	52.334	n/a
22.367	0.497	angry	Picture	83.913	n/a	1	1	13	n/a	13	66	2	n/a	n/a	n/a	n/a	52.864	BM07HAS.jpg
22.865	0.514	Blank	Blank	83.399	n/a	1	1	13	n/a	13	n/a	2	n/a	n/a	n/a	n/a	53.361	n/a
23.395	0.497	angry	Picture	82.885	n/a	1	1	14	n/a	14	70	2	n/a	n/a	n/a	n/a	53.892	BM11HAS.jpg
23.893	0.514	Blank	Blank	82.371	n/a	1	1	14	n/a	14	n/a	2	n/a	n/a	n/a	n/a	54.389	n/a
24.423	0.497	angry	Picture	81.857	n/a	1	1	15	n/a	15	43	2	n/a	n/a	n/a	n/a	54.92	BF04HAS.jpg
24.921	0.514	Blank	Blank	81.343	n/a	1	1	15	n/a	15	n/a	2	n/a	n/a	n/a	n/a	55.417	n/a
25.451	0.497	angry	Picture	80.829	n/a	1	1	16	n/a	16	49	2	n/a	n/a	n/a	n/a	55.948	AF17HAS.jpg
25.948	0.514	Blank	Blank	80.316	n/a	1	1	16	n/a	16	n/a	2	n/a	n/a	n/a	n/a	56.445	n/a
26.479	0.497	angry	Picture	79.802	n/a	1	1	17	n/a	17	75	2	n/a	n/a	n/a	n/a	56.976	AM23HAS.jpg
26.976	0.514	Blank	Blank	79.288	n/a	1	1	17	n/a	17	n/a	2	n/a	n/a	n/a	n/a	57.473	n/a
27.507	0.497	angry	Picture	78.774	n/a	1	1	18	n/a	18	80	2	n/a	n/a	n/a	n/a	58.004	BM35HAS.jpg
28.004	0.514	Blank	Blank	78.26	n/a	1	1	18	n/a	18	n/a	2	n/a	n/a	n/a	n/a	58.501	n/a
28.535	0.497	angry	Picture	77.746	n/a	1	1	19	n/a	19	76	2	n/a	n/a	n/a	n/a	59.031	BM24HAS.jpg
29.032	0.514	Blank	Blank	77.232	n/a	1	1	19	n/a	19	n/a	2	n/a	n/a	n/a	n/a	59.529	n/a
29.563	0.497	angry	Picture	76.718	n/a	1	1	20	n/a	20	74	2	n/a	n/a	n/a	n/a	60.059	AM22HAS.jpg
30.06	0.514	Blank	Blank	76.204	n/a	1	1	20	n/a	20	n/a	2	n/a	n/a	n/a	n/a	60.557	n/a
30.59	10.014	ITI	Fixation+	66.174	n/a	1	n/a	n/a	n/a	n/a	n/a	n/a	n/a	n/a	n/a	n/a	61.087	n/a
40.621	0.497	neutral	Picture	65.66	n/a	1	2	1	n/a	21	33	1	n/a	n/a	n/a	n/a	71.117	AM21NES.jpg
41.118	0.514	Blank	Blank	65.146	n/a	1	2	1	n/a	21	n/a	1	n/a	n/a	n/a	n/a	71.615	n/a
41.648	0.497	neutral	Picture	64.632	n/a	1	2	2	n/a	22	39	1	n/a	n/a	n/a	n/a	72.145	AM28NES.jpg
42.146	0.514	Blank	Blank	64.118	n/a	1	2	2	n/a	22	n/a	1	n/a	n/a	n/a	n/a	72.642	n/a
42.676	0.497	neutral	Picture	63.604	n/a	1	2	3	n/a	23	25	1	n/a	n/a	n/a	n/a	73.173	BM06NES.jpg
43.174	0.514	Blank	Blank	63.09	n/a	1	2	3	n/a	23	n/a	1	n/a	n/a	n/a	n/a	73.67	n/a
43.704	0.497	neutral	Picture	62.576	n/a	1	2	4	n/a	24	5	1	n/a	n/a	n/a	n/a	74.201	BF07NES.jpg
44.202	0.514	Blank	Blank	62.062	n/a	1	2	4	n/a	24	n/a	1	n/a	n/a	n/a	n/a	74.698	n/a
44.732	0.497	neutral	Picture	61.548	n/a	1	2	5	n/a	25	10	1	n/a	n/a	n/a	n/a	75.229	AF18NES.jpg
45.23	0.514	Blank	Blank	61.034	n/a	1	2	5	n/a	25	n/a	1	n/a	n/a	n/a	n/a	75.726	n/a
45.76	0.497	neutral	Picture	60.521	n/a	1	2	6	n/a	26	34	1	n/a	n/a	n/a	n/a	76.257	AM22NES.jpg
46.257	0.514	Blank	Blank	60.007	n/a	1	2	6	n/a	26	n/a	1	n/a	n/a	n/a	n/a	76.754	n/a
46.788	0.497	neutral	Picture	59.493	n/a	1	2	7	n/a	27	36	1	n/a	n/a	n/a	n/a	77.284	BM24NES.jpg
47.285	0.514	Blank	Blank	58.979	n/a	1	2	7	n/a	27	n/a	1	n/a	n/a	n/a	n/a	77.782	n/a
47.816	0.497	neutral	Picture	58.465	n/a	1	2	8	n/a	28	14	1	n/a	n/a	n/a	n/a	78.312	AF23NES.jpg
48.313	0.514	Blank	Blank	57.951	n/a	1	2	8	n/a	28	n/a	1	n/a	n/a	n/a	n/a	78.81	n/a
48.844	0.497	neutral	Picture	57.437	n/a	1	2	9	n/a	29	9	1	n/a	n/a	n/a	n/a	79.34	AF17NES.jpg
49.341	0.514	Blank	Blank	56.923	n/a	1	2	9	n/a	29	n/a	1	n/a	n/a	n/a	n/a	79.838	n/a
49.872	0.497	neutral	Picture	56.409	n/a	1	2	10	n/a	30	19	1	n/a	n/a	n/a	n/a	80.368	AF31NES.jpg
50.369	0.514	Blank	Blank	55.895	n/a	1	2	10	n/a	30	n/a	1	n/a	n/a	n/a	n/a	80.865	n/a
50.899	0.497	neutral	Picture	55.381	n/a	1	2	11	n/a	31	15	1	n/a	n/a	n/a	n/a	81.396	AF25NES.jpg
51.397	0.514	Blank	Blank	54.867	n/a	1	2	11	n/a	31	n/a	1	n/a	n/a	n/a	n/a	81.893	n/a
51.927	0.497	neutral	Picture	54.353	n/a	1	2	12	n/a	32	22	1	n/a	n/a	n/a	n/a	82.424	BM03NES.jpg
52.425	0.514	Blank	Blank	53.839	n/a	1	2	12	n/a	32	n/a	1	n/a	n/a	n/a	n/a	82.921	n/a
52.955	0.497	neutral	Picture	53.325	n/a	1	2	13	n/a	33	11	1	n/a	n/a	n/a	n/a	83.452	AF20NES.jpg
53.453	0.514	Blank	Blank	52.811	n/a	1	2	13	n/a	33	n/a	1	n/a	n/a	n/a	n/a	83.949	n/a
53.983	0.497	neutral	Picture	52.298	n/a	1	2	14	n/a	34	4	1	n/a	n/a	n/a	n/a	84.48	AF05NES.jpg
54.48	0.514	Blank	Blank	51.784	n/a	1	2	14	n/a	34	n/a	1	n/a	n/a	n/a	n/a	84.977	n/a
55.011	0.497	neutral	Picture	51.27	n/a	1	2	15	n/a	35	17	1	n/a	n/a	n/a	n/a	85.507	BF28NES.jpg
55.508	0.514	Blank	Blank	50.756	n/a	1	2	15	n/a	35	n/a	1	n/a	n/a	n/a	n/a	86.005	n/a
56.039	0.497	neutral	Picture	50.242	n/a	1	2	16	n/a	36	13	1	n/a	n/a	n/a	n/a	86.535	BF22NES.jpg
56.536	0.514	Blank	Blank	49.728	n/a	1	2	16	n/a	36	n/a	1	n/a	n/a	n/a	n/a	87.033	n/a
57.067	0.497	neutral	Picture	49.214	n/a	1	2	17	n/a	37	12	1	n/a	n/a	n/a	n/a	87.563	AF21NES.jpg
57.564	0.514	Blank	Blank	48.7	n/a	1	2	17	n/a	37	n/a	1	n/a	n/a	n/a	n/a	88.061	n/a
58.095	0.497	neutral	Picture	48.186	n/a	1	2	18	n/a	38	24	1	n/a	n/a	n/a	n/a	88.591	BM05NES.jpg
58.592	0.514	Blank	Blank	47.672	n/a	1	2	18	n/a	38	n/a	1	n/a	n/a	n/a	n/a	89.088	n/a
59.123	0.497	neutral	Picture	47.158	n/a	1	2	19	n/a	39	29	1	n/a	n/a	n/a	n/a	89.619	AM10NES.jpg
59.62	0.514	Blank	Blank	46.644	n/a	1	2	19	n/a	39	n/a	1	n/a	n/a	n/a	n/a	90.116	n/a
60.15	0.497	neutral	Picture	46.13	n/a	1	2	20	n/a	40	23	1	n/a	n/a	n/a	n/a	90.647	AM04NES.jpg
60.648	0.514	Blank	Blank	45.616	n/a	1	2	20	n/a	40	n/a	1	n/a	n/a	n/a	n/a	91.144	n/a
61.178	10.014	ITI	Fixation+	35.586	n/a	1	n/a	n/a	n/a	n/a	n/a	n/a	n/a	n/a	n/a	n/a	91.675	n/a
71.208	0.497	angry	Picture	35.072	n/a	1	3	1	n/a	41	62	2	n/a	n/a	n/a	n/a	101.705	BM03HAS.jpg
71.706	0.514	Blank	Blank	34.558	n/a	1	3	1	n/a	41	n/a	2	n/a	n/a	n/a	n/a	102.202	n/a
72.236	0.497	angry	Picture	34.044	n/a	1	3	2	n/a	42	52	2	n/a	n/a	n/a	n/a	102.733	AF21HAS.jpg
72.734	0.514	Blank	Blank	33.53	n/a	1	3	2	n/a	42	n/a	2	n/a	n/a	n/a	n/a	103.23	n/a
73.264	0.497	angry	Picture	33.017	n/a	1	3	3	n/a	43	44	2	n/a	n/a	n/a	n/a	103.761	AF05HAS.jpg
73.761	0.514	Blank	Blank	32.503	n/a	1	3	3	n/a	43	n/a	2	n/a	n/a	n/a	n/a	104.258	n/a
74.292	0.497	angry	Picture	31.989	n/a	1	3	4	n/a	44	53	2	n/a	n/a	n/a	n/a	104.789	BF22HAS.jpg
74.789	0.514	Blank	Blank	31.475	n/a	1	3	4	n/a	44	n/a	2	n/a	n/a	n/a	n/a	105.286	n/a
75.32	0.497	angry	Picture	30.961	n/a	1	3	5	n/a	45	54	2	n/a	n/a	n/a	n/a	105.816	AF23HAS.jpg
75.817	0.514	Blank	Blank	30.447	n/a	1	3	5	n/a	45	n/a	2	n/a	n/a	n/a	n/a	106.314	n/a
76.348	0.497	angry	Picture	29.933	n/a	1	3	6	n/a	46	68	2	n/a	n/a	n/a	n/a	106.844	AM09HAS.jpg
76.845	0.514	Blank	Blank	29.419	n/a	1	3	6	n/a	46	n/a	2	n/a	n/a	n/a	n/a	107.342	n/a
77.376	0.497	angry	Picture	28.905	n/a	1	3	7	n/a	47	64	2	n/a	n/a	n/a	n/a	107.872	BM05HAS.jpg
77.873	0.514	Blank	Blank	28.391	n/a	1	3	7	n/a	47	n/a	2	n/a	n/a	n/a	n/a	108.37	n/a
78.403	0.497	angry	Picture	27.877	n/a	1	3	8	n/a	48	59	2	n/a	n/a	n/a	n/a	108.9	AF31HAS.jpg
78.901	0.514	Blank	Blank	27.363	n/a	1	3	8	n/a	48	n/a	2	n/a	n/a	n/a	n/a	109.397	n/a
79.431	0.497	angry	Picture	26.849	n/a	1	3	9	n/a	49	41	2	n/a	n/a	n/a	n/a	109.928	AF01HAS.jpg
79.929	0.514	Blank	Blank	26.335	n/a	1	3	9	n/a	49	n/a	2	n/a	n/a	n/a	n/a	110.425	n/a
80.459	0.497	angry	Picture	25.821	n/a	1	3	10	n/a	50	73	2	n/a	n/a	n/a	n/a	110.956	AM21HAS.jpg
80.957	0.514	Blank	Blank	25.307	n/a	1	3	10	n/a	50	n/a	2	n/a	n/a	n/a	n/a	111.453	n/a
81.487	0.497	angry	Picture	24.793	n/a	1	3	11	n/a	51	65	2	n/a	n/a	n/a	n/a	111.984	BM06HAS.jpg
81.984	0.514	Blank	Blank	24.28	n/a	1	3	11	n/a	51	n/a	2	n/a	n/a	n/a	n/a	112.481	n/a
82.515	0.497	angry	Picture	23.766	n/a	1	3	12	n/a	52	56	2	n/a	n/a	n/a	n/a	113.012	AF26HAS.jpg
83.012	0.514	Blank	Blank	23.252	n/a	1	3	12	n/a	52	n/a	2	n/a	n/a	n/a	n/a	113.509	n/a
83.543	0.497	angry	Picture	22.738	n/a	1	3	13	n/a	53	45	2	n/a	n/a	n/a	n/a	114.04	BF07HAS.jpg
84.04	0.514	Blank	Blank	22.224	n/a	1	3	13	n/a	53	n/a	2	n/a	n/a	n/a	n/a	114.537	n/a
84.571	0.497	angry	Picture	21.71	n/a	1	3	14	n/a	54	78	2	n/a	n/a	n/a	n/a	115.067	BM26HAS.jpg
85.068	0.514	Blank	Blank	21.196	n/a	1	3	14	n/a	54	n/a	2	n/a	n/a	n/a	n/a	115.565	n/a
85.599	0.497	angry	Picture	20.682	n/a	1	3	15	n/a	55	50	2	n/a	n/a	n/a	n/a	116.095	AF18HAS.jpg
86.096	0.514	Blank	Blank	20.168	n/a	1	3	15	n/a	55	n/a	2	n/a	n/a	n/a	n/a	116.593	n/a
86.626	0.497	angry	Picture	19.654	n/a	1	3	16	n/a	56	47	2	n/a	n/a	n/a	n/a	117.123	BF11HAS.jpg
87.124	0.514	Blank	Blank	19.14	n/a	1	3	16	n/a	56	n/a	2	n/a	n/a	n/a	n/a	117.621	n/a
87.654	0.497	angry	Picture	18.626	n/a	1	3	17	n/a	57	77	2	n/a	n/a	n/a	n/a	118.151	BM25HAS.jpg
88.152	0.514	Blank	Blank	18.112	n/a	1	3	17	n/a	57	n/a	2	n/a	n/a	n/a	n/a	118.648	n/a
88.682	0.497	angry	Picture	17.598	n/a	1	3	18	n/a	58	57	2	n/a	n/a	n/a	n/a	119.179	BF28HAS.jpg
89.18	0.514	Blank	Blank	17.084	n/a	1	3	18	n/a	58	n/a	2	n/a	n/a	n/a	n/a	119.676	n/a
89.71	0.497	angry	Picture	16.57	n/a	1	3	19	n/a	59	61	2	n/a	n/a	n/a	n/a	120.207	AM01HAS.jpg
90.207	0.514	Blank	Blank	16.056	n/a	1	3	19	n/a	59	n/a	2	n/a	n/a	n/a	n/a	120.704	n/a
90.738	0.497	angry	Picture	15.543	n/a	1	3	20	n/a	60	79	2	n/a	n/a	n/a	n/a	121.235	BM28HAS.jpg
91.235	0.514	Blank	Blank	15.029	n/a	1	3	20	n/a	60	n/a	2	n/a	n/a	n/a	n/a	121.732	n/a
91.766	10.014	ITI	Fixation+	4.999	n/a	1	n/a	n/a	n/a	n/a	n/a	n/a	n/a	n/a	n/a	n/a	122.263	n/a
106.778	n/a	ConfirmRating	Rate	n/a	4.973	1	n/a	n/a	0	n/a	n/a	n/a	2	Angry	39	49	137.275	n/a
114.654	n/a	ConfirmRating	Rate	n/a	7.858	1	n/a	n/a	1	n/a	n/a	n/a	3	Angry	50	50	145.15	n/a
114.678	10.014	ITI	Fixation+	96.74	n/a	2	n/a	n/a	n/a	n/a	n/a	n/a	n/a	n/a	n/a	n/a	145.174	n/a
124.708	0.497	happy	Picture	96.226	n/a	2	4	1	n/a	61	119	3	n/a	n/a	n/a	n/a	155.204	BM28ANS.jpg
125.205	0.514	Blank	Blank	95.712	n/a	2	4	1	n/a	61	n/a	3	n/a	n/a	n/a	n/a	155.702	n/a
125.736	0.497	happy	Picture	95.198	n/a	2	4	2	n/a	62	100	3	n/a	n/a	n/a	n/a	156.232	AF32ANS.jpg
126.233	0.514	Blank	Blank	94.684	n/a	2	4	2	n/a	62	n/a	3	n/a	n/a	n/a	n/a	156.73	n/a
126.763	0.497	happy	Picture	94.17	n/a	2	4	3	n/a	63	118	3	n/a	n/a	n/a	n/a	157.26	BM26ANS.jpg
127.261	0.514	Blank	Blank	93.656	n/a	2	4	3	n/a	63	n/a	3	n/a	n/a	n/a	n/a	157.757	n/a
127.791	0.497	happy	Picture	93.142	n/a	2	4	4	n/a	64	89	3	n/a	n/a	n/a	n/a	158.288	AF17ANS.jpg
128.289	0.514	Blank	Blank	92.628	n/a	2	4	4	n/a	64	n/a	3	n/a	n/a	n/a	n/a	158.785	n/a
128.819	0.497	happy	Picture	92.114	n/a	2	4	5	n/a	65	116	3	n/a	n/a	n/a	n/a	159.316	BM24ANS.jpg
129.317	0.514	Blank	Blank	91.6	n/a	2	4	5	n/a	65	n/a	3	n/a	n/a	n/a	n/a	159.813	n/a
129.847	0.497	happy	Picture	91.086	n/a	2	4	6	n/a	66	105	3	n/a	n/a	n/a	n/a	160.344	BM06ANS.jpg
130.345	0.514	Blank	Blank	90.572	n/a	2	4	6	n/a	66	n/a	3	n/a	n/a	n/a	n/a	160.841	n/a
130.875	0.497	happy	Picture	90.058	n/a	2	4	7	n/a	67	106	3	n/a	n/a	n/a	n/a	161.372	AM07ANS.jpg
131.372	0.514	Blank	Blank	89.544	n/a	2	4	7	n/a	67	n/a	3	n/a	n/a	n/a	n/a	161.869	n/a
131.903	0.497	happy	Picture	89.031	n/a	2	4	8	n/a	68	94	3	n/a	n/a	n/a	n/a	162.399	AF23ANS.jpg
132.4	0.514	Blank	Blank	88.517	n/a	2	4	8	n/a	68	n/a	3	n/a	n/a	n/a	n/a	162.897	n/a
132.931	0.497	happy	Picture	88.003	n/a	2	4	9	n/a	69	117	3	n/a	n/a	n/a	n/a	163.427	BM25ANS.jpg
133.428	0.514	Blank	Blank	87.489	n/a	2	4	9	n/a	69	n/a	3	n/a	n/a	n/a	n/a	163.925	n/a
133.959	0.497	happy	Picture	86.975	n/a	2	4	10	n/a	70	90	3	n/a	n/a	n/a	n/a	164.455	AF18ANS.jpg
134.456	0.514	Blank	Blank	86.461	n/a	2	4	10	n/a	70	n/a	3	n/a	n/a	n/a	n/a	164.953	n/a
134.987	0.497	happy	Picture	85.947	n/a	2	4	11	n/a	71	83	3	n/a	n/a	n/a	n/a	165.483	BF04ANS.jpg
135.484	0.514	Blank	Blank	85.433	n/a	2	4	11	n/a	71	n/a	3	n/a	n/a	n/a	n/a	165.981	n/a
136.014	0.497	happy	Picture	84.919	n/a	2	4	12	n/a	72	112	3	n/a	n/a	n/a	n/a	166.511	AM14ANS.jpg
136.512	0.514	Blank	Blank	84.405	n/a	2	4	12	n/a	72	n/a	3	n/a	n/a	n/a	n/a	167.008	n/a
137.042	0.497	happy	Picture	83.891	n/a	2	4	13	n/a	73	102	3	n/a	n/a	n/a	n/a	167.539	BM03ANS.jpg
137.54	0.514	Blank	Blank	83.377	n/a	2	4	13	n/a	73	n/a	3	n/a	n/a	n/a	n/a	168.036	n/a
138.07	0.497	happy	Picture	82.863	n/a	2	4	14	n/a	74	95	3	n/a	n/a	n/a	n/a	168.567	AF25ANS.jpg
138.568	0.514	Blank	Blank	82.349	n/a	2	4	14	n/a	74	n/a	3	n/a	n/a	n/a	n/a	169.064	n/a
139.098	0.497	happy	Picture	81.835	n/a	2	4	15	n/a	75	113	3	n/a	n/a	n/a	n/a	169.595	AM21ANS.jpg
139.595	0.514	Blank	Blank	81.321	n/a	2	4	15	n/a	75	n/a	3	n/a	n/a	n/a	n/a	170.092	n/a
140.126	0.497	happy	Picture	80.808	n/a	2	4	16	n/a	76	88	3	n/a	n/a	n/a	n/a	170.623	AF14ANS.jpg
140.623	0.514	Blank	Blank	80.293	n/a	2	4	16	n/a	76	n/a	3	n/a	n/a	n/a	n/a	171.12	n/a
141.154	0.497	happy	Picture	79.78	n/a	2	4	17	n/a	77	93	3	n/a	n/a	n/a	n/a	171.65	BF22ANS.jpg
141.651	0.514	Blank	Blank	79.266	n/a	2	4	17	n/a	77	n/a	3	n/a	n/a	n/a	n/a	172.148	n/a
142.182	0.497	happy	Picture	78.752	n/a	2	4	18	n/a	78	86	3	n/a	n/a	n/a	n/a	172.678	AF09ANS.jpg
142.679	0.514	Blank	Blank	78.238	n/a	2	4	18	n/a	78	n/a	3	n/a	n/a	n/a	n/a	173.176	n/a
143.21	0.497	happy	Picture	77.724	n/a	2	4	19	n/a	79	92	3	n/a	n/a	n/a	n/a	173.706	AF21ANS.jpg
143.707	0.514	Blank	Blank	77.21	n/a	2	4	19	n/a	79	n/a	3	n/a	n/a	n/a	n/a	174.203	n/a
144.238	0.497	happy	Picture	76.696	n/a	2	4	20	n/a	80	84	3	n/a	n/a	n/a	n/a	174.734	AF05ANS.jpg
144.735	0.514	Blank	Blank	76.182	n/a	2	4	20	n/a	80	n/a	3	n/a	n/a	n/a	n/a	175.231	n/a
145.265	10.014	ITI	Fixation+	66.152	n/a	2	n/a	n/a	n/a	n/a	n/a	n/a	n/a	n/a	n/a	n/a	175.762	n/a
155.296	0.497	neutral	Picture	65.638	n/a	2	5	1	n/a	81	4	1	n/a	n/a	n/a	n/a	185.792	AF05NES.jpg
155.793	0.514	Blank	Blank	65.124	n/a	2	5	1	n/a	81	n/a	1	n/a	n/a	n/a	n/a	186.289	n/a
156.323	0.497	neutral	Picture	64.61	n/a	2	5	2	n/a	82	14	1	n/a	n/a	n/a	n/a	186.82	AF23NES.jpg
156.821	0.514	Blank	Blank	64.096	n/a	2	5	2	n/a	82	n/a	1	n/a	n/a	n/a	n/a	187.317	n/a
157.351	0.497	neutral	Picture	63.582	n/a	2	5	3	n/a	83	19	1	n/a	n/a	n/a	n/a	187.848	AF31NES.jpg
157.849	0.514	Blank	Blank	63.068	n/a	2	5	3	n/a	83	n/a	1	n/a	n/a	n/a	n/a	188.345	n/a
158.379	0.497	neutral	Picture	62.554	n/a	2	5	4	n/a	84	8	1	n/a	n/a	n/a	n/a	188.876	AF14NES.jpg
158.876	0.514	Blank	Blank	62.04	n/a	2	5	4	n/a	84	n/a	1	n/a	n/a	n/a	n/a	189.373	n/a
159.407	0.497	neutral	Picture	61.526	n/a	2	5	5	n/a	85	25	1	n/a	n/a	n/a	n/a	189.904	BM06NES.jpg
159.904	0.514	Blank	Blank	61.012	n/a	2	5	5	n/a	85	n/a	1	n/a	n/a	n/a	n/a	190.401	n/a
160.435	0.497	neutral	Picture	60.499	n/a	2	5	6	n/a	86	9	1	n/a	n/a	n/a	n/a	190.931	AF17NES.jpg
160.932	0.514	Blank	Blank	59.985	n/a	2	5	6	n/a	86	n/a	1	n/a	n/a	n/a	n/a	191.429	n/a
161.463	0.497	neutral	Picture	59.471	n/a	2	5	7	n/a	87	2	1	n/a	n/a	n/a	n/a	191.959	AF03NES.jpg
161.96	0.514	Blank	Blank	58.957	n/a	2	5	7	n/a	87	n/a	1	n/a	n/a	n/a	n/a	192.457	n/a
162.491	0.497	neutral	Picture	58.443	n/a	2	5	8	n/a	88	17	1	n/a	n/a	n/a	n/a	192.987	BF28NES.jpg
162.988	0.514	Blank	Blank	57.929	n/a	2	5	8	n/a	88	n/a	1	n/a	n/a	n/a	n/a	193.485	n/a
163.518	0.497	neutral	Picture	57.415	n/a	2	5	9	n/a	89	6	1	n/a	n/a	n/a	n/a	194.015	AF09NES.jpg
164.016	0.514	Blank	Blank	56.901	n/a	2	5	9	n/a	89	n/a	1	n/a	n/a	n/a	n/a	194.512	n/a
164.546	0.497	neutral	Picture	56.387	n/a	2	5	10	n/a	90	12	1	n/a	n/a	n/a	n/a	195.043	AF21NES.jpg
165.044	0.514	Blank	Blank	55.873	n/a	2	5	10	n/a	90	n/a	1	n/a	n/a	n/a	n/a	195.54	n/a
165.574	0.497	neutral	Picture	55.359	n/a	2	5	11	n/a	91	24	1	n/a	n/a	n/a	n/a	196.071	BM05NES.jpg
166.072	0.514	Blank	Blank	54.845	n/a	2	5	11	n/a	91	n/a	1	n/a	n/a	n/a	n/a	196.568	n/a
166.602	0.497	neutral	Picture	54.331	n/a	2	5	12	n/a	92	34	1	n/a	n/a	n/a	n/a	197.099	AM22NES.jpg
167.1	0.514	Blank	Blank	53.817	n/a	2	5	12	n/a	92	n/a	1	n/a	n/a	n/a	n/a	197.596	n/a
167.63	0.497	neutral	Picture	53.303	n/a	2	5	13	n/a	93	23	1	n/a	n/a	n/a	n/a	198.127	AM04NES.jpg
168.127	0.514	Blank	Blank	52.79	n/a	2	5	13	n/a	93	n/a	1	n/a	n/a	n/a	n/a	198.624	n/a
168.658	0.497	neutral	Picture	52.276	n/a	2	5	14	n/a	94	15	1	n/a	n/a	n/a	n/a	199.155	AF25NES.jpg
169.155	0.514	Blank	Blank	51.762	n/a	2	5	14	n/a	94	n/a	1	n/a	n/a	n/a	n/a	199.652	n/a
169.686	0.497	neutral	Picture	51.248	n/a	2	5	15	n/a	95	37	1	n/a	n/a	n/a	n/a	200.182	BM25NES.jpg
170.183	0.514	Blank	Blank	50.734	n/a	2	5	15	n/a	95	n/a	1	n/a	n/a	n/a	n/a	200.68	n/a
170.714	0.497	neutral	Picture	50.22	n/a	2	5	16	n/a	96	32	1	n/a	n/a	n/a	n/a	201.21	AM14NES.jpg
171.211	0.514	Blank	Blank	49.706	n/a	2	5	16	n/a	96	n/a	1	n/a	n/a	n/a	n/a	201.708	n/a
171.742	0.497	neutral	Picture	49.192	n/a	2	5	17	n/a	97	3	1	n/a	n/a	n/a	n/a	202.238	BF04NES.jpg
172.239	0.514	Blank	Blank	48.678	n/a	2	5	17	n/a	97	n/a	1	n/a	n/a	n/a	n/a	202.736	n/a
172.769	0.497	neutral	Picture	48.164	n/a	2	5	18	n/a	98	16	1	n/a	n/a	n/a	n/a	203.266	AF26NES.jpg
173.267	0.514	Blank	Blank	47.65	n/a	2	5	18	n/a	98	n/a	1	n/a	n/a	n/a	n/a	203.763	n/a
173.797	0.497	neutral	Picture	47.136	n/a	2	5	19	n/a	99	27	1	n/a	n/a	n/a	n/a	204.294	BM08NES.jpg
174.295	0.514	Blank	Blank	46.622	n/a	2	5	19	n/a	99	n/a	1	n/a	n/a	n/a	n/a	204.791	n/a
174.825	0.497	neutral	Picture	46.108	n/a	2	5	20	n/a	100	28	1	n/a	n/a	n/a	n/a	205.322	AM09NES.jpg
175.322	0.514	Blank	Blank	45.594	n/a	2	5	20	n/a	100	n/a	1	n/a	n/a	n/a	n/a	205.819	n/a
175.853	10.014	ITI	Fixation+	35.564	n/a	2	n/a	n/a	n/a	n/a	n/a	n/a	n/a	n/a	n/a	n/a	206.35	n/a
185.883	0.497	happy	Picture	35.05	n/a	2	6	1	n/a	101	81	3	n/a	n/a	n/a	n/a	216.38	AF01ANS.jpg
186.381	0.514	Blank	Blank	34.536	n/a	2	6	1	n/a	101	n/a	3	n/a	n/a	n/a	n/a	216.877	n/a
186.911	0.497	happy	Picture	34.022	n/a	2	6	2	n/a	102	120	3	n/a	n/a	n/a	n/a	217.408	AM35ANS.jpg
187.408	0.514	Blank	Blank	33.508	n/a	2	6	2	n/a	102	n/a	3	n/a	n/a	n/a	n/a	217.905	n/a
187.939	0.497	happy	Picture	32.995	n/a	2	6	3	n/a	103	114	3	n/a	n/a	n/a	n/a	218.435	AM22ANS.jpg
188.436	0.514	Blank	Blank	32.481	n/a	2	6	3	n/a	103	n/a	3	n/a	n/a	n/a	n/a	218.933	n/a
188.967	0.497	happy	Picture	31.967	n/a	2	6	4	n/a	104	109	3	n/a	n/a	n/a	n/a	219.463	AM10ANS.jpg
189.464	0.514	Blank	Blank	31.453	n/a	2	6	4	n/a	104	n/a	3	n/a	n/a	n/a	n/a	219.961	n/a
189.995	0.497	happy	Picture	30.939	n/a	2	6	5	n/a	105	96	3	n/a	n/a	n/a	n/a	220.491	AF26ANS.jpg
190.492	0.514	Blank	Blank	30.425	n/a	2	6	5	n/a	105	n/a	3	n/a	n/a	n/a	n/a	220.989	n/a
191.023	0.497	happy	Picture	29.911	n/a	2	6	6	n/a	106	82	3	n/a	n/a	n/a	n/a	221.519	AF03ANS.jpg
191.52	0.514	Blank	Blank	29.397	n/a	2	6	6	n/a	106	n/a	3	n/a	n/a	n/a	n/a	222.017	n/a
192.05	0.497	happy	Picture	28.883	n/a	2	6	7	n/a	107	97	3	n/a	n/a	n/a	n/a	222.547	BF28ANS.jpg
192.548	0.514	Blank	Blank	28.369	n/a	2	6	7	n/a	107	n/a	3	n/a	n/a	n/a	n/a	223.044	n/a
193.078	0.497	happy	Picture	27.855	n/a	2	6	8	n/a	108	115	3	n/a	n/a	n/a	n/a	223.575	AM23ANS.jpg
193.576	0.514	Blank	Blank	27.341	n/a	2	6	8	n/a	108	n/a	3	n/a	n/a	n/a	n/a	224.072	n/a
194.106	0.497	happy	Picture	26.827	n/a	2	6	9	n/a	109	91	3	n/a	n/a	n/a	n/a	224.603	AF20ANS.jpg
194.603	0.514	Blank	Blank	26.313	n/a	2	6	9	n/a	109	n/a	3	n/a	n/a	n/a	n/a	225.1	n/a
195.134	0.497	happy	Picture	25.799	n/a	2	6	10	n/a	110	87	3	n/a	n/a	n/a	n/a	225.631	BF11ANS.jpg
195.631	0.514	Blank	Blank	25.285	n/a	2	6	10	n/a	110	n/a	3	n/a	n/a	n/a	n/a	226.128	n/a
196.162	0.497	happy	Picture	24.772	n/a	2	6	11	n/a	111	85	3	n/a	n/a	n/a	n/a	226.659	BF07ANS.jpg
196.659	0.514	Blank	Blank	24.258	n/a	2	6	11	n/a	111	n/a	3	n/a	n/a	n/a	n/a	227.156	n/a
197.19	0.497	happy	Picture	23.744	n/a	2	6	12	n/a	112	110	3	n/a	n/a	n/a	n/a	227.686	AM11ANS.jpg
197.687	0.514	Blank	Blank	23.23	n/a	2	6	12	n/a	112	n/a	3	n/a	n/a	n/a	n/a	228.184	n/a
198.218	0.497	happy	Picture	22.716	n/a	2	6	13	n/a	113	111	3	n/a	n/a	n/a	n/a	228.714	BM12ANS.jpg
198.715	0.514	Blank	Blank	22.202	n/a	2	6	13	n/a	113	n/a	3	n/a	n/a	n/a	n/a	229.212	n/a
199.246	0.497	happy	Picture	21.688	n/a	2	6	14	n/a	114	103	3	n/a	n/a	n/a	n/a	229.742	AM04ANS.jpg
199.743	0.514	Blank	Blank	21.174	n/a	2	6	14	n/a	114	n/a	3	n/a	n/a	n/a	n/a	230.239	n/a
200.273	0.497	happy	Picture	20.66	n/a	2	6	15	n/a	115	101	3	n/a	n/a	n/a	n/a	230.77	AM01ANS.jpg
200.771	0.514	Blank	Blank	20.146	n/a	2	6	15	n/a	115	n/a	3	n/a	n/a	n/a	n/a	231.267	n/a
201.301	0.497	happy	Picture	19.632	n/a	2	6	16	n/a	116	104	3	n/a	n/a	n/a	n/a	231.798	BM05ANS.jpg
201.799	0.514	Blank	Blank	19.118	n/a	2	6	16	n/a	116	n/a	3	n/a	n/a	n/a	n/a	232.295	n/a
202.329	0.497	happy	Picture	18.604	n/a	2	6	17	n/a	117	107	3	n/a	n/a	n/a	n/a	232.826	BM08ANS.jpg
202.827	0.514	Blank	Blank	18.09	n/a	2	6	17	n/a	117	n/a	3	n/a	n/a	n/a	n/a	233.323	n/a
203.357	0.497	happy	Picture	17.576	n/a	2	6	18	n/a	118	98	3	n/a	n/a	n/a	n/a	233.854	BF29ANS.jpg
203.854	0.514	Blank	Blank	17.062	n/a	2	6	18	n/a	118	n/a	3	n/a	n/a	n/a	n/a	234.351	n/a
204.385	0.497	happy	Picture	16.549	n/a	2	6	19	n/a	119	99	3	n/a	n/a	n/a	n/a	234.882	AF31ANS.jpg
204.882	0.514	Blank	Blank	16.035	n/a	2	6	19	n/a	119	n/a	3	n/a	n/a	n/a	n/a	235.379	n/a
205.413	0.497	happy	Picture	15.521	n/a	2	6	20	n/a	120	108	3	n/a	n/a	n/a	n/a	235.909	AM09ANS.jpg
205.91	0.514	Blank	Blank	15.007	n/a	2	6	20	n/a	120	n/a	3	n/a	n/a	n/a	n/a	236.407	n/a
206.441	10.014	ITI	Fixation+	4.977	n/a	2	n/a	n/a	n/a	n/a	n/a	n/a	n/a	n/a	n/a	n/a	236.937	n/a
221.431	n/a	ConfirmRating	Rate	n/a	4.974	2	n/a	n/a	0	n/a	n/a	n/a	2	Happy	81	53	251.927	n/a
223.817	n/a	ConfirmRating	Rate	n/a	2.371	2	n/a	n/a	1	n/a	n/a	n/a	3	Happy	0	49	254.313	n/a
223.848	15.004	Rest	Picture	n/a	n/a	n/a	n/a	n/a	n/a	n/a	n/a	n/a	0	n/a	0	0	254.345	n/a
238.869	10.014	ITI	Fixation+	97.443	n/a	3	n/a	n/a	n/a	n/a	n/a	n/a	n/a	n/a	n/a	n/a	269.365	n/a
248.899	0.497	angry	Picture	96.929	n/a	3	7	1	n/a	1	46	2	n/a	n/a	n/a	n/a	279.395	AF09HAS.jpg
249.396	0.514	Blank	Blank	96.415	n/a	3	7	1	n/a	1	n/a	2	n/a	n/a	n/a	n/a	279.893	n/a
249.927	0.497	angry	Picture	95.901	n/a	3	7	2	n/a	2	69	2	n/a	n/a	n/a	n/a	280.423	AM10HAS.jpg
250.424	0.514	Blank	Blank	95.388	n/a	3	7	2	n/a	2	n/a	2	n/a	n/a	n/a	n/a	280.921	n/a
250.954	0.497	angry	Picture	94.874	n/a	3	7	3	n/a	3	71	2	n/a	n/a	n/a	n/a	281.451	BM12HAS.jpg
251.452	0.514	Blank	Blank	94.36	n/a	3	7	3	n/a	3	n/a	2	n/a	n/a	n/a	n/a	281.949	n/a
251.982	0.497	angry	Picture	93.846	n/a	3	7	4	n/a	4	51	2	n/a	n/a	n/a	n/a	282.479	AF20HAS.jpg
252.48	0.514	Blank	Blank	93.332	n/a	3	7	4	n/a	4	n/a	2	n/a	n/a	n/a	n/a	282.976	n/a
253.01	0.497	angry	Picture	92.818	n/a	3	7	5	n/a	5	67	2	n/a	n/a	n/a	n/a	283.507	BM08HAS.jpg
253.508	0.514	Blank	Blank	92.304	n/a	3	7	5	n/a	5	n/a	2	n/a	n/a	n/a	n/a	284.004	n/a
254.038	0.497	angry	Picture	91.79	n/a	3	7	6	n/a	6	60	2	n/a	n/a	n/a	n/a	284.535	AF32HAS.jpg
254.536	0.514	Blank	Blank	91.276	n/a	3	7	6	n/a	6	n/a	2	n/a	n/a	n/a	n/a	285.032	n/a
255.066	0.497	angry	Picture	90.762	n/a	3	7	7	n/a	7	42	2	n/a	n/a	n/a	n/a	285.563	AF03HAS.jpg
255.563	0.514	Blank	Blank	90.248	n/a	3	7	7	n/a	7	n/a	2	n/a	n/a	n/a	n/a	286.06	n/a
256.094	0.497	angry	Picture	89.734	n/a	3	7	8	n/a	8	55	2	n/a	n/a	n/a	n/a	286.591	AF25HAS.jpg
256.591	0.514	Blank	Blank	89.22	n/a	3	7	8	n/a	8	n/a	2	n/a	n/a	n/a	n/a	287.088	n/a
257.122	0.497	angry	Picture	88.706	n/a	3	7	9	n/a	9	72	2	n/a	n/a	n/a	n/a	287.618	AM14HAS.jpg
257.619	0.514	Blank	Blank	88.192	n/a	3	7	9	n/a	9	n/a	2	n/a	n/a	n/a	n/a	288.116	n/a
258.15	0.497	angry	Picture	87.678	n/a	3	7	10	n/a	10	63	2	n/a	n/a	n/a	n/a	288.646	AM04HAS.jpg
258.647	0.514	Blank	Blank	87.164	n/a	3	7	10	n/a	10	n/a	2	n/a	n/a	n/a	n/a	289.144	n/a
259.178	0.497	angry	Picture	86.651	n/a	3	7	11	n/a	11	58	2	n/a	n/a	n/a	n/a	289.674	BF29HAS.jpg
259.675	0.514	Blank	Blank	86.137	n/a	3	7	11	n/a	11	n/a	2	n/a	n/a	n/a	n/a	290.171	n/a
260.205	0.497	angry	Picture	85.623	n/a	3	7	12	n/a	12	48	2	n/a	n/a	n/a	n/a	290.702	AF14HAS.jpg
260.703	0.514	Blank	Blank	85.109	n/a	3	7	12	n/a	12	n/a	2	n/a	n/a	n/a	n/a	291.199	n/a
261.233	0.497	angry	Picture	84.595	n/a	3	7	13	n/a	13	66	2	n/a	n/a	n/a	n/a	291.73	BM07HAS.jpg
261.731	0.514	Blank	Blank	84.081	n/a	3	7	13	n/a	13	n/a	2	n/a	n/a	n/a	n/a	292.227	n/a
262.261	0.497	angry	Picture	83.567	n/a	3	7	14	n/a	14	70	2	n/a	n/a	n/a	n/a	292.758	BM11HAS.jpg
262.759	0.514	Blank	Blank	83.053	n/a	3	7	14	n/a	14	n/a	2	n/a	n/a	n/a	n/a	293.255	n/a
263.289	0.497	angry	Picture	82.539	n/a	3	7	15	n/a	15	43	2	n/a	n/a	n/a	n/a	293.786	BF04HAS.jpg
263.786	0.514	Blank	Blank	82.025	n/a	3	7	15	n/a	15	n/a	2	n/a	n/a	n/a	n/a	294.283	n/a
264.317	0.497	angry	Picture	81.511	n/a	3	7	16	n/a	16	49	2	n/a	n/a	n/a	n/a	294.813	AF17HAS.jpg
264.814	0.514	Blank	Blank	80.997	n/a	3	7	16	n/a	16	n/a	2	n/a	n/a	n/a	n/a	295.311	n/a
265.345	0.497	angry	Picture	80.483	n/a	3	7	17	n/a	17	75	2	n/a	n/a	n/a	n/a	295.841	AM23HAS.jpg
265.842	0.514	Blank	Blank	79.969	n/a	3	7	17	n/a	17	n/a	2	n/a	n/a	n/a	n/a	296.339	n/a
266.373	0.497	angry	Picture	79.455	n/a	3	7	18	n/a	18	80	2	n/a	n/a	n/a	n/a	296.869	BM35HAS.jpg
266.87	0.514	Blank	Blank	78.942	n/a	3	7	18	n/a	18	n/a	2	n/a	n/a	n/a	n/a	297.367	n/a
267.401	0.497	angry	Picture	78.428	n/a	3	7	19	n/a	19	76	2	n/a	n/a	n/a	n/a	297.897	BM24HAS.jpg
267.898	0.514	Blank	Blank	77.914	n/a	3	7	19	n/a	19	n/a	2	n/a	n/a	n/a	n/a	298.394	n/a
268.428	0.497	angry	Picture	77.4	n/a	3	7	20	n/a	20	74	2	n/a	n/a	n/a	n/a	298.925	AM22HAS.jpg
268.926	0.514	Blank	Blank	76.886	n/a	3	7	20	n/a	20	n/a	2	n/a	n/a	n/a	n/a	299.422	n/a
269.456	10.014	ITI	Fixation+	66.856	n/a	3	n/a	n/a	n/a	n/a	n/a	n/a	n/a	n/a	n/a	n/a	299.953	n/a
279.486	0.497	neutral	Picture	66.342	n/a	3	8	1	n/a	21	33	1	n/a	n/a	n/a	n/a	309.983	AM21NES.jpg
279.984	0.514	Blank	Blank	65.828	n/a	3	8	1	n/a	21	n/a	1	n/a	n/a	n/a	n/a	310.48	n/a
280.514	0.497	neutral	Picture	65.314	n/a	3	8	2	n/a	22	39	1	n/a	n/a	n/a	n/a	311.011	AM28NES.jpg
281.012	0.514	Blank	Blank	64.8	n/a	3	8	2	n/a	22	n/a	1	n/a	n/a	n/a	n/a	311.508	n/a
281.542	0.497	neutral	Picture	64.286	n/a	3	8	3	n/a	23	25	1	n/a	n/a	n/a	n/a	312.039	BM06NES.jpg
282.04	0.514	Blank	Blank	63.772	n/a	3	8	3	n/a	23	n/a	1	n/a	n/a	n/a	n/a	312.536	n/a
282.57	0.497	neutral	Picture	63.258	n/a	3	8	4	n/a	24	5	1	n/a	n/a	n/a	n/a	313.067	BF07NES.jpg
283.067	0.514	Blank	Blank	62.744	n/a	3	8	4	n/a	24	n/a	1	n/a	n/a	n/a	n/a	313.564	n/a
283.598	0.497	neutral	Picture	62.23	n/a	3	8	5	n/a	25	10	1	n/a	n/a	n/a	n/a	314.094	AF18NES.jpg
284.095	0.514	Blank	Blank	61.716	n/a	3	8	5	n/a	25	n/a	1	n/a	n/a	n/a	n/a	314.592	n/a
284.626	0.497	neutral	Picture	61.202	n/a	3	8	6	n/a	26	34	1	n/a	n/a	n/a	n/a	315.122	AM22NES.jpg
285.123	0.514	Blank	Blank	60.688	n/a	3	8	6	n/a	26	n/a	1	n/a	n/a	n/a	n/a	315.62	n/a
285.654	0.497	neutral	Picture	60.174	n/a	3	8	7	n/a	27	36	1	n/a	n/a	n/a	n/a	316.15	BM24NES.jpg
286.151	0.514	Blank	Blank	59.661	n/a	3	8	7	n/a	27	n/a	1	n/a	n/a	n/a	n/a	316.648	n/a
286.682	0.497	neutral	Picture	59.147	n/a	3	8	8	n/a	28	14	1	n/a	n/a	n/a	n/a	317.178	AF23NES.jpg
287.179	0.514	Blank	Blank	58.633	n/a	3	8	8	n/a	28	n/a	1	n/a	n/a	n/a	n/a	317.675	n/a
287.709	0.497	neutral	Picture	58.119	n/a	3	8	9	n/a	29	9	1	n/a	n/a	n/a	n/a	318.206	AF17NES.jpg
288.207	0.514	Blank	Blank	57.605	n/a	3	8	9	n/a	29	n/a	1	n/a	n/a	n/a	n/a	318.703	n/a
288.737	0.497	neutral	Picture	57.091	n/a	3	8	10	n/a	30	19	1	n/a	n/a	n/a	n/a	319.234	AF31NES.jpg
289.235	0.514	Blank	Blank	56.577	n/a	3	8	10	n/a	30	n/a	1	n/a	n/a	n/a	n/a	319.731	n/a
289.765	0.497	neutral	Picture	56.063	n/a	3	8	11	n/a	31	15	1	n/a	n/a	n/a	n/a	320.262	AF25NES.jpg
290.263	0.514	Blank	Blank	55.549	n/a	3	8	11	n/a	31	n/a	1	n/a	n/a	n/a	n/a	320.759	n/a
290.793	0.497	neutral	Picture	55.035	n/a	3	8	12	n/a	32	22	1	n/a	n/a	n/a	n/a	321.29	BM03NES.jpg
291.291	0.514	Blank	Blank	54.521	n/a	3	8	12	n/a	32	n/a	1	n/a	n/a	n/a	n/a	321.787	n/a
291.821	0.497	neutral	Picture	54.007	n/a	3	8	13	n/a	33	11	1	n/a	n/a	n/a	n/a	322.318	AF20NES.jpg
292.318	0.514	Blank	Blank	53.493	n/a	3	8	13	n/a	33	n/a	1	n/a	n/a	n/a	n/a	322.815	n/a
292.849	0.497	neutral	Picture	52.979	n/a	3	8	14	n/a	34	4	1	n/a	n/a	n/a	n/a	323.346	AF05NES.jpg
293.346	0.514	Blank	Blank	52.465	n/a	3	8	14	n/a	34	n/a	1	n/a	n/a	n/a	n/a	323.843	n/a
293.877	0.497	neutral	Picture	51.951	n/a	3	8	15	n/a	35	17	1	n/a	n/a	n/a	n/a	324.373	BF28NES.jpg
294.374	0.514	Blank	Blank	51.438	n/a	3	8	15	n/a	35	n/a	1	n/a	n/a	n/a	n/a	324.871	n/a
294.905	0.497	neutral	Picture	50.923	n/a	3	8	16	n/a	36	13	1	n/a	n/a	n/a	n/a	325.401	BF22NES.jpg
295.402	0.514	Blank	Blank	50.41	n/a	3	8	16	n/a	36	n/a	1	n/a	n/a	n/a	n/a	325.899	n/a
295.933	0.497	neutral	Picture	49.896	n/a	3	8	17	n/a	37	12	1	n/a	n/a	n/a	n/a	326.429	AF21NES.jpg
296.43	0.514	Blank	Blank	49.382	n/a	3	8	17	n/a	37	n/a	1	n/a	n/a	n/a	n/a	326.926	n/a
296.96	0.497	neutral	Picture	48.868	n/a	3	8	18	n/a	38	24	1	n/a	n/a	n/a	n/a	327.457	BM05NES.jpg
297.458	0.514	Blank	Blank	48.354	n/a	3	8	18	n/a	38	n/a	1	n/a	n/a	n/a	n/a	327.954	n/a
297.988	0.497	neutral	Picture	47.84	n/a	3	8	19	n/a	39	29	1	n/a	n/a	n/a	n/a	328.485	AM10NES.jpg
298.486	0.514	Blank	Blank	47.326	n/a	3	8	19	n/a	39	n/a	1	n/a	n/a	n/a	n/a	328.982	n/a
299.016	0.497	neutral	Picture	46.812	n/a	3	8	20	n/a	40	23	1	n/a	n/a	n/a	n/a	329.513	AM04NES.jpg
299.514	0.514	Blank	Blank	46.298	n/a	3	8	20	n/a	40	n/a	1	n/a	n/a	n/a	n/a	330.01	n/a
300.044	10.014	ITI	Fixation+	36.268	n/a	3	n/a	n/a	n/a	n/a	n/a	n/a	n/a	n/a	n/a	n/a	330.541	n/a
310.074	0.497	angry	Picture	35.754	n/a	3	9	1	n/a	41	62	2	n/a	n/a	n/a	n/a	340.571	BM03HAS.jpg
310.572	0.514	Blank	Blank	35.24	n/a	3	9	1	n/a	41	n/a	2	n/a	n/a	n/a	n/a	341.068	n/a
311.102	0.497	angry	Picture	34.726	n/a	3	9	2	n/a	42	52	2	n/a	n/a	n/a	n/a	341.599	AF21HAS.jpg
311.599	0.514	Blank	Blank	34.212	n/a	3	9	2	n/a	42	n/a	2	n/a	n/a	n/a	n/a	342.096	n/a
312.13	0.497	angry	Picture	33.698	n/a	3	9	3	n/a	43	44	2	n/a	n/a	n/a	n/a	342.627	AF05HAS.jpg
312.627	0.514	Blank	Blank	33.184	n/a	3	9	3	n/a	43	n/a	2	n/a	n/a	n/a	n/a	343.124	n/a
313.158	0.497	angry	Picture	32.67	n/a	3	9	4	n/a	44	53	2	n/a	n/a	n/a	n/a	343.654	BF22HAS.jpg
313.655	0.514	Blank	Blank	32.156	n/a	3	9	4	n/a	44	n/a	2	n/a	n/a	n/a	n/a	344.152	n/a
314.186	0.497	angry	Picture	31.642	n/a	3	9	5	n/a	45	54	2	n/a	n/a	n/a	n/a	344.682	AF23HAS.jpg
314.683	0.514	Blank	Blank	31.129	n/a	3	9	5	n/a	45	n/a	2	n/a	n/a	n/a	n/a	345.18	n/a
315.214	0.497	angry	Picture	30.615	n/a	3	9	6	n/a	46	68	2	n/a	n/a	n/a	n/a	345.71	AM09HAS.jpg
315.711	0.514	Blank	Blank	30.101	n/a	3	9	6	n/a	46	n/a	2	n/a	n/a	n/a	n/a	346.207	n/a
316.241	0.497	angry	Picture	29.587	n/a	3	9	7	n/a	47	64	2	n/a	n/a	n/a	n/a	346.738	BM05HAS.jpg
316.739	0.514	Blank	Blank	29.073	n/a	3	9	7	n/a	47	n/a	2	n/a	n/a	n/a	n/a	347.235	n/a
317.269	0.497	angry	Picture	28.559	n/a	3	9	8	n/a	48	59	2	n/a	n/a	n/a	n/a	347.766	AF31HAS.jpg
317.767	0.514	Blank	Blank	28.045	n/a	3	9	8	n/a	48	n/a	2	n/a	n/a	n/a	n/a	348.263	n/a
318.297	0.497	angry	Picture	27.531	n/a	3	9	9	n/a	49	41	2	n/a	n/a	n/a	n/a	348.794	AF01HAS.jpg
318.794	0.514	Blank	Blank	27.017	n/a	3	9	9	n/a	49	n/a	2	n/a	n/a	n/a	n/a	349.291	n/a
319.325	0.497	angry	Picture	26.503	n/a	3	9	10	n/a	50	73	2	n/a	n/a	n/a	n/a	349.822	AM21HAS.jpg
319.822	0.514	Blank	Blank	25.989	n/a	3	9	10	n/a	50	n/a	2	n/a	n/a	n/a	n/a	350.319	n/a
320.353	0.497	angry	Picture	25.475	n/a	3	9	11	n/a	51	65	2	n/a	n/a	n/a	n/a	350.849	BM06HAS.jpg
320.85	0.514	Blank	Blank	24.961	n/a	3	9	11	n/a	51	n/a	2	n/a	n/a	n/a	n/a	351.347	n/a
321.381	0.497	angry	Picture	24.447	n/a	3	9	12	n/a	52	56	2	n/a	n/a	n/a	n/a	351.877	AF26HAS.jpg
321.878	0.514	Blank	Blank	23.933	n/a	3	9	12	n/a	52	n/a	2	n/a	n/a	n/a	n/a	352.375	n/a
322.409	0.497	angry	Picture	23.419	n/a	3	9	13	n/a	53	45	2	n/a	n/a	n/a	n/a	352.905	BF07HAS.jpg
322.906	0.514	Blank	Blank	22.905	n/a	3	9	13	n/a	53	n/a	2	n/a	n/a	n/a	n/a	353.403	n/a
323.437	0.497	angry	Picture	22.392	n/a	3	9	14	n/a	54	78	2	n/a	n/a	n/a	n/a	353.933	BM26HAS.jpg
323.934	0.514	Blank	Blank	21.878	n/a	3	9	14	n/a	54	n/a	2	n/a	n/a	n/a	n/a	354.43	n/a
324.464	0.497	angry	Picture	21.364	n/a	3	9	15	n/a	55	50	2	n/a	n/a	n/a	n/a	354.961	AF18HAS.jpg
324.962	0.514	Blank	Blank	20.85	n/a	3	9	15	n/a	55	n/a	2	n/a	n/a	n/a	n/a	355.458	n/a
325.492	0.497	angry	Picture	20.336	n/a	3	9	16	n/a	56	47	2	n/a	n/a	n/a	n/a	355.989	BF11HAS.jpg
325.99	0.514	Blank	Blank	19.822	n/a	3	9	16	n/a	56	n/a	2	n/a	n/a	n/a	n/a	356.486	n/a
326.52	0.497	angry	Picture	19.308	n/a	3	9	17	n/a	57	77	2	n/a	n/a	n/a	n/a	357.017	BM25HAS.jpg
327.017	0.514	Blank	Blank	18.794	n/a	3	9	17	n/a	57	n/a	2	n/a	n/a	n/a	n/a	357.514	n/a
327.548	0.497	angry	Picture	18.28	n/a	3	9	18	n/a	58	57	2	n/a	n/a	n/a	n/a	358.045	BF28HAS.jpg
328.045	0.514	Blank	Blank	17.766	n/a	3	9	18	n/a	58	n/a	2	n/a	n/a	n/a	n/a	358.542	n/a
328.576	0.497	angry	Picture	17.252	n/a	3	9	19	n/a	59	61	2	n/a	n/a	n/a	n/a	359.072	AM01HAS.jpg
329.073	0.514	Blank	Blank	16.738	n/a	3	9	19	n/a	59	n/a	2	n/a	n/a	n/a	n/a	359.57	n/a
329.604	0.497	angry	Picture	16.224	n/a	3	9	20	n/a	60	79	2	n/a	n/a	n/a	n/a	360.1	BM28HAS.jpg
330.101	0.514	Blank	Blank	15.71	n/a	3	9	20	n/a	60	n/a	2	n/a	n/a	n/a	n/a	360.598	n/a
330.632	10.014	ITI	Fixation+	5.68	n/a	3	n/a	n/a	n/a	n/a	n/a	n/a	n/a	n/a	n/a	n/a	361.128	n/a
346.325	n/a	ConfirmRating	Rate	n/a	5.67	3	n/a	n/a	0	n/a	n/a	n/a	2	Angry	41	49	376.822	n/a
356.477	n/a	ConfirmRating	Rate	n/a	10.13	3	n/a	n/a	1	n/a	n/a	n/a	3	Angry	37	49	386.974	n/a
356.495	10.014	ITI	Fixation+	98.287	n/a	4	n/a	n/a	n/a	n/a	n/a	n/a	n/a	n/a	n/a	n/a	386.991	n/a
366.525	0.497	happy	Picture	97.773	n/a	4	10	1	n/a	61	119	3	n/a	n/a	n/a	n/a	397.021	BM28ANS.jpg
367.022	0.514	Blank	Blank	97.259	n/a	4	10	1	n/a	61	n/a	3	n/a	n/a	n/a	n/a	397.519	n/a
367.552	0.497	happy	Picture	96.746	n/a	4	10	2	n/a	62	100	3	n/a	n/a	n/a	n/a	398.049	AF32ANS.jpg
368.05	0.514	Blank	Blank	96.232	n/a	4	10	2	n/a	62	n/a	3	n/a	n/a	n/a	n/a	398.546	n/a
368.58	0.497	happy	Picture	95.718	n/a	4	10	3	n/a	63	118	3	n/a	n/a	n/a	n/a	399.077	BM26ANS.jpg
369.078	0.514	Blank	Blank	95.204	n/a	4	10	3	n/a	63	n/a	3	n/a	n/a	n/a	n/a	399.574	n/a
369.608	0.497	happy	Picture	94.69	n/a	4	10	4	n/a	64	89	3	n/a	n/a	n/a	n/a	400.105	AF17ANS.jpg
370.106	0.514	Blank	Blank	94.176	n/a	4	10	4	n/a	64	n/a	3	n/a	n/a	n/a	n/a	400.602	n/a
370.636	0.497	happy	Picture	93.662	n/a	4	10	5	n/a	65	116	3	n/a	n/a	n/a	n/a	401.133	BM24ANS.jpg
371.133	0.514	Blank	Blank	93.148	n/a	4	10	5	n/a	65	n/a	3	n/a	n/a	n/a	n/a	401.63	n/a
371.664	0.497	happy	Picture	92.634	n/a	4	10	6	n/a	66	105	3	n/a	n/a	n/a	n/a	402.161	BM06ANS.jpg
372.161	0.514	Blank	Blank	92.12	n/a	4	10	6	n/a	66	n/a	3	n/a	n/a	n/a	n/a	402.658	n/a
372.692	0.497	happy	Picture	91.606	n/a	4	10	7	n/a	67	106	3	n/a	n/a	n/a	n/a	403.188	AM07ANS.jpg
373.189	0.514	Blank	Blank	91.092	n/a	4	10	7	n/a	67	n/a	3	n/a	n/a	n/a	n/a	403.686	n/a
373.72	0.497	happy	Picture	90.578	n/a	4	10	8	n/a	68	94	3	n/a	n/a	n/a	n/a	404.216	AF23ANS.jpg
374.217	0.514	Blank	Blank	90.064	n/a	4	10	8	n/a	68	n/a	3	n/a	n/a	n/a	n/a	404.714	n/a
374.748	0.497	happy	Picture	89.55	n/a	4	10	9	n/a	69	117	3	n/a	n/a	n/a	n/a	405.244	BM25ANS.jpg
375.245	0.514	Blank	Blank	89.036	n/a	4	10	9	n/a	69	n/a	3	n/a	n/a	n/a	n/a	405.741	n/a
375.776	0.497	happy	Picture	88.523	n/a	4	10	10	n/a	70	90	3	n/a	n/a	n/a	n/a	406.272	AF18ANS.jpg
376.273	0.514	Blank	Blank	88.009	n/a	4	10	10	n/a	70	n/a	3	n/a	n/a	n/a	n/a	406.769	n/a
376.803	0.497	happy	Picture	87.495	n/a	4	10	11	n/a	71	83	3	n/a	n/a	n/a	n/a	407.3	BF04ANS.jpg
377.301	0.514	Blank	Blank	86.981	n/a	4	10	11	n/a	71	n/a	3	n/a	n/a	n/a	n/a	407.797	n/a
377.831	0.497	happy	Picture	86.467	n/a	4	10	12	n/a	72	112	3	n/a	n/a	n/a	n/a	408.328	AM14ANS.jpg
378.329	0.514	Blank	Blank	85.953	n/a	4	10	12	n/a	72	n/a	3	n/a	n/a	n/a	n/a	408.825	n/a
378.859	0.497	happy	Picture	85.439	n/a	4	10	13	n/a	73	102	3	n/a	n/a	n/a	n/a	409.356	BM03ANS.jpg
379.356	0.514	Blank	Blank	84.925	n/a	4	10	13	n/a	73	n/a	3	n/a	n/a	n/a	n/a	409.853	n/a
379.887	0.497	happy	Picture	84.411	n/a	4	10	14	n/a	74	95	3	n/a	n/a	n/a	n/a	410.384	AF25ANS.jpg
380.384	0.514	Blank	Blank	83.897	n/a	4	10	14	n/a	74	n/a	3	n/a	n/a	n/a	n/a	410.881	n/a
380.915	0.497	happy	Picture	83.383	n/a	4	10	15	n/a	75	113	3	n/a	n/a	n/a	n/a	411.411	AM21ANS.jpg
381.412	0.514	Blank	Blank	82.869	n/a	4	10	15	n/a	75	n/a	3	n/a	n/a	n/a	n/a	411.909	n/a
381.943	0.497	happy	Picture	82.355	n/a	4	10	16	n/a	76	88	3	n/a	n/a	n/a	n/a	412.439	AF14ANS.jpg
382.44	0.514	Blank	Blank	81.841	n/a	4	10	16	n/a	76	n/a	3	n/a	n/a	n/a	n/a	412.937	n/a
382.971	0.497	happy	Picture	81.327	n/a	4	10	17	n/a	77	93	3	n/a	n/a	n/a	n/a	413.467	BF22ANS.jpg
383.468	0.514	Blank	Blank	80.813	n/a	4	10	17	n/a	77	n/a	3	n/a	n/a	n/a	n/a	413.965	n/a
383.998	0.497	happy	Picture	80.299	n/a	4	10	18	n/a	78	86	3	n/a	n/a	n/a	n/a	414.495	AF09ANS.jpg
384.496	0.514	Blank	Blank	79.786	n/a	4	10	18	n/a	78	n/a	3	n/a	n/a	n/a	n/a	414.993	n/a
385.026	0.497	happy	Picture	79.272	n/a	4	10	19	n/a	79	92	3	n/a	n/a	n/a	n/a	415.523	AF21ANS.jpg
385.524	0.514	Blank	Blank	78.758	n/a	4	10	19	n/a	79	n/a	3	n/a	n/a	n/a	n/a	416.02	n/a
386.054	0.497	happy	Picture	78.244	n/a	4	10	20	n/a	80	84	3	n/a	n/a	n/a	n/a	416.551	AF05ANS.jpg
386.552	0.514	Blank	Blank	77.73	n/a	4	10	20	n/a	80	n/a	3	n/a	n/a	n/a	n/a	417.048	n/a
387.082	10.014	ITI	Fixation+	67.7	n/a	4	n/a	n/a	n/a	n/a	n/a	n/a	n/a	n/a	n/a	n/a	417.579	n/a
397.112	0.497	neutral	Picture	67.186	n/a	4	11	1	n/a	81	4	1	n/a	n/a	n/a	n/a	427.609	AF05NES.jpg
397.61	0.514	Blank	Blank	66.672	n/a	4	11	1	n/a	81	n/a	1	n/a	n/a	n/a	n/a	428.106	n/a
398.14	0.497	neutral	Picture	66.158	n/a	4	11	2	n/a	82	14	1	n/a	n/a	n/a	n/a	428.637	AF23NES.jpg
398.637	0.514	Blank	Blank	65.644	n/a	4	11	2	n/a	82	n/a	1	n/a	n/a	n/a	n/a	429.134	n/a
399.168	0.497	neutral	Picture	65.13	n/a	4	11	3	n/a	83	19	1	n/a	n/a	n/a	n/a	429.665	AF31NES.jpg
399.665	0.514	Blank	Blank	64.616	n/a	4	11	3	n/a	83	n/a	1	n/a	n/a	n/a	n/a	430.162	n/a
400.196	0.497	neutral	Picture	64.102	n/a	4	11	4	n/a	84	8	1	n/a	n/a	n/a	n/a	430.692	AF14NES.jpg
400.693	0.514	Blank	Blank	63.588	n/a	4	11	4	n/a	84	n/a	1	n/a	n/a	n/a	n/a	431.19	n/a
401.224	0.497	neutral	Picture	63.074	n/a	4	11	5	n/a	85	25	1	n/a	n/a	n/a	n/a	431.72	BM06NES.jpg
401.721	0.514	Blank	Blank	62.56	n/a	4	11	5	n/a	85	n/a	1	n/a	n/a	n/a	n/a	432.218	n/a
402.252	0.497	neutral	Picture	62.046	n/a	4	11	6	n/a	86	9	1	n/a	n/a	n/a	n/a	432.748	AF17NES.jpg
402.749	0.514	Blank	Blank	61.532	n/a	4	11	6	n/a	86	n/a	1	n/a	n/a	n/a	n/a	433.246	n/a
403.279	0.497	neutral	Picture	61.018	n/a	4	11	7	n/a	87	2	1	n/a	n/a	n/a	n/a	433.776	AF03NES.jpg
403.777	0.514	Blank	Blank	60.505	n/a	4	11	7	n/a	87	n/a	1	n/a	n/a	n/a	n/a	434.274	n/a
404.307	0.497	neutral	Picture	59.991	n/a	4	11	8	n/a	88	17	1	n/a	n/a	n/a	n/a	434.804	BF28NES.jpg
404.805	0.514	Blank	Blank	59.477	n/a	4	11	8	n/a	88	n/a	1	n/a	n/a	n/a	n/a	435.301	n/a
405.335	0.497	neutral	Picture	58.963	n/a	4	11	9	n/a	89	6	1	n/a	n/a	n/a	n/a	435.832	AF09NES.jpg
405.833	0.514	Blank	Blank	58.449	n/a	4	11	9	n/a	89	n/a	1	n/a	n/a	n/a	n/a	436.329	n/a
406.363	0.497	neutral	Picture	57.935	n/a	4	11	10	n/a	90	12	1	n/a	n/a	n/a	n/a	436.86	AF21NES.jpg
406.861	0.514	Blank	Blank	57.421	n/a	4	11	10	n/a	90	n/a	1	n/a	n/a	n/a	n/a	437.357	n/a
407.391	0.497	neutral	Picture	56.907	n/a	4	11	11	n/a	91	24	1	n/a	n/a	n/a	n/a	437.888	BM05NES.jpg
407.888	0.514	Blank	Blank	56.393	n/a	4	11	11	n/a	91	n/a	1	n/a	n/a	n/a	n/a	438.385	n/a
408.419	0.497	neutral	Picture	55.879	n/a	4	11	12	n/a	92	34	1	n/a	n/a	n/a	n/a	438.916	AM22NES.jpg
408.916	0.514	Blank	Blank	55.365	n/a	4	11	12	n/a	92	n/a	1	n/a	n/a	n/a	n/a	439.413	n/a
409.447	0.497	neutral	Picture	54.851	n/a	4	11	13	n/a	93	23	1	n/a	n/a	n/a	n/a	439.943	AM04NES.jpg
409.944	0.514	Blank	Blank	54.337	n/a	4	11	13	n/a	93	n/a	1	n/a	n/a	n/a	n/a	440.441	n/a
410.475	0.497	neutral	Picture	53.823	n/a	4	11	14	n/a	94	15	1	n/a	n/a	n/a	n/a	440.971	AF25NES.jpg
410.972	0.514	Blank	Blank	53.309	n/a	4	11	14	n/a	94	n/a	1	n/a	n/a	n/a	n/a	441.469	n/a
411.503	0.497	neutral	Picture	52.796	n/a	4	11	15	n/a	95	37	1	n/a	n/a	n/a	n/a	441.999	BM25NES.jpg
412.0	0.514	Blank	Blank	52.281	n/a	4	11	15	n/a	95	n/a	1	n/a	n/a	n/a	n/a	442.497	n/a
412.53	0.497	neutral	Picture	51.768	n/a	4	11	16	n/a	96	32	1	n/a	n/a	n/a	n/a	443.027	AM14NES.jpg
413.028	0.514	Blank	Blank	51.254	n/a	4	11	16	n/a	96	n/a	1	n/a	n/a	n/a	n/a	443.524	n/a
413.558	0.497	neutral	Picture	50.74	n/a	4	11	17	n/a	97	3	1	n/a	n/a	n/a	n/a	444.055	BF04NES.jpg
414.056	0.514	Blank	Blank	50.226	n/a	4	11	17	n/a	97	n/a	1	n/a	n/a	n/a	n/a	444.552	n/a
414.586	0.497	neutral	Picture	49.712	n/a	4	11	18	n/a	98	16	1	n/a	n/a	n/a	n/a	445.083	AF26NES.jpg
415.084	0.514	Blank	Blank	49.198	n/a	4	11	18	n/a	98	n/a	1	n/a	n/a	n/a	n/a	445.58	n/a
415.614	0.497	neutral	Picture	48.684	n/a	4	11	19	n/a	99	27	1	n/a	n/a	n/a	n/a	446.111	BM08NES.jpg
416.111	0.514	Blank	Blank	48.17	n/a	4	11	19	n/a	99	n/a	1	n/a	n/a	n/a	n/a	446.608	n/a
416.642	0.497	neutral	Picture	47.656	n/a	4	11	20	n/a	100	28	1	n/a	n/a	n/a	n/a	447.139	AM09NES.jpg
417.139	0.514	Blank	Blank	47.142	n/a	4	11	20	n/a	100	n/a	1	n/a	n/a	n/a	n/a	447.636	n/a
417.67	10.014	ITI	Fixation+	37.112	n/a	4	n/a	n/a	n/a	n/a	n/a	n/a	n/a	n/a	n/a	n/a	448.166	n/a
427.7	0.497	happy	Picture	36.598	n/a	4	12	1	n/a	101	81	3	n/a	n/a	n/a	n/a	458.197	AF01ANS.jpg
428.197	0.514	Blank	Blank	36.084	n/a	4	12	1	n/a	101	n/a	3	n/a	n/a	n/a	n/a	458.694	n/a
428.728	0.497	happy	Picture	35.57	n/a	4	12	2	n/a	102	120	3	n/a	n/a	n/a	n/a	459.224	AM35ANS.jpg
429.225	0.514	Blank	Blank	35.056	n/a	4	12	2	n/a	102	n/a	3	n/a	n/a	n/a	n/a	459.722	n/a
429.756	0.497	happy	Picture	34.542	n/a	4	12	3	n/a	103	114	3	n/a	n/a	n/a	n/a	460.252	AM22ANS.jpg
430.253	0.514	Blank	Blank	34.028	n/a	4	12	3	n/a	103	n/a	3	n/a	n/a	n/a	n/a	460.75	n/a
430.784	0.497	happy	Picture	33.514	n/a	4	12	4	n/a	104	109	3	n/a	n/a	n/a	n/a	461.28	AM10ANS.jpg
431.281	0.514	Blank	Blank	33.0	n/a	4	12	4	n/a	104	n/a	3	n/a	n/a	n/a	n/a	461.777	n/a
431.811	0.497	happy	Picture	32.487	n/a	4	12	5	n/a	105	96	3	n/a	n/a	n/a	n/a	462.308	AF26ANS.jpg
432.309	0.514	Blank	Blank	31.973	n/a	4	12	5	n/a	105	n/a	3	n/a	n/a	n/a	n/a	462.805	n/a
432.839	0.497	happy	Picture	31.459	n/a	4	12	6	n/a	106	82	3	n/a	n/a	n/a	n/a	463.336	AF03ANS.jpg
433.337	0.514	Blank	Blank	30.945	n/a	4	12	6	n/a	106	n/a	3	n/a	n/a	n/a	n/a	463.833	n/a
433.867	0.497	happy	Picture	30.431	n/a	4	12	7	n/a	107	97	3	n/a	n/a	n/a	n/a	464.364	BF28ANS.jpg
434.365	0.514	Blank	Blank	29.917	n/a	4	12	7	n/a	107	n/a	3	n/a	n/a	n/a	n/a	464.861	n/a
434.895	0.497	happy	Picture	29.403	n/a	4	12	8	n/a	108	115	3	n/a	n/a	n/a	n/a	465.392	AM23ANS.jpg
435.392	0.514	Blank	Blank	28.889	n/a	4	12	8	n/a	108	n/a	3	n/a	n/a	n/a	n/a	465.889	n/a
435.923	0.497	happy	Picture	28.375	n/a	4	12	9	n/a	109	91	3	n/a	n/a	n/a	n/a	466.42	AF20ANS.jpg
436.42	0.514	Blank	Blank	27.861	n/a	4	12	9	n/a	109	n/a	3	n/a	n/a	n/a	n/a	466.917	n/a
436.951	0.497	happy	Picture	27.347	n/a	4	12	10	n/a	110	87	3	n/a	n/a	n/a	n/a	467.447	BF11ANS.jpg
437.448	0.514	Blank	Blank	26.833	n/a	4	12	10	n/a	110	n/a	3	n/a	n/a	n/a	n/a	467.945	n/a
437.979	0.497	happy	Picture	26.319	n/a	4	12	11	n/a	111	85	3	n/a	n/a	n/a	n/a	468.475	BF07ANS.jpg
438.476	0.514	Blank	Blank	25.805	n/a	4	12	11	n/a	111	n/a	3	n/a	n/a	n/a	n/a	468.973	n/a
439.007	0.497	happy	Picture	25.291	n/a	4	12	12	n/a	112	110	3	n/a	n/a	n/a	n/a	469.503	AM11ANS.jpg
439.504	0.514	Blank	Blank	24.777	n/a	4	12	12	n/a	112	n/a	3	n/a	n/a	n/a	n/a	470.001	n/a
440.034	0.497	happy	Picture	24.264	n/a	4	12	13	n/a	113	111	3	n/a	n/a	n/a	n/a	470.531	BM12ANS.jpg
440.532	0.514	Blank	Blank	23.75	n/a	4	12	13	n/a	113	n/a	3	n/a	n/a	n/a	n/a	471.028	n/a
441.062	0.497	happy	Picture	23.236	n/a	4	12	14	n/a	114	103	3	n/a	n/a	n/a	n/a	471.559	AM04ANS.jpg
441.56	0.514	Blank	Blank	22.722	n/a	4	12	14	n/a	114	n/a	3	n/a	n/a	n/a	n/a	472.056	n/a
442.09	0.497	happy	Picture	22.208	n/a	4	12	15	n/a	115	101	3	n/a	n/a	n/a	n/a	472.587	AM01ANS.jpg
442.588	0.514	Blank	Blank	21.694	n/a	4	12	15	n/a	115	n/a	3	n/a	n/a	n/a	n/a	473.084	n/a
443.118	0.497	happy	Picture	21.18	n/a	4	12	16	n/a	116	104	3	n/a	n/a	n/a	n/a	473.615	BM05ANS.jpg
443.615	0.514	Blank	Blank	20.666	n/a	4	12	16	n/a	116	n/a	3	n/a	n/a	n/a	n/a	474.112	n/a
444.146	0.497	happy	Picture	20.152	n/a	4	12	17	n/a	117	107	3	n/a	n/a	n/a	n/a	474.643	BM08ANS.jpg
444.643	0.514	Blank	Blank	19.638	n/a	4	12	17	n/a	117	n/a	3	n/a	n/a	n/a	n/a	475.14	n/a
445.174	0.497	happy	Picture	19.124	n/a	4	12	18	n/a	118	98	3	n/a	n/a	n/a	n/a	475.671	BF29ANS.jpg
445.671	0.514	Blank	Blank	18.61	n/a	4	12	18	n/a	118	n/a	3	n/a	n/a	n/a	n/a	476.168	n/a
446.202	0.497	happy	Picture	18.096	n/a	4	12	19	n/a	119	99	3	n/a	n/a	n/a	n/a	476.698	AF31ANS.jpg
446.699	0.514	Blank	Blank	17.582	n/a	4	12	19	n/a	119	n/a	3	n/a	n/a	n/a	n/a	477.196	n/a
447.23	0.497	happy	Picture	17.068	n/a	4	12	20	n/a	120	108	3	n/a	n/a	n/a	n/a	477.726	AM09ANS.jpg
447.727	0.514	Blank	Blank	16.555	n/a	4	12	20	n/a	120	n/a	3	n/a	n/a	n/a	n/a	478.224	n/a
448.257	10.014	ITI	Fixation+	6.524	n/a	4	n/a	n/a	n/a	n/a	n/a	n/a	n/a	n/a	n/a	n/a	478.754	n/a
464.795	n/a	ConfirmRating	Rate	n/a	6.515	4	n/a	n/a	0	n/a	n/a	n/a	2	Happy	73	52	495.292	n/a
468.707	n/a	ConfirmRating	Rate	n/a	3.896	4	n/a	n/a	1	n/a	n/a	n/a	3	Happy	0	48	499.204	n/a
