onset	duration	trial_type	trial_number	event_type	cue_to_participant	stimulus_type	time_until_response	rated_success_of_regulation	onset_uncorrected
0.006	10.014	Instruction	-1	Picture	Instruction	n/a	n/a	n/a	26.173
10.036	5.007	ITI	0	Picture	Fixation+	1	13.371	n/a	36.203
15.059	2.006	Cue	0	Picture	Maintain	1	11.348	n/a	41.226
17.066	4.99	Pic	0	Picture	IAPS_26	1	6.358	n/a	43.232
22.056	2.006	Blank	0	Picture	BLANK	1	4.352	n/a	48.223
28.413	n/a	ConfirmRating	0	Response	n/a	1	n/a	3	54.58
28.439	6.002	ITI	1	Picture	Fixation+	2	11.317	n/a	54.605
34.457	2.006	Cue	1	Picture	Enhance	2	9.294	n/a	60.624
36.463	4.99	Pic	1	Picture	IAPS_36	2	4.304	n/a	62.63
41.453	2.006	Blank	1	Picture	BLANK	2	2.298	n/a	67.62
45.757	n/a	ConfirmRating	1	Response	n/a	2	n/a	6	71.924
45.78	4.012	ITI	2	Picture	Fixation+	3	10.494	n/a	71.947
49.809	2.006	Cue	2	Picture	Suppress	3	8.471	n/a	75.976
51.815	4.99	Pic	2	Picture	IAPS_01	3	3.481	n/a	77.982
56.805	2.006	Blank	2	Picture	BLANK	3	1.475	n/a	82.972
60.286	n/a	ConfirmRating	2	Response	n/a	3	n/a	6	86.453
60.303	5.007	ITI	3	Picture	Fixation+	4	10.65	n/a	86.47
65.327	2.006	Cue	3	Picture	Maintain	4	8.627	n/a	91.493
67.333	4.99	Pic	3	Picture	IAPS_46	4	3.637	n/a	93.499
72.323	2.006	Blank	3	Picture	BLANK	4	1.631	n/a	98.49
75.96	n/a	ConfirmRating	3	Response	n/a	4	n/a	6	102.127
75.987	5.007	ITI	4	Picture	Fixation+	4	11.044	n/a	102.154
81.01	2.006	Cue	4	Picture	Maintain	4	9.022	n/a	107.177
83.016	4.99	Pic	4	Picture	IAPS_49	4	4.031	n/a	109.183
88.007	2.006	Blank	4	Picture	BLANK	4	2.025	n/a	114.173
92.038	n/a	ConfirmRating	4	Response	n/a	4	n/a	6	118.205
92.068	6.002	ITI	5	Picture	Fixation+	2	11.831	n/a	118.235
98.086	2.006	Cue	5	Picture	Enhance	2	9.808	n/a	124.253
100.093	4.99	Pic	5	Picture	IAPS_37	2	4.818	n/a	126.259
105.083	2.006	Blank	5	Picture	BLANK	2	2.812	n/a	131.25
109.901	n/a	ConfirmRating	5	Response	n/a	2	n/a	5	136.067
109.924	4.012	ITI	6	Picture	Fixation+	1	10.091	n/a	136.091
113.952	2.006	Cue	6	Picture	Maintain	1	8.068	n/a	140.119
115.959	4.99	Pic	6	Picture	IAPS_27	1	3.078	n/a	142.125
120.949	2.006	Blank	6	Picture	BLANK	1	1.072	n/a	147.116
124.026	n/a	ConfirmRating	6	Response	n/a	1	n/a	0	150.193
124.049	6.002	ITI	7	Picture	Fixation+	3	11.276	n/a	150.216
130.067	2.006	Cue	7	Picture	Suppress	3	9.253	n/a	156.234
132.073	4.99	Pic	7	Picture	IAPS_02	3	4.263	n/a	158.24
137.063	2.006	Blank	7	Picture	BLANK	3	2.257	n/a	163.23
141.326	n/a	ConfirmRating	7	Response	n/a	3	n/a	6	167.493
141.357	5.007	ITI	8	Picture	Fixation+	4	11.014	n/a	167.524
146.381	2.006	Cue	8	Picture	Maintain	4	8.991	n/a	172.548
148.387	4.99	Pic	8	Picture	IAPS_52	4	4.001	n/a	174.554
153.377	2.006	Blank	8	Picture	BLANK	4	1.995	n/a	179.544
157.378	n/a	ConfirmRating	8	Response	n/a	4	n/a	7	183.545
157.406	6.002	ITI	9	Picture	Fixation+	1	10.335	n/a	183.573
163.424	2.006	Cue	9	Picture	Maintain	1	8.312	n/a	189.591
165.43	4.99	Pic	9	Picture	IAPS_28	1	3.322	n/a	191.597
170.42	2.006	Blank	9	Picture	BLANK	1	1.316	n/a	196.587
173.742	n/a	ConfirmRating	9	Response	n/a	1	n/a	6	199.909
173.769	5.007	ITI	10	Picture	Fixation+	2	10.775	n/a	199.936
178.792	2.006	Cue	10	Picture	Enhance	2	8.752	n/a	204.959
180.798	4.99	Pic	10	Picture	IAPS_38	2	3.762	n/a	206.965
185.789	2.006	Blank	10	Picture	BLANK	2	1.756	n/a	211.956
189.551	n/a	ConfirmRating	10	Response	n/a	2	n/a	7	215.718
189.569	4.012	ITI	11	Picture	Fixation+	3	11.577	n/a	215.736
193.597	2.006	Cue	11	Picture	Suppress	3	9.554	n/a	219.764
195.603	4.99	Pic	11	Picture	IAPS_03	3	4.564	n/a	221.77
200.594	2.006	Blank	11	Picture	BLANK	3	2.558	n/a	226.761
205.158	n/a	ConfirmRating	11	Response	n/a	3	n/a	7	231.325
205.186	6.002	ITI	12	Picture	Fixation+	2	10.121	n/a	231.353
211.204	2.006	Cue	12	Picture	Enhance	2	8.098	n/a	237.371
213.21	4.99	Pic	12	Picture	IAPS_39	2	3.108	n/a	239.377
218.2	2.006	Blank	12	Picture	BLANK	2	1.102	n/a	244.367
221.308	n/a	ConfirmRating	12	Response	n/a	2	n/a	3	247.475
221.334	5.007	ITI	13	Picture	Fixation+	1	12.157	n/a	247.501
226.357	2.006	Cue	13	Picture	Maintain	1	10.134	n/a	252.524
228.363	4.99	Pic	13	Picture	IAPS_29	1	5.144	n/a	254.53
233.353	2.006	Blank	13	Picture	BLANK	1	3.138	n/a	259.52
238.497	n/a	ConfirmRating	13	Response	n/a	1	n/a	0	264.664
238.526	4.012	ITI	14	Picture	Fixation+	4	9.89	n/a	264.693
242.555	2.006	Cue	14	Picture	Maintain	4	7.867	n/a	268.722
244.561	4.99	Pic	14	Picture	IAPS_55	4	2.877	n/a	270.728
249.551	2.006	Blank	14	Picture	BLANK	4	0.871	n/a	275.718
252.428	n/a	ConfirmRating	14	Response	n/a	4	n/a	3	278.595
252.452	5.007	ITI	15	Picture	Fixation+	3	10.473	n/a	278.619
257.476	2.006	Cue	15	Picture	Suppress	3	8.45	n/a	283.643
259.482	4.99	Pic	15	Picture	IAPS_04	3	3.46	n/a	285.649
264.472	2.006	Blank	15	Picture	BLANK	3	1.454	n/a	290.639
267.932	n/a	ConfirmRating	15	Response	n/a	3	n/a	2	294.099
267.954	6.002	ITI	16	Picture	Fixation+	2	9.943	n/a	294.12
273.972	2.006	Cue	16	Picture	Enhance	2	7.92	n/a	300.139
275.978	4.99	Pic	16	Picture	IAPS_40	2	2.93	n/a	302.145
280.968	2.006	Blank	16	Picture	BLANK	2	0.924	n/a	307.135
283.898	n/a	ConfirmRating	16	Response	n/a	2	n/a	0	310.065
283.919	6.002	ITI	17	Picture	Fixation+	1	11.695	n/a	310.086
289.937	2.006	Cue	17	Picture	Maintain	1	9.672	n/a	316.104
291.943	4.99	Pic	17	Picture	IAPS_30	1	4.682	n/a	318.11
296.933	2.006	Blank	17	Picture	BLANK	1	2.676	n/a	323.1
301.616	n/a	ConfirmRating	17	Response	n/a	1	n/a	3	327.783
301.642	4.012	ITI	18	Picture	Fixation+	3	14.704	n/a	327.809
305.671	2.006	Cue	18	Picture	Suppress	3	12.682	n/a	331.837
307.677	4.99	Pic	18	Picture	IAPS_05	3	7.692	n/a	333.844
312.667	2.006	Blank	18	Picture	BLANK	3	5.686	n/a	338.834
320.358	n/a	ConfirmRating	18	Response	n/a	3	n/a	2	346.525
320.376	5.007	ITI	19	Picture	Fixation+	4	11.457	n/a	346.543
325.399	2.006	Cue	19	Picture	Maintain	4	9.435	n/a	351.566
327.406	4.99	Pic	19	Picture	IAPS_58	4	4.444	n/a	353.572
332.396	2.006	Blank	19	Picture	BLANK	4	2.438	n/a	358.563
336.84	n/a	ConfirmRating	19	Response	n/a	4	n/a	7	363.007
336.872	6.002	ITI	20	Picture	Fixation+	4	11.138	n/a	363.039
342.89	2.006	Cue	20	Picture	Maintain	4	9.116	n/a	369.057
344.896	4.99	Pic	20	Picture	IAPS_47	4	4.126	n/a	371.063
349.886	2.006	Blank	20	Picture	BLANK	4	2.12	n/a	376.053
354.012	n/a	ConfirmRating	20	Response	n/a	4	n/a	7	380.179
354.031	5.007	ITI	21	Picture	Fixation+	3	10.162	n/a	380.198
359.055	2.006	Cue	21	Picture	Suppress	3	8.139	n/a	385.221
361.061	4.99	Pic	21	Picture	IAPS_06	3	3.149	n/a	387.228
366.051	2.006	Blank	21	Picture	BLANK	3	1.143	n/a	392.218
369.2	n/a	ConfirmRating	21	Response	n/a	3	n/a	0	395.367
369.217	4.012	ITI	22	Picture	Fixation+	1	10.06	n/a	395.384
373.246	2.006	Cue	22	Picture	Maintain	1	8.038	n/a	399.413
375.252	4.99	Pic	22	Picture	IAPS_16	1	3.047	n/a	401.419
380.242	2.006	Blank	22	Picture	BLANK	1	1.041	n/a	406.409
383.29	n/a	ConfirmRating	22	Response	n/a	1	n/a	5	409.457
383.31	4.012	ITI	23	Picture	Fixation+	2	10.01	n/a	409.476
387.338	2.006	Cue	23	Picture	Enhance	2	7.987	n/a	413.505
389.344	4.99	Pic	23	Picture	IAPS_41	2	2.997	n/a	415.511
394.334	2.006	Blank	23	Picture	BLANK	2	0.991	n/a	420.501
397.332	n/a	ConfirmRating	23	Response	n/a	2	n/a	3	423.498
397.352	5.007	ITI	24	Picture	Fixation+	1	10.8	n/a	423.519
402.375	2.006	Cue	24	Picture	Maintain	1	8.777	n/a	428.542
404.381	4.99	Pic	24	Picture	IAPS_17	1	3.787	n/a	430.548
409.371	2.006	Blank	24	Picture	BLANK	1	1.781	n/a	435.538
413.158	n/a	ConfirmRating	24	Response	n/a	1	n/a	7	439.325
413.185	4.012	ITI	25	Picture	Fixation+	2	10.55	n/a	439.351
417.213	2.006	Cue	25	Picture	Enhance	2	8.527	n/a	443.38
419.219	4.99	Pic	25	Picture	IAPS_42	2	3.537	n/a	445.386
424.209	2.006	Blank	25	Picture	BLANK	2	1.531	n/a	450.376
427.746	n/a	ConfirmRating	25	Response	n/a	2	n/a	6	453.913
427.774	6.002	ITI	26	Picture	Fixation+	4	11.171	n/a	453.941
433.792	2.006	Cue	26	Picture	Maintain	4	9.148	n/a	459.959
435.798	4.99	Pic	26	Picture	IAPS_50	4	4.158	n/a	461.965
440.788	2.006	Blank	26	Picture	BLANK	4	2.152	n/a	466.955
444.946	n/a	ConfirmRating	26	Response	n/a	4	n/a	7	471.113
444.966	5.007	ITI	27	Picture	Fixation+	3	10.499	n/a	471.133
449.99	2.006	Cue	27	Picture	Suppress	3	8.476	n/a	476.157
451.996	4.99	Pic	27	Picture	IAPS_07	3	3.486	n/a	478.163
456.986	2.006	Blank	27	Picture	BLANK	3	1.48	n/a	483.153
460.472	n/a	ConfirmRating	27	Response	n/a	3	n/a	2	486.639
460.501	5.007	ITI	28	Picture	Fixation+	2	9.687	n/a	486.668
465.524	2.006	Cue	28	Picture	Enhance	2	7.665	n/a	491.691
467.53	4.99	Pic	28	Picture	IAPS_43	2	2.674	n/a	493.697
472.52	2.006	Blank	28	Picture	BLANK	2	0.668	n/a	498.687
475.195	n/a	ConfirmRating	28	Response	n/a	2	n/a	3	501.362
475.223	4.012	ITI	29	Picture	Fixation+	3	10.162	n/a	501.39
479.251	2.006	Cue	29	Picture	Suppress	3	8.139	n/a	505.418
481.257	4.99	Pic	29	Picture	IAPS_08	3	3.149	n/a	507.424
486.248	2.006	Blank	29	Picture	BLANK	3	1.143	n/a	512.415
489.397	n/a	ConfirmRating	29	Response	n/a	3	n/a	2	515.563
489.414	15.004	Rest	29	Picture	Rest	n/a	-15.022	n/a	515.581
504.435	5.007	ITI	30	Picture	Fixation+	4	10.418	n/a	530.602
509.458	2.006	Cue	30	Picture	Maintain	4	8.395	n/a	535.625
511.464	4.99	Pic	30	Picture	IAPS_53	4	3.405	n/a	537.631
516.454	2.006	Blank	30	Picture	BLANK	4	1.399	n/a	542.621
519.859	n/a	ConfirmRating	30	Response	n/a	4	n/a	6	546.026
519.886	6.002	ITI	31	Picture	Fixation+	1	10.876	n/a	546.053
525.904	2.006	Cue	31	Picture	Maintain	1	8.854	n/a	552.071
527.91	4.99	Pic	31	Picture	IAPS_18	1	3.863	n/a	554.077
532.901	2.006	Blank	31	Picture	BLANK	1	1.857	n/a	559.068
536.764	n/a	ConfirmRating	31	Response	n/a	1	n/a	7	562.931
536.797	4.012	ITI	32	Picture	Fixation+	3	10.357	n/a	562.964
540.825	2.006	Cue	32	Picture	Suppress	3	8.335	n/a	566.992
542.831	4.99	Pic	32	Picture	IAPS_09	3	3.344	n/a	568.998
547.822	2.006	Blank	32	Picture	BLANK	3	1.338	n/a	573.989
551.166	n/a	ConfirmRating	32	Response	n/a	3	n/a	6	577.333
551.187	5.007	ITI	33	Picture	Fixation+	1	10.314	n/a	577.354
556.211	2.006	Cue	33	Picture	Maintain	1	8.291	n/a	582.378
558.217	4.99	Pic	33	Picture	IAPS_19	1	3.301	n/a	584.384
563.207	2.006	Blank	33	Picture	BLANK	1	1.295	n/a	589.374
566.508	n/a	ConfirmRating	33	Response	n/a	1	n/a	3	592.675
566.539	4.012	ITI	34	Picture	Fixation+	2	9.524	n/a	592.706
570.568	2.006	Cue	34	Picture	Enhance	2	7.502	n/a	596.735
572.574	4.99	Pic	34	Picture	IAPS_44	2	2.511	n/a	598.741
577.564	2.006	Blank	34	Picture	BLANK	2	0.506	n/a	603.731
580.076	n/a	ConfirmRating	34	Response	n/a	2	n/a	0	606.243
580.101	6.002	ITI	35	Picture	Fixation+	4	10.673	n/a	606.268
586.119	2.006	Cue	35	Picture	Maintain	4	8.651	n/a	612.286
588.125	4.99	Pic	35	Picture	IAPS_56	4	3.66	n/a	614.292
593.115	2.006	Blank	35	Picture	BLANK	4	1.654	n/a	619.282
596.775	n/a	ConfirmRating	35	Response	n/a	4	n/a	7	622.942
596.796	5.007	ITI	36	Picture	Fixation+	3	10.229	n/a	622.962
601.819	2.006	Cue	36	Picture	Suppress	3	8.206	n/a	627.986
603.825	4.99	Pic	36	Picture	IAPS_10	3	3.216	n/a	629.992
608.815	2.006	Blank	36	Picture	BLANK	3	1.21	n/a	634.982
612.031	n/a	ConfirmRating	36	Response	n/a	3	n/a	2	638.198
612.048	6.002	ITI	37	Picture	Fixation+	4	10.821	n/a	638.215
618.066	2.006	Cue	37	Picture	Maintain	4	8.799	n/a	644.233
620.072	4.99	Pic	37	Picture	IAPS_59	4	3.809	n/a	646.239
625.063	2.006	Blank	37	Picture	BLANK	4	1.802	n/a	651.23
628.871	n/a	ConfirmRating	37	Response	n/a	4	n/a	7	655.038
628.892	5.007	ITI	38	Picture	Fixation+	2	10.031	n/a	655.059
633.916	2.006	Cue	38	Picture	Enhance	2	8.008	n/a	660.083
635.922	4.99	Pic	38	Picture	IAPS_45	2	3.018	n/a	662.089
640.912	2.006	Blank	38	Picture	BLANK	2	1.012	n/a	667.079
643.93	n/a	ConfirmRating	38	Response	n/a	2	n/a	5	670.097
643.963	4.012	ITI	39	Picture	Fixation+	1	10.37	n/a	670.13
647.991	2.006	Cue	39	Picture	Maintain	1	8.348	n/a	674.158
649.997	4.99	Pic	39	Picture	IAPS_20	1	3.357	n/a	676.164
654.987	2.006	Blank	39	Picture	BLANK	1	1.351	n/a	681.154
658.345	n/a	ConfirmRating	39	Response	n/a	1	n/a	3	684.512
658.37	6.002	ITI	40	Picture	Fixation+	4	9.442	n/a	684.537
664.388	2.006	Cue	40	Picture	Maintain	4	7.42	n/a	690.555
666.394	4.99	Pic	40	Picture	IAPS_48	4	2.43	n/a	692.561
671.384	2.006	Blank	40	Picture	BLANK	4	0.424	n/a	697.551
673.814	n/a	ConfirmRating	40	Response	n/a	4	n/a	0	699.981
673.838	5.007	ITI	41	Picture	Fixation+	3	10.821	n/a	700.005
678.861	2.006	Cue	41	Picture	Suppress	3	8.798	n/a	705.028
680.867	4.99	Pic	41	Picture	IAPS_11	3	3.808	n/a	707.034
685.857	2.006	Blank	41	Picture	BLANK	3	1.802	n/a	712.024
689.666	n/a	ConfirmRating	41	Response	n/a	3	n/a	1	715.832
689.687	6.002	ITI	42	Picture	Fixation+	2	10.094	n/a	715.854
695.705	2.006	Cue	42	Picture	Enhance	2	8.071	n/a	721.872
697.711	4.99	Pic	42	Picture	IAPS_31	2	3.081	n/a	723.878
702.701	2.006	Blank	42	Picture	BLANK	2	1.075	n/a	728.868
705.782	n/a	ConfirmRating	42	Response	n/a	2	n/a	0	731.949
705.802	4.012	ITI	43	Picture	Fixation+	1	10.66	n/a	731.969
709.83	2.006	Cue	43	Picture	Maintain	1	8.638	n/a	735.997
711.837	4.99	Pic	43	Picture	IAPS_21	1	3.648	n/a	738.003
716.827	2.006	Blank	43	Picture	BLANK	1	1.641	n/a	742.994
720.474	n/a	ConfirmRating	43	Response	n/a	1	n/a	3	746.641
720.507	5.007	ITI	44	Picture	Fixation+	2	9.91	n/a	746.674
725.531	2.006	Cue	44	Picture	Enhance	2	7.887	n/a	751.697
727.537	4.99	Pic	44	Picture	IAPS_32	2	2.897	n/a	753.704
732.527	2.006	Blank	44	Picture	BLANK	2	0.891	n/a	758.694
735.424	n/a	ConfirmRating	44	Response	n/a	2	n/a	3	761.591
735.445	5.007	ITI	45	Picture	Fixation+	4	10.431	n/a	761.612
740.468	2.006	Cue	45	Picture	Maintain	4	8.409	n/a	766.635
742.474	4.99	Pic	45	Picture	IAPS_51	4	3.418	n/a	768.641
747.465	2.006	Blank	45	Picture	BLANK	4	1.412	n/a	773.631
750.883	n/a	ConfirmRating	45	Response	n/a	4	n/a	6	777.05
750.913	4.012	ITI	46	Picture	Fixation+	3	10.007	n/a	777.08
754.942	2.006	Cue	46	Picture	Suppress	3	7.984	n/a	781.109
756.948	4.99	Pic	46	Picture	IAPS_12	3	2.994	n/a	783.115
761.938	2.006	Blank	46	Picture	BLANK	3	0.988	n/a	788.105
764.932	n/a	ConfirmRating	46	Response	n/a	3	n/a	3	791.099
764.955	5.007	ITI	47	Picture	Fixation+	1	10.13	n/a	791.122
769.979	2.006	Cue	47	Picture	Maintain	1	8.107	n/a	796.145
771.985	4.99	Pic	47	Picture	IAPS_22	1	3.117	n/a	798.152
776.975	2.006	Blank	47	Picture	BLANK	1	1.111	n/a	803.142
780.092	n/a	ConfirmRating	47	Response	n/a	1	n/a	0	806.259
780.108	4.012	ITI	48	Picture	Fixation+	3	10.004	n/a	806.275
784.137	2.006	Cue	48	Picture	Suppress	3	7.981	n/a	810.304
786.143	4.99	Pic	48	Picture	IAPS_13	3	2.991	n/a	812.31
791.133	2.006	Blank	48	Picture	BLANK	3	0.985	n/a	817.3
794.124	n/a	ConfirmRating	48	Response	n/a	3	n/a	2	820.291
794.151	5.007	ITI	49	Picture	Fixation+	4	10.181	n/a	820.317
799.174	2.006	Cue	49	Picture	Maintain	4	8.158	n/a	825.341
801.18	4.99	Pic	49	Picture	IAPS_54	4	3.168	n/a	827.347
806.17	2.006	Blank	49	Picture	BLANK	4	1.162	n/a	832.337
809.338	n/a	ConfirmRating	49	Response	n/a	4	n/a	6	835.505
809.37	5.007	ITI	50	Picture	Fixation+	1	10.904	n/a	835.537
814.393	2.006	Cue	50	Picture	Maintain	1	8.882	n/a	840.56
816.399	4.99	Pic	50	Picture	IAPS_23	1	3.891	n/a	842.566
821.39	2.006	Blank	50	Picture	BLANK	1	1.885	n/a	847.557
825.281	n/a	ConfirmRating	50	Response	n/a	1	n/a	2	851.448
825.302	4.012	ITI	51	Picture	Fixation+	2	10.285	n/a	851.469
829.331	2.006	Cue	51	Picture	Enhance	2	8.263	n/a	855.498
831.337	4.99	Pic	51	Picture	IAPS_33	2	3.273	n/a	857.504
836.327	2.006	Blank	51	Picture	BLANK	2	1.267	n/a	862.494
839.6	n/a	ConfirmRating	51	Response	n/a	2	n/a	5	865.767
839.627	5.007	ITI	52	Picture	Fixation+	1	9.635	n/a	865.793
844.65	2.006	Cue	52	Picture	Maintain	1	7.612	n/a	870.817
846.656	4.99	Pic	52	Picture	IAPS_24	1	2.622	n/a	872.823
851.646	2.006	Blank	52	Picture	BLANK	1	0.616	n/a	877.813
854.268	n/a	ConfirmRating	52	Response	n/a	1	n/a	5	880.435
854.299	5.007	ITI	53	Picture	Fixation+	4	10.247	n/a	880.466
859.322	2.006	Cue	53	Picture	Maintain	4	8.224	n/a	885.489
861.328	4.99	Pic	53	Picture	IAPS_57	4	3.234	n/a	887.495
866.318	2.006	Blank	53	Picture	BLANK	4	1.228	n/a	892.485
869.553	n/a	ConfirmRating	53	Response	n/a	4	n/a	7	895.72
869.584	6.002	ITI	54	Picture	Fixation+	3	9.979	n/a	895.751
875.603	2.006	Cue	54	Picture	Suppress	3	7.957	n/a	901.769
877.609	4.99	Pic	54	Picture	IAPS_14	3	2.966	n/a	903.776
882.599	2.006	Blank	54	Picture	BLANK	3	0.961	n/a	908.766
885.565	n/a	ConfirmRating	54	Response	n/a	3	n/a	2	911.732
885.583	5.007	ITI	55	Picture	Fixation+	2	10.426	n/a	911.75
890.607	2.006	Cue	55	Picture	Enhance	2	8.404	n/a	916.773
892.612	4.99	Pic	55	Picture	IAPS_34	2	3.413	n/a	918.779
897.603	2.006	Blank	55	Picture	BLANK	2	1.408	n/a	923.77
901.016	n/a	ConfirmRating	55	Response	n/a	2	n/a	6	927.183
901.035	5.007	ITI	56	Picture	Fixation+	1	12.324	n/a	927.202
906.058	2.006	Cue	56	Picture	Maintain	1	10.301	n/a	932.225
908.064	4.99	Pic	56	Picture	IAPS_25	1	5.311	n/a	934.231
913.054	2.006	Blank	56	Picture	BLANK	1	3.305	n/a	939.221
918.365	n/a	ConfirmRating	56	Response	n/a	1	n/a	3	944.532
918.393	6.002	ITI	57	Picture	Fixation+	3	10.812	n/a	944.56
924.411	2.006	Cue	57	Picture	Suppress	3	8.789	n/a	950.578
926.417	4.99	Pic	57	Picture	IAPS_15	3	3.799	n/a	952.584
931.407	2.006	Blank	57	Picture	BLANK	3	1.793	n/a	957.574
935.206	n/a	ConfirmRating	57	Response	n/a	3	n/a	5	961.373
935.237	4.012	ITI	58	Picture	Fixation+	4	10.496	n/a	961.404
939.265	2.006	Cue	58	Picture	Maintain	4	8.473	n/a	965.432
941.272	4.99	Pic	58	Picture	IAPS_60	4	3.483	n/a	967.438
946.262	2.006	Blank	58	Picture	BLANK	4	1.477	n/a	972.429
949.745	n/a	ConfirmRating	58	Response	n/a	4	n/a	7	975.912
949.776	6.002	ITI	59	Picture	Fixation+	2	10.821	n/a	975.943
955.795	2.006	Cue	59	Picture	Enhance	2	8.798	n/a	981.962
957.801	4.99	Pic	59	Picture	IAPS_35	2	3.808	n/a	983.968
962.791	2.006	Blank	59	Picture	BLANK	2	1.802	n/a	988.958
966.599	n/a	ConfirmRating	59	Response	n/a	2	n/a	6	992.765
