onset	duration	trial_type	event_type	time_until_response	response_time	trial_number	block_num_within_trial	image_seq_num_within_block	question_seq_num_within_block	image_seq_num	picture_number	condition	question_type	block_type	rating	rating_computed	onset_uncorrected	KDEV_imagefile
0.017	10.014	ITI	Fixation+	97.749	n/a	1	n/a	n/a	n/a	n/a	n/a	n/a	n/a	n/a	n/a	n/a	26.637	n/a
10.047	0.497	angry	Picture	97.235	n/a	1	1	1	n/a	1	108	3	n/a	n/a	n/a	n/a	36.667	AM09ANS.jpg
10.545	0.514	Blank	Blank	96.721	n/a	1	1	1	n/a	1	n/a	3	n/a	n/a	n/a	n/a	37.164	n/a
11.075	0.497	angry	Picture	96.207	n/a	1	1	2	n/a	2	99	3	n/a	n/a	n/a	n/a	37.695	AF31ANS.jpg
11.572	0.514	Blank	Blank	95.693	n/a	1	1	2	n/a	2	n/a	3	n/a	n/a	n/a	n/a	38.192	n/a
12.103	0.497	angry	Picture	95.179	n/a	1	1	3	n/a	3	98	3	n/a	n/a	n/a	n/a	38.723	BF29ANS.jpg
12.6	0.514	Blank	Blank	94.665	n/a	1	1	3	n/a	3	n/a	3	n/a	n/a	n/a	n/a	39.22	n/a
13.131	0.497	angry	Picture	94.151	n/a	1	1	4	n/a	4	107	3	n/a	n/a	n/a	n/a	39.751	BM08ANS.jpg
13.628	0.514	Blank	Blank	93.637	n/a	1	1	4	n/a	4	n/a	3	n/a	n/a	n/a	n/a	40.248	n/a
14.159	0.497	angry	Picture	93.123	n/a	1	1	5	n/a	5	104	3	n/a	n/a	n/a	n/a	40.779	BM05ANS.jpg
14.656	0.514	Blank	Blank	92.609	n/a	1	1	5	n/a	5	n/a	3	n/a	n/a	n/a	n/a	41.276	n/a
15.187	0.497	angry	Picture	92.095	n/a	1	1	6	n/a	6	101	3	n/a	n/a	n/a	n/a	41.807	AM01ANS.jpg
15.684	0.514	Blank	Blank	91.581	n/a	1	1	6	n/a	6	n/a	3	n/a	n/a	n/a	n/a	42.304	n/a
16.215	0.497	angry	Picture	91.067	n/a	1	1	7	n/a	7	103	3	n/a	n/a	n/a	n/a	42.834	AM04ANS.jpg
16.712	0.514	Blank	Blank	90.553	n/a	1	1	7	n/a	7	n/a	3	n/a	n/a	n/a	n/a	43.332	n/a
17.242	0.497	angry	Picture	90.039	n/a	1	1	8	n/a	8	111	3	n/a	n/a	n/a	n/a	43.862	BM12ANS.jpg
17.74	0.514	Blank	Blank	89.525	n/a	1	1	8	n/a	8	n/a	3	n/a	n/a	n/a	n/a	44.36	n/a
18.27	0.497	angry	Picture	89.011	n/a	1	1	9	n/a	9	110	3	n/a	n/a	n/a	n/a	44.89	AM11ANS.jpg
18.768	0.514	Blank	Blank	88.498	n/a	1	1	9	n/a	9	n/a	3	n/a	n/a	n/a	n/a	45.388	n/a
19.298	0.497	angry	Picture	87.984	n/a	1	1	10	n/a	10	85	3	n/a	n/a	n/a	n/a	45.918	BF07ANS.jpg
19.796	0.514	Blank	Blank	87.47	n/a	1	1	10	n/a	10	n/a	3	n/a	n/a	n/a	n/a	46.416	n/a
20.326	0.497	angry	Picture	86.956	n/a	1	1	11	n/a	11	87	3	n/a	n/a	n/a	n/a	46.946	BF11ANS.jpg
20.823	0.514	Blank	Blank	86.442	n/a	1	1	11	n/a	11	n/a	3	n/a	n/a	n/a	n/a	47.443	n/a
21.354	0.497	angry	Picture	85.928	n/a	1	1	12	n/a	12	91	3	n/a	n/a	n/a	n/a	47.974	AF20ANS.jpg
21.851	0.514	Blank	Blank	85.414	n/a	1	1	12	n/a	12	n/a	3	n/a	n/a	n/a	n/a	48.471	n/a
22.382	0.497	angry	Picture	84.9	n/a	1	1	13	n/a	13	115	3	n/a	n/a	n/a	n/a	49.002	AM23ANS.jpg
22.879	0.514	Blank	Blank	84.386	n/a	1	1	13	n/a	13	n/a	3	n/a	n/a	n/a	n/a	49.499	n/a
23.41	0.497	angry	Picture	83.872	n/a	1	1	14	n/a	14	97	3	n/a	n/a	n/a	n/a	50.03	BF28ANS.jpg
23.907	0.514	Blank	Blank	83.358	n/a	1	1	14	n/a	14	n/a	3	n/a	n/a	n/a	n/a	50.527	n/a
24.438	0.497	angry	Picture	82.844	n/a	1	1	15	n/a	15	82	3	n/a	n/a	n/a	n/a	51.058	AF03ANS.jpg
24.935	0.514	Blank	Blank	82.33	n/a	1	1	15	n/a	15	n/a	3	n/a	n/a	n/a	n/a	51.555	n/a
25.466	0.497	angry	Picture	81.816	n/a	1	1	16	n/a	16	96	3	n/a	n/a	n/a	n/a	52.086	AF26ANS.jpg
25.963	0.514	Blank	Blank	81.302	n/a	1	1	16	n/a	16	n/a	3	n/a	n/a	n/a	n/a	52.583	n/a
26.493	0.497	angry	Picture	80.788	n/a	1	1	17	n/a	17	109	3	n/a	n/a	n/a	n/a	53.113	AM10ANS.jpg
26.991	0.514	Blank	Blank	80.274	n/a	1	1	17	n/a	17	n/a	3	n/a	n/a	n/a	n/a	53.611	n/a
27.521	0.497	angry	Picture	79.761	n/a	1	1	18	n/a	18	114	3	n/a	n/a	n/a	n/a	54.141	AM22ANS.jpg
28.019	0.514	Blank	Blank	79.247	n/a	1	1	18	n/a	18	n/a	3	n/a	n/a	n/a	n/a	54.639	n/a
28.549	0.497	angry	Picture	78.733	n/a	1	1	19	n/a	19	120	3	n/a	n/a	n/a	n/a	55.169	AM35ANS.jpg
29.047	0.514	Blank	Blank	78.219	n/a	1	1	19	n/a	19	n/a	3	n/a	n/a	n/a	n/a	55.666	n/a
29.577	0.497	angry	Picture	77.705	n/a	1	1	20	n/a	20	81	3	n/a	n/a	n/a	n/a	56.197	AF01ANS.jpg
30.075	0.514	Blank	Blank	77.191	n/a	1	1	20	n/a	20	n/a	3	n/a	n/a	n/a	n/a	56.694	n/a
30.605	10.014	ITI	Fixation+	67.161	n/a	1	n/a	n/a	n/a	n/a	n/a	n/a	n/a	n/a	n/a	n/a	57.225	n/a
40.635	0.497	neutral	Picture	66.647	n/a	1	2	1	n/a	21	28	1	n/a	n/a	n/a	n/a	67.255	AM09NES.jpg
41.133	0.514	Blank	Blank	66.133	n/a	1	2	1	n/a	21	n/a	1	n/a	n/a	n/a	n/a	67.752	n/a
41.663	0.497	neutral	Picture	65.619	n/a	1	2	2	n/a	22	27	1	n/a	n/a	n/a	n/a	68.283	BM08NES.jpg
42.16	0.514	Blank	Blank	65.105	n/a	1	2	2	n/a	22	n/a	1	n/a	n/a	n/a	n/a	68.78	n/a
42.691	0.497	neutral	Picture	64.591	n/a	1	2	3	n/a	23	16	1	n/a	n/a	n/a	n/a	69.311	AF26NES.jpg
43.188	0.514	Blank	Blank	64.077	n/a	1	2	3	n/a	23	n/a	1	n/a	n/a	n/a	n/a	69.808	n/a
43.719	0.497	neutral	Picture	63.563	n/a	1	2	4	n/a	24	3	1	n/a	n/a	n/a	n/a	70.339	BF04NES.jpg
44.216	0.514	Blank	Blank	63.049	n/a	1	2	4	n/a	24	n/a	1	n/a	n/a	n/a	n/a	70.836	n/a
44.747	0.497	neutral	Picture	62.535	n/a	1	2	5	n/a	25	32	1	n/a	n/a	n/a	n/a	71.367	AM14NES.jpg
45.244	0.514	Blank	Blank	62.021	n/a	1	2	5	n/a	25	n/a	1	n/a	n/a	n/a	n/a	71.864	n/a
45.775	0.497	neutral	Picture	61.507	n/a	1	2	6	n/a	26	37	1	n/a	n/a	n/a	n/a	72.395	BM25NES.jpg
46.272	0.514	Blank	Blank	60.993	n/a	1	2	6	n/a	26	n/a	1	n/a	n/a	n/a	n/a	72.892	n/a
46.803	0.497	neutral	Picture	60.479	n/a	1	2	7	n/a	27	15	1	n/a	n/a	n/a	n/a	73.422	AF25NES.jpg
47.3	0.514	Blank	Blank	59.965	n/a	1	2	7	n/a	27	n/a	1	n/a	n/a	n/a	n/a	73.92	n/a
47.831	0.497	neutral	Picture	59.451	n/a	1	2	8	n/a	28	23	1	n/a	n/a	n/a	n/a	74.45	AM04NES.jpg
48.328	0.514	Blank	Blank	58.937	n/a	1	2	8	n/a	28	n/a	1	n/a	n/a	n/a	n/a	74.948	n/a
48.858	0.497	neutral	Picture	58.423	n/a	1	2	9	n/a	29	34	1	n/a	n/a	n/a	n/a	75.478	AM22NES.jpg
49.356	0.514	Blank	Blank	57.91	n/a	1	2	9	n/a	29	n/a	1	n/a	n/a	n/a	n/a	75.976	n/a
49.886	0.497	neutral	Picture	57.395	n/a	1	2	10	n/a	30	24	1	n/a	n/a	n/a	n/a	76.506	BM05NES.jpg
50.384	0.514	Blank	Blank	56.882	n/a	1	2	10	n/a	30	n/a	1	n/a	n/a	n/a	n/a	77.004	n/a
50.914	0.497	neutral	Picture	56.368	n/a	1	2	11	n/a	31	12	1	n/a	n/a	n/a	n/a	77.534	AF21NES.jpg
51.412	0.514	Blank	Blank	55.854	n/a	1	2	11	n/a	31	n/a	1	n/a	n/a	n/a	n/a	78.031	n/a
51.942	0.497	neutral	Picture	55.34	n/a	1	2	12	n/a	32	6	1	n/a	n/a	n/a	n/a	78.562	AF09NES.jpg
52.439	0.514	Blank	Blank	54.826	n/a	1	2	12	n/a	32	n/a	1	n/a	n/a	n/a	n/a	79.059	n/a
52.97	0.497	neutral	Picture	54.312	n/a	1	2	13	n/a	33	17	1	n/a	n/a	n/a	n/a	79.59	BF28NES.jpg
53.467	0.514	Blank	Blank	53.798	n/a	1	2	13	n/a	33	n/a	1	n/a	n/a	n/a	n/a	80.087	n/a
53.998	0.497	neutral	Picture	53.284	n/a	1	2	14	n/a	34	2	1	n/a	n/a	n/a	n/a	80.618	AF03NES.jpg
54.495	0.514	Blank	Blank	52.77	n/a	1	2	14	n/a	34	n/a	1	n/a	n/a	n/a	n/a	81.115	n/a
55.026	0.497	neutral	Picture	52.256	n/a	1	2	15	n/a	35	9	1	n/a	n/a	n/a	n/a	81.646	AF17NES.jpg
55.523	0.514	Blank	Blank	51.742	n/a	1	2	15	n/a	35	n/a	1	n/a	n/a	n/a	n/a	82.143	n/a
56.054	0.497	neutral	Picture	51.228	n/a	1	2	16	n/a	36	25	1	n/a	n/a	n/a	n/a	82.674	BM06NES.jpg
56.551	0.514	Blank	Blank	50.714	n/a	1	2	16	n/a	36	n/a	1	n/a	n/a	n/a	n/a	83.171	n/a
57.082	0.497	neutral	Picture	50.2	n/a	1	2	17	n/a	37	8	1	n/a	n/a	n/a	n/a	83.701	AF14NES.jpg
57.579	0.514	Blank	Blank	49.686	n/a	1	2	17	n/a	37	n/a	1	n/a	n/a	n/a	n/a	84.199	n/a
58.109	0.497	neutral	Picture	49.172	n/a	1	2	18	n/a	38	19	1	n/a	n/a	n/a	n/a	84.729	AF31NES.jpg
58.607	0.514	Blank	Blank	48.659	n/a	1	2	18	n/a	38	n/a	1	n/a	n/a	n/a	n/a	85.227	n/a
59.137	0.497	neutral	Picture	48.145	n/a	1	2	19	n/a	39	14	1	n/a	n/a	n/a	n/a	85.757	AF23NES.jpg
59.635	0.514	Blank	Blank	47.631	n/a	1	2	19	n/a	39	n/a	1	n/a	n/a	n/a	n/a	86.255	n/a
60.165	0.497	neutral	Picture	47.117	n/a	1	2	20	n/a	40	4	1	n/a	n/a	n/a	n/a	86.785	AF05NES.jpg
60.663	0.514	Blank	Blank	46.603	n/a	1	2	20	n/a	40	n/a	1	n/a	n/a	n/a	n/a	87.282	n/a
61.193	10.014	ITI	Fixation+	36.573	n/a	1	n/a	n/a	n/a	n/a	n/a	n/a	n/a	n/a	n/a	n/a	87.813	n/a
71.223	0.497	angry	Picture	36.059	n/a	1	3	1	n/a	41	84	3	n/a	n/a	n/a	n/a	97.843	AF05ANS.jpg
71.721	0.514	Blank	Blank	35.545	n/a	1	3	1	n/a	41	n/a	3	n/a	n/a	n/a	n/a	98.341	n/a
72.251	0.497	angry	Picture	35.031	n/a	1	3	2	n/a	42	92	3	n/a	n/a	n/a	n/a	98.871	AF21ANS.jpg
72.749	0.514	Blank	Blank	34.517	n/a	1	3	2	n/a	42	n/a	3	n/a	n/a	n/a	n/a	99.368	n/a
73.279	0.497	angry	Picture	34.003	n/a	1	3	3	n/a	43	86	3	n/a	n/a	n/a	n/a	99.899	AF09ANS.jpg
73.776	0.514	Blank	Blank	33.489	n/a	1	3	3	n/a	43	n/a	3	n/a	n/a	n/a	n/a	100.396	n/a
74.307	0.497	angry	Picture	32.975	n/a	1	3	4	n/a	44	93	3	n/a	n/a	n/a	n/a	100.927	BF22ANS.jpg
74.804	0.514	Blank	Blank	32.461	n/a	1	3	4	n/a	44	n/a	3	n/a	n/a	n/a	n/a	101.424	n/a
75.335	0.497	angry	Picture	31.947	n/a	1	3	5	n/a	45	88	3	n/a	n/a	n/a	n/a	101.955	AF14ANS.jpg
75.832	0.514	Blank	Blank	31.433	n/a	1	3	5	n/a	45	n/a	3	n/a	n/a	n/a	n/a	102.452	n/a
76.363	0.497	angry	Picture	30.919	n/a	1	3	6	n/a	46	113	3	n/a	n/a	n/a	n/a	102.983	AM21ANS.jpg
76.86	0.514	Blank	Blank	30.405	n/a	1	3	6	n/a	46	n/a	3	n/a	n/a	n/a	n/a	103.48	n/a
77.391	0.497	angry	Picture	29.891	n/a	1	3	7	n/a	47	95	3	n/a	n/a	n/a	n/a	104.01	AF25ANS.jpg
77.888	0.514	Blank	Blank	29.377	n/a	1	3	7	n/a	47	n/a	3	n/a	n/a	n/a	n/a	104.508	n/a
78.418	0.497	angry	Picture	28.863	n/a	1	3	8	n/a	48	102	3	n/a	n/a	n/a	n/a	105.038	BM03ANS.jpg
78.916	0.514	Blank	Blank	28.349	n/a	1	3	8	n/a	48	n/a	3	n/a	n/a	n/a	n/a	105.536	n/a
79.446	0.497	angry	Picture	27.835	n/a	1	3	9	n/a	49	112	3	n/a	n/a	n/a	n/a	106.066	AM14ANS.jpg
79.944	0.514	Blank	Blank	27.322	n/a	1	3	9	n/a	49	n/a	3	n/a	n/a	n/a	n/a	106.564	n/a
80.474	0.497	angry	Picture	26.808	n/a	1	3	10	n/a	50	83	3	n/a	n/a	n/a	n/a	107.094	BF04ANS.jpg
80.972	0.514	Blank	Blank	26.294	n/a	1	3	10	n/a	50	n/a	3	n/a	n/a	n/a	n/a	107.592	n/a
81.502	0.497	angry	Picture	25.78	n/a	1	3	11	n/a	51	90	3	n/a	n/a	n/a	n/a	108.122	AF18ANS.jpg
82.0	0.514	Blank	Blank	25.266	n/a	1	3	11	n/a	51	n/a	3	n/a	n/a	n/a	n/a	108.62	n/a
82.53	0.497	angry	Picture	24.752	n/a	1	3	12	n/a	52	117	3	n/a	n/a	n/a	n/a	109.15	BM25ANS.jpg
83.028	0.514	Blank	Blank	24.238	n/a	1	3	12	n/a	52	n/a	3	n/a	n/a	n/a	n/a	109.647	n/a
83.558	0.497	angry	Picture	23.724	n/a	1	3	13	n/a	53	94	3	n/a	n/a	n/a	n/a	110.178	AF23ANS.jpg
84.055	0.514	Blank	Blank	23.21	n/a	1	3	13	n/a	53	n/a	3	n/a	n/a	n/a	n/a	110.675	n/a
84.586	0.497	angry	Picture	22.696	n/a	1	3	14	n/a	54	106	3	n/a	n/a	n/a	n/a	111.206	AM07ANS.jpg
85.083	0.514	Blank	Blank	22.182	n/a	1	3	14	n/a	54	n/a	3	n/a	n/a	n/a	n/a	111.703	n/a
85.614	0.497	angry	Picture	21.668	n/a	1	3	15	n/a	55	105	3	n/a	n/a	n/a	n/a	112.234	BM06ANS.jpg
86.111	0.514	Blank	Blank	21.154	n/a	1	3	15	n/a	55	n/a	3	n/a	n/a	n/a	n/a	112.731	n/a
86.642	0.497	angry	Picture	20.64	n/a	1	3	16	n/a	56	116	3	n/a	n/a	n/a	n/a	113.262	BM24ANS.jpg
87.139	0.514	Blank	Blank	20.126	n/a	1	3	16	n/a	56	n/a	3	n/a	n/a	n/a	n/a	113.759	n/a
87.669	0.497	angry	Picture	19.612	n/a	1	3	17	n/a	57	89	3	n/a	n/a	n/a	n/a	114.289	AF17ANS.jpg
88.167	0.514	Blank	Blank	19.098	n/a	1	3	17	n/a	57	n/a	3	n/a	n/a	n/a	n/a	114.787	n/a
88.697	0.497	angry	Picture	18.584	n/a	1	3	18	n/a	58	118	3	n/a	n/a	n/a	n/a	115.317	BM26ANS.jpg
89.195	0.514	Blank	Blank	18.07	n/a	1	3	18	n/a	58	n/a	3	n/a	n/a	n/a	n/a	115.815	n/a
89.725	0.497	angry	Picture	17.556	n/a	1	3	19	n/a	59	100	3	n/a	n/a	n/a	n/a	116.345	AF32ANS.jpg
90.223	0.514	Blank	Blank	17.043	n/a	1	3	19	n/a	59	n/a	3	n/a	n/a	n/a	n/a	116.843	n/a
90.753	0.497	angry	Picture	16.529	n/a	1	3	20	n/a	60	119	3	n/a	n/a	n/a	n/a	117.373	BM28ANS.jpg
91.251	0.514	Blank	Blank	16.015	n/a	1	3	20	n/a	60	n/a	3	n/a	n/a	n/a	n/a	117.871	n/a
91.781	10.014	ITI	Fixation+	5.984	n/a	1	n/a	n/a	n/a	n/a	n/a	n/a	n/a	n/a	n/a	n/a	118.401	n/a
107.779	n/a	ConfirmRating	Rate	n/a	5.952	1	n/a	n/a	0	n/a	n/a	n/a	2	Angry	64	51	134.399	n/a
112.465	n/a	ConfirmRating	Rate	n/a	4.675	1	n/a	n/a	1	n/a	n/a	n/a	3	Angry	13	47	139.085	n/a
112.488	10.014	ITI	Fixation+	96.618	n/a	2	n/a	n/a	n/a	n/a	n/a	n/a	n/a	n/a	n/a	n/a	139.108	n/a
122.518	0.497	happy	Picture	96.104	n/a	2	4	1	n/a	61	79	2	n/a	n/a	n/a	n/a	149.138	BM28HAS.jpg
123.016	0.514	Blank	Blank	95.59	n/a	2	4	1	n/a	61	n/a	2	n/a	n/a	n/a	n/a	149.636	n/a
123.546	0.497	happy	Picture	95.077	n/a	2	4	2	n/a	62	61	2	n/a	n/a	n/a	n/a	150.166	AM01HAS.jpg
124.044	0.514	Blank	Blank	94.563	n/a	2	4	2	n/a	62	n/a	2	n/a	n/a	n/a	n/a	150.663	n/a
124.574	0.497	happy	Picture	94.049	n/a	2	4	3	n/a	63	57	2	n/a	n/a	n/a	n/a	151.194	BF28HAS.jpg
125.071	0.514	Blank	Blank	93.535	n/a	2	4	3	n/a	63	n/a	2	n/a	n/a	n/a	n/a	151.691	n/a
125.602	0.497	happy	Picture	93.021	n/a	2	4	4	n/a	64	77	2	n/a	n/a	n/a	n/a	152.222	BM25HAS.jpg
126.099	0.514	Blank	Blank	92.507	n/a	2	4	4	n/a	64	n/a	2	n/a	n/a	n/a	n/a	152.719	n/a
126.63	0.497	happy	Picture	91.993	n/a	2	4	5	n/a	65	47	2	n/a	n/a	n/a	n/a	153.25	BF11HAS.jpg
127.127	0.514	Blank	Blank	91.479	n/a	2	4	5	n/a	65	n/a	2	n/a	n/a	n/a	n/a	153.747	n/a
127.658	0.497	happy	Picture	90.965	n/a	2	4	6	n/a	66	50	2	n/a	n/a	n/a	n/a	154.278	AF18HAS.jpg
128.155	0.514	Blank	Blank	90.451	n/a	2	4	6	n/a	66	n/a	2	n/a	n/a	n/a	n/a	154.775	n/a
128.686	0.497	happy	Picture	89.937	n/a	2	4	7	n/a	67	78	2	n/a	n/a	n/a	n/a	155.306	BM26HAS.jpg
129.183	0.514	Blank	Blank	89.423	n/a	2	4	7	n/a	67	n/a	2	n/a	n/a	n/a	n/a	155.803	n/a
129.714	0.497	happy	Picture	88.909	n/a	2	4	8	n/a	68	45	2	n/a	n/a	n/a	n/a	156.333	BF07HAS.jpg
130.211	0.514	Blank	Blank	88.395	n/a	2	4	8	n/a	68	n/a	2	n/a	n/a	n/a	n/a	156.831	n/a
130.742	0.497	happy	Picture	87.881	n/a	2	4	9	n/a	69	56	2	n/a	n/a	n/a	n/a	157.361	AF26HAS.jpg
131.239	0.514	Blank	Blank	87.367	n/a	2	4	9	n/a	69	n/a	2	n/a	n/a	n/a	n/a	157.859	n/a
131.769	0.497	happy	Picture	86.853	n/a	2	4	10	n/a	70	65	2	n/a	n/a	n/a	n/a	158.389	BM06HAS.jpg
132.267	0.514	Blank	Blank	86.339	n/a	2	4	10	n/a	70	n/a	2	n/a	n/a	n/a	n/a	158.887	n/a
132.797	0.497	happy	Picture	85.826	n/a	2	4	11	n/a	71	73	2	n/a	n/a	n/a	n/a	159.417	AM21HAS.jpg
133.295	0.514	Blank	Blank	85.311	n/a	2	4	11	n/a	71	n/a	2	n/a	n/a	n/a	n/a	159.915	n/a
133.825	0.497	happy	Picture	84.798	n/a	2	4	12	n/a	72	41	2	n/a	n/a	n/a	n/a	160.445	AF01HAS.jpg
134.322	0.514	Blank	Blank	84.284	n/a	2	4	12	n/a	72	n/a	2	n/a	n/a	n/a	n/a	160.942	n/a
134.853	0.497	happy	Picture	83.77	n/a	2	4	13	n/a	73	59	2	n/a	n/a	n/a	n/a	161.473	AF31HAS.jpg
135.35	0.514	Blank	Blank	83.256	n/a	2	4	13	n/a	73	n/a	2	n/a	n/a	n/a	n/a	161.97	n/a
135.881	0.497	happy	Picture	82.742	n/a	2	4	14	n/a	74	64	2	n/a	n/a	n/a	n/a	162.501	BM05HAS.jpg
136.378	0.514	Blank	Blank	82.228	n/a	2	4	14	n/a	74	n/a	2	n/a	n/a	n/a	n/a	162.998	n/a
136.909	0.497	happy	Picture	81.714	n/a	2	4	15	n/a	75	68	2	n/a	n/a	n/a	n/a	163.529	AM09HAS.jpg
137.406	0.514	Blank	Blank	81.2	n/a	2	4	15	n/a	75	n/a	2	n/a	n/a	n/a	n/a	164.026	n/a
137.937	0.497	happy	Picture	80.686	n/a	2	4	16	n/a	76	54	2	n/a	n/a	n/a	n/a	164.557	AF23HAS.jpg
138.434	0.514	Blank	Blank	80.172	n/a	2	4	16	n/a	76	n/a	2	n/a	n/a	n/a	n/a	165.054	n/a
138.965	0.497	happy	Picture	79.658	n/a	2	4	17	n/a	77	53	2	n/a	n/a	n/a	n/a	165.584	BF22HAS.jpg
139.462	0.514	Blank	Blank	79.144	n/a	2	4	17	n/a	77	n/a	2	n/a	n/a	n/a	n/a	166.082	n/a
139.993	0.497	happy	Picture	78.63	n/a	2	4	18	n/a	78	44	2	n/a	n/a	n/a	n/a	166.612	AF05HAS.jpg
140.49	0.514	Blank	Blank	78.116	n/a	2	4	18	n/a	78	n/a	2	n/a	n/a	n/a	n/a	167.11	n/a
141.02	0.497	happy	Picture	77.602	n/a	2	4	19	n/a	79	52	2	n/a	n/a	n/a	n/a	167.64	AF21HAS.jpg
141.518	0.514	Blank	Blank	77.088	n/a	2	4	19	n/a	79	n/a	2	n/a	n/a	n/a	n/a	168.138	n/a
142.048	0.497	happy	Picture	76.575	n/a	2	4	20	n/a	80	62	2	n/a	n/a	n/a	n/a	168.668	BM03HAS.jpg
142.546	0.514	Blank	Blank	76.06	n/a	2	4	20	n/a	80	n/a	2	n/a	n/a	n/a	n/a	169.166	n/a
143.076	10.014	ITI	Fixation+	66.03	n/a	2	n/a	n/a	n/a	n/a	n/a	n/a	n/a	n/a	n/a	n/a	169.696	n/a
153.106	0.497	neutral	Picture	65.516	n/a	2	5	1	n/a	81	23	1	n/a	n/a	n/a	n/a	179.726	AM04NES.jpg
153.604	0.514	Blank	Blank	65.002	n/a	2	5	1	n/a	81	n/a	1	n/a	n/a	n/a	n/a	180.224	n/a
154.134	0.497	neutral	Picture	64.489	n/a	2	5	2	n/a	82	29	1	n/a	n/a	n/a	n/a	180.754	AM10NES.jpg
154.632	0.514	Blank	Blank	63.975	n/a	2	5	2	n/a	82	n/a	1	n/a	n/a	n/a	n/a	181.251	n/a
155.162	0.497	neutral	Picture	63.461	n/a	2	5	3	n/a	83	24	1	n/a	n/a	n/a	n/a	181.782	BM05NES.jpg
155.66	0.514	Blank	Blank	62.947	n/a	2	5	3	n/a	83	n/a	1	n/a	n/a	n/a	n/a	182.279	n/a
156.19	0.497	neutral	Picture	62.433	n/a	2	5	4	n/a	84	12	1	n/a	n/a	n/a	n/a	182.81	AF21NES.jpg
156.687	0.514	Blank	Blank	61.919	n/a	2	5	4	n/a	84	n/a	1	n/a	n/a	n/a	n/a	183.307	n/a
157.218	0.497	neutral	Picture	61.405	n/a	2	5	5	n/a	85	13	1	n/a	n/a	n/a	n/a	183.838	BF22NES.jpg
157.715	0.514	Blank	Blank	60.891	n/a	2	5	5	n/a	85	n/a	1	n/a	n/a	n/a	n/a	184.335	n/a
158.246	0.497	neutral	Picture	60.377	n/a	2	5	6	n/a	86	17	1	n/a	n/a	n/a	n/a	184.866	BF28NES.jpg
158.743	0.514	Blank	Blank	59.863	n/a	2	5	6	n/a	86	n/a	1	n/a	n/a	n/a	n/a	185.363	n/a
159.274	0.497	neutral	Picture	59.349	n/a	2	5	7	n/a	87	4	1	n/a	n/a	n/a	n/a	185.894	AF05NES.jpg
159.771	0.514	Blank	Blank	58.835	n/a	2	5	7	n/a	87	n/a	1	n/a	n/a	n/a	n/a	186.391	n/a
160.302	0.497	neutral	Picture	58.321	n/a	2	5	8	n/a	88	11	1	n/a	n/a	n/a	n/a	186.922	AF20NES.jpg
160.799	0.514	Blank	Blank	57.807	n/a	2	5	8	n/a	88	n/a	1	n/a	n/a	n/a	n/a	187.419	n/a
161.329	0.497	neutral	Picture	57.293	n/a	2	5	9	n/a	89	22	1	n/a	n/a	n/a	n/a	187.949	BM03NES.jpg
161.827	0.514	Blank	Blank	56.779	n/a	2	5	9	n/a	89	n/a	1	n/a	n/a	n/a	n/a	188.447	n/a
162.357	0.497	neutral	Picture	56.265	n/a	2	5	10	n/a	90	15	1	n/a	n/a	n/a	n/a	188.977	AF25NES.jpg
162.855	0.514	Blank	Blank	55.751	n/a	2	5	10	n/a	90	n/a	1	n/a	n/a	n/a	n/a	189.475	n/a
163.385	0.497	neutral	Picture	55.238	n/a	2	5	11	n/a	91	19	1	n/a	n/a	n/a	n/a	190.005	AF31NES.jpg
163.883	0.514	Blank	Blank	54.724	n/a	2	5	11	n/a	91	n/a	1	n/a	n/a	n/a	n/a	190.502	n/a
164.413	0.497	neutral	Picture	54.21	n/a	2	5	12	n/a	92	9	1	n/a	n/a	n/a	n/a	191.033	AF17NES.jpg
164.91	0.514	Blank	Blank	53.696	n/a	2	5	12	n/a	92	n/a	1	n/a	n/a	n/a	n/a	191.53	n/a
165.441	0.497	neutral	Picture	53.182	n/a	2	5	13	n/a	93	14	1	n/a	n/a	n/a	n/a	192.061	AF23NES.jpg
165.938	0.514	Blank	Blank	52.668	n/a	2	5	13	n/a	93	n/a	1	n/a	n/a	n/a	n/a	192.558	n/a
166.469	0.497	neutral	Picture	52.154	n/a	2	5	14	n/a	94	36	1	n/a	n/a	n/a	n/a	193.089	BM24NES.jpg
166.966	0.514	Blank	Blank	51.64	n/a	2	5	14	n/a	94	n/a	1	n/a	n/a	n/a	n/a	193.586	n/a
167.497	0.497	neutral	Picture	51.126	n/a	2	5	15	n/a	95	34	1	n/a	n/a	n/a	n/a	194.117	AM22NES.jpg
167.994	0.514	Blank	Blank	50.612	n/a	2	5	15	n/a	95	n/a	1	n/a	n/a	n/a	n/a	194.614	n/a
168.525	0.497	neutral	Picture	50.098	n/a	2	5	16	n/a	96	10	1	n/a	n/a	n/a	n/a	195.145	AF18NES.jpg
169.022	0.514	Blank	Blank	49.584	n/a	2	5	16	n/a	96	n/a	1	n/a	n/a	n/a	n/a	195.642	n/a
169.553	0.497	neutral	Picture	49.07	n/a	2	5	17	n/a	97	5	1	n/a	n/a	n/a	n/a	196.173	BF07NES.jpg
170.05	0.514	Blank	Blank	48.556	n/a	2	5	17	n/a	97	n/a	1	n/a	n/a	n/a	n/a	196.67	n/a
170.581	0.497	neutral	Picture	48.042	n/a	2	5	18	n/a	98	25	1	n/a	n/a	n/a	n/a	197.2	BM06NES.jpg
171.078	0.514	Blank	Blank	47.528	n/a	2	5	18	n/a	98	n/a	1	n/a	n/a	n/a	n/a	197.698	n/a
171.608	0.497	neutral	Picture	47.014	n/a	2	5	19	n/a	99	39	1	n/a	n/a	n/a	n/a	198.228	AM28NES.jpg
172.106	0.514	Blank	Blank	46.5	n/a	2	5	19	n/a	99	n/a	1	n/a	n/a	n/a	n/a	198.726	n/a
172.636	0.497	neutral	Picture	45.986	n/a	2	5	20	n/a	100	33	1	n/a	n/a	n/a	n/a	199.256	AM21NES.jpg
173.134	0.514	Blank	Blank	45.472	n/a	2	5	20	n/a	100	n/a	1	n/a	n/a	n/a	n/a	199.754	n/a
173.664	10.014	ITI	Fixation+	35.442	n/a	2	n/a	n/a	n/a	n/a	n/a	n/a	n/a	n/a	n/a	n/a	200.284	n/a
183.694	0.497	happy	Picture	34.928	n/a	2	6	1	n/a	101	74	2	n/a	n/a	n/a	n/a	210.314	AM22HAS.jpg
184.192	0.514	Blank	Blank	34.414	n/a	2	6	1	n/a	101	n/a	2	n/a	n/a	n/a	n/a	210.812	n/a
184.722	0.497	happy	Picture	33.9	n/a	2	6	2	n/a	102	76	2	n/a	n/a	n/a	n/a	211.342	BM24HAS.jpg
185.22	0.514	Blank	Blank	33.387	n/a	2	6	2	n/a	102	n/a	2	n/a	n/a	n/a	n/a	211.84	n/a
185.75	0.497	happy	Picture	32.873	n/a	2	6	3	n/a	103	80	2	n/a	n/a	n/a	n/a	212.37	BM35HAS.jpg
186.248	0.514	Blank	Blank	32.359	n/a	2	6	3	n/a	103	n/a	2	n/a	n/a	n/a	n/a	212.868	n/a
186.778	0.497	happy	Picture	31.845	n/a	2	6	4	n/a	104	75	2	n/a	n/a	n/a	n/a	213.398	AM23HAS.jpg
187.275	0.514	Blank	Blank	31.331	n/a	2	6	4	n/a	104	n/a	2	n/a	n/a	n/a	n/a	213.895	n/a
187.806	0.497	happy	Picture	30.817	n/a	2	6	5	n/a	105	49	2	n/a	n/a	n/a	n/a	214.426	AF17HAS.jpg
188.303	0.514	Blank	Blank	30.303	n/a	2	6	5	n/a	105	n/a	2	n/a	n/a	n/a	n/a	214.923	n/a
188.834	0.497	happy	Picture	29.789	n/a	2	6	6	n/a	106	43	2	n/a	n/a	n/a	n/a	215.454	BF04HAS.jpg
189.331	0.514	Blank	Blank	29.275	n/a	2	6	6	n/a	106	n/a	2	n/a	n/a	n/a	n/a	215.951	n/a
189.862	0.497	happy	Picture	28.761	n/a	2	6	7	n/a	107	70	2	n/a	n/a	n/a	n/a	216.482	BM11HAS.jpg
190.359	0.514	Blank	Blank	28.247	n/a	2	6	7	n/a	107	n/a	2	n/a	n/a	n/a	n/a	216.979	n/a
190.89	0.497	happy	Picture	27.733	n/a	2	6	8	n/a	108	66	2	n/a	n/a	n/a	n/a	217.51	BM07HAS.jpg
191.387	0.514	Blank	Blank	27.219	n/a	2	6	8	n/a	108	n/a	2	n/a	n/a	n/a	n/a	218.007	n/a
191.917	0.497	happy	Picture	26.705	n/a	2	6	9	n/a	109	48	2	n/a	n/a	n/a	n/a	218.537	AF14HAS.jpg
192.415	0.514	Blank	Blank	26.191	n/a	2	6	9	n/a	109	n/a	2	n/a	n/a	n/a	n/a	219.035	n/a
192.945	0.497	happy	Picture	25.677	n/a	2	6	10	n/a	110	58	2	n/a	n/a	n/a	n/a	219.565	BF29HAS.jpg
193.443	0.514	Blank	Blank	25.163	n/a	2	6	10	n/a	110	n/a	2	n/a	n/a	n/a	n/a	220.063	n/a
193.973	0.497	happy	Picture	24.649	n/a	2	6	11	n/a	111	63	2	n/a	n/a	n/a	n/a	220.593	AM04HAS.jpg
194.471	0.514	Blank	Blank	24.136	n/a	2	6	11	n/a	111	n/a	2	n/a	n/a	n/a	n/a	221.091	n/a
195.001	0.497	happy	Picture	23.621	n/a	2	6	12	n/a	112	72	2	n/a	n/a	n/a	n/a	221.621	AM14HAS.jpg
195.499	0.514	Blank	Blank	23.108	n/a	2	6	12	n/a	112	n/a	2	n/a	n/a	n/a	n/a	222.119	n/a
196.029	0.497	happy	Picture	22.594	n/a	2	6	13	n/a	113	55	2	n/a	n/a	n/a	n/a	222.649	AF25HAS.jpg
196.526	0.514	Blank	Blank	22.08	n/a	2	6	13	n/a	113	n/a	2	n/a	n/a	n/a	n/a	223.146	n/a
197.057	0.497	happy	Picture	21.566	n/a	2	6	14	n/a	114	42	2	n/a	n/a	n/a	n/a	223.677	AF03HAS.jpg
197.554	0.514	Blank	Blank	21.052	n/a	2	6	14	n/a	114	n/a	2	n/a	n/a	n/a	n/a	224.174	n/a
198.085	0.497	happy	Picture	20.538	n/a	2	6	15	n/a	115	60	2	n/a	n/a	n/a	n/a	224.705	AF32HAS.jpg
198.582	0.514	Blank	Blank	20.024	n/a	2	6	15	n/a	115	n/a	2	n/a	n/a	n/a	n/a	225.202	n/a
199.113	0.497	happy	Picture	19.51	n/a	2	6	16	n/a	116	67	2	n/a	n/a	n/a	n/a	225.733	BM08HAS.jpg
199.61	0.514	Blank	Blank	18.996	n/a	2	6	16	n/a	116	n/a	2	n/a	n/a	n/a	n/a	226.23	n/a
200.141	0.497	happy	Picture	18.482	n/a	2	6	17	n/a	117	51	2	n/a	n/a	n/a	n/a	226.761	AF20HAS.jpg
200.638	0.514	Blank	Blank	17.968	n/a	2	6	17	n/a	117	n/a	2	n/a	n/a	n/a	n/a	227.258	n/a
201.168	0.497	happy	Picture	17.454	n/a	2	6	18	n/a	118	71	2	n/a	n/a	n/a	n/a	227.788	BM12HAS.jpg
201.666	0.514	Blank	Blank	16.94	n/a	2	6	18	n/a	118	n/a	2	n/a	n/a	n/a	n/a	228.286	n/a
202.196	0.497	happy	Picture	16.426	n/a	2	6	19	n/a	119	69	2	n/a	n/a	n/a	n/a	228.816	AM10HAS.jpg
202.694	0.514	Blank	Blank	15.912	n/a	2	6	19	n/a	119	n/a	2	n/a	n/a	n/a	n/a	229.314	n/a
203.224	0.497	happy	Picture	15.398	n/a	2	6	20	n/a	120	46	2	n/a	n/a	n/a	n/a	229.844	AF09HAS.jpg
203.722	0.514	Blank	Blank	14.885	n/a	2	6	20	n/a	120	n/a	2	n/a	n/a	n/a	n/a	230.342	n/a
204.252	10.014	ITI	Fixation+	4.854	n/a	2	n/a	n/a	n/a	n/a	n/a	n/a	n/a	n/a	n/a	n/a	230.872	n/a
219.12	n/a	ConfirmRating	Rate	n/a	4.841	2	n/a	n/a	0	n/a	n/a	n/a	2	Happy	66	51	245.74	n/a
226.227	n/a	ConfirmRating	Rate	n/a	7.095	2	n/a	n/a	1	n/a	n/a	n/a	3	Happy	3	48	252.847	n/a
226.252	15.004	Rest	Picture	n/a	n/a	n/a	n/a	n/a	n/a	n/a	n/a	n/a	0	n/a	0	0	252.872	n/a
241.273	10.014	ITI	Fixation+	95.05	n/a	3	n/a	n/a	n/a	n/a	n/a	n/a	n/a	n/a	n/a	n/a	267.893	n/a
251.303	0.497	angry	Picture	94.536	n/a	3	7	1	n/a	1	108	3	n/a	n/a	n/a	n/a	277.923	AM09ANS.jpg
251.8	0.514	Blank	Blank	94.022	n/a	3	7	1	n/a	1	n/a	3	n/a	n/a	n/a	n/a	278.42	n/a
252.331	0.497	angry	Picture	93.508	n/a	3	7	2	n/a	2	99	3	n/a	n/a	n/a	n/a	278.951	AF31ANS.jpg
252.828	0.514	Blank	Blank	92.994	n/a	3	7	2	n/a	2	n/a	3	n/a	n/a	n/a	n/a	279.448	n/a
253.359	0.497	angry	Picture	92.48	n/a	3	7	3	n/a	3	98	3	n/a	n/a	n/a	n/a	279.979	BF29ANS.jpg
253.856	0.514	Blank	Blank	91.966	n/a	3	7	3	n/a	3	n/a	3	n/a	n/a	n/a	n/a	280.476	n/a
254.387	0.497	angry	Picture	91.453	n/a	3	7	4	n/a	4	107	3	n/a	n/a	n/a	n/a	281.007	BM08ANS.jpg
254.884	0.514	Blank	Blank	90.939	n/a	3	7	4	n/a	4	n/a	3	n/a	n/a	n/a	n/a	281.504	n/a
255.415	0.497	angry	Picture	90.425	n/a	3	7	5	n/a	5	104	3	n/a	n/a	n/a	n/a	282.034	BM05ANS.jpg
255.912	0.514	Blank	Blank	89.911	n/a	3	7	5	n/a	5	n/a	3	n/a	n/a	n/a	n/a	282.532	n/a
256.442	0.497	angry	Picture	89.397	n/a	3	7	6	n/a	6	101	3	n/a	n/a	n/a	n/a	283.062	AM01ANS.jpg
256.94	0.514	Blank	Blank	88.883	n/a	3	7	6	n/a	6	n/a	3	n/a	n/a	n/a	n/a	283.56	n/a
257.47	0.497	angry	Picture	88.369	n/a	3	7	7	n/a	7	103	3	n/a	n/a	n/a	n/a	284.09	AM04ANS.jpg
257.968	0.514	Blank	Blank	87.855	n/a	3	7	7	n/a	7	n/a	3	n/a	n/a	n/a	n/a	284.588	n/a
258.498	0.497	angry	Picture	87.341	n/a	3	7	8	n/a	8	111	3	n/a	n/a	n/a	n/a	285.118	BM12ANS.jpg
258.996	0.514	Blank	Blank	86.827	n/a	3	7	8	n/a	8	n/a	3	n/a	n/a	n/a	n/a	285.616	n/a
259.526	0.497	angry	Picture	86.313	n/a	3	7	9	n/a	9	110	3	n/a	n/a	n/a	n/a	286.146	AM11ANS.jpg
260.024	0.514	Blank	Blank	85.799	n/a	3	7	9	n/a	9	n/a	3	n/a	n/a	n/a	n/a	286.644	n/a
260.554	0.497	angry	Picture	85.285	n/a	3	7	10	n/a	10	85	3	n/a	n/a	n/a	n/a	287.174	BF07ANS.jpg
261.051	0.514	Blank	Blank	84.771	n/a	3	7	10	n/a	10	n/a	3	n/a	n/a	n/a	n/a	287.671	n/a
261.582	0.497	angry	Picture	84.257	n/a	3	7	11	n/a	11	87	3	n/a	n/a	n/a	n/a	288.202	BF11ANS.jpg
262.079	0.514	Blank	Blank	83.743	n/a	3	7	11	n/a	11	n/a	3	n/a	n/a	n/a	n/a	288.699	n/a
262.61	0.497	angry	Picture	83.229	n/a	3	7	12	n/a	12	91	3	n/a	n/a	n/a	n/a	289.23	AF20ANS.jpg
263.107	0.514	Blank	Blank	82.715	n/a	3	7	12	n/a	12	n/a	3	n/a	n/a	n/a	n/a	289.727	n/a
263.638	0.497	angry	Picture	82.202	n/a	3	7	13	n/a	13	115	3	n/a	n/a	n/a	n/a	290.258	AM23ANS.jpg
264.135	0.514	Blank	Blank	81.688	n/a	3	7	13	n/a	13	n/a	3	n/a	n/a	n/a	n/a	290.755	n/a
264.666	0.497	angry	Picture	81.174	n/a	3	7	14	n/a	14	97	3	n/a	n/a	n/a	n/a	291.286	BF28ANS.jpg
265.163	0.514	Blank	Blank	80.66	n/a	3	7	14	n/a	14	n/a	3	n/a	n/a	n/a	n/a	291.783	n/a
265.693	0.497	angry	Picture	80.146	n/a	3	7	15	n/a	15	82	3	n/a	n/a	n/a	n/a	292.313	AF03ANS.jpg
266.191	0.514	Blank	Blank	79.632	n/a	3	7	15	n/a	15	n/a	3	n/a	n/a	n/a	n/a	292.811	n/a
266.721	0.497	angry	Picture	79.118	n/a	3	7	16	n/a	16	96	3	n/a	n/a	n/a	n/a	293.341	AF26ANS.jpg
267.219	0.514	Blank	Blank	78.604	n/a	3	7	16	n/a	16	n/a	3	n/a	n/a	n/a	n/a	293.839	n/a
267.749	0.497	angry	Picture	78.09	n/a	3	7	17	n/a	17	109	3	n/a	n/a	n/a	n/a	294.369	AM10ANS.jpg
268.247	0.514	Blank	Blank	77.576	n/a	3	7	17	n/a	17	n/a	3	n/a	n/a	n/a	n/a	294.867	n/a
268.777	0.497	angry	Picture	77.062	n/a	3	7	18	n/a	18	114	3	n/a	n/a	n/a	n/a	295.397	AM22ANS.jpg
269.275	0.514	Blank	Blank	76.548	n/a	3	7	18	n/a	18	n/a	3	n/a	n/a	n/a	n/a	295.894	n/a
269.805	0.497	angry	Picture	76.034	n/a	3	7	19	n/a	19	120	3	n/a	n/a	n/a	n/a	296.425	AM35ANS.jpg
270.303	0.514	Blank	Blank	75.52	n/a	3	7	19	n/a	19	n/a	3	n/a	n/a	n/a	n/a	296.922	n/a
270.833	0.497	angry	Picture	75.006	n/a	3	7	20	n/a	20	81	3	n/a	n/a	n/a	n/a	297.453	AF01ANS.jpg
271.33	0.514	Blank	Blank	74.492	n/a	3	7	20	n/a	20	n/a	3	n/a	n/a	n/a	n/a	297.95	n/a
271.861	10.014	ITI	Fixation+	64.462	n/a	3	n/a	n/a	n/a	n/a	n/a	n/a	n/a	n/a	n/a	n/a	298.481	n/a
281.891	0.497	neutral	Picture	63.948	n/a	3	8	1	n/a	21	28	1	n/a	n/a	n/a	n/a	308.511	AM09NES.jpg
282.389	0.514	Blank	Blank	63.434	n/a	3	8	1	n/a	21	n/a	1	n/a	n/a	n/a	n/a	309.008	n/a
282.919	0.497	neutral	Picture	62.92	n/a	3	8	2	n/a	22	27	1	n/a	n/a	n/a	n/a	309.539	BM08NES.jpg
283.416	0.514	Blank	Blank	62.406	n/a	3	8	2	n/a	22	n/a	1	n/a	n/a	n/a	n/a	310.036	n/a
283.947	0.497	neutral	Picture	61.892	n/a	3	8	3	n/a	23	16	1	n/a	n/a	n/a	n/a	310.567	AF26NES.jpg
284.444	0.514	Blank	Blank	61.378	n/a	3	8	3	n/a	23	n/a	1	n/a	n/a	n/a	n/a	311.064	n/a
284.975	0.497	neutral	Picture	60.865	n/a	3	8	4	n/a	24	3	1	n/a	n/a	n/a	n/a	311.595	BF04NES.jpg
285.472	0.514	Blank	Blank	60.351	n/a	3	8	4	n/a	24	n/a	1	n/a	n/a	n/a	n/a	312.092	n/a
286.003	0.497	neutral	Picture	59.837	n/a	3	8	5	n/a	25	32	1	n/a	n/a	n/a	n/a	312.623	AM14NES.jpg
286.5	0.514	Blank	Blank	59.323	n/a	3	8	5	n/a	25	n/a	1	n/a	n/a	n/a	n/a	313.12	n/a
287.031	0.497	neutral	Picture	58.809	n/a	3	8	6	n/a	26	37	1	n/a	n/a	n/a	n/a	313.651	BM25NES.jpg
287.528	0.514	Blank	Blank	58.295	n/a	3	8	6	n/a	26	n/a	1	n/a	n/a	n/a	n/a	314.148	n/a
288.058	0.497	neutral	Picture	57.781	n/a	3	8	7	n/a	27	15	1	n/a	n/a	n/a	n/a	314.678	AF25NES.jpg
288.556	0.514	Blank	Blank	57.267	n/a	3	8	7	n/a	27	n/a	1	n/a	n/a	n/a	n/a	315.176	n/a
289.086	0.497	neutral	Picture	56.753	n/a	3	8	8	n/a	28	23	1	n/a	n/a	n/a	n/a	315.706	AM04NES.jpg
289.584	0.514	Blank	Blank	56.239	n/a	3	8	8	n/a	28	n/a	1	n/a	n/a	n/a	n/a	316.204	n/a
290.114	0.497	neutral	Picture	55.725	n/a	3	8	9	n/a	29	34	1	n/a	n/a	n/a	n/a	316.734	AM22NES.jpg
290.612	0.514	Blank	Blank	55.211	n/a	3	8	9	n/a	29	n/a	1	n/a	n/a	n/a	n/a	317.231	n/a
291.142	0.497	neutral	Picture	54.697	n/a	3	8	10	n/a	30	24	1	n/a	n/a	n/a	n/a	317.762	BM05NES.jpg
291.639	0.514	Blank	Blank	54.183	n/a	3	8	10	n/a	30	n/a	1	n/a	n/a	n/a	n/a	318.259	n/a
292.17	0.497	neutral	Picture	53.669	n/a	3	8	11	n/a	31	12	1	n/a	n/a	n/a	n/a	318.79	AF21NES.jpg
292.667	0.514	Blank	Blank	53.155	n/a	3	8	11	n/a	31	n/a	1	n/a	n/a	n/a	n/a	319.287	n/a
293.198	0.497	neutral	Picture	52.641	n/a	3	8	12	n/a	32	6	1	n/a	n/a	n/a	n/a	319.818	AF09NES.jpg
293.695	0.514	Blank	Blank	52.127	n/a	3	8	12	n/a	32	n/a	1	n/a	n/a	n/a	n/a	320.315	n/a
294.226	0.497	neutral	Picture	51.614	n/a	3	8	13	n/a	33	17	1	n/a	n/a	n/a	n/a	320.846	BF28NES.jpg
294.723	0.514	Blank	Blank	51.1	n/a	3	8	13	n/a	33	n/a	1	n/a	n/a	n/a	n/a	321.343	n/a
295.254	0.497	neutral	Picture	50.586	n/a	3	8	14	n/a	34	2	1	n/a	n/a	n/a	n/a	321.874	AF03NES.jpg
295.751	0.514	Blank	Blank	50.072	n/a	3	8	14	n/a	34	n/a	1	n/a	n/a	n/a	n/a	322.371	n/a
296.282	0.497	neutral	Picture	49.558	n/a	3	8	15	n/a	35	9	1	n/a	n/a	n/a	n/a	322.901	AF17NES.jpg
296.779	0.514	Blank	Blank	49.044	n/a	3	8	15	n/a	35	n/a	1	n/a	n/a	n/a	n/a	323.399	n/a
297.309	0.497	neutral	Picture	48.53	n/a	3	8	16	n/a	36	25	1	n/a	n/a	n/a	n/a	323.929	BM06NES.jpg
297.807	0.514	Blank	Blank	48.016	n/a	3	8	16	n/a	36	n/a	1	n/a	n/a	n/a	n/a	324.427	n/a
298.337	0.497	neutral	Picture	47.502	n/a	3	8	17	n/a	37	8	1	n/a	n/a	n/a	n/a	324.957	AF14NES.jpg
298.835	0.514	Blank	Blank	46.988	n/a	3	8	17	n/a	37	n/a	1	n/a	n/a	n/a	n/a	325.455	n/a
299.365	0.497	neutral	Picture	46.474	n/a	3	8	18	n/a	38	19	1	n/a	n/a	n/a	n/a	325.985	AF31NES.jpg
299.863	0.514	Blank	Blank	45.96	n/a	3	8	18	n/a	38	n/a	1	n/a	n/a	n/a	n/a	326.483	n/a
300.393	0.497	neutral	Picture	45.446	n/a	3	8	19	n/a	39	14	1	n/a	n/a	n/a	n/a	327.013	AF23NES.jpg
300.89	0.514	Blank	Blank	44.932	n/a	3	8	19	n/a	39	n/a	1	n/a	n/a	n/a	n/a	327.51	n/a
301.421	0.497	neutral	Picture	44.418	n/a	3	8	20	n/a	40	4	1	n/a	n/a	n/a	n/a	328.041	AF05NES.jpg
301.918	0.514	Blank	Blank	43.904	n/a	3	8	20	n/a	40	n/a	1	n/a	n/a	n/a	n/a	328.538	n/a
302.449	10.014	ITI	Fixation+	33.874	n/a	3	n/a	n/a	n/a	n/a	n/a	n/a	n/a	n/a	n/a	n/a	329.069	n/a
312.479	0.497	angry	Picture	33.36	n/a	3	9	1	n/a	41	84	3	n/a	n/a	n/a	n/a	339.099	AF05ANS.jpg
312.976	0.514	Blank	Blank	32.846	n/a	3	9	1	n/a	41	n/a	3	n/a	n/a	n/a	n/a	339.596	n/a
313.507	0.497	angry	Picture	32.332	n/a	3	9	2	n/a	42	92	3	n/a	n/a	n/a	n/a	340.127	AF21ANS.jpg
314.004	0.514	Blank	Blank	31.818	n/a	3	9	2	n/a	42	n/a	3	n/a	n/a	n/a	n/a	340.624	n/a
314.535	0.497	angry	Picture	31.304	n/a	3	9	3	n/a	43	86	3	n/a	n/a	n/a	n/a	341.155	AF09ANS.jpg
315.032	0.514	Blank	Blank	30.791	n/a	3	9	3	n/a	43	n/a	3	n/a	n/a	n/a	n/a	341.652	n/a
315.563	0.497	angry	Picture	30.276	n/a	3	9	4	n/a	44	93	3	n/a	n/a	n/a	n/a	342.183	BF22ANS.jpg
316.06	0.514	Blank	Blank	29.763	n/a	3	9	4	n/a	44	n/a	3	n/a	n/a	n/a	n/a	342.68	n/a
316.591	0.497	angry	Picture	29.249	n/a	3	9	5	n/a	45	88	3	n/a	n/a	n/a	n/a	343.211	AF14ANS.jpg
317.088	0.514	Blank	Blank	28.735	n/a	3	9	5	n/a	45	n/a	3	n/a	n/a	n/a	n/a	343.708	n/a
317.619	0.497	angry	Picture	28.221	n/a	3	9	6	n/a	46	113	3	n/a	n/a	n/a	n/a	344.238	AM21ANS.jpg
318.116	0.514	Blank	Blank	27.707	n/a	3	9	6	n/a	46	n/a	3	n/a	n/a	n/a	n/a	344.736	n/a
318.646	0.497	angry	Picture	27.193	n/a	3	9	7	n/a	47	95	3	n/a	n/a	n/a	n/a	345.266	AF25ANS.jpg
319.144	0.514	Blank	Blank	26.679	n/a	3	9	7	n/a	47	n/a	3	n/a	n/a	n/a	n/a	345.764	n/a
319.674	0.497	angry	Picture	26.165	n/a	3	9	8	n/a	48	102	3	n/a	n/a	n/a	n/a	346.294	BM03ANS.jpg
320.172	0.514	Blank	Blank	25.651	n/a	3	9	8	n/a	48	n/a	3	n/a	n/a	n/a	n/a	346.792	n/a
320.702	0.497	angry	Picture	25.137	n/a	3	9	9	n/a	49	112	3	n/a	n/a	n/a	n/a	347.322	AM14ANS.jpg
321.2	0.514	Blank	Blank	24.623	n/a	3	9	9	n/a	49	n/a	3	n/a	n/a	n/a	n/a	347.82	n/a
321.73	0.497	angry	Picture	24.109	n/a	3	9	10	n/a	50	83	3	n/a	n/a	n/a	n/a	348.35	BF04ANS.jpg
322.227	0.514	Blank	Blank	23.595	n/a	3	9	10	n/a	50	n/a	3	n/a	n/a	n/a	n/a	348.847	n/a
322.758	0.497	angry	Picture	23.081	n/a	3	9	11	n/a	51	90	3	n/a	n/a	n/a	n/a	349.378	AF18ANS.jpg
323.255	0.514	Blank	Blank	22.567	n/a	3	9	11	n/a	51	n/a	3	n/a	n/a	n/a	n/a	349.875	n/a
323.786	0.497	angry	Picture	22.053	n/a	3	9	12	n/a	52	117	3	n/a	n/a	n/a	n/a	350.406	BM25ANS.jpg
324.283	0.514	Blank	Blank	21.539	n/a	3	9	12	n/a	52	n/a	3	n/a	n/a	n/a	n/a	350.903	n/a
324.814	0.497	angry	Picture	21.025	n/a	3	9	13	n/a	53	94	3	n/a	n/a	n/a	n/a	351.434	AF23ANS.jpg
325.311	0.514	Blank	Blank	20.512	n/a	3	9	13	n/a	53	n/a	3	n/a	n/a	n/a	n/a	351.931	n/a
325.842	0.497	angry	Picture	19.998	n/a	3	9	14	n/a	54	106	3	n/a	n/a	n/a	n/a	352.462	AM07ANS.jpg
326.339	0.514	Blank	Blank	19.484	n/a	3	9	14	n/a	54	n/a	3	n/a	n/a	n/a	n/a	352.959	n/a
326.87	0.497	angry	Picture	18.97	n/a	3	9	15	n/a	55	105	3	n/a	n/a	n/a	n/a	353.49	BM06ANS.jpg
327.367	0.514	Blank	Blank	18.456	n/a	3	9	15	n/a	55	n/a	3	n/a	n/a	n/a	n/a	353.987	n/a
327.898	0.497	angry	Picture	17.942	n/a	3	9	16	n/a	56	116	3	n/a	n/a	n/a	n/a	354.517	BM24ANS.jpg
328.395	0.514	Blank	Blank	17.428	n/a	3	9	16	n/a	56	n/a	3	n/a	n/a	n/a	n/a	355.015	n/a
328.925	0.497	angry	Picture	16.914	n/a	3	9	17	n/a	57	89	3	n/a	n/a	n/a	n/a	355.545	AF17ANS.jpg
329.423	0.514	Blank	Blank	16.4	n/a	3	9	17	n/a	57	n/a	3	n/a	n/a	n/a	n/a	356.043	n/a
329.953	0.497	angry	Picture	15.886	n/a	3	9	18	n/a	58	118	3	n/a	n/a	n/a	n/a	356.573	BM26ANS.jpg
330.451	0.514	Blank	Blank	15.372	n/a	3	9	18	n/a	58	n/a	3	n/a	n/a	n/a	n/a	357.07	n/a
330.981	0.497	angry	Picture	14.858	n/a	3	9	19	n/a	59	100	3	n/a	n/a	n/a	n/a	357.601	AF32ANS.jpg
331.479	0.514	Blank	Blank	14.344	n/a	3	9	19	n/a	59	n/a	3	n/a	n/a	n/a	n/a	358.098	n/a
332.009	0.497	angry	Picture	13.83	n/a	3	9	20	n/a	60	119	3	n/a	n/a	n/a	n/a	358.629	BM28ANS.jpg
332.506	0.514	Blank	Blank	13.316	n/a	3	9	20	n/a	60	n/a	3	n/a	n/a	n/a	n/a	359.126	n/a
333.037	10.014	ITI	Fixation+	3.286	n/a	3	n/a	n/a	n/a	n/a	n/a	n/a	n/a	n/a	n/a	n/a	359.657	n/a
346.337	n/a	ConfirmRating	Rate	n/a	3.282	3	n/a	n/a	0	n/a	n/a	n/a	2	Angry	64	51	372.957	n/a
348.736	n/a	ConfirmRating	Rate	n/a	2.371	3	n/a	n/a	1	n/a	n/a	n/a	3	Angry	9	49	375.356	n/a
348.754	10.014	ITI	Fixation+	96.538	n/a	4	n/a	n/a	n/a	n/a	n/a	n/a	n/a	n/a	n/a	n/a	375.374	n/a
358.784	0.497	happy	Picture	96.024	n/a	4	10	1	n/a	61	79	2	n/a	n/a	n/a	n/a	385.404	BM28HAS.jpg
359.281	0.514	Blank	Blank	95.51	n/a	4	10	1	n/a	61	n/a	2	n/a	n/a	n/a	n/a	385.901	n/a
359.812	0.497	happy	Picture	94.996	n/a	4	10	2	n/a	62	61	2	n/a	n/a	n/a	n/a	386.432	AM01HAS.jpg
360.309	0.514	Blank	Blank	94.483	n/a	4	10	2	n/a	62	n/a	2	n/a	n/a	n/a	n/a	386.929	n/a
360.84	0.497	happy	Picture	93.969	n/a	4	10	3	n/a	63	57	2	n/a	n/a	n/a	n/a	387.46	BF28HAS.jpg
361.337	0.514	Blank	Blank	93.455	n/a	4	10	3	n/a	63	n/a	2	n/a	n/a	n/a	n/a	387.957	n/a
361.868	0.497	happy	Picture	92.941	n/a	4	10	4	n/a	64	77	2	n/a	n/a	n/a	n/a	388.488	BM25HAS.jpg
362.365	0.514	Blank	Blank	92.427	n/a	4	10	4	n/a	64	n/a	2	n/a	n/a	n/a	n/a	388.985	n/a
362.895	0.497	happy	Picture	91.913	n/a	4	10	5	n/a	65	47	2	n/a	n/a	n/a	n/a	389.515	BF11HAS.jpg
363.393	0.514	Blank	Blank	91.399	n/a	4	10	5	n/a	65	n/a	2	n/a	n/a	n/a	n/a	390.013	n/a
363.923	0.497	happy	Picture	90.885	n/a	4	10	6	n/a	66	50	2	n/a	n/a	n/a	n/a	390.543	AF18HAS.jpg
364.421	0.514	Blank	Blank	90.371	n/a	4	10	6	n/a	66	n/a	2	n/a	n/a	n/a	n/a	391.041	n/a
364.951	0.497	happy	Picture	89.857	n/a	4	10	7	n/a	67	78	2	n/a	n/a	n/a	n/a	391.571	BM26HAS.jpg
365.449	0.514	Blank	Blank	89.343	n/a	4	10	7	n/a	67	n/a	2	n/a	n/a	n/a	n/a	392.068	n/a
365.979	0.497	happy	Picture	88.829	n/a	4	10	8	n/a	68	45	2	n/a	n/a	n/a	n/a	392.599	BF07HAS.jpg
366.476	0.514	Blank	Blank	88.315	n/a	4	10	8	n/a	68	n/a	2	n/a	n/a	n/a	n/a	393.096	n/a
367.007	0.497	happy	Picture	87.801	n/a	4	10	9	n/a	69	56	2	n/a	n/a	n/a	n/a	393.627	AF26HAS.jpg
367.504	0.514	Blank	Blank	87.287	n/a	4	10	9	n/a	69	n/a	2	n/a	n/a	n/a	n/a	394.124	n/a
368.035	0.497	happy	Picture	86.773	n/a	4	10	10	n/a	70	65	2	n/a	n/a	n/a	n/a	394.655	BM06HAS.jpg
368.532	0.514	Blank	Blank	86.259	n/a	4	10	10	n/a	70	n/a	2	n/a	n/a	n/a	n/a	395.152	n/a
369.063	0.497	happy	Picture	85.745	n/a	4	10	11	n/a	71	73	2	n/a	n/a	n/a	n/a	395.683	AM21HAS.jpg
369.56	0.514	Blank	Blank	85.232	n/a	4	10	11	n/a	71	n/a	2	n/a	n/a	n/a	n/a	396.18	n/a
370.091	0.497	happy	Picture	84.718	n/a	4	10	12	n/a	72	41	2	n/a	n/a	n/a	n/a	396.711	AF01HAS.jpg
370.588	0.514	Blank	Blank	84.204	n/a	4	10	12	n/a	72	n/a	2	n/a	n/a	n/a	n/a	397.208	n/a
371.119	0.497	happy	Picture	83.69	n/a	4	10	13	n/a	73	59	2	n/a	n/a	n/a	n/a	397.738	AF31HAS.jpg
371.616	0.514	Blank	Blank	83.176	n/a	4	10	13	n/a	73	n/a	2	n/a	n/a	n/a	n/a	398.236	n/a
372.146	0.497	happy	Picture	82.662	n/a	4	10	14	n/a	74	64	2	n/a	n/a	n/a	n/a	398.766	BM05HAS.jpg
372.644	0.514	Blank	Blank	82.148	n/a	4	10	14	n/a	74	n/a	2	n/a	n/a	n/a	n/a	399.264	n/a
373.174	0.497	happy	Picture	81.634	n/a	4	10	15	n/a	75	68	2	n/a	n/a	n/a	n/a	399.794	AM09HAS.jpg
373.672	0.514	Blank	Blank	81.12	n/a	4	10	15	n/a	75	n/a	2	n/a	n/a	n/a	n/a	400.292	n/a
374.202	0.497	happy	Picture	80.606	n/a	4	10	16	n/a	76	54	2	n/a	n/a	n/a	n/a	400.822	AF23HAS.jpg
374.7	0.514	Blank	Blank	80.092	n/a	4	10	16	n/a	76	n/a	2	n/a	n/a	n/a	n/a	401.32	n/a
375.23	0.497	happy	Picture	79.578	n/a	4	10	17	n/a	77	53	2	n/a	n/a	n/a	n/a	401.85	BF22HAS.jpg
375.727	0.514	Blank	Blank	79.064	n/a	4	10	17	n/a	77	n/a	2	n/a	n/a	n/a	n/a	402.347	n/a
376.258	0.497	happy	Picture	78.55	n/a	4	10	18	n/a	78	44	2	n/a	n/a	n/a	n/a	402.878	AF05HAS.jpg
376.755	0.514	Blank	Blank	78.036	n/a	4	10	18	n/a	78	n/a	2	n/a	n/a	n/a	n/a	403.375	n/a
377.286	0.497	happy	Picture	77.522	n/a	4	10	19	n/a	79	52	2	n/a	n/a	n/a	n/a	403.906	AF21HAS.jpg
377.783	0.514	Blank	Blank	77.008	n/a	4	10	19	n/a	79	n/a	2	n/a	n/a	n/a	n/a	404.403	n/a
378.314	0.497	happy	Picture	76.494	n/a	4	10	20	n/a	80	62	2	n/a	n/a	n/a	n/a	404.934	BM03HAS.jpg
378.811	0.514	Blank	Blank	75.98	n/a	4	10	20	n/a	80	n/a	2	n/a	n/a	n/a	n/a	405.431	n/a
379.342	10.014	ITI	Fixation+	65.95	n/a	4	n/a	n/a	n/a	n/a	n/a	n/a	n/a	n/a	n/a	n/a	405.962	n/a
389.372	0.497	neutral	Picture	65.436	n/a	4	11	1	n/a	81	23	1	n/a	n/a	n/a	n/a	415.992	AM04NES.jpg
389.869	0.514	Blank	Blank	64.922	n/a	4	11	1	n/a	81	n/a	1	n/a	n/a	n/a	n/a	416.489	n/a
390.4	0.497	neutral	Picture	64.408	n/a	4	11	2	n/a	82	29	1	n/a	n/a	n/a	n/a	417.02	AM10NES.jpg
390.897	0.514	Blank	Blank	63.894	n/a	4	11	2	n/a	82	n/a	1	n/a	n/a	n/a	n/a	417.517	n/a
391.428	0.497	neutral	Picture	63.381	n/a	4	11	3	n/a	83	24	1	n/a	n/a	n/a	n/a	418.048	BM05NES.jpg
391.925	0.514	Blank	Blank	62.867	n/a	4	11	3	n/a	83	n/a	1	n/a	n/a	n/a	n/a	418.545	n/a
392.456	0.497	neutral	Picture	62.353	n/a	4	11	4	n/a	84	12	1	n/a	n/a	n/a	n/a	419.075	AF21NES.jpg
392.953	0.514	Blank	Blank	61.839	n/a	4	11	4	n/a	84	n/a	1	n/a	n/a	n/a	n/a	419.573	n/a
393.484	0.497	neutral	Picture	61.325	n/a	4	11	5	n/a	85	13	1	n/a	n/a	n/a	n/a	420.103	BF22NES.jpg
393.981	0.514	Blank	Blank	60.811	n/a	4	11	5	n/a	85	n/a	1	n/a	n/a	n/a	n/a	420.601	n/a
394.511	0.497	neutral	Picture	60.297	n/a	4	11	6	n/a	86	17	1	n/a	n/a	n/a	n/a	421.131	BF28NES.jpg
395.009	0.514	Blank	Blank	59.783	n/a	4	11	6	n/a	86	n/a	1	n/a	n/a	n/a	n/a	421.629	n/a
395.539	0.497	neutral	Picture	59.269	n/a	4	11	7	n/a	87	4	1	n/a	n/a	n/a	n/a	422.159	AF05NES.jpg
396.037	0.514	Blank	Blank	58.755	n/a	4	11	7	n/a	87	n/a	1	n/a	n/a	n/a	n/a	422.657	n/a
396.567	0.497	neutral	Picture	58.241	n/a	4	11	8	n/a	88	11	1	n/a	n/a	n/a	n/a	423.187	AF20NES.jpg
397.065	0.514	Blank	Blank	57.727	n/a	4	11	8	n/a	88	n/a	1	n/a	n/a	n/a	n/a	423.685	n/a
397.595	0.497	neutral	Picture	57.213	n/a	4	11	9	n/a	89	22	1	n/a	n/a	n/a	n/a	424.215	BM03NES.jpg
398.092	0.514	Blank	Blank	56.699	n/a	4	11	9	n/a	89	n/a	1	n/a	n/a	n/a	n/a	424.712	n/a
398.623	0.497	neutral	Picture	56.185	n/a	4	11	10	n/a	90	15	1	n/a	n/a	n/a	n/a	425.243	AF25NES.jpg
399.12	0.514	Blank	Blank	55.671	n/a	4	11	10	n/a	90	n/a	1	n/a	n/a	n/a	n/a	425.74	n/a
399.651	0.497	neutral	Picture	55.157	n/a	4	11	11	n/a	91	19	1	n/a	n/a	n/a	n/a	426.271	AF31NES.jpg
400.148	0.514	Blank	Blank	54.643	n/a	4	11	11	n/a	91	n/a	1	n/a	n/a	n/a	n/a	426.768	n/a
400.679	0.497	neutral	Picture	54.13	n/a	4	11	12	n/a	92	9	1	n/a	n/a	n/a	n/a	427.299	AF17NES.jpg
401.176	0.514	Blank	Blank	53.615	n/a	4	11	12	n/a	92	n/a	1	n/a	n/a	n/a	n/a	427.796	n/a
401.707	0.497	neutral	Picture	53.102	n/a	4	11	13	n/a	93	14	1	n/a	n/a	n/a	n/a	428.327	AF23NES.jpg
402.204	0.514	Blank	Blank	52.588	n/a	4	11	13	n/a	93	n/a	1	n/a	n/a	n/a	n/a	428.824	n/a
402.735	0.497	neutral	Picture	52.074	n/a	4	11	14	n/a	94	36	1	n/a	n/a	n/a	n/a	429.354	BM24NES.jpg
403.232	0.514	Blank	Blank	51.56	n/a	4	11	14	n/a	94	n/a	1	n/a	n/a	n/a	n/a	429.852	n/a
403.762	0.497	neutral	Picture	51.046	n/a	4	11	15	n/a	95	34	1	n/a	n/a	n/a	n/a	430.382	AM22NES.jpg
404.26	0.514	Blank	Blank	50.532	n/a	4	11	15	n/a	95	n/a	1	n/a	n/a	n/a	n/a	430.88	n/a
404.79	0.497	neutral	Picture	50.018	n/a	4	11	16	n/a	96	10	1	n/a	n/a	n/a	n/a	431.41	AF18NES.jpg
405.288	0.514	Blank	Blank	49.504	n/a	4	11	16	n/a	96	n/a	1	n/a	n/a	n/a	n/a	431.908	n/a
405.818	0.497	neutral	Picture	48.99	n/a	4	11	17	n/a	97	5	1	n/a	n/a	n/a	n/a	432.438	BF07NES.jpg
406.316	0.514	Blank	Blank	48.476	n/a	4	11	17	n/a	97	n/a	1	n/a	n/a	n/a	n/a	432.935	n/a
406.846	0.497	neutral	Picture	47.962	n/a	4	11	18	n/a	98	25	1	n/a	n/a	n/a	n/a	433.466	BM06NES.jpg
407.343	0.514	Blank	Blank	47.448	n/a	4	11	18	n/a	98	n/a	1	n/a	n/a	n/a	n/a	433.963	n/a
407.874	0.497	neutral	Picture	46.934	n/a	4	11	19	n/a	99	39	1	n/a	n/a	n/a	n/a	434.494	AM28NES.jpg
408.371	0.514	Blank	Blank	46.42	n/a	4	11	19	n/a	99	n/a	1	n/a	n/a	n/a	n/a	434.991	n/a
408.902	0.497	neutral	Picture	45.906	n/a	4	11	20	n/a	100	33	1	n/a	n/a	n/a	n/a	435.522	AM21NES.jpg
409.399	0.514	Blank	Blank	45.392	n/a	4	11	20	n/a	100	n/a	1	n/a	n/a	n/a	n/a	436.019	n/a
409.93	10.014	ITI	Fixation+	35.362	n/a	4	n/a	n/a	n/a	n/a	n/a	n/a	n/a	n/a	n/a	n/a	436.55	n/a
419.96	0.497	happy	Picture	34.848	n/a	4	12	1	n/a	101	74	2	n/a	n/a	n/a	n/a	446.58	AM22HAS.jpg
420.457	0.514	Blank	Blank	34.334	n/a	4	12	1	n/a	101	n/a	2	n/a	n/a	n/a	n/a	447.077	n/a
420.988	0.497	happy	Picture	33.82	n/a	4	12	2	n/a	102	76	2	n/a	n/a	n/a	n/a	447.608	BM24HAS.jpg
421.485	0.514	Blank	Blank	33.306	n/a	4	12	2	n/a	102	n/a	2	n/a	n/a	n/a	n/a	448.105	n/a
422.016	0.497	happy	Picture	32.793	n/a	4	12	3	n/a	103	80	2	n/a	n/a	n/a	n/a	448.636	BM35HAS.jpg
422.513	0.514	Blank	Blank	32.279	n/a	4	12	3	n/a	103	n/a	2	n/a	n/a	n/a	n/a	449.133	n/a
423.044	0.497	happy	Picture	31.765	n/a	4	12	4	n/a	104	75	2	n/a	n/a	n/a	n/a	449.664	AM23HAS.jpg
423.541	0.514	Blank	Blank	31.251	n/a	4	12	4	n/a	104	n/a	2	n/a	n/a	n/a	n/a	450.161	n/a
424.072	0.497	happy	Picture	30.737	n/a	4	12	5	n/a	105	49	2	n/a	n/a	n/a	n/a	450.691	AF17HAS.jpg
424.569	0.514	Blank	Blank	30.223	n/a	4	12	5	n/a	105	n/a	2	n/a	n/a	n/a	n/a	451.189	n/a
425.099	0.497	happy	Picture	29.709	n/a	4	12	6	n/a	106	43	2	n/a	n/a	n/a	n/a	451.719	BF04HAS.jpg
425.597	0.514	Blank	Blank	29.195	n/a	4	12	6	n/a	106	n/a	2	n/a	n/a	n/a	n/a	452.217	n/a
426.127	0.497	happy	Picture	28.681	n/a	4	12	7	n/a	107	70	2	n/a	n/a	n/a	n/a	452.747	BM11HAS.jpg
426.625	0.514	Blank	Blank	28.167	n/a	4	12	7	n/a	107	n/a	2	n/a	n/a	n/a	n/a	453.245	n/a
427.155	0.497	happy	Picture	27.653	n/a	4	12	8	n/a	108	66	2	n/a	n/a	n/a	n/a	453.775	BM07HAS.jpg
427.653	0.514	Blank	Blank	27.139	n/a	4	12	8	n/a	108	n/a	2	n/a	n/a	n/a	n/a	454.272	n/a
428.183	0.497	happy	Picture	26.625	n/a	4	12	9	n/a	109	48	2	n/a	n/a	n/a	n/a	454.803	AF14HAS.jpg
428.681	0.514	Blank	Blank	26.111	n/a	4	12	9	n/a	109	n/a	2	n/a	n/a	n/a	n/a	455.3	n/a
429.211	0.497	happy	Picture	25.597	n/a	4	12	10	n/a	110	58	2	n/a	n/a	n/a	n/a	455.831	BF29HAS.jpg
429.708	0.514	Blank	Blank	25.083	n/a	4	12	10	n/a	110	n/a	2	n/a	n/a	n/a	n/a	456.328	n/a
430.239	0.497	happy	Picture	24.569	n/a	4	12	11	n/a	111	63	2	n/a	n/a	n/a	n/a	456.859	AM04HAS.jpg
430.736	0.514	Blank	Blank	24.055	n/a	4	12	11	n/a	111	n/a	2	n/a	n/a	n/a	n/a	457.356	n/a
431.267	0.497	happy	Picture	23.542	n/a	4	12	12	n/a	112	72	2	n/a	n/a	n/a	n/a	457.887	AM14HAS.jpg
431.764	0.514	Blank	Blank	23.028	n/a	4	12	12	n/a	112	n/a	2	n/a	n/a	n/a	n/a	458.384	n/a
432.295	0.497	happy	Picture	22.514	n/a	4	12	13	n/a	113	55	2	n/a	n/a	n/a	n/a	458.915	AF25HAS.jpg
432.792	0.514	Blank	Blank	22.0	n/a	4	12	13	n/a	113	n/a	2	n/a	n/a	n/a	n/a	459.412	n/a
433.323	0.497	happy	Picture	21.486	n/a	4	12	14	n/a	114	42	2	n/a	n/a	n/a	n/a	459.942	AF03HAS.jpg
433.82	0.514	Blank	Blank	20.972	n/a	4	12	14	n/a	114	n/a	2	n/a	n/a	n/a	n/a	460.44	n/a
434.35	0.497	happy	Picture	20.458	n/a	4	12	15	n/a	115	60	2	n/a	n/a	n/a	n/a	460.97	AF32HAS.jpg
434.848	0.514	Blank	Blank	19.944	n/a	4	12	15	n/a	115	n/a	2	n/a	n/a	n/a	n/a	461.468	n/a
435.378	0.497	happy	Picture	19.43	n/a	4	12	16	n/a	116	67	2	n/a	n/a	n/a	n/a	461.998	BM08HAS.jpg
435.876	0.514	Blank	Blank	18.916	n/a	4	12	16	n/a	116	n/a	2	n/a	n/a	n/a	n/a	462.496	n/a
436.406	0.497	happy	Picture	18.402	n/a	4	12	17	n/a	117	51	2	n/a	n/a	n/a	n/a	463.026	AF20HAS.jpg
436.904	0.514	Blank	Blank	17.888	n/a	4	12	17	n/a	117	n/a	2	n/a	n/a	n/a	n/a	463.524	n/a
437.434	0.497	happy	Picture	17.374	n/a	4	12	18	n/a	118	71	2	n/a	n/a	n/a	n/a	464.054	BM12HAS.jpg
437.932	0.514	Blank	Blank	16.86	n/a	4	12	18	n/a	118	n/a	2	n/a	n/a	n/a	n/a	464.551	n/a
438.462	0.497	happy	Picture	16.346	n/a	4	12	19	n/a	119	69	2	n/a	n/a	n/a	n/a	465.082	AM10HAS.jpg
438.959	0.514	Blank	Blank	15.832	n/a	4	12	19	n/a	119	n/a	2	n/a	n/a	n/a	n/a	465.579	n/a
439.49	0.497	happy	Picture	15.318	n/a	4	12	20	n/a	120	46	2	n/a	n/a	n/a	n/a	466.11	AF09HAS.jpg
439.987	0.514	Blank	Blank	14.804	n/a	4	12	20	n/a	120	n/a	2	n/a	n/a	n/a	n/a	466.607	n/a
440.518	10.014	ITI	Fixation+	4.774	n/a	4	n/a	n/a	n/a	n/a	n/a	n/a	n/a	n/a	n/a	n/a	467.138	n/a
455.306	n/a	ConfirmRating	Rate	n/a	4.759	4	n/a	n/a	0	n/a	n/a	n/a	2	Happy	66	51	481.925	n/a
457.667	n/a	ConfirmRating	Rate	n/a	2.354	4	n/a	n/a	1	n/a	n/a	n/a	3	Happy	3	49	484.286	n/a
