onset	duration	trial_type	event_type	time_until_response	response_time	trial_number	block_num_within_trial	image_seq_num_within_block	question_seq_num_within_block	image_seq_num	picture_number	condition	question_type	block_type	rating	rating_computed	onset_uncorrected	KDEV_imagefile
0.002	10.002	ITI	Fixation+	95.559	n/a	1	n/a	n/a	n/a	n/a	n/a	n/a	n/a	n/a	n/a	n/a	31.268	n/a
10.004	0.513	angry	Picture	95.045	n/a	1	1	1	n/a	1	46	2	n/a	n/a	n/a	n/a	41.27	AF09HAS.jpg
10.517	0.5	Blank	Blank	94.545	n/a	1	1	1	n/a	1	n/a	2	n/a	n/a	n/a	n/a	41.784	n/a
11.048	0.47	angry	Picture	94.045	n/a	1	1	2	n/a	2	69	2	n/a	n/a	n/a	n/a	42.314	AM10HAS.jpg
11.518	0.508	Blank	Blank	93.537	n/a	1	1	2	n/a	2	n/a	2	n/a	n/a	n/a	n/a	42.784	n/a
12.027	0.513	angry	Picture	93.023	n/a	1	1	3	n/a	3	71	2	n/a	n/a	n/a	n/a	43.293	BM12HAS.jpg
12.54	0.5	Blank	Blank	92.523	n/a	1	1	3	n/a	3	n/a	2	n/a	n/a	n/a	n/a	43.806	n/a
13.071	0.469	angry	Picture	92.023	n/a	1	1	4	n/a	4	51	2	n/a	n/a	n/a	n/a	44.337	AF20HAS.jpg
13.54	0.509	Blank	Blank	91.514	n/a	1	1	4	n/a	4	n/a	2	n/a	n/a	n/a	n/a	44.806	n/a
14.049	0.513	angry	Picture	91.0	n/a	1	1	5	n/a	5	67	2	n/a	n/a	n/a	n/a	45.316	BM08HAS.jpg
14.563	0.5	Blank	Blank	90.5	n/a	1	1	5	n/a	5	n/a	2	n/a	n/a	n/a	n/a	45.829	n/a
15.093	0.47	angry	Picture	90.0	n/a	1	1	6	n/a	6	60	2	n/a	n/a	n/a	n/a	46.36	AF32HAS.jpg
15.563	0.508	Blank	Blank	89.492	n/a	1	1	6	n/a	6	n/a	2	n/a	n/a	n/a	n/a	46.829	n/a
16.072	0.514	angry	Picture	88.978	n/a	1	1	7	n/a	7	42	2	n/a	n/a	n/a	n/a	47.338	AF03HAS.jpg
16.585	0.5	Blank	Blank	88.478	n/a	1	1	7	n/a	7	n/a	2	n/a	n/a	n/a	n/a	47.852	n/a
17.116	0.47	angry	Picture	87.977	n/a	1	1	8	n/a	8	55	2	n/a	n/a	n/a	n/a	48.382	AF25HAS.jpg
17.586	0.508	Blank	Blank	87.469	n/a	1	1	8	n/a	8	n/a	2	n/a	n/a	n/a	n/a	48.852	n/a
18.094	0.514	angry	Picture	86.955	n/a	1	1	9	n/a	9	72	2	n/a	n/a	n/a	n/a	49.361	AM14HAS.jpg
18.608	0.5	Blank	Blank	86.455	n/a	1	1	9	n/a	9	n/a	2	n/a	n/a	n/a	n/a	49.874	n/a
19.138	0.47	angry	Picture	85.955	n/a	1	1	10	n/a	10	63	2	n/a	n/a	n/a	n/a	50.405	AM04HAS.jpg
19.608	0.508	Blank	Blank	85.446	n/a	1	1	10	n/a	10	n/a	2	n/a	n/a	n/a	n/a	50.874	n/a
20.117	0.513	angry	Picture	84.932	n/a	1	1	11	n/a	11	58	2	n/a	n/a	n/a	n/a	51.383	BF29HAS.jpg
20.63	0.5	Blank	Blank	84.432	n/a	1	1	11	n/a	11	n/a	2	n/a	n/a	n/a	n/a	51.897	n/a
21.161	0.47	angry	Picture	83.932	n/a	1	1	12	n/a	12	48	2	n/a	n/a	n/a	n/a	52.427	AF14HAS.jpg
21.631	0.508	Blank	Blank	83.424	n/a	1	1	12	n/a	12	n/a	2	n/a	n/a	n/a	n/a	52.897	n/a
22.14	0.513	angry	Picture	82.91	n/a	1	1	13	n/a	13	66	2	n/a	n/a	n/a	n/a	53.406	BM07HAS.jpg
22.653	0.5	Blank	Blank	82.41	n/a	1	1	13	n/a	13	n/a	2	n/a	n/a	n/a	n/a	53.919	n/a
23.184	0.47	angry	Picture	81.909	n/a	1	1	14	n/a	14	70	2	n/a	n/a	n/a	n/a	54.45	BM11HAS.jpg
23.653	0.508	Blank	Blank	81.401	n/a	1	1	14	n/a	14	n/a	2	n/a	n/a	n/a	n/a	54.92	n/a
24.162	0.513	angry	Picture	80.887	n/a	1	1	15	n/a	15	43	2	n/a	n/a	n/a	n/a	55.429	BF04HAS.jpg
24.676	0.5	Blank	Blank	80.387	n/a	1	1	15	n/a	15	n/a	2	n/a	n/a	n/a	n/a	55.942	n/a
25.206	0.47	angry	Picture	79.887	n/a	1	1	16	n/a	16	49	2	n/a	n/a	n/a	n/a	56.473	AF17HAS.jpg
25.676	0.508	Blank	Blank	79.379	n/a	1	1	16	n/a	16	n/a	2	n/a	n/a	n/a	n/a	56.942	n/a
26.185	0.513	angry	Picture	78.865	n/a	1	1	17	n/a	17	75	2	n/a	n/a	n/a	n/a	57.451	AM23HAS.jpg
26.698	0.5	Blank	Blank	78.365	n/a	1	1	17	n/a	17	n/a	2	n/a	n/a	n/a	n/a	57.965	n/a
27.229	0.47	angry	Picture	77.864	n/a	1	1	18	n/a	18	80	2	n/a	n/a	n/a	n/a	58.495	BM35HAS.jpg
27.699	0.508	Blank	Blank	77.356	n/a	1	1	18	n/a	18	n/a	2	n/a	n/a	n/a	n/a	58.965	n/a
28.207	0.513	angry	Picture	76.842	n/a	1	1	19	n/a	19	76	2	n/a	n/a	n/a	n/a	59.474	BM24HAS.jpg
28.721	0.5	Blank	Blank	76.342	n/a	1	1	19	n/a	19	n/a	2	n/a	n/a	n/a	n/a	59.987	n/a
29.251	0.47	angry	Picture	75.842	n/a	1	1	20	n/a	20	74	2	n/a	n/a	n/a	n/a	60.518	AM22HAS.jpg
29.721	0.509	Blank	Blank	75.333	n/a	1	1	20	n/a	20	n/a	2	n/a	n/a	n/a	n/a	60.987	n/a
30.23	10.013	ITI	Fixation+	65.32	n/a	1	n/a	n/a	n/a	n/a	n/a	n/a	n/a	n/a	n/a	n/a	61.496	n/a
40.244	0.513	neutral	Picture	64.806	n/a	1	2	1	n/a	21	33	1	n/a	n/a	n/a	n/a	71.51	AM21NES.jpg
40.757	0.5	Blank	Blank	64.306	n/a	1	2	1	n/a	21	n/a	1	n/a	n/a	n/a	n/a	72.023	n/a
41.288	0.47	neutral	Picture	63.806	n/a	1	2	2	n/a	22	39	1	n/a	n/a	n/a	n/a	72.554	AM28NES.jpg
41.757	0.508	Blank	Blank	63.297	n/a	1	2	2	n/a	22	n/a	1	n/a	n/a	n/a	n/a	73.024	n/a
42.266	0.514	neutral	Picture	62.783	n/a	1	2	3	n/a	23	25	1	n/a	n/a	n/a	n/a	73.532	BM06NES.jpg
42.78	0.5	Blank	Blank	62.283	n/a	1	2	3	n/a	23	n/a	1	n/a	n/a	n/a	n/a	74.046	n/a
43.31	0.47	neutral	Picture	61.783	n/a	1	2	4	n/a	24	5	1	n/a	n/a	n/a	n/a	74.577	BF07NES.jpg
43.78	0.508	Blank	Blank	61.275	n/a	1	2	4	n/a	24	n/a	1	n/a	n/a	n/a	n/a	75.046	n/a
44.289	0.514	neutral	Picture	60.761	n/a	1	2	5	n/a	25	10	1	n/a	n/a	n/a	n/a	75.555	AF18NES.jpg
44.802	0.5	Blank	Blank	60.261	n/a	1	2	5	n/a	25	n/a	1	n/a	n/a	n/a	n/a	76.069	n/a
45.333	0.47	neutral	Picture	59.76	n/a	1	2	6	n/a	26	34	1	n/a	n/a	n/a	n/a	76.599	AM22NES.jpg
45.803	0.508	Blank	Blank	59.252	n/a	1	2	6	n/a	26	n/a	1	n/a	n/a	n/a	n/a	77.069	n/a
46.311	0.514	neutral	Picture	58.738	n/a	1	2	7	n/a	27	36	1	n/a	n/a	n/a	n/a	77.578	BM24NES.jpg
46.825	0.5	Blank	Blank	58.238	n/a	1	2	7	n/a	27	n/a	1	n/a	n/a	n/a	n/a	78.091	n/a
47.355	0.47	neutral	Picture	57.738	n/a	1	2	8	n/a	28	14	1	n/a	n/a	n/a	n/a	78.622	AF23NES.jpg
47.825	0.508	Blank	Blank	57.229	n/a	1	2	8	n/a	28	n/a	1	n/a	n/a	n/a	n/a	79.092	n/a
48.334	0.513	neutral	Picture	56.715	n/a	1	2	9	n/a	29	9	1	n/a	n/a	n/a	n/a	79.6	AF17NES.jpg
48.847	0.5	Blank	Blank	56.215	n/a	1	2	9	n/a	29	n/a	1	n/a	n/a	n/a	n/a	80.114	n/a
49.378	0.47	neutral	Picture	55.715	n/a	1	2	10	n/a	30	19	1	n/a	n/a	n/a	n/a	80.644	AF31NES.jpg
49.848	0.508	Blank	Blank	55.207	n/a	1	2	10	n/a	30	n/a	1	n/a	n/a	n/a	n/a	81.114	n/a
50.357	0.513	neutral	Picture	54.693	n/a	1	2	11	n/a	31	15	1	n/a	n/a	n/a	n/a	81.623	AF25NES.jpg
50.87	0.5	Blank	Blank	54.193	n/a	1	2	11	n/a	31	n/a	1	n/a	n/a	n/a	n/a	82.136	n/a
51.401	0.47	neutral	Picture	53.692	n/a	1	2	12	n/a	32	22	1	n/a	n/a	n/a	n/a	82.667	BM03NES.jpg
51.87	0.508	Blank	Blank	53.184	n/a	1	2	12	n/a	32	n/a	1	n/a	n/a	n/a	n/a	83.137	n/a
52.379	0.513	neutral	Picture	52.67	n/a	1	2	13	n/a	33	11	1	n/a	n/a	n/a	n/a	83.646	AF20NES.jpg
52.893	0.5	Blank	Blank	52.17	n/a	1	2	13	n/a	33	n/a	1	n/a	n/a	n/a	n/a	84.159	n/a
53.423	0.47	neutral	Picture	51.67	n/a	1	2	14	n/a	34	4	1	n/a	n/a	n/a	n/a	84.69	AF05NES.jpg
53.893	0.508	Blank	Blank	51.161	n/a	1	2	14	n/a	34	n/a	1	n/a	n/a	n/a	n/a	85.159	n/a
54.402	0.513	neutral	Picture	50.648	n/a	1	2	15	n/a	35	17	1	n/a	n/a	n/a	n/a	85.668	BF28NES.jpg
54.915	0.5	Blank	Blank	50.148	n/a	1	2	15	n/a	35	n/a	1	n/a	n/a	n/a	n/a	86.182	n/a
55.446	0.47	neutral	Picture	49.647	n/a	1	2	16	n/a	36	13	1	n/a	n/a	n/a	n/a	86.712	BF22NES.jpg
55.915	0.509	Blank	Blank	49.139	n/a	1	2	16	n/a	36	n/a	1	n/a	n/a	n/a	n/a	87.182	n/a
56.424	0.513	neutral	Picture	48.625	n/a	1	2	17	n/a	37	12	1	n/a	n/a	n/a	n/a	87.691	AF21NES.jpg
56.938	0.5	Blank	Blank	48.125	n/a	1	2	17	n/a	37	n/a	1	n/a	n/a	n/a	n/a	88.204	n/a
57.468	0.47	neutral	Picture	47.625	n/a	1	2	18	n/a	38	24	1	n/a	n/a	n/a	n/a	88.735	BM05NES.jpg
57.938	0.508	Blank	Blank	47.116	n/a	1	2	18	n/a	38	n/a	1	n/a	n/a	n/a	n/a	89.205	n/a
58.447	0.513	neutral	Picture	46.602	n/a	1	2	19	n/a	39	29	1	n/a	n/a	n/a	n/a	89.713	AM10NES.jpg
58.96	0.5	Blank	Blank	46.102	n/a	1	2	19	n/a	39	n/a	1	n/a	n/a	n/a	n/a	90.227	n/a
59.491	0.47	neutral	Picture	45.602	n/a	1	2	20	n/a	40	23	1	n/a	n/a	n/a	n/a	90.757	AM04NES.jpg
59.961	0.509	Blank	Blank	45.094	n/a	1	2	20	n/a	40	n/a	1	n/a	n/a	n/a	n/a	91.227	n/a
60.469	10.013	ITI	Fixation+	35.08	n/a	1	n/a	n/a	n/a	n/a	n/a	n/a	n/a	n/a	n/a	n/a	91.736	n/a
70.483	0.513	angry	Picture	34.566	n/a	1	3	1	n/a	41	62	2	n/a	n/a	n/a	n/a	101.75	BM03HAS.jpg
70.997	0.5	Blank	Blank	34.066	n/a	1	3	1	n/a	41	n/a	2	n/a	n/a	n/a	n/a	102.263	n/a
71.527	0.47	angry	Picture	33.566	n/a	1	3	2	n/a	42	52	2	n/a	n/a	n/a	n/a	102.794	AF21HAS.jpg
71.997	0.508	Blank	Blank	33.058	n/a	1	3	2	n/a	42	n/a	2	n/a	n/a	n/a	n/a	103.263	n/a
72.506	0.513	angry	Picture	32.544	n/a	1	3	3	n/a	43	44	2	n/a	n/a	n/a	n/a	103.772	AF05HAS.jpg
73.019	0.5	Blank	Blank	32.044	n/a	1	3	3	n/a	43	n/a	2	n/a	n/a	n/a	n/a	104.286	n/a
73.55	0.47	angry	Picture	31.543	n/a	1	3	4	n/a	44	53	2	n/a	n/a	n/a	n/a	104.816	BF22HAS.jpg
74.02	0.508	Blank	Blank	31.035	n/a	1	3	4	n/a	44	n/a	2	n/a	n/a	n/a	n/a	105.286	n/a
74.528	0.513	angry	Picture	30.521	n/a	1	3	5	n/a	45	54	2	n/a	n/a	n/a	n/a	105.795	AF23HAS.jpg
75.042	0.5	Blank	Blank	30.021	n/a	1	3	5	n/a	45	n/a	2	n/a	n/a	n/a	n/a	106.308	n/a
75.572	0.47	angry	Picture	29.521	n/a	1	3	6	n/a	46	68	2	n/a	n/a	n/a	n/a	106.839	AM09HAS.jpg
76.042	0.509	Blank	Blank	29.012	n/a	1	3	6	n/a	46	n/a	2	n/a	n/a	n/a	n/a	107.308	n/a
76.551	0.513	angry	Picture	28.498	n/a	1	3	7	n/a	47	64	2	n/a	n/a	n/a	n/a	107.817	BM05HAS.jpg
77.064	0.5	Blank	Blank	27.998	n/a	1	3	7	n/a	47	n/a	2	n/a	n/a	n/a	n/a	108.331	n/a
77.595	0.47	angry	Picture	27.498	n/a	1	3	8	n/a	48	59	2	n/a	n/a	n/a	n/a	108.861	AF31HAS.jpg
78.065	0.509	Blank	Blank	26.99	n/a	1	3	8	n/a	48	n/a	2	n/a	n/a	n/a	n/a	109.331	n/a
78.574	0.513	angry	Picture	26.476	n/a	1	3	9	n/a	49	41	2	n/a	n/a	n/a	n/a	109.84	AF01HAS.jpg
79.087	0.5	Blank	Blank	25.976	n/a	1	3	9	n/a	49	n/a	2	n/a	n/a	n/a	n/a	110.353	n/a
79.618	0.47	angry	Picture	25.475	n/a	1	3	10	n/a	50	73	2	n/a	n/a	n/a	n/a	110.884	AM21HAS.jpg
80.087	0.508	Blank	Blank	24.967	n/a	1	3	10	n/a	50	n/a	2	n/a	n/a	n/a	n/a	111.354	n/a
80.596	0.513	angry	Picture	24.453	n/a	1	3	11	n/a	51	65	2	n/a	n/a	n/a	n/a	111.863	BM06HAS.jpg
81.11	0.5	Blank	Blank	23.953	n/a	1	3	11	n/a	51	n/a	2	n/a	n/a	n/a	n/a	112.376	n/a
81.64	0.47	angry	Picture	23.453	n/a	1	3	12	n/a	52	56	2	n/a	n/a	n/a	n/a	112.907	AF26HAS.jpg
82.11	0.509	Blank	Blank	22.944	n/a	1	3	12	n/a	52	n/a	2	n/a	n/a	n/a	n/a	113.376	n/a
82.619	0.513	angry	Picture	22.431	n/a	1	3	13	n/a	53	45	2	n/a	n/a	n/a	n/a	113.885	BF07HAS.jpg
83.132	0.5	Blank	Blank	21.931	n/a	1	3	13	n/a	53	n/a	2	n/a	n/a	n/a	n/a	114.399	n/a
83.663	0.47	angry	Picture	21.43	n/a	1	3	14	n/a	54	78	2	n/a	n/a	n/a	n/a	114.929	BM26HAS.jpg
84.132	0.508	Blank	Blank	20.922	n/a	1	3	14	n/a	54	n/a	2	n/a	n/a	n/a	n/a	115.399	n/a
84.641	0.513	angry	Picture	20.408	n/a	1	3	15	n/a	55	50	2	n/a	n/a	n/a	n/a	115.908	AF18HAS.jpg
85.155	0.5	Blank	Blank	19.908	n/a	1	3	15	n/a	55	n/a	2	n/a	n/a	n/a	n/a	116.421	n/a
85.685	0.47	angry	Picture	19.408	n/a	1	3	16	n/a	56	47	2	n/a	n/a	n/a	n/a	116.952	BF11HAS.jpg
86.155	0.508	Blank	Blank	18.899	n/a	1	3	16	n/a	56	n/a	2	n/a	n/a	n/a	n/a	117.422	n/a
86.664	0.513	angry	Picture	18.385	n/a	1	3	17	n/a	57	77	2	n/a	n/a	n/a	n/a	117.93	BM25HAS.jpg
87.177	0.5	Blank	Blank	17.885	n/a	1	3	17	n/a	57	n/a	2	n/a	n/a	n/a	n/a	118.444	n/a
87.708	0.47	angry	Picture	17.385	n/a	1	3	18	n/a	58	57	2	n/a	n/a	n/a	n/a	118.975	BF28HAS.jpg
88.178	0.508	Blank	Blank	16.877	n/a	1	3	18	n/a	58	n/a	2	n/a	n/a	n/a	n/a	119.444	n/a
88.687	0.513	angry	Picture	16.363	n/a	1	3	19	n/a	59	61	2	n/a	n/a	n/a	n/a	119.953	AM01HAS.jpg
89.2	0.5	Blank	Blank	15.863	n/a	1	3	19	n/a	59	n/a	2	n/a	n/a	n/a	n/a	120.466	n/a
89.731	0.47	angry	Picture	15.362	n/a	1	3	20	n/a	60	79	2	n/a	n/a	n/a	n/a	120.997	BM28HAS.jpg
90.2	0.508	Blank	Blank	14.854	n/a	1	3	20	n/a	60	n/a	2	n/a	n/a	n/a	n/a	121.467	n/a
90.709	10.013	ITI	Fixation+	4.84	n/a	1	n/a	n/a	n/a	n/a	n/a	n/a	n/a	n/a	n/a	n/a	121.975	n/a
105.563	n/a	ConfirmRating	Rate	n/a	4.837	1	n/a	n/a	0	n/a	n/a	n/a	2	Angry	0	47	136.829	n/a
110.651	n/a	ConfirmRating	Rate	n/a	5.104	1	n/a	n/a	1	n/a	n/a	n/a	3	Angry	64	51	141.917	n/a
110.67	10.013	ITI	Fixation+	95.711	n/a	2	n/a	n/a	n/a	n/a	n/a	n/a	n/a	n/a	n/a	n/a	141.936	n/a
120.684	0.513	happy	Picture	95.197	n/a	2	4	1	n/a	61	119	3	n/a	n/a	n/a	n/a	151.95	BM28ANS.jpg
121.197	0.5	Blank	Blank	94.697	n/a	2	4	1	n/a	61	n/a	3	n/a	n/a	n/a	n/a	152.464	n/a
121.727	0.47	happy	Picture	94.197	n/a	2	4	2	n/a	62	100	3	n/a	n/a	n/a	n/a	152.994	AF32ANS.jpg
122.197	0.509	Blank	Blank	93.688	n/a	2	4	2	n/a	62	n/a	3	n/a	n/a	n/a	n/a	153.464	n/a
122.706	0.513	happy	Picture	93.174	n/a	2	4	3	n/a	63	118	3	n/a	n/a	n/a	n/a	153.973	BM26ANS.jpg
123.22	0.5	Blank	Blank	92.674	n/a	2	4	3	n/a	63	n/a	3	n/a	n/a	n/a	n/a	154.486	n/a
123.75	0.47	happy	Picture	92.174	n/a	2	4	4	n/a	64	89	3	n/a	n/a	n/a	n/a	155.017	AF17ANS.jpg
124.22	0.508	Blank	Blank	91.666	n/a	2	4	4	n/a	64	n/a	3	n/a	n/a	n/a	n/a	155.486	n/a
124.729	0.513	happy	Picture	91.152	n/a	2	4	5	n/a	65	116	3	n/a	n/a	n/a	n/a	155.995	BM24ANS.jpg
125.242	0.5	Blank	Blank	90.652	n/a	2	4	5	n/a	65	n/a	3	n/a	n/a	n/a	n/a	156.509	n/a
125.773	0.47	happy	Picture	90.152	n/a	2	4	6	n/a	66	105	3	n/a	n/a	n/a	n/a	157.039	BM06ANS.jpg
126.242	0.509	Blank	Blank	89.643	n/a	2	4	6	n/a	66	n/a	3	n/a	n/a	n/a	n/a	157.509	n/a
126.751	0.513	happy	Picture	89.129	n/a	2	4	7	n/a	67	106	3	n/a	n/a	n/a	n/a	158.018	AM07ANS.jpg
127.265	0.5	Blank	Blank	88.629	n/a	2	4	7	n/a	67	n/a	3	n/a	n/a	n/a	n/a	158.531	n/a
127.795	0.47	happy	Picture	88.129	n/a	2	4	8	n/a	68	94	3	n/a	n/a	n/a	n/a	159.062	AF23ANS.jpg
128.265	0.509	Blank	Blank	87.62	n/a	2	4	8	n/a	68	n/a	3	n/a	n/a	n/a	n/a	159.531	n/a
128.774	0.513	happy	Picture	87.106	n/a	2	4	9	n/a	69	117	3	n/a	n/a	n/a	n/a	160.04	BM25ANS.jpg
129.287	0.5	Blank	Blank	86.606	n/a	2	4	9	n/a	69	n/a	3	n/a	n/a	n/a	n/a	160.554	n/a
129.818	0.47	happy	Picture	86.106	n/a	2	4	10	n/a	70	90	3	n/a	n/a	n/a	n/a	161.084	AF18ANS.jpg
130.288	0.508	Blank	Blank	85.598	n/a	2	4	10	n/a	70	n/a	3	n/a	n/a	n/a	n/a	161.554	n/a
130.797	0.513	happy	Picture	85.084	n/a	2	4	11	n/a	71	83	3	n/a	n/a	n/a	n/a	162.063	BF04ANS.jpg
131.31	0.5	Blank	Blank	84.584	n/a	2	4	11	n/a	71	n/a	3	n/a	n/a	n/a	n/a	162.577	n/a
131.841	0.469	happy	Picture	84.084	n/a	2	4	12	n/a	72	112	3	n/a	n/a	n/a	n/a	163.107	AM14ANS.jpg
132.31	0.509	Blank	Blank	83.575	n/a	2	4	12	n/a	72	n/a	3	n/a	n/a	n/a	n/a	163.577	n/a
132.819	0.513	happy	Picture	83.061	n/a	2	4	13	n/a	73	102	3	n/a	n/a	n/a	n/a	164.086	BM03ANS.jpg
133.333	0.5	Blank	Blank	82.561	n/a	2	4	13	n/a	73	n/a	3	n/a	n/a	n/a	n/a	164.599	n/a
133.863	0.469	happy	Picture	82.061	n/a	2	4	14	n/a	74	95	3	n/a	n/a	n/a	n/a	165.13	AF25ANS.jpg
134.333	0.509	Blank	Blank	81.553	n/a	2	4	14	n/a	74	n/a	3	n/a	n/a	n/a	n/a	165.599	n/a
134.842	0.513	happy	Picture	81.039	n/a	2	4	15	n/a	75	113	3	n/a	n/a	n/a	n/a	166.108	AM21ANS.jpg
135.355	0.5	Blank	Blank	80.539	n/a	2	4	15	n/a	75	n/a	3	n/a	n/a	n/a	n/a	166.622	n/a
135.886	0.47	happy	Picture	80.038	n/a	2	4	16	n/a	76	88	3	n/a	n/a	n/a	n/a	167.152	AF14ANS.jpg
136.356	0.508	Blank	Blank	79.53	n/a	2	4	16	n/a	76	n/a	3	n/a	n/a	n/a	n/a	167.622	n/a
136.864	0.514	happy	Picture	79.016	n/a	2	4	17	n/a	77	93	3	n/a	n/a	n/a	n/a	168.131	BF22ANS.jpg
137.378	0.5	Blank	Blank	78.516	n/a	2	4	17	n/a	77	n/a	3	n/a	n/a	n/a	n/a	168.644	n/a
137.909	0.47	happy	Picture	78.016	n/a	2	4	18	n/a	78	86	3	n/a	n/a	n/a	n/a	169.175	AF09ANS.jpg
138.378	0.508	Blank	Blank	77.507	n/a	2	4	18	n/a	78	n/a	3	n/a	n/a	n/a	n/a	169.644	n/a
138.887	0.514	happy	Picture	76.993	n/a	2	4	19	n/a	79	92	3	n/a	n/a	n/a	n/a	170.153	AF21ANS.jpg
139.401	0.5	Blank	Blank	76.493	n/a	2	4	19	n/a	79	n/a	3	n/a	n/a	n/a	n/a	170.667	n/a
139.931	0.47	happy	Picture	75.993	n/a	2	4	20	n/a	80	84	3	n/a	n/a	n/a	n/a	171.197	AF05ANS.jpg
140.401	0.508	Blank	Blank	75.485	n/a	2	4	20	n/a	80	n/a	3	n/a	n/a	n/a	n/a	171.667	n/a
140.91	10.013	ITI	Fixation+	65.471	n/a	2	n/a	n/a	n/a	n/a	n/a	n/a	n/a	n/a	n/a	n/a	172.176	n/a
150.923	0.513	neutral	Picture	64.957	n/a	2	5	1	n/a	81	4	1	n/a	n/a	n/a	n/a	182.19	AF05NES.jpg
151.437	0.5	Blank	Blank	64.457	n/a	2	5	1	n/a	81	n/a	1	n/a	n/a	n/a	n/a	182.703	n/a
151.967	0.47	neutral	Picture	63.957	n/a	2	5	2	n/a	82	14	1	n/a	n/a	n/a	n/a	183.234	AF23NES.jpg
152.437	0.508	Blank	Blank	63.449	n/a	2	5	2	n/a	82	n/a	1	n/a	n/a	n/a	n/a	183.703	n/a
152.946	0.513	neutral	Picture	62.935	n/a	2	5	3	n/a	83	19	1	n/a	n/a	n/a	n/a	184.212	AF31NES.jpg
153.459	0.5	Blank	Blank	62.435	n/a	2	5	3	n/a	83	n/a	1	n/a	n/a	n/a	n/a	184.726	n/a
153.99	0.47	neutral	Picture	61.934	n/a	2	5	4	n/a	84	8	1	n/a	n/a	n/a	n/a	185.256	AF14NES.jpg
154.46	0.508	Blank	Blank	61.426	n/a	2	5	4	n/a	84	n/a	1	n/a	n/a	n/a	n/a	185.726	n/a
154.968	0.513	neutral	Picture	60.912	n/a	2	5	5	n/a	85	25	1	n/a	n/a	n/a	n/a	186.235	BM06NES.jpg
155.482	0.5	Blank	Blank	60.412	n/a	2	5	5	n/a	85	n/a	1	n/a	n/a	n/a	n/a	186.748	n/a
156.012	0.47	neutral	Picture	59.912	n/a	2	5	6	n/a	86	9	1	n/a	n/a	n/a	n/a	187.279	AF17NES.jpg
156.482	0.508	Blank	Blank	59.403	n/a	2	5	6	n/a	86	n/a	1	n/a	n/a	n/a	n/a	187.749	n/a
156.991	0.513	neutral	Picture	58.889	n/a	2	5	7	n/a	87	2	1	n/a	n/a	n/a	n/a	188.257	AF03NES.jpg
157.505	0.5	Blank	Blank	58.389	n/a	2	5	7	n/a	87	n/a	1	n/a	n/a	n/a	n/a	188.771	n/a
158.035	0.469	neutral	Picture	57.889	n/a	2	5	8	n/a	88	17	1	n/a	n/a	n/a	n/a	189.302	BF28NES.jpg
158.505	0.509	Blank	Blank	57.381	n/a	2	5	8	n/a	88	n/a	1	n/a	n/a	n/a	n/a	189.771	n/a
159.014	0.513	neutral	Picture	56.867	n/a	2	5	9	n/a	89	6	1	n/a	n/a	n/a	n/a	190.28	AF09NES.jpg
159.527	0.5	Blank	Blank	56.367	n/a	2	5	9	n/a	89	n/a	1	n/a	n/a	n/a	n/a	190.793	n/a
160.058	0.47	neutral	Picture	55.867	n/a	2	5	10	n/a	90	12	1	n/a	n/a	n/a	n/a	191.324	AF21NES.jpg
160.527	0.508	Blank	Blank	55.358	n/a	2	5	10	n/a	90	n/a	1	n/a	n/a	n/a	n/a	191.794	n/a
161.036	0.513	neutral	Picture	54.844	n/a	2	5	11	n/a	91	24	1	n/a	n/a	n/a	n/a	192.303	BM05NES.jpg
161.55	0.5	Blank	Blank	54.344	n/a	2	5	11	n/a	91	n/a	1	n/a	n/a	n/a	n/a	192.816	n/a
162.08	0.47	neutral	Picture	53.844	n/a	2	5	12	n/a	92	34	1	n/a	n/a	n/a	n/a	193.347	AM22NES.jpg
162.55	0.508	Blank	Blank	53.335	n/a	2	5	12	n/a	92	n/a	1	n/a	n/a	n/a	n/a	193.816	n/a
163.059	0.514	neutral	Picture	52.822	n/a	2	5	13	n/a	93	23	1	n/a	n/a	n/a	n/a	194.325	AM04NES.jpg
163.572	0.5	Blank	Blank	52.322	n/a	2	5	13	n/a	93	n/a	1	n/a	n/a	n/a	n/a	194.839	n/a
164.103	0.47	neutral	Picture	51.821	n/a	2	5	14	n/a	94	15	1	n/a	n/a	n/a	n/a	195.369	AF25NES.jpg
164.572	0.508	Blank	Blank	51.313	n/a	2	5	14	n/a	94	n/a	1	n/a	n/a	n/a	n/a	195.839	n/a
165.081	0.514	neutral	Picture	50.799	n/a	2	5	15	n/a	95	37	1	n/a	n/a	n/a	n/a	196.348	BM25NES.jpg
165.595	0.5	Blank	Blank	50.299	n/a	2	5	15	n/a	95	n/a	1	n/a	n/a	n/a	n/a	196.861	n/a
166.125	0.47	neutral	Picture	49.799	n/a	2	5	16	n/a	96	32	1	n/a	n/a	n/a	n/a	197.392	AM14NES.jpg
166.595	0.508	Blank	Blank	49.29	n/a	2	5	16	n/a	96	n/a	1	n/a	n/a	n/a	n/a	197.862	n/a
167.104	0.514	neutral	Picture	48.776	n/a	2	5	17	n/a	97	3	1	n/a	n/a	n/a	n/a	198.37	BF04NES.jpg
167.618	0.5	Blank	Blank	48.276	n/a	2	5	17	n/a	97	n/a	1	n/a	n/a	n/a	n/a	198.884	n/a
168.148	0.47	neutral	Picture	47.776	n/a	2	5	18	n/a	98	16	1	n/a	n/a	n/a	n/a	199.415	AF26NES.jpg
168.618	0.508	Blank	Blank	47.268	n/a	2	5	18	n/a	98	n/a	1	n/a	n/a	n/a	n/a	199.884	n/a
169.127	0.514	neutral	Picture	46.754	n/a	2	5	19	n/a	99	27	1	n/a	n/a	n/a	n/a	200.393	BM08NES.jpg
169.64	0.5	Blank	Blank	46.254	n/a	2	5	19	n/a	99	n/a	1	n/a	n/a	n/a	n/a	200.907	n/a
170.171	0.47	neutral	Picture	45.754	n/a	2	5	20	n/a	100	28	1	n/a	n/a	n/a	n/a	201.437	AM09NES.jpg
170.64	0.508	Blank	Blank	45.245	n/a	2	5	20	n/a	100	n/a	1	n/a	n/a	n/a	n/a	201.907	n/a
171.149	10.013	ITI	Fixation+	35.232	n/a	2	n/a	n/a	n/a	n/a	n/a	n/a	n/a	n/a	n/a	n/a	202.416	n/a
181.163	0.513	happy	Picture	34.718	n/a	2	6	1	n/a	101	81	3	n/a	n/a	n/a	n/a	212.429	AF01ANS.jpg
181.676	0.5	Blank	Blank	34.218	n/a	2	6	1	n/a	101	n/a	3	n/a	n/a	n/a	n/a	212.943	n/a
182.207	0.47	happy	Picture	33.717	n/a	2	6	2	n/a	102	120	3	n/a	n/a	n/a	n/a	213.473	AM35ANS.jpg
182.677	0.508	Blank	Blank	33.209	n/a	2	6	2	n/a	102	n/a	3	n/a	n/a	n/a	n/a	213.943	n/a
183.185	0.513	happy	Picture	32.695	n/a	2	6	3	n/a	103	114	3	n/a	n/a	n/a	n/a	214.452	AM22ANS.jpg
183.699	0.5	Blank	Blank	32.195	n/a	2	6	3	n/a	103	n/a	3	n/a	n/a	n/a	n/a	214.965	n/a
184.23	0.469	happy	Picture	31.695	n/a	2	6	4	n/a	104	109	3	n/a	n/a	n/a	n/a	215.496	AM10ANS.jpg
184.699	0.509	Blank	Blank	31.186	n/a	2	6	4	n/a	104	n/a	3	n/a	n/a	n/a	n/a	215.965	n/a
185.208	0.514	happy	Picture	30.672	n/a	2	6	5	n/a	105	96	3	n/a	n/a	n/a	n/a	216.474	AF26ANS.jpg
185.722	0.5	Blank	Blank	30.172	n/a	2	6	5	n/a	105	n/a	3	n/a	n/a	n/a	n/a	216.988	n/a
186.252	0.47	happy	Picture	29.672	n/a	2	6	6	n/a	106	82	3	n/a	n/a	n/a	n/a	217.518	AF03ANS.jpg
186.722	0.508	Blank	Blank	29.164	n/a	2	6	6	n/a	106	n/a	3	n/a	n/a	n/a	n/a	217.988	n/a
187.231	0.514	happy	Picture	28.65	n/a	2	6	7	n/a	107	97	3	n/a	n/a	n/a	n/a	218.497	BF28ANS.jpg
187.744	0.5	Blank	Blank	28.15	n/a	2	6	7	n/a	107	n/a	3	n/a	n/a	n/a	n/a	219.011	n/a
188.275	0.47	happy	Picture	27.649	n/a	2	6	8	n/a	108	115	3	n/a	n/a	n/a	n/a	219.541	AM23ANS.jpg
188.744	0.508	Blank	Blank	27.141	n/a	2	6	8	n/a	108	n/a	3	n/a	n/a	n/a	n/a	220.011	n/a
189.253	0.513	happy	Picture	26.627	n/a	2	6	9	n/a	109	91	3	n/a	n/a	n/a	n/a	220.52	AF20ANS.jpg
189.767	0.5	Blank	Blank	26.127	n/a	2	6	9	n/a	109	n/a	3	n/a	n/a	n/a	n/a	221.033	n/a
190.297	0.47	happy	Picture	25.627	n/a	2	6	10	n/a	110	87	3	n/a	n/a	n/a	n/a	221.564	BF11ANS.jpg
190.767	0.508	Blank	Blank	25.119	n/a	2	6	10	n/a	110	n/a	3	n/a	n/a	n/a	n/a	222.033	n/a
191.276	0.513	happy	Picture	24.605	n/a	2	6	11	n/a	111	85	3	n/a	n/a	n/a	n/a	222.542	BF07ANS.jpg
191.789	0.5	Blank	Blank	24.105	n/a	2	6	11	n/a	111	n/a	3	n/a	n/a	n/a	n/a	223.056	n/a
192.32	0.47	happy	Picture	23.604	n/a	2	6	12	n/a	112	110	3	n/a	n/a	n/a	n/a	223.586	AM11ANS.jpg
192.79	0.508	Blank	Blank	23.096	n/a	2	6	12	n/a	112	n/a	3	n/a	n/a	n/a	n/a	224.056	n/a
193.298	0.513	happy	Picture	22.582	n/a	2	6	13	n/a	113	111	3	n/a	n/a	n/a	n/a	224.565	BM12ANS.jpg
193.812	0.5	Blank	Blank	22.082	n/a	2	6	13	n/a	113	n/a	3	n/a	n/a	n/a	n/a	225.078	n/a
194.343	0.47	happy	Picture	21.582	n/a	2	6	14	n/a	114	103	3	n/a	n/a	n/a	n/a	225.609	AM04ANS.jpg
194.812	0.508	Blank	Blank	21.073	n/a	2	6	14	n/a	114	n/a	3	n/a	n/a	n/a	n/a	226.078	n/a
195.321	0.513	happy	Picture	20.559	n/a	2	6	15	n/a	115	101	3	n/a	n/a	n/a	n/a	226.588	AM01ANS.jpg
195.835	0.5	Blank	Blank	20.059	n/a	2	6	15	n/a	115	n/a	3	n/a	n/a	n/a	n/a	227.101	n/a
196.365	0.47	happy	Picture	19.559	n/a	2	6	16	n/a	116	104	3	n/a	n/a	n/a	n/a	227.631	BM05ANS.jpg
196.835	0.508	Blank	Blank	19.051	n/a	2	6	16	n/a	116	n/a	3	n/a	n/a	n/a	n/a	228.101	n/a
197.344	0.513	happy	Picture	18.537	n/a	2	6	17	n/a	117	107	3	n/a	n/a	n/a	n/a	228.61	BM08ANS.jpg
197.857	0.5	Blank	Blank	18.037	n/a	2	6	17	n/a	117	n/a	3	n/a	n/a	n/a	n/a	229.124	n/a
198.388	0.47	happy	Picture	17.536	n/a	2	6	18	n/a	118	98	3	n/a	n/a	n/a	n/a	229.654	BF29ANS.jpg
198.857	0.508	Blank	Blank	17.028	n/a	2	6	18	n/a	118	n/a	3	n/a	n/a	n/a	n/a	230.124	n/a
199.366	0.513	happy	Picture	16.514	n/a	2	6	19	n/a	119	99	3	n/a	n/a	n/a	n/a	230.633	AF31ANS.jpg
199.88	0.5	Blank	Blank	16.014	n/a	2	6	19	n/a	119	n/a	3	n/a	n/a	n/a	n/a	231.146	n/a
200.41	0.47	happy	Picture	15.514	n/a	2	6	20	n/a	120	108	3	n/a	n/a	n/a	n/a	231.677	AM09ANS.jpg
200.88	0.509	Blank	Blank	15.005	n/a	2	6	20	n/a	120	n/a	3	n/a	n/a	n/a	n/a	232.146	n/a
201.389	10.013	ITI	Fixation+	4.992	n/a	2	n/a	n/a	n/a	n/a	n/a	n/a	n/a	n/a	n/a	n/a	232.655	n/a
216.394	n/a	ConfirmRating	Rate	n/a	5.004	2	n/a	n/a	0	n/a	n/a	n/a	2	Happy	64	51	247.66	n/a
219.601	n/a	ConfirmRating	Rate	n/a	3.213	2	n/a	n/a	1	n/a	n/a	n/a	3	Happy	0	48	250.867	n/a
219.625	15.003	Rest	Picture	n/a	n/a	n/a	n/a	n/a	n/a	n/a	n/a	n/a	0	n/a	0	0	250.892	n/a
234.629	10.013	ITI	Fixation+	93.562	n/a	3	n/a	n/a	n/a	n/a	n/a	n/a	n/a	n/a	n/a	n/a	265.896	n/a
244.643	0.513	angry	Picture	93.048	n/a	3	7	1	n/a	1	46	2	n/a	n/a	n/a	n/a	275.909	AF09HAS.jpg
245.156	0.5	Blank	Blank	92.548	n/a	3	7	1	n/a	1	n/a	2	n/a	n/a	n/a	n/a	276.423	n/a
245.687	0.47	angry	Picture	92.048	n/a	3	7	2	n/a	2	69	2	n/a	n/a	n/a	n/a	276.953	AM10HAS.jpg
246.157	0.508	Blank	Blank	91.54	n/a	3	7	2	n/a	2	n/a	2	n/a	n/a	n/a	n/a	277.423	n/a
246.665	0.513	angry	Picture	91.026	n/a	3	7	3	n/a	3	71	2	n/a	n/a	n/a	n/a	277.932	BM12HAS.jpg
247.179	0.5	Blank	Blank	90.526	n/a	3	7	3	n/a	3	n/a	2	n/a	n/a	n/a	n/a	278.445	n/a
247.71	0.47	angry	Picture	90.025	n/a	3	7	4	n/a	4	51	2	n/a	n/a	n/a	n/a	278.976	AF20HAS.jpg
248.179	0.508	Blank	Blank	89.517	n/a	3	7	4	n/a	4	n/a	2	n/a	n/a	n/a	n/a	279.446	n/a
248.688	0.513	angry	Picture	89.003	n/a	3	7	5	n/a	5	67	2	n/a	n/a	n/a	n/a	279.954	BM08HAS.jpg
249.201	0.5	Blank	Blank	88.503	n/a	3	7	5	n/a	5	n/a	2	n/a	n/a	n/a	n/a	280.468	n/a
249.732	0.47	angry	Picture	88.003	n/a	3	7	6	n/a	6	60	2	n/a	n/a	n/a	n/a	280.998	AF32HAS.jpg
250.202	0.508	Blank	Blank	87.494	n/a	3	7	6	n/a	6	n/a	2	n/a	n/a	n/a	n/a	281.468	n/a
250.711	0.514	angry	Picture	86.981	n/a	3	7	7	n/a	7	42	2	n/a	n/a	n/a	n/a	281.977	AF03HAS.jpg
251.224	0.5	Blank	Blank	86.481	n/a	3	7	7	n/a	7	n/a	2	n/a	n/a	n/a	n/a	282.491	n/a
251.755	0.47	angry	Picture	85.98	n/a	3	7	8	n/a	8	55	2	n/a	n/a	n/a	n/a	283.021	AF25HAS.jpg
252.225	0.508	Blank	Blank	85.472	n/a	3	7	8	n/a	8	n/a	2	n/a	n/a	n/a	n/a	283.491	n/a
252.733	0.514	angry	Picture	84.958	n/a	3	7	9	n/a	9	72	2	n/a	n/a	n/a	n/a	284.0	AM14HAS.jpg
253.247	0.5	Blank	Blank	84.458	n/a	3	7	9	n/a	9	n/a	2	n/a	n/a	n/a	n/a	284.513	n/a
253.777	0.47	angry	Picture	83.958	n/a	3	7	10	n/a	10	63	2	n/a	n/a	n/a	n/a	285.044	AM04HAS.jpg
254.247	0.508	Blank	Blank	83.449	n/a	3	7	10	n/a	10	n/a	2	n/a	n/a	n/a	n/a	285.514	n/a
254.756	0.514	angry	Picture	82.935	n/a	3	7	11	n/a	11	58	2	n/a	n/a	n/a	n/a	286.022	BF29HAS.jpg
255.269	0.5	Blank	Blank	82.435	n/a	3	7	11	n/a	11	n/a	2	n/a	n/a	n/a	n/a	286.536	n/a
255.8	0.47	angry	Picture	81.935	n/a	3	7	12	n/a	12	48	2	n/a	n/a	n/a	n/a	287.066	AF14HAS.jpg
256.27	0.508	Blank	Blank	81.427	n/a	3	7	12	n/a	12	n/a	2	n/a	n/a	n/a	n/a	287.536	n/a
256.779	0.513	angry	Picture	80.913	n/a	3	7	13	n/a	13	66	2	n/a	n/a	n/a	n/a	288.045	BM07HAS.jpg
257.292	0.5	Blank	Blank	80.413	n/a	3	7	13	n/a	13	n/a	2	n/a	n/a	n/a	n/a	288.558	n/a
257.823	0.47	angry	Picture	79.912	n/a	3	7	14	n/a	14	70	2	n/a	n/a	n/a	n/a	289.089	BM11HAS.jpg
258.292	0.508	Blank	Blank	79.404	n/a	3	7	14	n/a	14	n/a	2	n/a	n/a	n/a	n/a	289.559	n/a
258.801	0.513	angry	Picture	78.89	n/a	3	7	15	n/a	15	43	2	n/a	n/a	n/a	n/a	290.067	BF04HAS.jpg
259.315	0.5	Blank	Blank	78.39	n/a	3	7	15	n/a	15	n/a	2	n/a	n/a	n/a	n/a	290.581	n/a
259.845	0.47	angry	Picture	77.89	n/a	3	7	16	n/a	16	49	2	n/a	n/a	n/a	n/a	291.111	AF17HAS.jpg
260.315	0.508	Blank	Blank	77.382	n/a	3	7	16	n/a	16	n/a	2	n/a	n/a	n/a	n/a	291.581	n/a
260.824	0.513	angry	Picture	76.867	n/a	3	7	17	n/a	17	75	2	n/a	n/a	n/a	n/a	292.09	AM23HAS.jpg
261.337	0.5	Blank	Blank	76.368	n/a	3	7	17	n/a	17	n/a	2	n/a	n/a	n/a	n/a	292.604	n/a
261.868	0.47	angry	Picture	75.867	n/a	3	7	18	n/a	18	80	2	n/a	n/a	n/a	n/a	293.134	BM35HAS.jpg
262.337	0.508	Blank	Blank	75.359	n/a	3	7	18	n/a	18	n/a	2	n/a	n/a	n/a	n/a	293.604	n/a
262.846	0.513	angry	Picture	74.845	n/a	3	7	19	n/a	19	76	2	n/a	n/a	n/a	n/a	294.113	BM24HAS.jpg
263.36	0.5	Blank	Blank	74.345	n/a	3	7	19	n/a	19	n/a	2	n/a	n/a	n/a	n/a	294.626	n/a
263.89	0.47	angry	Picture	73.845	n/a	3	7	20	n/a	20	74	2	n/a	n/a	n/a	n/a	295.157	AM22HAS.jpg
264.36	0.508	Blank	Blank	73.336	n/a	3	7	20	n/a	20	n/a	2	n/a	n/a	n/a	n/a	295.627	n/a
264.869	10.013	ITI	Fixation+	63.323	n/a	3	n/a	n/a	n/a	n/a	n/a	n/a	n/a	n/a	n/a	n/a	296.135	n/a
274.883	0.513	neutral	Picture	62.809	n/a	3	8	1	n/a	21	33	1	n/a	n/a	n/a	n/a	306.149	AM21NES.jpg
275.396	0.5	Blank	Blank	62.309	n/a	3	8	1	n/a	21	n/a	1	n/a	n/a	n/a	n/a	306.662	n/a
275.927	0.47	neutral	Picture	61.808	n/a	3	8	2	n/a	22	39	1	n/a	n/a	n/a	n/a	307.193	AM28NES.jpg
276.396	0.508	Blank	Blank	61.3	n/a	3	8	2	n/a	22	n/a	1	n/a	n/a	n/a	n/a	307.663	n/a
276.905	0.513	neutral	Picture	60.786	n/a	3	8	3	n/a	23	25	1	n/a	n/a	n/a	n/a	308.171	BM06NES.jpg
277.419	0.5	Blank	Blank	60.286	n/a	3	8	3	n/a	23	n/a	1	n/a	n/a	n/a	n/a	308.685	n/a
277.949	0.47	neutral	Picture	59.786	n/a	3	8	4	n/a	24	5	1	n/a	n/a	n/a	n/a	309.216	BF07NES.jpg
278.419	0.508	Blank	Blank	59.277	n/a	3	8	4	n/a	24	n/a	1	n/a	n/a	n/a	n/a	309.685	n/a
278.928	0.514	neutral	Picture	58.763	n/a	3	8	5	n/a	25	10	1	n/a	n/a	n/a	n/a	310.194	AF18NES.jpg
279.441	0.5	Blank	Blank	58.263	n/a	3	8	5	n/a	25	n/a	1	n/a	n/a	n/a	n/a	310.708	n/a
279.972	0.47	neutral	Picture	57.763	n/a	3	8	6	n/a	26	34	1	n/a	n/a	n/a	n/a	311.238	AM22NES.jpg
280.441	0.508	Blank	Blank	57.255	n/a	3	8	6	n/a	26	n/a	1	n/a	n/a	n/a	n/a	311.708	n/a
280.95	0.514	neutral	Picture	56.741	n/a	3	8	7	n/a	27	36	1	n/a	n/a	n/a	n/a	312.217	BM24NES.jpg
281.464	0.5	Blank	Blank	56.241	n/a	3	8	7	n/a	27	n/a	1	n/a	n/a	n/a	n/a	312.73	n/a
281.994	0.47	neutral	Picture	55.741	n/a	3	8	8	n/a	28	14	1	n/a	n/a	n/a	n/a	313.261	AF23NES.jpg
282.464	0.508	Blank	Blank	55.232	n/a	3	8	8	n/a	28	n/a	1	n/a	n/a	n/a	n/a	313.73	n/a
282.973	0.514	neutral	Picture	54.718	n/a	3	8	9	n/a	29	9	1	n/a	n/a	n/a	n/a	314.239	AF17NES.jpg
283.486	0.5	Blank	Blank	54.218	n/a	3	8	9	n/a	29	n/a	1	n/a	n/a	n/a	n/a	314.753	n/a
284.017	0.47	neutral	Picture	53.718	n/a	3	8	10	n/a	30	19	1	n/a	n/a	n/a	n/a	315.283	AF31NES.jpg
284.487	0.508	Blank	Blank	53.21	n/a	3	8	10	n/a	30	n/a	1	n/a	n/a	n/a	n/a	315.753	n/a
284.996	0.513	neutral	Picture	52.696	n/a	3	8	11	n/a	31	15	1	n/a	n/a	n/a	n/a	316.262	AF25NES.jpg
285.509	0.5	Blank	Blank	52.196	n/a	3	8	11	n/a	31	n/a	1	n/a	n/a	n/a	n/a	316.775	n/a
286.04	0.47	neutral	Picture	51.696	n/a	3	8	12	n/a	32	22	1	n/a	n/a	n/a	n/a	317.306	BM03NES.jpg
286.509	0.509	Blank	Blank	51.187	n/a	3	8	12	n/a	32	n/a	1	n/a	n/a	n/a	n/a	317.776	n/a
287.018	0.513	neutral	Picture	50.673	n/a	3	8	13	n/a	33	11	1	n/a	n/a	n/a	n/a	318.284	AF20NES.jpg
287.532	0.5	Blank	Blank	50.173	n/a	3	8	13	n/a	33	n/a	1	n/a	n/a	n/a	n/a	318.798	n/a
288.062	0.47	neutral	Picture	49.673	n/a	3	8	14	n/a	34	4	1	n/a	n/a	n/a	n/a	319.329	AF05NES.jpg
288.532	0.509	Blank	Blank	49.164	n/a	3	8	14	n/a	34	n/a	1	n/a	n/a	n/a	n/a	319.798	n/a
289.041	0.513	neutral	Picture	48.65	n/a	3	8	15	n/a	35	17	1	n/a	n/a	n/a	n/a	320.307	BF28NES.jpg
289.554	0.5	Blank	Blank	48.15	n/a	3	8	15	n/a	35	n/a	1	n/a	n/a	n/a	n/a	320.821	n/a
290.085	0.47	neutral	Picture	47.65	n/a	3	8	16	n/a	36	13	1	n/a	n/a	n/a	n/a	321.351	BF22NES.jpg
290.554	0.509	Blank	Blank	47.142	n/a	3	8	16	n/a	36	n/a	1	n/a	n/a	n/a	n/a	321.821	n/a
291.063	0.513	neutral	Picture	46.628	n/a	3	8	17	n/a	37	12	1	n/a	n/a	n/a	n/a	322.33	AF21NES.jpg
291.577	0.5	Blank	Blank	46.128	n/a	3	8	17	n/a	37	n/a	1	n/a	n/a	n/a	n/a	322.843	n/a
292.107	0.47	neutral	Picture	45.628	n/a	3	8	18	n/a	38	24	1	n/a	n/a	n/a	n/a	323.374	BM05NES.jpg
292.577	0.508	Blank	Blank	45.119	n/a	3	8	18	n/a	38	n/a	1	n/a	n/a	n/a	n/a	323.844	n/a
293.086	0.513	neutral	Picture	44.605	n/a	3	8	19	n/a	39	29	1	n/a	n/a	n/a	n/a	324.352	AM10NES.jpg
293.599	0.5	Blank	Blank	44.105	n/a	3	8	19	n/a	39	n/a	1	n/a	n/a	n/a	n/a	324.866	n/a
294.13	0.47	neutral	Picture	43.605	n/a	3	8	20	n/a	40	23	1	n/a	n/a	n/a	n/a	325.396	AM04NES.jpg
294.6	0.508	Blank	Blank	43.097	n/a	3	8	20	n/a	40	n/a	1	n/a	n/a	n/a	n/a	325.866	n/a
295.108	10.013	ITI	Fixation+	33.083	n/a	3	n/a	n/a	n/a	n/a	n/a	n/a	n/a	n/a	n/a	n/a	326.375	n/a
305.122	0.513	angry	Picture	32.569	n/a	3	9	1	n/a	41	62	2	n/a	n/a	n/a	n/a	336.389	BM03HAS.jpg
305.636	0.5	Blank	Blank	32.069	n/a	3	9	1	n/a	41	n/a	2	n/a	n/a	n/a	n/a	336.902	n/a
306.166	0.47	angry	Picture	31.569	n/a	3	9	2	n/a	42	52	2	n/a	n/a	n/a	n/a	337.433	AF21HAS.jpg
306.636	0.508	Blank	Blank	31.06	n/a	3	9	2	n/a	42	n/a	2	n/a	n/a	n/a	n/a	337.902	n/a
307.145	0.513	angry	Picture	30.547	n/a	3	9	3	n/a	43	44	2	n/a	n/a	n/a	n/a	338.411	AF05HAS.jpg
307.658	0.5	Blank	Blank	30.047	n/a	3	9	3	n/a	43	n/a	2	n/a	n/a	n/a	n/a	338.925	n/a
308.189	0.47	angry	Picture	29.546	n/a	3	9	4	n/a	44	53	2	n/a	n/a	n/a	n/a	339.455	BF22HAS.jpg
308.658	0.508	Blank	Blank	29.038	n/a	3	9	4	n/a	44	n/a	2	n/a	n/a	n/a	n/a	339.925	n/a
309.167	0.513	angry	Picture	28.524	n/a	3	9	5	n/a	45	54	2	n/a	n/a	n/a	n/a	340.434	AF23HAS.jpg
309.681	0.5	Blank	Blank	28.024	n/a	3	9	5	n/a	45	n/a	2	n/a	n/a	n/a	n/a	340.947	n/a
310.211	0.47	angry	Picture	27.524	n/a	3	9	6	n/a	46	68	2	n/a	n/a	n/a	n/a	341.478	AM09HAS.jpg
310.681	0.508	Blank	Blank	27.015	n/a	3	9	6	n/a	46	n/a	2	n/a	n/a	n/a	n/a	341.947	n/a
311.19	0.513	angry	Picture	26.501	n/a	3	9	7	n/a	47	64	2	n/a	n/a	n/a	n/a	342.456	BM05HAS.jpg
311.703	0.5	Blank	Blank	26.001	n/a	3	9	7	n/a	47	n/a	2	n/a	n/a	n/a	n/a	342.97	n/a
312.234	0.47	angry	Picture	25.501	n/a	3	9	8	n/a	48	59	2	n/a	n/a	n/a	n/a	343.5	AF31HAS.jpg
312.704	0.508	Blank	Blank	24.993	n/a	3	9	8	n/a	48	n/a	2	n/a	n/a	n/a	n/a	343.97	n/a
313.213	0.513	angry	Picture	24.479	n/a	3	9	9	n/a	49	41	2	n/a	n/a	n/a	n/a	344.479	AF01HAS.jpg
313.726	0.5	Blank	Blank	23.979	n/a	3	9	9	n/a	49	n/a	2	n/a	n/a	n/a	n/a	344.992	n/a
314.257	0.47	angry	Picture	23.478	n/a	3	9	10	n/a	50	73	2	n/a	n/a	n/a	n/a	345.523	AM21HAS.jpg
314.726	0.508	Blank	Blank	22.97	n/a	3	9	10	n/a	50	n/a	2	n/a	n/a	n/a	n/a	345.993	n/a
315.236	0.513	angry	Picture	22.456	n/a	3	9	11	n/a	51	65	2	n/a	n/a	n/a	n/a	346.502	BM06HAS.jpg
315.749	0.5	Blank	Blank	21.956	n/a	3	9	11	n/a	51	n/a	2	n/a	n/a	n/a	n/a	347.015	n/a
316.279	0.47	angry	Picture	21.456	n/a	3	9	12	n/a	52	56	2	n/a	n/a	n/a	n/a	347.546	AF26HAS.jpg
316.749	0.509	Blank	Blank	20.947	n/a	3	9	12	n/a	52	n/a	2	n/a	n/a	n/a	n/a	348.015	n/a
317.258	0.513	angry	Picture	20.433	n/a	3	9	13	n/a	53	45	2	n/a	n/a	n/a	n/a	348.524	BF07HAS.jpg
317.771	0.5	Blank	Blank	19.933	n/a	3	9	13	n/a	53	n/a	2	n/a	n/a	n/a	n/a	349.038	n/a
318.302	0.47	angry	Picture	19.433	n/a	3	9	14	n/a	54	78	2	n/a	n/a	n/a	n/a	349.568	BM26HAS.jpg
318.771	0.509	Blank	Blank	18.925	n/a	3	9	14	n/a	54	n/a	2	n/a	n/a	n/a	n/a	350.038	n/a
319.28	0.513	angry	Picture	18.411	n/a	3	9	15	n/a	55	50	2	n/a	n/a	n/a	n/a	350.547	AF18HAS.jpg
319.794	0.5	Blank	Blank	17.911	n/a	3	9	15	n/a	55	n/a	2	n/a	n/a	n/a	n/a	351.06	n/a
320.324	0.47	angry	Picture	17.411	n/a	3	9	16	n/a	56	47	2	n/a	n/a	n/a	n/a	351.591	BF11HAS.jpg
320.794	0.508	Blank	Blank	16.902	n/a	3	9	16	n/a	56	n/a	2	n/a	n/a	n/a	n/a	352.06	n/a
321.303	0.513	angry	Picture	16.388	n/a	3	9	17	n/a	57	77	2	n/a	n/a	n/a	n/a	352.569	BM25HAS.jpg
321.816	0.5	Blank	Blank	15.888	n/a	3	9	17	n/a	57	n/a	2	n/a	n/a	n/a	n/a	353.083	n/a
322.347	0.47	angry	Picture	15.388	n/a	3	9	18	n/a	58	57	2	n/a	n/a	n/a	n/a	353.613	BF28HAS.jpg
322.817	0.508	Blank	Blank	14.88	n/a	3	9	18	n/a	58	n/a	2	n/a	n/a	n/a	n/a	354.083	n/a
323.326	0.513	angry	Picture	14.366	n/a	3	9	19	n/a	59	61	2	n/a	n/a	n/a	n/a	354.592	AM01HAS.jpg
323.839	0.5	Blank	Blank	13.866	n/a	3	9	19	n/a	59	n/a	2	n/a	n/a	n/a	n/a	355.105	n/a
324.37	0.47	angry	Picture	13.365	n/a	3	9	20	n/a	60	79	2	n/a	n/a	n/a	n/a	355.636	BM28HAS.jpg
324.839	0.508	Blank	Blank	12.857	n/a	3	9	20	n/a	60	n/a	2	n/a	n/a	n/a	n/a	356.106	n/a
325.348	10.013	ITI	Fixation+	2.843	n/a	3	n/a	n/a	n/a	n/a	n/a	n/a	n/a	n/a	n/a	n/a	356.614	n/a
338.205	n/a	ConfirmRating	Rate	n/a	2.849	3	n/a	n/a	0	n/a	n/a	n/a	2	Angry	64	51	369.471	n/a
341.254	n/a	ConfirmRating	Rate	n/a	3.047	3	n/a	n/a	1	n/a	n/a	n/a	3	Angry	20	48	372.52	n/a
341.264	10.013	ITI	Fixation+	93.965	n/a	4	n/a	n/a	n/a	n/a	n/a	n/a	n/a	n/a	n/a	n/a	372.53	n/a
351.277	0.513	happy	Picture	93.451	n/a	4	10	1	n/a	61	119	3	n/a	n/a	n/a	n/a	382.544	BM28ANS.jpg
351.791	0.5	Blank	Blank	92.951	n/a	4	10	1	n/a	61	n/a	3	n/a	n/a	n/a	n/a	383.057	n/a
352.321	0.47	happy	Picture	92.451	n/a	4	10	2	n/a	62	100	3	n/a	n/a	n/a	n/a	383.588	AF32ANS.jpg
352.791	0.508	Blank	Blank	91.942	n/a	4	10	2	n/a	62	n/a	3	n/a	n/a	n/a	n/a	384.057	n/a
353.3	0.513	happy	Picture	91.428	n/a	4	10	3	n/a	63	118	3	n/a	n/a	n/a	n/a	384.566	BM26ANS.jpg
353.813	0.5	Blank	Blank	90.928	n/a	4	10	3	n/a	63	n/a	3	n/a	n/a	n/a	n/a	385.08	n/a
354.344	0.47	happy	Picture	90.428	n/a	4	10	4	n/a	64	89	3	n/a	n/a	n/a	n/a	385.61	AF17ANS.jpg
354.814	0.508	Blank	Blank	89.92	n/a	4	10	4	n/a	64	n/a	3	n/a	n/a	n/a	n/a	386.08	n/a
355.323	0.513	happy	Picture	89.406	n/a	4	10	5	n/a	65	116	3	n/a	n/a	n/a	n/a	386.589	BM24ANS.jpg
355.836	0.5	Blank	Blank	88.906	n/a	4	10	5	n/a	65	n/a	3	n/a	n/a	n/a	n/a	387.102	n/a
356.367	0.47	happy	Picture	88.405	n/a	4	10	6	n/a	66	105	3	n/a	n/a	n/a	n/a	387.633	BM06ANS.jpg
356.836	0.508	Blank	Blank	87.897	n/a	4	10	6	n/a	66	n/a	3	n/a	n/a	n/a	n/a	388.103	n/a
357.345	0.513	happy	Picture	87.383	n/a	4	10	7	n/a	67	106	3	n/a	n/a	n/a	n/a	388.611	AM07ANS.jpg
357.859	0.5	Blank	Blank	86.883	n/a	4	10	7	n/a	67	n/a	3	n/a	n/a	n/a	n/a	389.125	n/a
358.389	0.47	happy	Picture	86.383	n/a	4	10	8	n/a	68	94	3	n/a	n/a	n/a	n/a	389.656	AF23ANS.jpg
358.859	0.508	Blank	Blank	85.874	n/a	4	10	8	n/a	68	n/a	3	n/a	n/a	n/a	n/a	390.125	n/a
359.368	0.513	happy	Picture	85.361	n/a	4	10	9	n/a	69	117	3	n/a	n/a	n/a	n/a	390.634	BM25ANS.jpg
359.881	0.5	Blank	Blank	84.861	n/a	4	10	9	n/a	69	n/a	3	n/a	n/a	n/a	n/a	391.148	n/a
360.412	0.47	happy	Picture	84.36	n/a	4	10	10	n/a	70	90	3	n/a	n/a	n/a	n/a	391.678	AF18ANS.jpg
360.881	0.508	Blank	Blank	83.852	n/a	4	10	10	n/a	70	n/a	3	n/a	n/a	n/a	n/a	392.148	n/a
361.39	0.513	happy	Picture	83.338	n/a	4	10	11	n/a	71	83	3	n/a	n/a	n/a	n/a	392.657	BF04ANS.jpg
361.904	0.5	Blank	Blank	82.838	n/a	4	10	11	n/a	71	n/a	3	n/a	n/a	n/a	n/a	393.17	n/a
362.434	0.47	happy	Picture	82.338	n/a	4	10	12	n/a	72	112	3	n/a	n/a	n/a	n/a	393.701	AM14ANS.jpg
362.904	0.509	Blank	Blank	81.829	n/a	4	10	12	n/a	72	n/a	3	n/a	n/a	n/a	n/a	394.17	n/a
363.413	0.513	happy	Picture	81.315	n/a	4	10	13	n/a	73	102	3	n/a	n/a	n/a	n/a	394.679	BM03ANS.jpg
363.926	0.5	Blank	Blank	80.815	n/a	4	10	13	n/a	73	n/a	3	n/a	n/a	n/a	n/a	395.193	n/a
364.457	0.47	happy	Picture	80.315	n/a	4	10	14	n/a	74	95	3	n/a	n/a	n/a	n/a	395.723	AF25ANS.jpg
364.927	0.509	Blank	Blank	79.807	n/a	4	10	14	n/a	74	n/a	3	n/a	n/a	n/a	n/a	396.193	n/a
365.436	0.513	happy	Picture	79.293	n/a	4	10	15	n/a	75	113	3	n/a	n/a	n/a	n/a	396.702	AM21ANS.jpg
365.949	0.5	Blank	Blank	78.793	n/a	4	10	15	n/a	75	n/a	3	n/a	n/a	n/a	n/a	397.215	n/a
366.48	0.47	happy	Picture	78.292	n/a	4	10	16	n/a	76	88	3	n/a	n/a	n/a	n/a	397.746	AF14ANS.jpg
366.949	0.508	Blank	Blank	77.784	n/a	4	10	16	n/a	76	n/a	3	n/a	n/a	n/a	n/a	398.216	n/a
367.458	0.513	happy	Picture	77.27	n/a	4	10	17	n/a	77	93	3	n/a	n/a	n/a	n/a	398.724	BF22ANS.jpg
367.972	0.5	Blank	Blank	76.77	n/a	4	10	17	n/a	77	n/a	3	n/a	n/a	n/a	n/a	399.238	n/a
368.502	0.469	happy	Picture	76.27	n/a	4	10	18	n/a	78	86	3	n/a	n/a	n/a	n/a	399.769	AF09ANS.jpg
368.972	0.509	Blank	Blank	75.761	n/a	4	10	18	n/a	78	n/a	3	n/a	n/a	n/a	n/a	400.238	n/a
369.481	0.513	happy	Picture	75.248	n/a	4	10	19	n/a	79	92	3	n/a	n/a	n/a	n/a	400.747	AF21ANS.jpg
369.994	0.5	Blank	Blank	74.748	n/a	4	10	19	n/a	79	n/a	3	n/a	n/a	n/a	n/a	401.261	n/a
370.525	0.469	happy	Picture	74.247	n/a	4	10	20	n/a	80	84	3	n/a	n/a	n/a	n/a	401.791	AF05ANS.jpg
370.994	0.509	Blank	Blank	73.739	n/a	4	10	20	n/a	80	n/a	3	n/a	n/a	n/a	n/a	402.261	n/a
371.503	10.013	ITI	Fixation+	63.725	n/a	4	n/a	n/a	n/a	n/a	n/a	n/a	n/a	n/a	n/a	n/a	402.769	n/a
381.517	0.513	neutral	Picture	63.211	n/a	4	11	1	n/a	81	4	1	n/a	n/a	n/a	n/a	412.783	AF05NES.jpg
382.03	0.5	Blank	Blank	62.711	n/a	4	11	1	n/a	81	n/a	1	n/a	n/a	n/a	n/a	413.297	n/a
382.561	0.47	neutral	Picture	62.211	n/a	4	11	2	n/a	82	14	1	n/a	n/a	n/a	n/a	413.827	AF23NES.jpg
383.031	0.508	Blank	Blank	61.703	n/a	4	11	2	n/a	82	n/a	1	n/a	n/a	n/a	n/a	414.297	n/a
383.54	0.513	neutral	Picture	61.189	n/a	4	11	3	n/a	83	19	1	n/a	n/a	n/a	n/a	414.806	AF31NES.jpg
384.053	0.5	Blank	Blank	60.689	n/a	4	11	3	n/a	83	n/a	1	n/a	n/a	n/a	n/a	415.319	n/a
384.584	0.47	neutral	Picture	60.188	n/a	4	11	4	n/a	84	8	1	n/a	n/a	n/a	n/a	415.85	AF14NES.jpg
385.053	0.508	Blank	Blank	59.68	n/a	4	11	4	n/a	84	n/a	1	n/a	n/a	n/a	n/a	416.32	n/a
385.562	0.513	neutral	Picture	59.166	n/a	4	11	5	n/a	85	25	1	n/a	n/a	n/a	n/a	416.829	BM06NES.jpg
386.076	0.5	Blank	Blank	58.666	n/a	4	11	5	n/a	85	n/a	1	n/a	n/a	n/a	n/a	417.342	n/a
386.606	0.47	neutral	Picture	58.166	n/a	4	11	6	n/a	86	9	1	n/a	n/a	n/a	n/a	417.873	AF17NES.jpg
387.076	0.508	Blank	Blank	57.657	n/a	4	11	6	n/a	86	n/a	1	n/a	n/a	n/a	n/a	418.342	n/a
387.585	0.513	neutral	Picture	57.144	n/a	4	11	7	n/a	87	2	1	n/a	n/a	n/a	n/a	418.851	AF03NES.jpg
388.098	0.5	Blank	Blank	56.644	n/a	4	11	7	n/a	87	n/a	1	n/a	n/a	n/a	n/a	419.365	n/a
388.629	0.47	neutral	Picture	56.143	n/a	4	11	8	n/a	88	17	1	n/a	n/a	n/a	n/a	419.895	BF28NES.jpg
389.099	0.508	Blank	Blank	55.635	n/a	4	11	8	n/a	88	n/a	1	n/a	n/a	n/a	n/a	420.365	n/a
389.607	0.513	neutral	Picture	55.121	n/a	4	11	9	n/a	89	6	1	n/a	n/a	n/a	n/a	420.874	AF09NES.jpg
390.121	0.5	Blank	Blank	54.621	n/a	4	11	9	n/a	89	n/a	1	n/a	n/a	n/a	n/a	421.387	n/a
390.651	0.47	neutral	Picture	54.121	n/a	4	11	10	n/a	90	12	1	n/a	n/a	n/a	n/a	421.918	AF21NES.jpg
391.121	0.508	Blank	Blank	53.612	n/a	4	11	10	n/a	90	n/a	1	n/a	n/a	n/a	n/a	422.387	n/a
391.63	0.513	neutral	Picture	53.098	n/a	4	11	11	n/a	91	24	1	n/a	n/a	n/a	n/a	422.896	BM05NES.jpg
392.143	0.5	Blank	Blank	52.598	n/a	4	11	11	n/a	91	n/a	1	n/a	n/a	n/a	n/a	423.41	n/a
392.674	0.469	neutral	Picture	52.098	n/a	4	11	12	n/a	92	34	1	n/a	n/a	n/a	n/a	423.94	AM22NES.jpg
393.144	0.509	Blank	Blank	51.59	n/a	4	11	12	n/a	92	n/a	1	n/a	n/a	n/a	n/a	424.41	n/a
393.653	0.513	neutral	Picture	51.076	n/a	4	11	13	n/a	93	23	1	n/a	n/a	n/a	n/a	424.919	AM04NES.jpg
394.166	0.5	Blank	Blank	50.576	n/a	4	11	13	n/a	93	n/a	1	n/a	n/a	n/a	n/a	425.432	n/a
394.697	0.47	neutral	Picture	50.076	n/a	4	11	14	n/a	94	15	1	n/a	n/a	n/a	n/a	425.963	AF25NES.jpg
395.166	0.509	Blank	Blank	49.567	n/a	4	11	14	n/a	94	n/a	1	n/a	n/a	n/a	n/a	426.433	n/a
395.675	0.513	neutral	Picture	49.053	n/a	4	11	15	n/a	95	37	1	n/a	n/a	n/a	n/a	426.942	BM25NES.jpg
396.189	0.5	Blank	Blank	48.553	n/a	4	11	15	n/a	95	n/a	1	n/a	n/a	n/a	n/a	427.455	n/a
396.719	0.469	neutral	Picture	48.053	n/a	4	11	16	n/a	96	32	1	n/a	n/a	n/a	n/a	427.986	AM14NES.jpg
397.189	0.509	Blank	Blank	47.544	n/a	4	11	16	n/a	96	n/a	1	n/a	n/a	n/a	n/a	428.455	n/a
397.698	0.514	neutral	Picture	47.03	n/a	4	11	17	n/a	97	3	1	n/a	n/a	n/a	n/a	428.964	BF04NES.jpg
398.211	0.5	Blank	Blank	46.53	n/a	4	11	17	n/a	97	n/a	1	n/a	n/a	n/a	n/a	429.478	n/a
398.742	0.47	neutral	Picture	46.03	n/a	4	11	18	n/a	98	16	1	n/a	n/a	n/a	n/a	430.008	AF26NES.jpg
399.212	0.508	Blank	Blank	45.522	n/a	4	11	18	n/a	98	n/a	1	n/a	n/a	n/a	n/a	430.478	n/a
399.72	0.514	neutral	Picture	45.008	n/a	4	11	19	n/a	99	27	1	n/a	n/a	n/a	n/a	430.987	BM08NES.jpg
400.234	0.5	Blank	Blank	44.508	n/a	4	11	19	n/a	99	n/a	1	n/a	n/a	n/a	n/a	431.5	n/a
400.764	0.47	neutral	Picture	44.007	n/a	4	11	20	n/a	100	28	1	n/a	n/a	n/a	n/a	432.031	AM09NES.jpg
401.234	0.508	Blank	Blank	43.499	n/a	4	11	20	n/a	100	n/a	1	n/a	n/a	n/a	n/a	432.501	n/a
401.743	10.013	ITI	Fixation+	33.486	n/a	4	n/a	n/a	n/a	n/a	n/a	n/a	n/a	n/a	n/a	n/a	433.009	n/a
411.757	0.513	happy	Picture	32.972	n/a	4	12	1	n/a	101	81	3	n/a	n/a	n/a	n/a	443.023	AF01ANS.jpg
412.27	0.5	Blank	Blank	32.472	n/a	4	12	1	n/a	101	n/a	3	n/a	n/a	n/a	n/a	443.536	n/a
412.8	0.47	happy	Picture	31.972	n/a	4	12	2	n/a	102	120	3	n/a	n/a	n/a	n/a	444.067	AM35ANS.jpg
413.27	0.509	Blank	Blank	31.463	n/a	4	12	2	n/a	102	n/a	3	n/a	n/a	n/a	n/a	444.536	n/a
413.779	0.513	happy	Picture	30.949	n/a	4	12	3	n/a	103	114	3	n/a	n/a	n/a	n/a	445.046	AM22ANS.jpg
414.293	0.5	Blank	Blank	30.449	n/a	4	12	3	n/a	103	n/a	3	n/a	n/a	n/a	n/a	445.559	n/a
414.823	0.47	happy	Picture	29.949	n/a	4	12	4	n/a	104	109	3	n/a	n/a	n/a	n/a	446.089	AM10ANS.jpg
415.293	0.509	Blank	Blank	29.44	n/a	4	12	4	n/a	104	n/a	3	n/a	n/a	n/a	n/a	446.559	n/a
415.802	0.513	happy	Picture	28.926	n/a	4	12	5	n/a	105	96	3	n/a	n/a	n/a	n/a	447.068	AF26ANS.jpg
416.315	0.5	Blank	Blank	28.427	n/a	4	12	5	n/a	105	n/a	3	n/a	n/a	n/a	n/a	447.582	n/a
416.846	0.47	happy	Picture	27.926	n/a	4	12	6	n/a	106	82	3	n/a	n/a	n/a	n/a	448.112	AF03ANS.jpg
417.315	0.508	Blank	Blank	27.418	n/a	4	12	6	n/a	106	n/a	3	n/a	n/a	n/a	n/a	448.582	n/a
417.824	0.513	happy	Picture	26.904	n/a	4	12	7	n/a	107	97	3	n/a	n/a	n/a	n/a	449.091	BF28ANS.jpg
418.338	0.5	Blank	Blank	26.404	n/a	4	12	7	n/a	107	n/a	3	n/a	n/a	n/a	n/a	449.604	n/a
418.868	0.469	happy	Picture	25.904	n/a	4	12	8	n/a	108	115	3	n/a	n/a	n/a	n/a	450.135	AM23ANS.jpg
419.338	0.509	Blank	Blank	25.395	n/a	4	12	8	n/a	108	n/a	3	n/a	n/a	n/a	n/a	450.604	n/a
419.847	0.513	happy	Picture	24.881	n/a	4	12	9	n/a	109	91	3	n/a	n/a	n/a	n/a	451.113	AF20ANS.jpg
420.36	0.5	Blank	Blank	24.381	n/a	4	12	9	n/a	109	n/a	3	n/a	n/a	n/a	n/a	451.627	n/a
420.891	0.47	happy	Picture	23.881	n/a	4	12	10	n/a	110	87	3	n/a	n/a	n/a	n/a	452.157	BF11ANS.jpg
421.361	0.508	Blank	Blank	23.373	n/a	4	12	10	n/a	110	n/a	3	n/a	n/a	n/a	n/a	452.627	n/a
421.87	0.513	happy	Picture	22.859	n/a	4	12	11	n/a	111	85	3	n/a	n/a	n/a	n/a	453.136	BF07ANS.jpg
422.383	0.5	Blank	Blank	22.359	n/a	4	12	11	n/a	111	n/a	3	n/a	n/a	n/a	n/a	453.649	n/a
422.914	0.47	happy	Picture	21.858	n/a	4	12	12	n/a	112	110	3	n/a	n/a	n/a	n/a	454.18	AM11ANS.jpg
423.383	0.508	Blank	Blank	21.35	n/a	4	12	12	n/a	112	n/a	3	n/a	n/a	n/a	n/a	454.65	n/a
423.892	0.514	happy	Picture	20.836	n/a	4	12	13	n/a	113	111	3	n/a	n/a	n/a	n/a	455.159	BM12ANS.jpg
424.406	0.5	Blank	Blank	20.336	n/a	4	12	13	n/a	113	n/a	3	n/a	n/a	n/a	n/a	455.672	n/a
424.936	0.47	happy	Picture	19.836	n/a	4	12	14	n/a	114	103	3	n/a	n/a	n/a	n/a	456.203	AM04ANS.jpg
425.406	0.508	Blank	Blank	19.327	n/a	4	12	14	n/a	114	n/a	3	n/a	n/a	n/a	n/a	456.673	n/a
425.915	0.514	happy	Picture	18.813	n/a	4	12	15	n/a	115	101	3	n/a	n/a	n/a	n/a	457.181	AM01ANS.jpg
426.428	0.5	Blank	Blank	18.313	n/a	4	12	15	n/a	115	n/a	3	n/a	n/a	n/a	n/a	457.695	n/a
426.959	0.47	happy	Picture	17.813	n/a	4	12	16	n/a	116	104	3	n/a	n/a	n/a	n/a	458.225	BM05ANS.jpg
427.429	0.508	Blank	Blank	17.305	n/a	4	12	16	n/a	116	n/a	3	n/a	n/a	n/a	n/a	458.695	n/a
427.937	0.514	happy	Picture	16.791	n/a	4	12	17	n/a	117	107	3	n/a	n/a	n/a	n/a	459.204	BM08ANS.jpg
428.451	0.5	Blank	Blank	16.291	n/a	4	12	17	n/a	117	n/a	3	n/a	n/a	n/a	n/a	459.717	n/a
428.981	0.47	happy	Picture	15.79	n/a	4	12	18	n/a	118	98	3	n/a	n/a	n/a	n/a	460.248	BF29ANS.jpg
429.451	0.508	Blank	Blank	15.282	n/a	4	12	18	n/a	118	n/a	3	n/a	n/a	n/a	n/a	460.718	n/a
429.96	0.513	happy	Picture	14.768	n/a	4	12	19	n/a	119	99	3	n/a	n/a	n/a	n/a	461.226	AF31ANS.jpg
430.474	0.5	Blank	Blank	14.268	n/a	4	12	19	n/a	119	n/a	3	n/a	n/a	n/a	n/a	461.74	n/a
431.004	0.47	happy	Picture	13.768	n/a	4	12	20	n/a	120	108	3	n/a	n/a	n/a	n/a	462.27	AM09ANS.jpg
431.474	0.508	Blank	Blank	13.26	n/a	4	12	20	n/a	120	n/a	3	n/a	n/a	n/a	n/a	462.74	n/a
431.982	10.013	ITI	Fixation+	3.246	n/a	4	n/a	n/a	n/a	n/a	n/a	n/a	n/a	n/a	n/a	n/a	463.249	n/a
445.242	n/a	ConfirmRating	Rate	n/a	3.247	4	n/a	n/a	0	n/a	n/a	n/a	2	Happy	88	53	476.508	n/a
447.774	n/a	ConfirmRating	Rate	n/a	2.55	4	n/a	n/a	1	n/a	n/a	n/a	3	Happy	0	47	479.04	n/a
