onset	duration	trial_type	event_type	time_until_response	response_time	trial_number	block_num_within_trial	image_seq_num_within_block	question_seq_num_within_block	image_seq_num	picture_number	condition	question_type	block_type	rating	rating_computed	onset_uncorrected	KDEV_imagefile
0.006	10.014	ITI	Fixation+	98.866	n/a	1	n/a	n/a	n/a	n/a	n/a	n/a	n/a	n/a	n/a	n/a	29.505	n/a
10.037	0.497	happy	Picture	98.352	n/a	1	1	1	n/a	1	108	3	n/a	n/a	n/a	n/a	39.535	AM09ANS.jpg
10.534	0.514	Blank	Blank	97.838	n/a	1	1	1	n/a	1	n/a	3	n/a	n/a	n/a	n/a	40.033	n/a
11.065	0.497	happy	Picture	97.324	n/a	1	1	2	n/a	2	99	3	n/a	n/a	n/a	n/a	40.563	AF31ANS.jpg
11.562	0.514	Blank	Blank	96.81	n/a	1	1	2	n/a	2	n/a	3	n/a	n/a	n/a	n/a	41.06	n/a
12.092	0.497	happy	Picture	96.296	n/a	1	1	3	n/a	3	98	3	n/a	n/a	n/a	n/a	41.591	BF29ANS.jpg
12.59	0.514	Blank	Blank	95.782	n/a	1	1	3	n/a	3	n/a	3	n/a	n/a	n/a	n/a	42.088	n/a
13.12	0.497	happy	Picture	95.269	n/a	1	1	4	n/a	4	107	3	n/a	n/a	n/a	n/a	42.619	BM08ANS.jpg
13.618	0.514	Blank	Blank	94.755	n/a	1	1	4	n/a	4	n/a	3	n/a	n/a	n/a	n/a	43.116	n/a
14.148	0.497	happy	Picture	94.241	n/a	1	1	5	n/a	5	104	3	n/a	n/a	n/a	n/a	43.647	BM05ANS.jpg
14.646	0.514	Blank	Blank	93.727	n/a	1	1	5	n/a	5	n/a	3	n/a	n/a	n/a	n/a	44.144	n/a
15.176	0.497	happy	Picture	93.213	n/a	1	1	6	n/a	6	101	3	n/a	n/a	n/a	n/a	44.675	AM01ANS.jpg
15.674	0.514	Blank	Blank	92.699	n/a	1	1	6	n/a	6	n/a	3	n/a	n/a	n/a	n/a	45.172	n/a
16.204	0.497	happy	Picture	92.185	n/a	1	1	7	n/a	7	103	3	n/a	n/a	n/a	n/a	45.703	AM04ANS.jpg
16.701	0.514	Blank	Blank	91.671	n/a	1	1	7	n/a	7	n/a	3	n/a	n/a	n/a	n/a	46.2	n/a
17.232	0.497	happy	Picture	91.157	n/a	1	1	8	n/a	8	111	3	n/a	n/a	n/a	n/a	46.73	BM12ANS.jpg
17.729	0.514	Blank	Blank	90.643	n/a	1	1	8	n/a	8	n/a	3	n/a	n/a	n/a	n/a	47.228	n/a
18.26	0.497	happy	Picture	90.129	n/a	1	1	9	n/a	9	110	3	n/a	n/a	n/a	n/a	47.758	AM11ANS.jpg
18.757	0.514	Blank	Blank	89.615	n/a	1	1	9	n/a	9	n/a	3	n/a	n/a	n/a	n/a	48.256	n/a
19.288	0.497	happy	Picture	89.101	n/a	1	1	10	n/a	10	85	3	n/a	n/a	n/a	n/a	48.786	BF07ANS.jpg
19.785	0.514	Blank	Blank	88.587	n/a	1	1	10	n/a	10	n/a	3	n/a	n/a	n/a	n/a	49.284	n/a
20.316	0.497	happy	Picture	88.073	n/a	1	1	11	n/a	11	87	3	n/a	n/a	n/a	n/a	49.814	BF11ANS.jpg
20.813	0.514	Blank	Blank	87.559	n/a	1	1	11	n/a	11	n/a	3	n/a	n/a	n/a	n/a	50.312	n/a
21.344	0.497	happy	Picture	87.045	n/a	1	1	12	n/a	12	91	3	n/a	n/a	n/a	n/a	50.842	AF20ANS.jpg
21.841	0.514	Blank	Blank	86.531	n/a	1	1	12	n/a	12	n/a	3	n/a	n/a	n/a	n/a	51.339	n/a
22.371	0.497	happy	Picture	86.018	n/a	1	1	13	n/a	13	115	3	n/a	n/a	n/a	n/a	51.87	AM23ANS.jpg
22.869	0.514	Blank	Blank	85.504	n/a	1	1	13	n/a	13	n/a	3	n/a	n/a	n/a	n/a	52.367	n/a
23.399	0.497	happy	Picture	84.99	n/a	1	1	14	n/a	14	97	3	n/a	n/a	n/a	n/a	52.898	BF28ANS.jpg
23.897	0.514	Blank	Blank	84.476	n/a	1	1	14	n/a	14	n/a	3	n/a	n/a	n/a	n/a	53.395	n/a
24.427	0.497	happy	Picture	83.962	n/a	1	1	15	n/a	15	82	3	n/a	n/a	n/a	n/a	53.926	AF03ANS.jpg
24.924	0.514	Blank	Blank	83.448	n/a	1	1	15	n/a	15	n/a	3	n/a	n/a	n/a	n/a	54.423	n/a
25.455	0.497	happy	Picture	82.934	n/a	1	1	16	n/a	16	96	3	n/a	n/a	n/a	n/a	54.954	AF26ANS.jpg
25.952	0.514	Blank	Blank	82.42	n/a	1	1	16	n/a	16	n/a	3	n/a	n/a	n/a	n/a	55.451	n/a
26.483	0.497	happy	Picture	81.906	n/a	1	1	17	n/a	17	109	3	n/a	n/a	n/a	n/a	55.981	AM10ANS.jpg
26.98	0.514	Blank	Blank	81.392	n/a	1	1	17	n/a	17	n/a	3	n/a	n/a	n/a	n/a	56.479	n/a
27.511	0.497	happy	Picture	80.878	n/a	1	1	18	n/a	18	114	3	n/a	n/a	n/a	n/a	57.009	AM22ANS.jpg
28.008	0.514	Blank	Blank	80.364	n/a	1	1	18	n/a	18	n/a	3	n/a	n/a	n/a	n/a	57.507	n/a
28.539	0.497	happy	Picture	79.85	n/a	1	1	19	n/a	19	120	3	n/a	n/a	n/a	n/a	58.037	AM35ANS.jpg
29.036	0.514	Blank	Blank	79.336	n/a	1	1	19	n/a	19	n/a	3	n/a	n/a	n/a	n/a	58.535	n/a
29.567	0.497	happy	Picture	78.822	n/a	1	1	20	n/a	20	81	3	n/a	n/a	n/a	n/a	59.065	AF01ANS.jpg
30.064	0.514	Blank	Blank	78.308	n/a	1	1	20	n/a	20	n/a	3	n/a	n/a	n/a	n/a	59.563	n/a
30.595	10.014	ITI	Fixation+	68.278	n/a	1	n/a	n/a	n/a	n/a	n/a	n/a	n/a	n/a	n/a	n/a	60.093	n/a
40.625	0.497	neutral	Picture	67.764	n/a	1	2	1	n/a	21	28	1	n/a	n/a	n/a	n/a	70.123	AM09NES.jpg
41.122	0.514	Blank	Blank	67.25	n/a	1	2	1	n/a	21	n/a	1	n/a	n/a	n/a	n/a	70.621	n/a
41.653	0.497	neutral	Picture	66.736	n/a	1	2	2	n/a	22	27	1	n/a	n/a	n/a	n/a	71.151	BM08NES.jpg
42.15	0.514	Blank	Blank	66.222	n/a	1	2	2	n/a	22	n/a	1	n/a	n/a	n/a	n/a	71.649	n/a
42.681	0.497	neutral	Picture	65.708	n/a	1	2	3	n/a	23	16	1	n/a	n/a	n/a	n/a	72.179	AF26NES.jpg
43.178	0.514	Blank	Blank	65.194	n/a	1	2	3	n/a	23	n/a	1	n/a	n/a	n/a	n/a	72.677	n/a
43.708	0.497	neutral	Picture	64.681	n/a	1	2	4	n/a	24	3	1	n/a	n/a	n/a	n/a	73.207	BF04NES.jpg
44.206	0.514	Blank	Blank	64.167	n/a	1	2	4	n/a	24	n/a	1	n/a	n/a	n/a	n/a	73.704	n/a
44.736	0.497	neutral	Picture	63.653	n/a	1	2	5	n/a	25	32	1	n/a	n/a	n/a	n/a	74.235	AM14NES.jpg
45.234	0.514	Blank	Blank	63.139	n/a	1	2	5	n/a	25	n/a	1	n/a	n/a	n/a	n/a	74.732	n/a
45.764	0.497	neutral	Picture	62.625	n/a	1	2	6	n/a	26	37	1	n/a	n/a	n/a	n/a	75.263	BM25NES.jpg
46.261	0.514	Blank	Blank	62.111	n/a	1	2	6	n/a	26	n/a	1	n/a	n/a	n/a	n/a	75.76	n/a
46.792	0.497	neutral	Picture	61.597	n/a	1	2	7	n/a	27	15	1	n/a	n/a	n/a	n/a	76.291	AF25NES.jpg
47.289	0.514	Blank	Blank	61.083	n/a	1	2	7	n/a	27	n/a	1	n/a	n/a	n/a	n/a	76.788	n/a
47.82	0.497	neutral	Picture	60.569	n/a	1	2	8	n/a	28	23	1	n/a	n/a	n/a	n/a	77.319	AM04NES.jpg
48.317	0.514	Blank	Blank	60.055	n/a	1	2	8	n/a	28	n/a	1	n/a	n/a	n/a	n/a	77.816	n/a
48.848	0.497	neutral	Picture	59.541	n/a	1	2	9	n/a	29	34	1	n/a	n/a	n/a	n/a	78.346	AM22NES.jpg
49.345	0.514	Blank	Blank	59.027	n/a	1	2	9	n/a	29	n/a	1	n/a	n/a	n/a	n/a	78.844	n/a
49.876	0.497	neutral	Picture	58.513	n/a	1	2	10	n/a	30	24	1	n/a	n/a	n/a	n/a	79.374	BM05NES.jpg
50.373	0.514	Blank	Blank	57.999	n/a	1	2	10	n/a	30	n/a	1	n/a	n/a	n/a	n/a	79.872	n/a
50.904	0.497	neutral	Picture	57.485	n/a	1	2	11	n/a	31	12	1	n/a	n/a	n/a	n/a	80.402	AF21NES.jpg
51.401	0.514	Blank	Blank	56.971	n/a	1	2	11	n/a	31	n/a	1	n/a	n/a	n/a	n/a	80.9	n/a
51.931	0.497	neutral	Picture	56.457	n/a	1	2	12	n/a	32	6	1	n/a	n/a	n/a	n/a	81.43	AF09NES.jpg
52.429	0.514	Blank	Blank	55.943	n/a	1	2	12	n/a	32	n/a	1	n/a	n/a	n/a	n/a	81.927	n/a
52.959	0.497	neutral	Picture	55.429	n/a	1	2	13	n/a	33	17	1	n/a	n/a	n/a	n/a	82.458	BF28NES.jpg
53.457	0.514	Blank	Blank	54.916	n/a	1	2	13	n/a	33	n/a	1	n/a	n/a	n/a	n/a	82.955	n/a
53.987	0.497	neutral	Picture	54.402	n/a	1	2	14	n/a	34	2	1	n/a	n/a	n/a	n/a	83.486	AF03NES.jpg
54.485	0.514	Blank	Blank	53.888	n/a	1	2	14	n/a	34	n/a	1	n/a	n/a	n/a	n/a	83.983	n/a
55.015	0.497	neutral	Picture	53.374	n/a	1	2	15	n/a	35	9	1	n/a	n/a	n/a	n/a	84.514	AF17NES.jpg
55.513	0.514	Blank	Blank	52.86	n/a	1	2	15	n/a	35	n/a	1	n/a	n/a	n/a	n/a	85.011	n/a
56.043	0.497	neutral	Picture	52.346	n/a	1	2	16	n/a	36	25	1	n/a	n/a	n/a	n/a	85.542	BM06NES.jpg
56.54	0.514	Blank	Blank	51.832	n/a	1	2	16	n/a	36	n/a	1	n/a	n/a	n/a	n/a	86.039	n/a
57.071	0.497	neutral	Picture	51.318	n/a	1	2	17	n/a	37	8	1	n/a	n/a	n/a	n/a	86.57	AF14NES.jpg
57.568	0.514	Blank	Blank	50.804	n/a	1	2	17	n/a	37	n/a	1	n/a	n/a	n/a	n/a	87.067	n/a
58.099	0.497	neutral	Picture	50.29	n/a	1	2	18	n/a	38	19	1	n/a	n/a	n/a	n/a	87.597	AF31NES.jpg
58.596	0.514	Blank	Blank	49.776	n/a	1	2	18	n/a	38	n/a	1	n/a	n/a	n/a	n/a	88.095	n/a
59.127	0.497	neutral	Picture	49.262	n/a	1	2	19	n/a	39	14	1	n/a	n/a	n/a	n/a	88.625	AF23NES.jpg
59.624	0.514	Blank	Blank	48.748	n/a	1	2	19	n/a	39	n/a	1	n/a	n/a	n/a	n/a	89.123	n/a
60.155	0.497	neutral	Picture	48.234	n/a	1	2	20	n/a	40	4	1	n/a	n/a	n/a	n/a	89.653	AF05NES.jpg
60.652	0.514	Blank	Blank	47.72	n/a	1	2	20	n/a	40	n/a	1	n/a	n/a	n/a	n/a	90.151	n/a
61.183	10.014	ITI	Fixation+	37.69	n/a	1	n/a	n/a	n/a	n/a	n/a	n/a	n/a	n/a	n/a	n/a	90.681	n/a
71.213	0.497	happy	Picture	37.176	n/a	1	3	1	n/a	41	84	3	n/a	n/a	n/a	n/a	100.711	AF05ANS.jpg
71.71	0.514	Blank	Blank	36.662	n/a	1	3	1	n/a	41	n/a	3	n/a	n/a	n/a	n/a	101.209	n/a
72.241	0.497	happy	Picture	36.148	n/a	1	3	2	n/a	42	92	3	n/a	n/a	n/a	n/a	101.739	AF21ANS.jpg
72.738	0.514	Blank	Blank	35.634	n/a	1	3	2	n/a	42	n/a	3	n/a	n/a	n/a	n/a	102.237	n/a
73.269	0.497	happy	Picture	35.12	n/a	1	3	3	n/a	43	86	3	n/a	n/a	n/a	n/a	102.767	AF09ANS.jpg
73.766	0.514	Blank	Blank	34.606	n/a	1	3	3	n/a	43	n/a	3	n/a	n/a	n/a	n/a	103.264	n/a
74.296	0.497	happy	Picture	34.092	n/a	1	3	4	n/a	44	93	3	n/a	n/a	n/a	n/a	103.795	BF22ANS.jpg
74.794	0.514	Blank	Blank	33.579	n/a	1	3	4	n/a	44	n/a	3	n/a	n/a	n/a	n/a	104.292	n/a
75.324	0.497	happy	Picture	33.065	n/a	1	3	5	n/a	45	88	3	n/a	n/a	n/a	n/a	104.823	AF14ANS.jpg
75.822	0.514	Blank	Blank	32.551	n/a	1	3	5	n/a	45	n/a	3	n/a	n/a	n/a	n/a	105.32	n/a
76.352	0.497	happy	Picture	32.037	n/a	1	3	6	n/a	46	113	3	n/a	n/a	n/a	n/a	105.851	AM21ANS.jpg
76.85	0.514	Blank	Blank	31.523	n/a	1	3	6	n/a	46	n/a	3	n/a	n/a	n/a	n/a	106.348	n/a
77.38	0.497	happy	Picture	31.009	n/a	1	3	7	n/a	47	95	3	n/a	n/a	n/a	n/a	106.879	AF25ANS.jpg
77.877	0.514	Blank	Blank	30.495	n/a	1	3	7	n/a	47	n/a	3	n/a	n/a	n/a	n/a	107.376	n/a
78.408	0.497	happy	Picture	29.981	n/a	1	3	8	n/a	48	102	3	n/a	n/a	n/a	n/a	107.907	BM03ANS.jpg
78.905	0.514	Blank	Blank	29.467	n/a	1	3	8	n/a	48	n/a	3	n/a	n/a	n/a	n/a	108.404	n/a
79.436	0.497	happy	Picture	28.953	n/a	1	3	9	n/a	49	112	3	n/a	n/a	n/a	n/a	108.934	AM14ANS.jpg
79.933	0.514	Blank	Blank	28.439	n/a	1	3	9	n/a	49	n/a	3	n/a	n/a	n/a	n/a	109.432	n/a
80.464	0.497	happy	Picture	27.925	n/a	1	3	10	n/a	50	83	3	n/a	n/a	n/a	n/a	109.962	BF04ANS.jpg
80.961	0.514	Blank	Blank	27.411	n/a	1	3	10	n/a	50	n/a	3	n/a	n/a	n/a	n/a	110.46	n/a
81.492	0.497	happy	Picture	26.897	n/a	1	3	11	n/a	51	90	3	n/a	n/a	n/a	n/a	110.99	AF18ANS.jpg
81.989	0.514	Blank	Blank	26.383	n/a	1	3	11	n/a	51	n/a	3	n/a	n/a	n/a	n/a	111.488	n/a
82.52	0.497	happy	Picture	25.869	n/a	1	3	12	n/a	52	117	3	n/a	n/a	n/a	n/a	112.018	BM25ANS.jpg
83.017	0.514	Blank	Blank	25.355	n/a	1	3	12	n/a	52	n/a	3	n/a	n/a	n/a	n/a	112.516	n/a
83.547	0.497	happy	Picture	24.841	n/a	1	3	13	n/a	53	94	3	n/a	n/a	n/a	n/a	113.046	AF23ANS.jpg
84.045	0.514	Blank	Blank	24.328	n/a	1	3	13	n/a	53	n/a	3	n/a	n/a	n/a	n/a	113.543	n/a
84.575	0.497	happy	Picture	23.814	n/a	1	3	14	n/a	54	106	3	n/a	n/a	n/a	n/a	114.074	AM07ANS.jpg
85.073	0.514	Blank	Blank	23.3	n/a	1	3	14	n/a	54	n/a	3	n/a	n/a	n/a	n/a	114.571	n/a
85.603	0.497	happy	Picture	22.786	n/a	1	3	15	n/a	55	105	3	n/a	n/a	n/a	n/a	115.102	BM06ANS.jpg
86.101	0.514	Blank	Blank	22.272	n/a	1	3	15	n/a	55	n/a	3	n/a	n/a	n/a	n/a	115.599	n/a
86.631	0.497	happy	Picture	21.758	n/a	1	3	16	n/a	56	116	3	n/a	n/a	n/a	n/a	116.13	BM24ANS.jpg
87.129	0.514	Blank	Blank	21.244	n/a	1	3	16	n/a	56	n/a	3	n/a	n/a	n/a	n/a	116.627	n/a
87.659	0.497	happy	Picture	20.73	n/a	1	3	17	n/a	57	89	3	n/a	n/a	n/a	n/a	117.158	AF17ANS.jpg
88.156	0.514	Blank	Blank	20.216	n/a	1	3	17	n/a	57	n/a	3	n/a	n/a	n/a	n/a	117.655	n/a
88.687	0.497	happy	Picture	19.702	n/a	1	3	18	n/a	58	118	3	n/a	n/a	n/a	n/a	118.186	BM26ANS.jpg
89.184	0.514	Blank	Blank	19.188	n/a	1	3	18	n/a	58	n/a	3	n/a	n/a	n/a	n/a	118.683	n/a
89.715	0.497	happy	Picture	18.674	n/a	1	3	19	n/a	59	100	3	n/a	n/a	n/a	n/a	119.213	AF32ANS.jpg
90.212	0.514	Blank	Blank	18.16	n/a	1	3	19	n/a	59	n/a	3	n/a	n/a	n/a	n/a	119.711	n/a
90.743	0.497	happy	Picture	17.646	n/a	1	3	20	n/a	60	119	3	n/a	n/a	n/a	n/a	120.241	BM28ANS.jpg
91.24	0.514	Blank	Blank	17.132	n/a	1	3	20	n/a	60	n/a	3	n/a	n/a	n/a	n/a	120.739	n/a
91.77	10.014	ITI	Fixation+	7.102	n/a	1	n/a	n/a	n/a	n/a	n/a	n/a	n/a	n/a	n/a	n/a	121.269	n/a
108.886	n/a	ConfirmRating	Rate	n/a	7.096	1	n/a	n/a	0	n/a	n/a	n/a	2	Happy	24	49	138.385	n/a
113.155	n/a	ConfirmRating	Rate	n/a	4.244	1	n/a	n/a	1	n/a	n/a	n/a	3	Happy	50	50	142.654	n/a
113.174	10.014	ITI	Fixation+	95.898	n/a	2	n/a	n/a	n/a	n/a	n/a	n/a	n/a	n/a	n/a	n/a	142.673	n/a
123.204	0.497	angry	Picture	95.384	n/a	2	4	1	n/a	61	79	2	n/a	n/a	n/a	n/a	152.703	BM28HAS.jpg
123.701	0.514	Blank	Blank	94.871	n/a	2	4	1	n/a	61	n/a	2	n/a	n/a	n/a	n/a	153.2	n/a
124.232	0.497	angry	Picture	94.357	n/a	2	4	2	n/a	62	61	2	n/a	n/a	n/a	n/a	153.731	AM01HAS.jpg
124.729	0.514	Blank	Blank	93.843	n/a	2	4	2	n/a	62	n/a	2	n/a	n/a	n/a	n/a	154.228	n/a
125.26	0.497	angry	Picture	93.329	n/a	2	4	3	n/a	63	57	2	n/a	n/a	n/a	n/a	154.758	BF28HAS.jpg
125.757	0.514	Blank	Blank	92.815	n/a	2	4	3	n/a	63	n/a	2	n/a	n/a	n/a	n/a	155.256	n/a
126.288	0.497	angry	Picture	92.301	n/a	2	4	4	n/a	64	77	2	n/a	n/a	n/a	n/a	155.786	BM25HAS.jpg
126.785	0.514	Blank	Blank	91.787	n/a	2	4	4	n/a	64	n/a	2	n/a	n/a	n/a	n/a	156.284	n/a
127.316	0.497	angry	Picture	91.273	n/a	2	4	5	n/a	65	47	2	n/a	n/a	n/a	n/a	156.814	BF11HAS.jpg
127.813	0.514	Blank	Blank	90.759	n/a	2	4	5	n/a	65	n/a	2	n/a	n/a	n/a	n/a	157.312	n/a
128.344	0.497	angry	Picture	90.245	n/a	2	4	6	n/a	66	50	2	n/a	n/a	n/a	n/a	157.842	AF18HAS.jpg
128.841	0.514	Blank	Blank	89.731	n/a	2	4	6	n/a	66	n/a	2	n/a	n/a	n/a	n/a	158.339	n/a
129.371	0.497	angry	Picture	89.217	n/a	2	4	7	n/a	67	78	2	n/a	n/a	n/a	n/a	158.87	BM26HAS.jpg
129.869	0.514	Blank	Blank	88.703	n/a	2	4	7	n/a	67	n/a	2	n/a	n/a	n/a	n/a	159.367	n/a
130.399	0.497	angry	Picture	88.189	n/a	2	4	8	n/a	68	45	2	n/a	n/a	n/a	n/a	159.898	BF07HAS.jpg
130.897	0.514	Blank	Blank	87.675	n/a	2	4	8	n/a	68	n/a	2	n/a	n/a	n/a	n/a	160.395	n/a
131.427	0.497	angry	Picture	87.161	n/a	2	4	9	n/a	69	56	2	n/a	n/a	n/a	n/a	160.926	AF26HAS.jpg
131.925	0.514	Blank	Blank	86.647	n/a	2	4	9	n/a	69	n/a	2	n/a	n/a	n/a	n/a	161.423	n/a
132.455	0.497	angry	Picture	86.133	n/a	2	4	10	n/a	70	65	2	n/a	n/a	n/a	n/a	161.954	BM06HAS.jpg
132.952	0.514	Blank	Blank	85.62	n/a	2	4	10	n/a	70	n/a	2	n/a	n/a	n/a	n/a	162.451	n/a
133.483	0.497	angry	Picture	85.106	n/a	2	4	11	n/a	71	73	2	n/a	n/a	n/a	n/a	162.982	AM21HAS.jpg
133.98	0.514	Blank	Blank	84.592	n/a	2	4	11	n/a	71	n/a	2	n/a	n/a	n/a	n/a	163.479	n/a
134.511	0.497	angry	Picture	84.078	n/a	2	4	12	n/a	72	41	2	n/a	n/a	n/a	n/a	164.01	AF01HAS.jpg
135.008	0.514	Blank	Blank	83.564	n/a	2	4	12	n/a	72	n/a	2	n/a	n/a	n/a	n/a	164.507	n/a
135.539	0.497	angry	Picture	83.05	n/a	2	4	13	n/a	73	59	2	n/a	n/a	n/a	n/a	165.037	AF31HAS.jpg
136.036	0.514	Blank	Blank	82.536	n/a	2	4	13	n/a	73	n/a	2	n/a	n/a	n/a	n/a	165.535	n/a
136.567	0.497	angry	Picture	82.022	n/a	2	4	14	n/a	74	64	2	n/a	n/a	n/a	n/a	166.065	BM05HAS.jpg
137.064	0.514	Blank	Blank	81.508	n/a	2	4	14	n/a	74	n/a	2	n/a	n/a	n/a	n/a	166.563	n/a
137.595	0.497	angry	Picture	80.994	n/a	2	4	15	n/a	75	68	2	n/a	n/a	n/a	n/a	167.093	AM09HAS.jpg
138.092	0.514	Blank	Blank	80.48	n/a	2	4	15	n/a	75	n/a	2	n/a	n/a	n/a	n/a	167.59	n/a
138.623	0.497	angry	Picture	79.966	n/a	2	4	16	n/a	76	54	2	n/a	n/a	n/a	n/a	168.121	AF23HAS.jpg
139.12	0.514	Blank	Blank	79.452	n/a	2	4	16	n/a	76	n/a	2	n/a	n/a	n/a	n/a	168.618	n/a
139.65	0.497	angry	Picture	78.938	n/a	2	4	17	n/a	77	53	2	n/a	n/a	n/a	n/a	169.149	BF22HAS.jpg
140.148	0.514	Blank	Blank	78.424	n/a	2	4	17	n/a	77	n/a	2	n/a	n/a	n/a	n/a	169.646	n/a
140.678	0.497	angry	Picture	77.91	n/a	2	4	18	n/a	78	44	2	n/a	n/a	n/a	n/a	170.177	AF05HAS.jpg
141.176	0.514	Blank	Blank	77.396	n/a	2	4	18	n/a	78	n/a	2	n/a	n/a	n/a	n/a	170.674	n/a
141.706	0.497	angry	Picture	76.882	n/a	2	4	19	n/a	79	52	2	n/a	n/a	n/a	n/a	171.205	AF21HAS.jpg
142.203	0.514	Blank	Blank	76.369	n/a	2	4	19	n/a	79	n/a	2	n/a	n/a	n/a	n/a	171.702	n/a
142.734	0.497	angry	Picture	75.855	n/a	2	4	20	n/a	80	62	2	n/a	n/a	n/a	n/a	172.233	BM03HAS.jpg
143.231	0.514	Blank	Blank	75.341	n/a	2	4	20	n/a	80	n/a	2	n/a	n/a	n/a	n/a	172.73	n/a
143.762	10.014	ITI	Fixation+	65.31	n/a	2	n/a	n/a	n/a	n/a	n/a	n/a	n/a	n/a	n/a	n/a	173.261	n/a
153.792	0.497	neutral	Picture	64.797	n/a	2	5	1	n/a	81	23	1	n/a	n/a	n/a	n/a	183.291	AM04NES.jpg
154.289	0.514	Blank	Blank	64.283	n/a	2	5	1	n/a	81	n/a	1	n/a	n/a	n/a	n/a	183.788	n/a
154.82	0.497	neutral	Picture	63.769	n/a	2	5	2	n/a	82	29	1	n/a	n/a	n/a	n/a	184.319	AM10NES.jpg
155.317	0.514	Blank	Blank	63.255	n/a	2	5	2	n/a	82	n/a	1	n/a	n/a	n/a	n/a	184.816	n/a
155.848	0.497	neutral	Picture	62.741	n/a	2	5	3	n/a	83	24	1	n/a	n/a	n/a	n/a	185.346	BM05NES.jpg
156.345	0.514	Blank	Blank	62.227	n/a	2	5	3	n/a	83	n/a	1	n/a	n/a	n/a	n/a	185.844	n/a
156.876	0.497	neutral	Picture	61.713	n/a	2	5	4	n/a	84	12	1	n/a	n/a	n/a	n/a	186.374	AF21NES.jpg
157.373	0.514	Blank	Blank	61.199	n/a	2	5	4	n/a	84	n/a	1	n/a	n/a	n/a	n/a	186.872	n/a
157.904	0.497	neutral	Picture	60.685	n/a	2	5	5	n/a	85	13	1	n/a	n/a	n/a	n/a	187.402	BF22NES.jpg
158.401	0.514	Blank	Blank	60.171	n/a	2	5	5	n/a	85	n/a	1	n/a	n/a	n/a	n/a	187.9	n/a
158.932	0.497	neutral	Picture	59.657	n/a	2	5	6	n/a	86	17	1	n/a	n/a	n/a	n/a	188.43	BF28NES.jpg
159.429	0.514	Blank	Blank	59.143	n/a	2	5	6	n/a	86	n/a	1	n/a	n/a	n/a	n/a	188.928	n/a
159.959	0.497	neutral	Picture	58.629	n/a	2	5	7	n/a	87	4	1	n/a	n/a	n/a	n/a	189.458	AF05NES.jpg
160.457	0.514	Blank	Blank	58.115	n/a	2	5	7	n/a	87	n/a	1	n/a	n/a	n/a	n/a	189.955	n/a
160.987	0.497	neutral	Picture	57.601	n/a	2	5	8	n/a	88	11	1	n/a	n/a	n/a	n/a	190.486	AF20NES.jpg
161.485	0.514	Blank	Blank	57.087	n/a	2	5	8	n/a	88	n/a	1	n/a	n/a	n/a	n/a	190.983	n/a
162.015	0.497	neutral	Picture	56.573	n/a	2	5	9	n/a	89	22	1	n/a	n/a	n/a	n/a	191.514	BM03NES.jpg
162.513	0.514	Blank	Blank	56.059	n/a	2	5	9	n/a	89	n/a	1	n/a	n/a	n/a	n/a	192.011	n/a
163.043	0.497	neutral	Picture	55.546	n/a	2	5	10	n/a	90	15	1	n/a	n/a	n/a	n/a	192.542	AF25NES.jpg
163.54	0.514	Blank	Blank	55.032	n/a	2	5	10	n/a	90	n/a	1	n/a	n/a	n/a	n/a	193.039	n/a
164.071	0.497	neutral	Picture	54.518	n/a	2	5	11	n/a	91	19	1	n/a	n/a	n/a	n/a	193.57	AF31NES.jpg
164.568	0.514	Blank	Blank	54.004	n/a	2	5	11	n/a	91	n/a	1	n/a	n/a	n/a	n/a	194.067	n/a
165.099	0.497	neutral	Picture	53.49	n/a	2	5	12	n/a	92	9	1	n/a	n/a	n/a	n/a	194.597	AF17NES.jpg
165.596	0.514	Blank	Blank	52.976	n/a	2	5	12	n/a	92	n/a	1	n/a	n/a	n/a	n/a	195.095	n/a
166.127	0.497	neutral	Picture	52.462	n/a	2	5	13	n/a	93	14	1	n/a	n/a	n/a	n/a	195.625	AF23NES.jpg
166.624	0.514	Blank	Blank	51.948	n/a	2	5	13	n/a	93	n/a	1	n/a	n/a	n/a	n/a	196.123	n/a
167.155	0.497	neutral	Picture	51.434	n/a	2	5	14	n/a	94	36	1	n/a	n/a	n/a	n/a	196.653	BM24NES.jpg
167.652	0.514	Blank	Blank	50.92	n/a	2	5	14	n/a	94	n/a	1	n/a	n/a	n/a	n/a	197.151	n/a
168.183	0.497	neutral	Picture	50.406	n/a	2	5	15	n/a	95	34	1	n/a	n/a	n/a	n/a	197.681	AM22NES.jpg
168.68	0.514	Blank	Blank	49.892	n/a	2	5	15	n/a	95	n/a	1	n/a	n/a	n/a	n/a	198.179	n/a
169.21	0.497	neutral	Picture	49.378	n/a	2	5	16	n/a	96	10	1	n/a	n/a	n/a	n/a	198.709	AF18NES.jpg
169.708	0.514	Blank	Blank	48.864	n/a	2	5	16	n/a	96	n/a	1	n/a	n/a	n/a	n/a	199.206	n/a
170.238	0.497	neutral	Picture	48.35	n/a	2	5	17	n/a	97	5	1	n/a	n/a	n/a	n/a	199.737	BF07NES.jpg
170.736	0.514	Blank	Blank	47.836	n/a	2	5	17	n/a	97	n/a	1	n/a	n/a	n/a	n/a	200.234	n/a
171.266	0.497	neutral	Picture	47.322	n/a	2	5	18	n/a	98	25	1	n/a	n/a	n/a	n/a	200.765	BM06NES.jpg
171.764	0.514	Blank	Blank	46.808	n/a	2	5	18	n/a	98	n/a	1	n/a	n/a	n/a	n/a	201.262	n/a
172.294	0.497	neutral	Picture	46.294	n/a	2	5	19	n/a	99	39	1	n/a	n/a	n/a	n/a	201.793	AM28NES.jpg
172.791	0.514	Blank	Blank	45.78	n/a	2	5	19	n/a	99	n/a	1	n/a	n/a	n/a	n/a	202.29	n/a
173.322	0.497	neutral	Picture	45.267	n/a	2	5	20	n/a	100	33	1	n/a	n/a	n/a	n/a	202.821	AM21NES.jpg
173.819	0.514	Blank	Blank	44.753	n/a	2	5	20	n/a	100	n/a	1	n/a	n/a	n/a	n/a	203.318	n/a
174.35	10.014	ITI	Fixation+	34.722	n/a	2	n/a	n/a	n/a	n/a	n/a	n/a	n/a	n/a	n/a	n/a	203.849	n/a
184.38	0.497	angry	Picture	34.208	n/a	2	6	1	n/a	101	74	2	n/a	n/a	n/a	n/a	213.879	AM22HAS.jpg
184.877	0.514	Blank	Blank	33.694	n/a	2	6	1	n/a	101	n/a	2	n/a	n/a	n/a	n/a	214.376	n/a
185.408	0.497	angry	Picture	33.181	n/a	2	6	2	n/a	102	76	2	n/a	n/a	n/a	n/a	214.907	BM24HAS.jpg
185.905	0.514	Blank	Blank	32.667	n/a	2	6	2	n/a	102	n/a	2	n/a	n/a	n/a	n/a	215.404	n/a
186.436	0.497	angry	Picture	32.153	n/a	2	6	3	n/a	103	80	2	n/a	n/a	n/a	n/a	215.935	BM35HAS.jpg
186.933	0.514	Blank	Blank	31.639	n/a	2	6	3	n/a	103	n/a	2	n/a	n/a	n/a	n/a	216.432	n/a
187.464	0.497	angry	Picture	31.125	n/a	2	6	4	n/a	104	75	2	n/a	n/a	n/a	n/a	216.962	AM23HAS.jpg
187.961	0.514	Blank	Blank	30.611	n/a	2	6	4	n/a	104	n/a	2	n/a	n/a	n/a	n/a	217.46	n/a
188.492	0.497	angry	Picture	30.097	n/a	2	6	5	n/a	105	49	2	n/a	n/a	n/a	n/a	217.99	AF17HAS.jpg
188.989	0.514	Blank	Blank	29.583	n/a	2	6	5	n/a	105	n/a	2	n/a	n/a	n/a	n/a	218.488	n/a
189.52	0.497	angry	Picture	29.069	n/a	2	6	6	n/a	106	43	2	n/a	n/a	n/a	n/a	219.018	BF04HAS.jpg
190.017	0.514	Blank	Blank	28.555	n/a	2	6	6	n/a	106	n/a	2	n/a	n/a	n/a	n/a	219.516	n/a
190.547	0.497	angry	Picture	28.041	n/a	2	6	7	n/a	107	70	2	n/a	n/a	n/a	n/a	220.046	BM11HAS.jpg
191.045	0.514	Blank	Blank	27.527	n/a	2	6	7	n/a	107	n/a	2	n/a	n/a	n/a	n/a	220.543	n/a
191.575	0.497	angry	Picture	27.013	n/a	2	6	8	n/a	108	66	2	n/a	n/a	n/a	n/a	221.074	BM07HAS.jpg
192.073	0.514	Blank	Blank	26.499	n/a	2	6	8	n/a	108	n/a	2	n/a	n/a	n/a	n/a	221.571	n/a
192.603	0.497	angry	Picture	25.985	n/a	2	6	9	n/a	109	48	2	n/a	n/a	n/a	n/a	222.102	AF14HAS.jpg
193.101	0.514	Blank	Blank	25.471	n/a	2	6	9	n/a	109	n/a	2	n/a	n/a	n/a	n/a	222.599	n/a
193.631	0.497	angry	Picture	24.958	n/a	2	6	10	n/a	110	58	2	n/a	n/a	n/a	n/a	223.13	BF29HAS.jpg
194.129	0.514	Blank	Blank	24.443	n/a	2	6	10	n/a	110	n/a	2	n/a	n/a	n/a	n/a	223.627	n/a
194.659	0.497	angry	Picture	23.93	n/a	2	6	11	n/a	111	63	2	n/a	n/a	n/a	n/a	224.158	AM04HAS.jpg
195.156	0.514	Blank	Blank	23.416	n/a	2	6	11	n/a	111	n/a	2	n/a	n/a	n/a	n/a	224.655	n/a
195.687	0.497	angry	Picture	22.902	n/a	2	6	12	n/a	112	72	2	n/a	n/a	n/a	n/a	225.185	AM14HAS.jpg
196.184	0.514	Blank	Blank	22.388	n/a	2	6	12	n/a	112	n/a	2	n/a	n/a	n/a	n/a	225.683	n/a
196.715	0.497	angry	Picture	21.874	n/a	2	6	13	n/a	113	55	2	n/a	n/a	n/a	n/a	226.213	AF25HAS.jpg
197.212	0.514	Blank	Blank	21.36	n/a	2	6	13	n/a	113	n/a	2	n/a	n/a	n/a	n/a	226.711	n/a
197.743	0.497	angry	Picture	20.846	n/a	2	6	14	n/a	114	42	2	n/a	n/a	n/a	n/a	227.241	AF03HAS.jpg
198.24	0.514	Blank	Blank	20.332	n/a	2	6	14	n/a	114	n/a	2	n/a	n/a	n/a	n/a	227.739	n/a
198.771	0.497	angry	Picture	19.818	n/a	2	6	15	n/a	115	60	2	n/a	n/a	n/a	n/a	228.269	AF32HAS.jpg
199.268	0.514	Blank	Blank	19.304	n/a	2	6	15	n/a	115	n/a	2	n/a	n/a	n/a	n/a	228.767	n/a
199.798	0.497	angry	Picture	18.79	n/a	2	6	16	n/a	116	67	2	n/a	n/a	n/a	n/a	229.297	BM08HAS.jpg
200.296	0.514	Blank	Blank	18.276	n/a	2	6	16	n/a	116	n/a	2	n/a	n/a	n/a	n/a	229.794	n/a
200.826	0.497	angry	Picture	17.762	n/a	2	6	17	n/a	117	51	2	n/a	n/a	n/a	n/a	230.325	AF20HAS.jpg
201.324	0.514	Blank	Blank	17.248	n/a	2	6	17	n/a	117	n/a	2	n/a	n/a	n/a	n/a	230.822	n/a
201.854	0.497	angry	Picture	16.734	n/a	2	6	18	n/a	118	71	2	n/a	n/a	n/a	n/a	231.353	BM12HAS.jpg
202.352	0.514	Blank	Blank	16.22	n/a	2	6	18	n/a	118	n/a	2	n/a	n/a	n/a	n/a	231.85	n/a
202.882	0.497	angry	Picture	15.707	n/a	2	6	19	n/a	119	69	2	n/a	n/a	n/a	n/a	232.381	AM10HAS.jpg
203.379	0.514	Blank	Blank	15.192	n/a	2	6	19	n/a	119	n/a	2	n/a	n/a	n/a	n/a	232.878	n/a
203.91	0.497	angry	Picture	14.679	n/a	2	6	20	n/a	120	46	2	n/a	n/a	n/a	n/a	233.409	AF09HAS.jpg
204.407	0.514	Blank	Blank	14.165	n/a	2	6	20	n/a	120	n/a	2	n/a	n/a	n/a	n/a	233.906	n/a
204.938	10.014	ITI	Fixation+	4.134	n/a	2	n/a	n/a	n/a	n/a	n/a	n/a	n/a	n/a	n/a	n/a	234.437	n/a
219.086	n/a	ConfirmRating	Rate	n/a	4.128	2	n/a	n/a	0	n/a	n/a	n/a	2	Angry	50	50	248.585	n/a
222.245	n/a	ConfirmRating	Rate	n/a	3.133	2	n/a	n/a	1	n/a	n/a	n/a	3	Angry	69	51	251.744	n/a
222.263	15.004	Rest	Picture	n/a	n/a	n/a	n/a	n/a	n/a	n/a	n/a	n/a	0	n/a	0	0	251.762	n/a
237.283	10.014	ITI	Fixation+	95.254	n/a	3	n/a	n/a	n/a	n/a	n/a	n/a	n/a	n/a	n/a	n/a	266.782	n/a
247.314	0.497	happy	Picture	94.74	n/a	3	7	1	n/a	1	108	3	n/a	n/a	n/a	n/a	276.812	AM09ANS.jpg
247.811	0.514	Blank	Blank	94.226	n/a	3	7	1	n/a	1	n/a	3	n/a	n/a	n/a	n/a	277.31	n/a
248.341	0.497	happy	Picture	93.712	n/a	3	7	2	n/a	2	99	3	n/a	n/a	n/a	n/a	277.84	AF31ANS.jpg
248.839	0.514	Blank	Blank	93.198	n/a	3	7	2	n/a	2	n/a	3	n/a	n/a	n/a	n/a	278.337	n/a
249.369	0.497	happy	Picture	92.684	n/a	3	7	3	n/a	3	98	3	n/a	n/a	n/a	n/a	278.868	BF29ANS.jpg
249.867	0.514	Blank	Blank	92.17	n/a	3	7	3	n/a	3	n/a	3	n/a	n/a	n/a	n/a	279.365	n/a
250.397	0.497	happy	Picture	91.656	n/a	3	7	4	n/a	4	107	3	n/a	n/a	n/a	n/a	279.896	BM08ANS.jpg
250.895	0.514	Blank	Blank	91.142	n/a	3	7	4	n/a	4	n/a	3	n/a	n/a	n/a	n/a	280.393	n/a
251.425	0.497	happy	Picture	90.628	n/a	3	7	5	n/a	5	104	3	n/a	n/a	n/a	n/a	280.924	BM05ANS.jpg
251.923	0.514	Blank	Blank	90.114	n/a	3	7	5	n/a	5	n/a	3	n/a	n/a	n/a	n/a	281.421	n/a
252.453	0.497	happy	Picture	89.6	n/a	3	7	6	n/a	6	101	3	n/a	n/a	n/a	n/a	281.952	AM01ANS.jpg
252.95	0.514	Blank	Blank	89.086	n/a	3	7	6	n/a	6	n/a	3	n/a	n/a	n/a	n/a	282.449	n/a
253.481	0.497	happy	Picture	88.572	n/a	3	7	7	n/a	7	103	3	n/a	n/a	n/a	n/a	282.979	AM04ANS.jpg
253.978	0.514	Blank	Blank	88.059	n/a	3	7	7	n/a	7	n/a	3	n/a	n/a	n/a	n/a	283.477	n/a
254.509	0.497	happy	Picture	87.544	n/a	3	7	8	n/a	8	111	3	n/a	n/a	n/a	n/a	284.007	BM12ANS.jpg
255.006	0.514	Blank	Blank	87.031	n/a	3	7	8	n/a	8	n/a	3	n/a	n/a	n/a	n/a	284.505	n/a
255.537	0.497	happy	Picture	86.517	n/a	3	7	9	n/a	9	110	3	n/a	n/a	n/a	n/a	285.035	AM11ANS.jpg
256.034	0.514	Blank	Blank	86.003	n/a	3	7	9	n/a	9	n/a	3	n/a	n/a	n/a	n/a	285.533	n/a
256.565	0.497	happy	Picture	85.489	n/a	3	7	10	n/a	10	85	3	n/a	n/a	n/a	n/a	286.063	BF07ANS.jpg
257.062	0.514	Blank	Blank	84.975	n/a	3	7	10	n/a	10	n/a	3	n/a	n/a	n/a	n/a	286.56	n/a
257.592	0.497	happy	Picture	84.461	n/a	3	7	11	n/a	11	87	3	n/a	n/a	n/a	n/a	287.091	BF11ANS.jpg
258.09	0.514	Blank	Blank	83.947	n/a	3	7	11	n/a	11	n/a	3	n/a	n/a	n/a	n/a	287.588	n/a
258.62	0.497	happy	Picture	83.433	n/a	3	7	12	n/a	12	91	3	n/a	n/a	n/a	n/a	288.119	AF20ANS.jpg
259.118	0.514	Blank	Blank	82.919	n/a	3	7	12	n/a	12	n/a	3	n/a	n/a	n/a	n/a	288.616	n/a
259.648	0.497	happy	Picture	82.405	n/a	3	7	13	n/a	13	115	3	n/a	n/a	n/a	n/a	289.147	AM23ANS.jpg
260.146	0.514	Blank	Blank	81.891	n/a	3	7	13	n/a	13	n/a	3	n/a	n/a	n/a	n/a	289.644	n/a
260.676	0.497	happy	Picture	81.377	n/a	3	7	14	n/a	14	97	3	n/a	n/a	n/a	n/a	290.175	BF28ANS.jpg
261.173	0.514	Blank	Blank	80.863	n/a	3	7	14	n/a	14	n/a	3	n/a	n/a	n/a	n/a	290.672	n/a
261.704	0.497	happy	Picture	80.349	n/a	3	7	15	n/a	15	82	3	n/a	n/a	n/a	n/a	291.203	AF03ANS.jpg
262.201	0.514	Blank	Blank	79.835	n/a	3	7	15	n/a	15	n/a	3	n/a	n/a	n/a	n/a	291.7	n/a
262.732	0.497	happy	Picture	79.321	n/a	3	7	16	n/a	16	96	3	n/a	n/a	n/a	n/a	292.231	AF26ANS.jpg
263.229	0.514	Blank	Blank	78.808	n/a	3	7	16	n/a	16	n/a	3	n/a	n/a	n/a	n/a	292.728	n/a
263.76	0.497	happy	Picture	78.293	n/a	3	7	17	n/a	17	109	3	n/a	n/a	n/a	n/a	293.258	AM10ANS.jpg
264.257	0.514	Blank	Blank	77.78	n/a	3	7	17	n/a	17	n/a	3	n/a	n/a	n/a	n/a	293.756	n/a
264.788	0.497	happy	Picture	77.266	n/a	3	7	18	n/a	18	114	3	n/a	n/a	n/a	n/a	294.286	AM22ANS.jpg
265.285	0.514	Blank	Blank	76.752	n/a	3	7	18	n/a	18	n/a	3	n/a	n/a	n/a	n/a	294.784	n/a
265.816	0.497	happy	Picture	76.238	n/a	3	7	19	n/a	19	120	3	n/a	n/a	n/a	n/a	295.314	AM35ANS.jpg
266.313	0.514	Blank	Blank	75.724	n/a	3	7	19	n/a	19	n/a	3	n/a	n/a	n/a	n/a	295.812	n/a
266.844	0.497	happy	Picture	75.21	n/a	3	7	20	n/a	20	81	3	n/a	n/a	n/a	n/a	296.342	AF01ANS.jpg
267.341	0.514	Blank	Blank	74.696	n/a	3	7	20	n/a	20	n/a	3	n/a	n/a	n/a	n/a	296.839	n/a
267.871	10.014	ITI	Fixation+	64.666	n/a	3	n/a	n/a	n/a	n/a	n/a	n/a	n/a	n/a	n/a	n/a	297.37	n/a
277.902	0.497	neutral	Picture	64.152	n/a	3	8	1	n/a	21	28	1	n/a	n/a	n/a	n/a	307.4	AM09NES.jpg
278.399	0.514	Blank	Blank	63.638	n/a	3	8	1	n/a	21	n/a	1	n/a	n/a	n/a	n/a	307.898	n/a
278.929	0.497	neutral	Picture	63.124	n/a	3	8	2	n/a	22	27	1	n/a	n/a	n/a	n/a	308.428	BM08NES.jpg
279.427	0.514	Blank	Blank	62.61	n/a	3	8	2	n/a	22	n/a	1	n/a	n/a	n/a	n/a	308.925	n/a
279.957	0.497	neutral	Picture	62.096	n/a	3	8	3	n/a	23	16	1	n/a	n/a	n/a	n/a	309.456	AF26NES.jpg
280.455	0.514	Blank	Blank	61.582	n/a	3	8	3	n/a	23	n/a	1	n/a	n/a	n/a	n/a	309.953	n/a
280.985	0.497	neutral	Picture	61.068	n/a	3	8	4	n/a	24	3	1	n/a	n/a	n/a	n/a	310.484	BF04NES.jpg
281.483	0.514	Blank	Blank	60.554	n/a	3	8	4	n/a	24	n/a	1	n/a	n/a	n/a	n/a	310.981	n/a
282.013	0.497	neutral	Picture	60.04	n/a	3	8	5	n/a	25	32	1	n/a	n/a	n/a	n/a	311.512	AM14NES.jpg
282.51	0.514	Blank	Blank	59.526	n/a	3	8	5	n/a	25	n/a	1	n/a	n/a	n/a	n/a	312.009	n/a
283.041	0.497	neutral	Picture	59.012	n/a	3	8	6	n/a	26	37	1	n/a	n/a	n/a	n/a	312.54	BM25NES.jpg
283.538	0.514	Blank	Blank	58.498	n/a	3	8	6	n/a	26	n/a	1	n/a	n/a	n/a	n/a	313.037	n/a
284.069	0.497	neutral	Picture	57.984	n/a	3	8	7	n/a	27	15	1	n/a	n/a	n/a	n/a	313.567	AF25NES.jpg
284.566	0.514	Blank	Blank	57.471	n/a	3	8	7	n/a	27	n/a	1	n/a	n/a	n/a	n/a	314.065	n/a
285.097	0.497	neutral	Picture	56.957	n/a	3	8	8	n/a	28	23	1	n/a	n/a	n/a	n/a	314.595	AM04NES.jpg
285.594	0.514	Blank	Blank	56.443	n/a	3	8	8	n/a	28	n/a	1	n/a	n/a	n/a	n/a	315.093	n/a
286.125	0.497	neutral	Picture	55.929	n/a	3	8	9	n/a	29	34	1	n/a	n/a	n/a	n/a	315.623	AM22NES.jpg
286.622	0.514	Blank	Blank	55.415	n/a	3	8	9	n/a	29	n/a	1	n/a	n/a	n/a	n/a	316.121	n/a
287.153	0.497	neutral	Picture	54.901	n/a	3	8	10	n/a	30	24	1	n/a	n/a	n/a	n/a	316.651	BM05NES.jpg
287.65	0.514	Blank	Blank	54.387	n/a	3	8	10	n/a	30	n/a	1	n/a	n/a	n/a	n/a	317.149	n/a
288.18	0.497	neutral	Picture	53.873	n/a	3	8	11	n/a	31	12	1	n/a	n/a	n/a	n/a	317.679	AF21NES.jpg
288.678	0.514	Blank	Blank	53.359	n/a	3	8	11	n/a	31	n/a	1	n/a	n/a	n/a	n/a	318.176	n/a
289.208	0.497	neutral	Picture	52.845	n/a	3	8	12	n/a	32	6	1	n/a	n/a	n/a	n/a	318.707	AF09NES.jpg
289.706	0.514	Blank	Blank	52.331	n/a	3	8	12	n/a	32	n/a	1	n/a	n/a	n/a	n/a	319.204	n/a
290.236	0.497	neutral	Picture	51.817	n/a	3	8	13	n/a	33	17	1	n/a	n/a	n/a	n/a	319.735	BF28NES.jpg
290.734	0.514	Blank	Blank	51.303	n/a	3	8	13	n/a	33	n/a	1	n/a	n/a	n/a	n/a	320.232	n/a
291.264	0.497	neutral	Picture	50.789	n/a	3	8	14	n/a	34	2	1	n/a	n/a	n/a	n/a	320.763	AF03NES.jpg
291.762	0.514	Blank	Blank	50.275	n/a	3	8	14	n/a	34	n/a	1	n/a	n/a	n/a	n/a	321.26	n/a
292.292	0.497	neutral	Picture	49.761	n/a	3	8	15	n/a	35	9	1	n/a	n/a	n/a	n/a	321.791	AF17NES.jpg
292.789	0.514	Blank	Blank	49.247	n/a	3	8	15	n/a	35	n/a	1	n/a	n/a	n/a	n/a	322.288	n/a
293.32	0.497	neutral	Picture	48.733	n/a	3	8	16	n/a	36	25	1	n/a	n/a	n/a	n/a	322.818	BM06NES.jpg
293.817	0.514	Blank	Blank	48.219	n/a	3	8	16	n/a	36	n/a	1	n/a	n/a	n/a	n/a	323.316	n/a
294.348	0.497	neutral	Picture	47.705	n/a	3	8	17	n/a	37	8	1	n/a	n/a	n/a	n/a	323.846	AF14NES.jpg
294.845	0.514	Blank	Blank	47.192	n/a	3	8	17	n/a	37	n/a	1	n/a	n/a	n/a	n/a	324.344	n/a
295.376	0.497	neutral	Picture	46.678	n/a	3	8	18	n/a	38	19	1	n/a	n/a	n/a	n/a	324.874	AF31NES.jpg
295.873	0.514	Blank	Blank	46.164	n/a	3	8	18	n/a	38	n/a	1	n/a	n/a	n/a	n/a	325.372	n/a
296.404	0.497	neutral	Picture	45.65	n/a	3	8	19	n/a	39	14	1	n/a	n/a	n/a	n/a	325.902	AF23NES.jpg
296.901	0.514	Blank	Blank	45.136	n/a	3	8	19	n/a	39	n/a	1	n/a	n/a	n/a	n/a	326.4	n/a
297.431	0.497	neutral	Picture	44.622	n/a	3	8	20	n/a	40	4	1	n/a	n/a	n/a	n/a	326.93	AF05NES.jpg
297.929	0.514	Blank	Blank	44.108	n/a	3	8	20	n/a	40	n/a	1	n/a	n/a	n/a	n/a	327.428	n/a
298.459	10.014	ITI	Fixation+	34.078	n/a	3	n/a	n/a	n/a	n/a	n/a	n/a	n/a	n/a	n/a	n/a	327.958	n/a
308.49	0.497	happy	Picture	33.564	n/a	3	9	1	n/a	41	84	3	n/a	n/a	n/a	n/a	337.988	AF05ANS.jpg
308.987	0.514	Blank	Blank	33.05	n/a	3	9	1	n/a	41	n/a	3	n/a	n/a	n/a	n/a	338.486	n/a
309.517	0.497	happy	Picture	32.536	n/a	3	9	2	n/a	42	92	3	n/a	n/a	n/a	n/a	339.016	AF21ANS.jpg
310.015	0.514	Blank	Blank	32.022	n/a	3	9	2	n/a	42	n/a	3	n/a	n/a	n/a	n/a	339.514	n/a
310.545	0.497	happy	Picture	31.508	n/a	3	9	3	n/a	43	86	3	n/a	n/a	n/a	n/a	340.044	AF09ANS.jpg
311.043	0.514	Blank	Blank	30.994	n/a	3	9	3	n/a	43	n/a	3	n/a	n/a	n/a	n/a	340.541	n/a
311.573	0.497	happy	Picture	30.48	n/a	3	9	4	n/a	44	93	3	n/a	n/a	n/a	n/a	341.072	BF22ANS.jpg
312.071	0.514	Blank	Blank	29.966	n/a	3	9	4	n/a	44	n/a	3	n/a	n/a	n/a	n/a	341.569	n/a
312.601	0.497	happy	Picture	29.452	n/a	3	9	5	n/a	45	88	3	n/a	n/a	n/a	n/a	342.1	AF14ANS.jpg
313.099	0.514	Blank	Blank	28.938	n/a	3	9	5	n/a	45	n/a	3	n/a	n/a	n/a	n/a	342.597	n/a
313.629	0.497	happy	Picture	28.424	n/a	3	9	6	n/a	46	113	3	n/a	n/a	n/a	n/a	343.128	AM21ANS.jpg
314.126	0.514	Blank	Blank	27.91	n/a	3	9	6	n/a	46	n/a	3	n/a	n/a	n/a	n/a	343.625	n/a
314.657	0.497	happy	Picture	27.396	n/a	3	9	7	n/a	47	95	3	n/a	n/a	n/a	n/a	344.156	AF25ANS.jpg
315.154	0.514	Blank	Blank	26.882	n/a	3	9	7	n/a	47	n/a	3	n/a	n/a	n/a	n/a	344.653	n/a
315.685	0.497	happy	Picture	26.368	n/a	3	9	8	n/a	48	102	3	n/a	n/a	n/a	n/a	345.183	BM03ANS.jpg
316.182	0.514	Blank	Blank	25.855	n/a	3	9	8	n/a	48	n/a	3	n/a	n/a	n/a	n/a	345.681	n/a
316.713	0.497	happy	Picture	25.341	n/a	3	9	9	n/a	49	112	3	n/a	n/a	n/a	n/a	346.211	AM14ANS.jpg
317.21	0.514	Blank	Blank	24.827	n/a	3	9	9	n/a	49	n/a	3	n/a	n/a	n/a	n/a	346.709	n/a
317.741	0.497	happy	Picture	24.313	n/a	3	9	10	n/a	50	83	3	n/a	n/a	n/a	n/a	347.239	BF04ANS.jpg
318.238	0.514	Blank	Blank	23.799	n/a	3	9	10	n/a	50	n/a	3	n/a	n/a	n/a	n/a	347.737	n/a
318.769	0.497	happy	Picture	23.285	n/a	3	9	11	n/a	51	90	3	n/a	n/a	n/a	n/a	348.267	AF18ANS.jpg
319.266	0.514	Blank	Blank	22.771	n/a	3	9	11	n/a	51	n/a	3	n/a	n/a	n/a	n/a	348.764	n/a
319.796	0.497	happy	Picture	22.257	n/a	3	9	12	n/a	52	117	3	n/a	n/a	n/a	n/a	349.295	BM25ANS.jpg
320.294	0.514	Blank	Blank	21.743	n/a	3	9	12	n/a	52	n/a	3	n/a	n/a	n/a	n/a	349.792	n/a
320.824	0.497	happy	Picture	21.229	n/a	3	9	13	n/a	53	94	3	n/a	n/a	n/a	n/a	350.323	AF23ANS.jpg
321.322	0.514	Blank	Blank	20.715	n/a	3	9	13	n/a	53	n/a	3	n/a	n/a	n/a	n/a	350.82	n/a
321.852	0.497	happy	Picture	20.201	n/a	3	9	14	n/a	54	106	3	n/a	n/a	n/a	n/a	351.351	AM07ANS.jpg
322.35	0.514	Blank	Blank	19.687	n/a	3	9	14	n/a	54	n/a	3	n/a	n/a	n/a	n/a	351.848	n/a
322.88	0.497	happy	Picture	19.173	n/a	3	9	15	n/a	55	105	3	n/a	n/a	n/a	n/a	352.379	BM06ANS.jpg
323.377	0.514	Blank	Blank	18.659	n/a	3	9	15	n/a	55	n/a	3	n/a	n/a	n/a	n/a	352.876	n/a
323.908	0.497	happy	Picture	18.145	n/a	3	9	16	n/a	56	116	3	n/a	n/a	n/a	n/a	353.407	BM24ANS.jpg
324.405	0.514	Blank	Blank	17.631	n/a	3	9	16	n/a	56	n/a	3	n/a	n/a	n/a	n/a	353.904	n/a
324.936	0.497	happy	Picture	17.118	n/a	3	9	17	n/a	57	89	3	n/a	n/a	n/a	n/a	354.435	AF17ANS.jpg
325.433	0.514	Blank	Blank	16.603	n/a	3	9	17	n/a	57	n/a	3	n/a	n/a	n/a	n/a	354.932	n/a
325.964	0.497	happy	Picture	16.09	n/a	3	9	18	n/a	58	118	3	n/a	n/a	n/a	n/a	355.462	BM26ANS.jpg
326.461	0.514	Blank	Blank	15.576	n/a	3	9	18	n/a	58	n/a	3	n/a	n/a	n/a	n/a	355.96	n/a
326.992	0.497	happy	Picture	15.062	n/a	3	9	19	n/a	59	100	3	n/a	n/a	n/a	n/a	356.49	AF32ANS.jpg
327.489	0.514	Blank	Blank	14.548	n/a	3	9	19	n/a	59	n/a	3	n/a	n/a	n/a	n/a	356.988	n/a
328.019	0.497	happy	Picture	14.034	n/a	3	9	20	n/a	60	119	3	n/a	n/a	n/a	n/a	357.518	BM28ANS.jpg
328.517	0.514	Blank	Blank	13.52	n/a	3	9	20	n/a	60	n/a	3	n/a	n/a	n/a	n/a	358.015	n/a
329.047	10.014	ITI	Fixation+	3.49	n/a	3	n/a	n/a	n/a	n/a	n/a	n/a	n/a	n/a	n/a	n/a	358.546	n/a
342.551	n/a	ConfirmRating	Rate	n/a	3.481	3	n/a	n/a	0	n/a	n/a	n/a	2	Happy	50	50	372.049	n/a
352.425	n/a	ConfirmRating	Rate	n/a	9.864	3	n/a	n/a	1	n/a	n/a	n/a	3	Happy	42	50	381.923	n/a
352.457	10.014	ITI	Fixation+	95.882	n/a	4	n/a	n/a	n/a	n/a	n/a	n/a	n/a	n/a	n/a	n/a	381.955	n/a
362.487	0.497	angry	Picture	95.368	n/a	4	10	1	n/a	61	79	2	n/a	n/a	n/a	n/a	391.986	BM28HAS.jpg
362.984	0.514	Blank	Blank	94.854	n/a	4	10	1	n/a	61	n/a	2	n/a	n/a	n/a	n/a	392.483	n/a
363.515	0.497	angry	Picture	94.34	n/a	4	10	2	n/a	62	61	2	n/a	n/a	n/a	n/a	393.014	AM01HAS.jpg
364.012	0.514	Blank	Blank	93.826	n/a	4	10	2	n/a	62	n/a	2	n/a	n/a	n/a	n/a	393.511	n/a
364.543	0.497	angry	Picture	93.312	n/a	4	10	3	n/a	63	57	2	n/a	n/a	n/a	n/a	394.041	BF28HAS.jpg
365.04	0.514	Blank	Blank	92.798	n/a	4	10	3	n/a	63	n/a	2	n/a	n/a	n/a	n/a	394.539	n/a
365.571	0.497	angry	Picture	92.284	n/a	4	10	4	n/a	64	77	2	n/a	n/a	n/a	n/a	395.069	BM25HAS.jpg
366.068	0.514	Blank	Blank	91.77	n/a	4	10	4	n/a	64	n/a	2	n/a	n/a	n/a	n/a	395.567	n/a
366.599	0.497	angry	Picture	91.257	n/a	4	10	5	n/a	65	47	2	n/a	n/a	n/a	n/a	396.097	BF11HAS.jpg
367.096	0.514	Blank	Blank	90.743	n/a	4	10	5	n/a	65	n/a	2	n/a	n/a	n/a	n/a	396.594	n/a
367.626	0.497	angry	Picture	90.229	n/a	4	10	6	n/a	66	50	2	n/a	n/a	n/a	n/a	397.125	AF18HAS.jpg
368.124	0.514	Blank	Blank	89.715	n/a	4	10	6	n/a	66	n/a	2	n/a	n/a	n/a	n/a	397.622	n/a
368.654	0.497	angry	Picture	89.201	n/a	4	10	7	n/a	67	78	2	n/a	n/a	n/a	n/a	398.153	BM26HAS.jpg
369.152	0.514	Blank	Blank	88.687	n/a	4	10	7	n/a	67	n/a	2	n/a	n/a	n/a	n/a	398.65	n/a
369.682	0.497	angry	Picture	88.173	n/a	4	10	8	n/a	68	45	2	n/a	n/a	n/a	n/a	399.181	BF07HAS.jpg
370.18	0.514	Blank	Blank	87.659	n/a	4	10	8	n/a	68	n/a	2	n/a	n/a	n/a	n/a	399.678	n/a
370.71	0.497	angry	Picture	87.145	n/a	4	10	9	n/a	69	56	2	n/a	n/a	n/a	n/a	400.209	AF26HAS.jpg
371.207	0.514	Blank	Blank	86.631	n/a	4	10	9	n/a	69	n/a	2	n/a	n/a	n/a	n/a	400.706	n/a
371.738	0.497	angry	Picture	86.117	n/a	4	10	10	n/a	70	65	2	n/a	n/a	n/a	n/a	401.237	BM06HAS.jpg
372.235	0.514	Blank	Blank	85.603	n/a	4	10	10	n/a	70	n/a	2	n/a	n/a	n/a	n/a	401.734	n/a
372.766	0.497	angry	Picture	85.089	n/a	4	10	11	n/a	71	73	2	n/a	n/a	n/a	n/a	402.264	AM21HAS.jpg
373.263	0.514	Blank	Blank	84.575	n/a	4	10	11	n/a	71	n/a	2	n/a	n/a	n/a	n/a	402.762	n/a
373.794	0.497	angry	Picture	84.061	n/a	4	10	12	n/a	72	41	2	n/a	n/a	n/a	n/a	403.292	AF01HAS.jpg
374.291	0.514	Blank	Blank	83.547	n/a	4	10	12	n/a	72	n/a	2	n/a	n/a	n/a	n/a	403.79	n/a
374.822	0.497	angry	Picture	83.033	n/a	4	10	13	n/a	73	59	2	n/a	n/a	n/a	n/a	404.32	AF31HAS.jpg
375.319	0.514	Blank	Blank	82.519	n/a	4	10	13	n/a	73	n/a	2	n/a	n/a	n/a	n/a	404.818	n/a
375.85	0.497	angry	Picture	82.005	n/a	4	10	14	n/a	74	64	2	n/a	n/a	n/a	n/a	405.348	BM05HAS.jpg
376.347	0.514	Blank	Blank	81.492	n/a	4	10	14	n/a	74	n/a	2	n/a	n/a	n/a	n/a	405.846	n/a
376.877	0.497	angry	Picture	80.978	n/a	4	10	15	n/a	75	68	2	n/a	n/a	n/a	n/a	406.376	AM09HAS.jpg
377.375	0.514	Blank	Blank	80.464	n/a	4	10	15	n/a	75	n/a	2	n/a	n/a	n/a	n/a	406.873	n/a
377.905	0.497	angry	Picture	79.95	n/a	4	10	16	n/a	76	54	2	n/a	n/a	n/a	n/a	407.404	AF23HAS.jpg
378.403	0.514	Blank	Blank	79.436	n/a	4	10	16	n/a	76	n/a	2	n/a	n/a	n/a	n/a	407.901	n/a
378.933	0.497	angry	Picture	78.922	n/a	4	10	17	n/a	77	53	2	n/a	n/a	n/a	n/a	408.432	BF22HAS.jpg
379.431	0.514	Blank	Blank	78.408	n/a	4	10	17	n/a	77	n/a	2	n/a	n/a	n/a	n/a	408.929	n/a
379.961	0.497	angry	Picture	77.894	n/a	4	10	18	n/a	78	44	2	n/a	n/a	n/a	n/a	409.46	AF05HAS.jpg
380.459	0.514	Blank	Blank	77.38	n/a	4	10	18	n/a	78	n/a	2	n/a	n/a	n/a	n/a	409.957	n/a
380.989	0.497	angry	Picture	76.866	n/a	4	10	19	n/a	79	52	2	n/a	n/a	n/a	n/a	410.488	AF21HAS.jpg
381.486	0.514	Blank	Blank	76.352	n/a	4	10	19	n/a	79	n/a	2	n/a	n/a	n/a	n/a	410.985	n/a
382.017	0.497	angry	Picture	75.838	n/a	4	10	20	n/a	80	62	2	n/a	n/a	n/a	n/a	411.515	BM03HAS.jpg
382.514	0.514	Blank	Blank	75.324	n/a	4	10	20	n/a	80	n/a	2	n/a	n/a	n/a	n/a	412.013	n/a
383.045	10.014	ITI	Fixation+	65.294	n/a	4	n/a	n/a	n/a	n/a	n/a	n/a	n/a	n/a	n/a	n/a	412.543	n/a
393.075	0.497	neutral	Picture	64.78	n/a	4	11	1	n/a	81	23	1	n/a	n/a	n/a	n/a	422.574	AM04NES.jpg
393.572	0.514	Blank	Blank	64.266	n/a	4	11	1	n/a	81	n/a	1	n/a	n/a	n/a	n/a	423.071	n/a
394.103	0.497	neutral	Picture	63.752	n/a	4	11	2	n/a	82	29	1	n/a	n/a	n/a	n/a	423.601	AM10NES.jpg
394.6	0.514	Blank	Blank	63.238	n/a	4	11	2	n/a	82	n/a	1	n/a	n/a	n/a	n/a	424.099	n/a
395.131	0.497	neutral	Picture	62.724	n/a	4	11	3	n/a	83	24	1	n/a	n/a	n/a	n/a	424.629	BM05NES.jpg
395.628	0.514	Blank	Blank	62.21	n/a	4	11	3	n/a	83	n/a	1	n/a	n/a	n/a	n/a	425.127	n/a
396.159	0.497	neutral	Picture	61.696	n/a	4	11	4	n/a	84	12	1	n/a	n/a	n/a	n/a	425.657	AF21NES.jpg
396.656	0.514	Blank	Blank	61.183	n/a	4	11	4	n/a	84	n/a	1	n/a	n/a	n/a	n/a	426.155	n/a
397.187	0.497	neutral	Picture	60.668	n/a	4	11	5	n/a	85	13	1	n/a	n/a	n/a	n/a	426.685	BF22NES.jpg
397.684	0.514	Blank	Blank	60.155	n/a	4	11	5	n/a	85	n/a	1	n/a	n/a	n/a	n/a	427.183	n/a
398.214	0.497	neutral	Picture	59.641	n/a	4	11	6	n/a	86	17	1	n/a	n/a	n/a	n/a	427.713	BF28NES.jpg
398.712	0.514	Blank	Blank	59.127	n/a	4	11	6	n/a	86	n/a	1	n/a	n/a	n/a	n/a	428.211	n/a
399.242	0.497	neutral	Picture	58.613	n/a	4	11	7	n/a	87	4	1	n/a	n/a	n/a	n/a	428.741	AF05NES.jpg
399.74	0.514	Blank	Blank	58.099	n/a	4	11	7	n/a	87	n/a	1	n/a	n/a	n/a	n/a	429.238	n/a
400.27	0.497	neutral	Picture	57.585	n/a	4	11	8	n/a	88	11	1	n/a	n/a	n/a	n/a	429.769	AF20NES.jpg
400.768	0.514	Blank	Blank	57.071	n/a	4	11	8	n/a	88	n/a	1	n/a	n/a	n/a	n/a	430.266	n/a
401.298	0.497	neutral	Picture	56.557	n/a	4	11	9	n/a	89	22	1	n/a	n/a	n/a	n/a	430.797	BM03NES.jpg
401.796	0.514	Blank	Blank	56.043	n/a	4	11	9	n/a	89	n/a	1	n/a	n/a	n/a	n/a	431.294	n/a
402.326	0.497	neutral	Picture	55.529	n/a	4	11	10	n/a	90	15	1	n/a	n/a	n/a	n/a	431.825	AF25NES.jpg
402.823	0.514	Blank	Blank	55.015	n/a	4	11	10	n/a	90	n/a	1	n/a	n/a	n/a	n/a	432.322	n/a
403.354	0.497	neutral	Picture	54.501	n/a	4	11	11	n/a	91	19	1	n/a	n/a	n/a	n/a	432.853	AF31NES.jpg
403.851	0.514	Blank	Blank	53.987	n/a	4	11	11	n/a	91	n/a	1	n/a	n/a	n/a	n/a	433.35	n/a
404.382	0.497	neutral	Picture	53.473	n/a	4	11	12	n/a	92	9	1	n/a	n/a	n/a	n/a	433.88	AF17NES.jpg
404.879	0.514	Blank	Blank	52.959	n/a	4	11	12	n/a	92	n/a	1	n/a	n/a	n/a	n/a	434.378	n/a
405.41	0.497	neutral	Picture	52.445	n/a	4	11	13	n/a	93	14	1	n/a	n/a	n/a	n/a	434.908	AF23NES.jpg
405.907	0.514	Blank	Blank	51.931	n/a	4	11	13	n/a	93	n/a	1	n/a	n/a	n/a	n/a	435.406	n/a
406.438	0.497	neutral	Picture	51.417	n/a	4	11	14	n/a	94	36	1	n/a	n/a	n/a	n/a	435.936	BM24NES.jpg
406.935	0.514	Blank	Blank	50.904	n/a	4	11	14	n/a	94	n/a	1	n/a	n/a	n/a	n/a	436.434	n/a
407.465	0.497	neutral	Picture	50.39	n/a	4	11	15	n/a	95	34	1	n/a	n/a	n/a	n/a	436.964	AM22NES.jpg
407.963	0.514	Blank	Blank	49.876	n/a	4	11	15	n/a	95	n/a	1	n/a	n/a	n/a	n/a	437.462	n/a
408.493	0.497	neutral	Picture	49.362	n/a	4	11	16	n/a	96	10	1	n/a	n/a	n/a	n/a	437.992	AF18NES.jpg
408.991	0.514	Blank	Blank	48.848	n/a	4	11	16	n/a	96	n/a	1	n/a	n/a	n/a	n/a	438.489	n/a
409.521	0.497	neutral	Picture	48.334	n/a	4	11	17	n/a	97	5	1	n/a	n/a	n/a	n/a	439.02	BF07NES.jpg
410.019	0.514	Blank	Blank	47.82	n/a	4	11	17	n/a	97	n/a	1	n/a	n/a	n/a	n/a	439.517	n/a
410.549	0.497	neutral	Picture	47.306	n/a	4	11	18	n/a	98	25	1	n/a	n/a	n/a	n/a	440.048	BM06NES.jpg
411.046	0.514	Blank	Blank	46.792	n/a	4	11	18	n/a	98	n/a	1	n/a	n/a	n/a	n/a	440.545	n/a
411.577	0.497	neutral	Picture	46.278	n/a	4	11	19	n/a	99	39	1	n/a	n/a	n/a	n/a	441.076	AM28NES.jpg
412.074	0.514	Blank	Blank	45.764	n/a	4	11	19	n/a	99	n/a	1	n/a	n/a	n/a	n/a	441.573	n/a
412.605	0.497	neutral	Picture	45.25	n/a	4	11	20	n/a	100	33	1	n/a	n/a	n/a	n/a	442.104	AM21NES.jpg
413.102	0.514	Blank	Blank	44.736	n/a	4	11	20	n/a	100	n/a	1	n/a	n/a	n/a	n/a	442.601	n/a
413.633	10.014	ITI	Fixation+	34.706	n/a	4	n/a	n/a	n/a	n/a	n/a	n/a	n/a	n/a	n/a	n/a	443.132	n/a
423.663	0.497	angry	Picture	34.192	n/a	4	12	1	n/a	101	74	2	n/a	n/a	n/a	n/a	453.162	AM22HAS.jpg
424.16	0.514	Blank	Blank	33.678	n/a	4	12	1	n/a	101	n/a	2	n/a	n/a	n/a	n/a	453.659	n/a
424.691	0.497	angry	Picture	33.164	n/a	4	12	2	n/a	102	76	2	n/a	n/a	n/a	n/a	454.19	BM24HAS.jpg
425.188	0.514	Blank	Blank	32.65	n/a	4	12	2	n/a	102	n/a	2	n/a	n/a	n/a	n/a	454.687	n/a
425.719	0.497	angry	Picture	32.136	n/a	4	12	3	n/a	103	80	2	n/a	n/a	n/a	n/a	455.217	BM35HAS.jpg
426.216	0.514	Blank	Blank	31.622	n/a	4	12	3	n/a	103	n/a	2	n/a	n/a	n/a	n/a	455.715	n/a
426.747	0.497	angry	Picture	31.108	n/a	4	12	4	n/a	104	75	2	n/a	n/a	n/a	n/a	456.245	AM23HAS.jpg
427.244	0.514	Blank	Blank	30.594	n/a	4	12	4	n/a	104	n/a	2	n/a	n/a	n/a	n/a	456.743	n/a
427.775	0.497	angry	Picture	30.08	n/a	4	12	5	n/a	105	49	2	n/a	n/a	n/a	n/a	457.273	AF17HAS.jpg
428.272	0.514	Blank	Blank	29.567	n/a	4	12	5	n/a	105	n/a	2	n/a	n/a	n/a	n/a	457.771	n/a
428.803	0.497	angry	Picture	29.053	n/a	4	12	6	n/a	106	43	2	n/a	n/a	n/a	n/a	458.301	BF04HAS.jpg
429.3	0.514	Blank	Blank	28.539	n/a	4	12	6	n/a	106	n/a	2	n/a	n/a	n/a	n/a	458.798	n/a
429.83	0.497	angry	Picture	28.025	n/a	4	12	7	n/a	107	70	2	n/a	n/a	n/a	n/a	459.329	BM11HAS.jpg
430.328	0.514	Blank	Blank	27.511	n/a	4	12	7	n/a	107	n/a	2	n/a	n/a	n/a	n/a	459.826	n/a
430.858	0.497	angry	Picture	26.997	n/a	4	12	8	n/a	108	66	2	n/a	n/a	n/a	n/a	460.357	BM07HAS.jpg
431.356	0.514	Blank	Blank	26.483	n/a	4	12	8	n/a	108	n/a	2	n/a	n/a	n/a	n/a	460.854	n/a
431.886	0.497	angry	Picture	25.969	n/a	4	12	9	n/a	109	48	2	n/a	n/a	n/a	n/a	461.385	AF14HAS.jpg
432.384	0.514	Blank	Blank	25.455	n/a	4	12	9	n/a	109	n/a	2	n/a	n/a	n/a	n/a	461.882	n/a
432.914	0.497	angry	Picture	24.941	n/a	4	12	10	n/a	110	58	2	n/a	n/a	n/a	n/a	462.413	BF29HAS.jpg
433.411	0.514	Blank	Blank	24.427	n/a	4	12	10	n/a	110	n/a	2	n/a	n/a	n/a	n/a	462.91	n/a
433.942	0.497	angry	Picture	23.913	n/a	4	12	11	n/a	111	63	2	n/a	n/a	n/a	n/a	463.441	AM04HAS.jpg
434.439	0.514	Blank	Blank	23.399	n/a	4	12	11	n/a	111	n/a	2	n/a	n/a	n/a	n/a	463.938	n/a
434.97	0.497	angry	Picture	22.885	n/a	4	12	12	n/a	112	72	2	n/a	n/a	n/a	n/a	464.469	AM14HAS.jpg
435.467	0.514	Blank	Blank	22.371	n/a	4	12	12	n/a	112	n/a	2	n/a	n/a	n/a	n/a	464.966	n/a
435.998	0.497	angry	Picture	21.857	n/a	4	12	13	n/a	113	55	2	n/a	n/a	n/a	n/a	465.496	AF25HAS.jpg
436.495	0.514	Blank	Blank	21.343	n/a	4	12	13	n/a	113	n/a	2	n/a	n/a	n/a	n/a	465.994	n/a
437.026	0.497	angry	Picture	20.829	n/a	4	12	14	n/a	114	42	2	n/a	n/a	n/a	n/a	466.524	AF03HAS.jpg
437.523	0.514	Blank	Blank	20.315	n/a	4	12	14	n/a	114	n/a	2	n/a	n/a	n/a	n/a	467.022	n/a
438.053	0.497	angry	Picture	19.802	n/a	4	12	15	n/a	115	60	2	n/a	n/a	n/a	n/a	467.552	AF32HAS.jpg
438.551	0.514	Blank	Blank	19.288	n/a	4	12	15	n/a	115	n/a	2	n/a	n/a	n/a	n/a	468.05	n/a
439.081	0.497	angry	Picture	18.774	n/a	4	12	16	n/a	116	67	2	n/a	n/a	n/a	n/a	468.58	BM08HAS.jpg
439.579	0.514	Blank	Blank	18.26	n/a	4	12	16	n/a	116	n/a	2	n/a	n/a	n/a	n/a	469.077	n/a
440.109	0.497	angry	Picture	17.746	n/a	4	12	17	n/a	117	51	2	n/a	n/a	n/a	n/a	469.608	AF20HAS.jpg
440.607	0.514	Blank	Blank	17.232	n/a	4	12	17	n/a	117	n/a	2	n/a	n/a	n/a	n/a	470.105	n/a
441.137	0.497	angry	Picture	16.718	n/a	4	12	18	n/a	118	71	2	n/a	n/a	n/a	n/a	470.636	BM12HAS.jpg
441.635	0.514	Blank	Blank	16.204	n/a	4	12	18	n/a	118	n/a	2	n/a	n/a	n/a	n/a	471.133	n/a
442.165	0.497	angry	Picture	15.69	n/a	4	12	19	n/a	119	69	2	n/a	n/a	n/a	n/a	471.664	AM10HAS.jpg
442.662	0.514	Blank	Blank	15.176	n/a	4	12	19	n/a	119	n/a	2	n/a	n/a	n/a	n/a	472.161	n/a
443.193	0.497	angry	Picture	14.662	n/a	4	12	20	n/a	120	46	2	n/a	n/a	n/a	n/a	472.692	AF09HAS.jpg
443.69	0.514	Blank	Blank	14.148	n/a	4	12	20	n/a	120	n/a	2	n/a	n/a	n/a	n/a	473.189	n/a
444.221	10.014	ITI	Fixation+	4.118	n/a	4	n/a	n/a	n/a	n/a	n/a	n/a	n/a	n/a	n/a	n/a	473.719	n/a
458.352	n/a	ConfirmRating	Rate	n/a	4.112	4	n/a	n/a	0	n/a	n/a	n/a	2	Angry	50	50	487.851	n/a
465.462	n/a	ConfirmRating	Rate	n/a	7.096	4	n/a	n/a	1	n/a	n/a	n/a	3	Angry	32	51	494.961	n/a
