onset	duration	trial_type	event_type	time_until_response	response_time	trial_number	block_num_within_trial	image_seq_num_within_block	question_seq_num_within_block	image_seq_num	picture_number	condition	question_type	block_type	rating	rating_computed	onset_uncorrected	KDEV_imagefile
0.01	10.014	ITI	Fixation+	96.847	n/a	1	n/a	n/a	n/a	n/a	n/a	n/a	n/a	n/a	n/a	n/a	29.986	n/a
10.04	0.497	angry	Picture	96.333	n/a	1	1	1	n/a	1	108	3	n/a	n/a	n/a	n/a	40.016	AM09ANS.jpg
10.537	0.514	Blank	Blank	95.819	n/a	1	1	1	n/a	1	n/a	3	n/a	n/a	n/a	n/a	40.513	n/a
11.068	0.497	angry	Picture	95.305	n/a	1	1	2	n/a	2	99	3	n/a	n/a	n/a	n/a	41.044	AF31ANS.jpg
11.565	0.514	Blank	Blank	94.791	n/a	1	1	2	n/a	2	n/a	3	n/a	n/a	n/a	n/a	41.541	n/a
12.096	0.497	angry	Picture	94.277	n/a	1	1	3	n/a	3	98	3	n/a	n/a	n/a	n/a	42.072	BF29ANS.jpg
12.593	0.514	Blank	Blank	93.764	n/a	1	1	3	n/a	3	n/a	3	n/a	n/a	n/a	n/a	42.569	n/a
13.124	0.497	angry	Picture	93.25	n/a	1	1	4	n/a	4	107	3	n/a	n/a	n/a	n/a	43.099	BM08ANS.jpg
13.621	0.514	Blank	Blank	92.736	n/a	1	1	4	n/a	4	n/a	3	n/a	n/a	n/a	n/a	43.597	n/a
14.151	0.497	angry	Picture	92.222	n/a	1	1	5	n/a	5	104	3	n/a	n/a	n/a	n/a	44.127	BM05ANS.jpg
14.649	0.514	Blank	Blank	91.708	n/a	1	1	5	n/a	5	n/a	3	n/a	n/a	n/a	n/a	44.625	n/a
15.179	0.497	angry	Picture	91.194	n/a	1	1	6	n/a	6	101	3	n/a	n/a	n/a	n/a	45.155	AM01ANS.jpg
15.677	0.514	Blank	Blank	90.68	n/a	1	1	6	n/a	6	n/a	3	n/a	n/a	n/a	n/a	45.653	n/a
16.207	0.497	angry	Picture	90.166	n/a	1	1	7	n/a	7	103	3	n/a	n/a	n/a	n/a	46.183	AM04ANS.jpg
16.704	0.514	Blank	Blank	89.652	n/a	1	1	7	n/a	7	n/a	3	n/a	n/a	n/a	n/a	46.68	n/a
17.235	0.497	angry	Picture	89.138	n/a	1	1	8	n/a	8	111	3	n/a	n/a	n/a	n/a	47.211	BM12ANS.jpg
17.732	0.514	Blank	Blank	88.624	n/a	1	1	8	n/a	8	n/a	3	n/a	n/a	n/a	n/a	47.708	n/a
18.263	0.497	angry	Picture	88.11	n/a	1	1	9	n/a	9	110	3	n/a	n/a	n/a	n/a	48.239	AM11ANS.jpg
18.76	0.514	Blank	Blank	87.596	n/a	1	1	9	n/a	9	n/a	3	n/a	n/a	n/a	n/a	48.736	n/a
19.291	0.497	angry	Picture	87.082	n/a	1	1	10	n/a	10	85	3	n/a	n/a	n/a	n/a	49.267	BF07ANS.jpg
19.788	0.514	Blank	Blank	86.568	n/a	1	1	10	n/a	10	n/a	3	n/a	n/a	n/a	n/a	49.764	n/a
20.319	0.497	angry	Picture	86.054	n/a	1	1	11	n/a	11	87	3	n/a	n/a	n/a	n/a	50.295	BF11ANS.jpg
20.816	0.514	Blank	Blank	85.54	n/a	1	1	11	n/a	11	n/a	3	n/a	n/a	n/a	n/a	50.792	n/a
21.347	0.497	angry	Picture	85.027	n/a	1	1	12	n/a	12	91	3	n/a	n/a	n/a	n/a	51.322	AF20ANS.jpg
21.844	0.514	Blank	Blank	84.513	n/a	1	1	12	n/a	12	n/a	3	n/a	n/a	n/a	n/a	51.82	n/a
22.374	0.497	angry	Picture	83.999	n/a	1	1	13	n/a	13	115	3	n/a	n/a	n/a	n/a	52.35	AM23ANS.jpg
22.872	0.514	Blank	Blank	83.485	n/a	1	1	13	n/a	13	n/a	3	n/a	n/a	n/a	n/a	52.848	n/a
23.402	0.497	angry	Picture	82.971	n/a	1	1	14	n/a	14	97	3	n/a	n/a	n/a	n/a	53.378	BF28ANS.jpg
23.9	0.514	Blank	Blank	82.457	n/a	1	1	14	n/a	14	n/a	3	n/a	n/a	n/a	n/a	53.876	n/a
24.43	0.497	angry	Picture	81.943	n/a	1	1	15	n/a	15	82	3	n/a	n/a	n/a	n/a	54.406	AF03ANS.jpg
24.928	0.514	Blank	Blank	81.429	n/a	1	1	15	n/a	15	n/a	3	n/a	n/a	n/a	n/a	54.904	n/a
25.458	0.497	angry	Picture	80.915	n/a	1	1	16	n/a	16	96	3	n/a	n/a	n/a	n/a	55.434	AF26ANS.jpg
25.955	0.514	Blank	Blank	80.401	n/a	1	1	16	n/a	16	n/a	3	n/a	n/a	n/a	n/a	55.931	n/a
26.486	0.497	angry	Picture	79.887	n/a	1	1	17	n/a	17	109	3	n/a	n/a	n/a	n/a	56.462	AM10ANS.jpg
26.983	0.514	Blank	Blank	79.373	n/a	1	1	17	n/a	17	n/a	3	n/a	n/a	n/a	n/a	56.959	n/a
27.514	0.497	angry	Picture	78.859	n/a	1	1	18	n/a	18	114	3	n/a	n/a	n/a	n/a	57.49	AM22ANS.jpg
28.011	0.514	Blank	Blank	78.345	n/a	1	1	18	n/a	18	n/a	3	n/a	n/a	n/a	n/a	57.987	n/a
28.542	0.497	angry	Picture	77.831	n/a	1	1	19	n/a	19	120	3	n/a	n/a	n/a	n/a	58.518	AM35ANS.jpg
29.039	0.514	Blank	Blank	77.317	n/a	1	1	19	n/a	19	n/a	3	n/a	n/a	n/a	n/a	59.015	n/a
29.57	0.497	angry	Picture	76.803	n/a	1	1	20	n/a	20	81	3	n/a	n/a	n/a	n/a	59.545	AF01ANS.jpg
30.067	0.514	Blank	Blank	76.29	n/a	1	1	20	n/a	20	n/a	3	n/a	n/a	n/a	n/a	60.043	n/a
30.598	10.014	ITI	Fixation+	66.259	n/a	1	n/a	n/a	n/a	n/a	n/a	n/a	n/a	n/a	n/a	n/a	60.573	n/a
40.628	0.497	neutral	Picture	65.745	n/a	1	2	1	n/a	21	28	1	n/a	n/a	n/a	n/a	70.603	AM09NES.jpg
41.125	0.514	Blank	Blank	65.232	n/a	1	2	1	n/a	21	n/a	1	n/a	n/a	n/a	n/a	71.101	n/a
41.656	0.497	neutral	Picture	64.718	n/a	1	2	2	n/a	22	27	1	n/a	n/a	n/a	n/a	71.631	BM08NES.jpg
42.153	0.514	Blank	Blank	64.204	n/a	1	2	2	n/a	22	n/a	1	n/a	n/a	n/a	n/a	72.129	n/a
42.683	0.497	neutral	Picture	63.69	n/a	1	2	3	n/a	23	16	1	n/a	n/a	n/a	n/a	72.659	AF26NES.jpg
43.181	0.514	Blank	Blank	63.176	n/a	1	2	3	n/a	23	n/a	1	n/a	n/a	n/a	n/a	73.157	n/a
43.711	0.497	neutral	Picture	62.662	n/a	1	2	4	n/a	24	3	1	n/a	n/a	n/a	n/a	73.687	BF04NES.jpg
44.209	0.514	Blank	Blank	62.148	n/a	1	2	4	n/a	24	n/a	1	n/a	n/a	n/a	n/a	74.184	n/a
44.739	0.497	neutral	Picture	61.634	n/a	1	2	5	n/a	25	32	1	n/a	n/a	n/a	n/a	74.715	AM14NES.jpg
45.237	0.514	Blank	Blank	61.12	n/a	1	2	5	n/a	25	n/a	1	n/a	n/a	n/a	n/a	75.212	n/a
45.767	0.497	neutral	Picture	60.606	n/a	1	2	6	n/a	26	37	1	n/a	n/a	n/a	n/a	75.743	BM25NES.jpg
46.264	0.514	Blank	Blank	60.092	n/a	1	2	6	n/a	26	n/a	1	n/a	n/a	n/a	n/a	76.24	n/a
46.795	0.497	neutral	Picture	59.578	n/a	1	2	7	n/a	27	15	1	n/a	n/a	n/a	n/a	76.771	AF25NES.jpg
47.292	0.514	Blank	Blank	59.064	n/a	1	2	7	n/a	27	n/a	1	n/a	n/a	n/a	n/a	77.268	n/a
47.823	0.497	neutral	Picture	58.55	n/a	1	2	8	n/a	28	23	1	n/a	n/a	n/a	n/a	77.799	AM04NES.jpg
48.32	0.514	Blank	Blank	58.036	n/a	1	2	8	n/a	28	n/a	1	n/a	n/a	n/a	n/a	78.296	n/a
48.851	0.497	neutral	Picture	57.522	n/a	1	2	9	n/a	29	34	1	n/a	n/a	n/a	n/a	78.827	AM22NES.jpg
49.348	0.514	Blank	Blank	57.008	n/a	1	2	9	n/a	29	n/a	1	n/a	n/a	n/a	n/a	79.324	n/a
49.879	0.497	neutral	Picture	56.495	n/a	1	2	10	n/a	30	24	1	n/a	n/a	n/a	n/a	79.855	BM05NES.jpg
50.376	0.514	Blank	Blank	55.981	n/a	1	2	10	n/a	30	n/a	1	n/a	n/a	n/a	n/a	80.352	n/a
50.907	0.497	neutral	Picture	55.467	n/a	1	2	11	n/a	31	12	1	n/a	n/a	n/a	n/a	80.882	AF21NES.jpg
51.404	0.514	Blank	Blank	54.953	n/a	1	2	11	n/a	31	n/a	1	n/a	n/a	n/a	n/a	81.38	n/a
51.934	0.497	neutral	Picture	54.439	n/a	1	2	12	n/a	32	6	1	n/a	n/a	n/a	n/a	81.91	AF09NES.jpg
52.432	0.514	Blank	Blank	53.925	n/a	1	2	12	n/a	32	n/a	1	n/a	n/a	n/a	n/a	82.408	n/a
52.962	0.497	neutral	Picture	53.411	n/a	1	2	13	n/a	33	17	1	n/a	n/a	n/a	n/a	82.938	BF28NES.jpg
53.46	0.514	Blank	Blank	52.897	n/a	1	2	13	n/a	33	n/a	1	n/a	n/a	n/a	n/a	83.436	n/a
53.99	0.497	neutral	Picture	52.383	n/a	1	2	14	n/a	34	2	1	n/a	n/a	n/a	n/a	83.966	AF03NES.jpg
54.487	0.514	Blank	Blank	51.869	n/a	1	2	14	n/a	34	n/a	1	n/a	n/a	n/a	n/a	84.463	n/a
55.018	0.497	neutral	Picture	51.355	n/a	1	2	15	n/a	35	9	1	n/a	n/a	n/a	n/a	84.994	AF17NES.jpg
55.515	0.514	Blank	Blank	50.841	n/a	1	2	15	n/a	35	n/a	1	n/a	n/a	n/a	n/a	85.491	n/a
56.046	0.497	neutral	Picture	50.327	n/a	1	2	16	n/a	36	25	1	n/a	n/a	n/a	n/a	86.022	BM06NES.jpg
56.543	0.514	Blank	Blank	49.813	n/a	1	2	16	n/a	36	n/a	1	n/a	n/a	n/a	n/a	86.519	n/a
57.074	0.497	neutral	Picture	49.299	n/a	1	2	17	n/a	37	8	1	n/a	n/a	n/a	n/a	87.05	AF14NES.jpg
57.571	0.514	Blank	Blank	48.785	n/a	1	2	17	n/a	37	n/a	1	n/a	n/a	n/a	n/a	87.547	n/a
58.102	0.497	neutral	Picture	48.271	n/a	1	2	18	n/a	38	19	1	n/a	n/a	n/a	n/a	88.078	AF31NES.jpg
58.599	0.514	Blank	Blank	47.758	n/a	1	2	18	n/a	38	n/a	1	n/a	n/a	n/a	n/a	88.575	n/a
59.13	0.497	neutral	Picture	47.244	n/a	1	2	19	n/a	39	14	1	n/a	n/a	n/a	n/a	89.105	AF23NES.jpg
59.627	0.514	Blank	Blank	46.73	n/a	1	2	19	n/a	39	n/a	1	n/a	n/a	n/a	n/a	89.603	n/a
60.157	0.497	neutral	Picture	46.216	n/a	1	2	20	n/a	40	4	1	n/a	n/a	n/a	n/a	90.133	AF05NES.jpg
60.655	0.514	Blank	Blank	45.702	n/a	1	2	20	n/a	40	n/a	1	n/a	n/a	n/a	n/a	90.631	n/a
61.185	10.014	ITI	Fixation+	35.672	n/a	1	n/a	n/a	n/a	n/a	n/a	n/a	n/a	n/a	n/a	n/a	91.161	n/a
71.215	0.497	angry	Picture	35.158	n/a	1	3	1	n/a	41	84	3	n/a	n/a	n/a	n/a	101.191	AF05ANS.jpg
71.713	0.514	Blank	Blank	34.644	n/a	1	3	1	n/a	41	n/a	3	n/a	n/a	n/a	n/a	101.689	n/a
72.243	0.497	angry	Picture	34.13	n/a	1	3	2	n/a	42	92	3	n/a	n/a	n/a	n/a	102.219	AF21ANS.jpg
72.741	0.514	Blank	Blank	33.616	n/a	1	3	2	n/a	42	n/a	3	n/a	n/a	n/a	n/a	102.717	n/a
73.271	0.497	angry	Picture	33.102	n/a	1	3	3	n/a	43	86	3	n/a	n/a	n/a	n/a	103.247	AF09ANS.jpg
73.769	0.514	Blank	Blank	32.588	n/a	1	3	3	n/a	43	n/a	3	n/a	n/a	n/a	n/a	103.745	n/a
74.299	0.497	angry	Picture	32.074	n/a	1	3	4	n/a	44	93	3	n/a	n/a	n/a	n/a	104.275	BF22ANS.jpg
74.796	0.514	Blank	Blank	31.56	n/a	1	3	4	n/a	44	n/a	3	n/a	n/a	n/a	n/a	104.772	n/a
75.327	0.497	angry	Picture	31.046	n/a	1	3	5	n/a	45	88	3	n/a	n/a	n/a	n/a	105.303	AF14ANS.jpg
75.824	0.514	Blank	Blank	30.532	n/a	1	3	5	n/a	45	n/a	3	n/a	n/a	n/a	n/a	105.8	n/a
76.355	0.497	angry	Picture	30.018	n/a	1	3	6	n/a	46	113	3	n/a	n/a	n/a	n/a	106.331	AM21ANS.jpg
76.852	0.514	Blank	Blank	29.504	n/a	1	3	6	n/a	46	n/a	3	n/a	n/a	n/a	n/a	106.828	n/a
77.383	0.497	angry	Picture	28.99	n/a	1	3	7	n/a	47	95	3	n/a	n/a	n/a	n/a	107.359	AF25ANS.jpg
77.88	0.514	Blank	Blank	28.476	n/a	1	3	7	n/a	47	n/a	3	n/a	n/a	n/a	n/a	107.856	n/a
78.411	0.497	angry	Picture	27.962	n/a	1	3	8	n/a	48	102	3	n/a	n/a	n/a	n/a	108.386	BM03ANS.jpg
78.908	0.514	Blank	Blank	27.449	n/a	1	3	8	n/a	48	n/a	3	n/a	n/a	n/a	n/a	108.884	n/a
79.439	0.497	angry	Picture	26.935	n/a	1	3	9	n/a	49	112	3	n/a	n/a	n/a	n/a	109.414	AM14ANS.jpg
79.936	0.514	Blank	Blank	26.421	n/a	1	3	9	n/a	49	n/a	3	n/a	n/a	n/a	n/a	109.912	n/a
80.466	0.497	angry	Picture	25.907	n/a	1	3	10	n/a	50	83	3	n/a	n/a	n/a	n/a	110.442	BF04ANS.jpg
80.964	0.514	Blank	Blank	25.393	n/a	1	3	10	n/a	50	n/a	3	n/a	n/a	n/a	n/a	110.94	n/a
81.494	0.497	angry	Picture	24.879	n/a	1	3	11	n/a	51	90	3	n/a	n/a	n/a	n/a	111.47	AF18ANS.jpg
81.992	0.514	Blank	Blank	24.365	n/a	1	3	11	n/a	51	n/a	3	n/a	n/a	n/a	n/a	111.968	n/a
82.522	0.497	angry	Picture	23.851	n/a	1	3	12	n/a	52	117	3	n/a	n/a	n/a	n/a	112.498	BM25ANS.jpg
83.02	0.514	Blank	Blank	23.337	n/a	1	3	12	n/a	52	n/a	3	n/a	n/a	n/a	n/a	112.995	n/a
83.55	0.497	angry	Picture	22.823	n/a	1	3	13	n/a	53	94	3	n/a	n/a	n/a	n/a	113.526	AF23ANS.jpg
84.047	0.514	Blank	Blank	22.309	n/a	1	3	13	n/a	53	n/a	3	n/a	n/a	n/a	n/a	114.023	n/a
84.578	0.497	angry	Picture	21.795	n/a	1	3	14	n/a	54	106	3	n/a	n/a	n/a	n/a	114.554	AM07ANS.jpg
85.075	0.514	Blank	Blank	21.281	n/a	1	3	14	n/a	54	n/a	3	n/a	n/a	n/a	n/a	115.051	n/a
85.606	0.497	angry	Picture	20.767	n/a	1	3	15	n/a	55	105	3	n/a	n/a	n/a	n/a	115.582	BM06ANS.jpg
86.103	0.514	Blank	Blank	20.253	n/a	1	3	15	n/a	55	n/a	3	n/a	n/a	n/a	n/a	116.079	n/a
86.634	0.497	angry	Picture	19.739	n/a	1	3	16	n/a	56	116	3	n/a	n/a	n/a	n/a	116.61	BM24ANS.jpg
87.131	0.514	Blank	Blank	19.225	n/a	1	3	16	n/a	56	n/a	3	n/a	n/a	n/a	n/a	117.107	n/a
87.662	0.497	angry	Picture	18.712	n/a	1	3	17	n/a	57	89	3	n/a	n/a	n/a	n/a	117.637	AF17ANS.jpg
88.159	0.514	Blank	Blank	18.198	n/a	1	3	17	n/a	57	n/a	3	n/a	n/a	n/a	n/a	118.135	n/a
88.689	0.497	angry	Picture	17.684	n/a	1	3	18	n/a	58	118	3	n/a	n/a	n/a	n/a	118.665	BM26ANS.jpg
89.187	0.514	Blank	Blank	17.17	n/a	1	3	18	n/a	58	n/a	3	n/a	n/a	n/a	n/a	119.163	n/a
89.717	0.497	angry	Picture	16.656	n/a	1	3	19	n/a	59	100	3	n/a	n/a	n/a	n/a	119.693	AF32ANS.jpg
90.215	0.514	Blank	Blank	16.142	n/a	1	3	19	n/a	59	n/a	3	n/a	n/a	n/a	n/a	120.191	n/a
90.745	0.497	angry	Picture	15.628	n/a	1	3	20	n/a	60	119	3	n/a	n/a	n/a	n/a	120.721	BM28ANS.jpg
91.243	0.514	Blank	Blank	15.114	n/a	1	3	20	n/a	60	n/a	3	n/a	n/a	n/a	n/a	121.219	n/a
91.773	10.014	ITI	Fixation+	5.084	n/a	1	n/a	n/a	n/a	n/a	n/a	n/a	n/a	n/a	n/a	n/a	121.749	n/a
106.87	n/a	ConfirmRating	Rate	n/a	5.057	1	n/a	n/a	0	n/a	n/a	n/a	2	Angry	50	50	136.846	n/a
108.59	n/a	ConfirmRating	Rate	n/a	1.708	1	n/a	n/a	1	n/a	n/a	n/a	3	Angry	50	50	138.566	n/a
108.617	10.014	ITI	Fixation+	99.522	n/a	2	n/a	n/a	n/a	n/a	n/a	n/a	n/a	n/a	n/a	n/a	138.593	n/a
118.647	0.497	happy	Picture	99.008	n/a	2	4	1	n/a	61	79	2	n/a	n/a	n/a	n/a	148.623	BM28HAS.jpg
119.145	0.514	Blank	Blank	98.494	n/a	2	4	1	n/a	61	n/a	2	n/a	n/a	n/a	n/a	149.12	n/a
119.675	0.497	happy	Picture	97.98	n/a	2	4	2	n/a	62	61	2	n/a	n/a	n/a	n/a	149.651	AM01HAS.jpg
120.173	0.514	Blank	Blank	97.466	n/a	2	4	2	n/a	62	n/a	2	n/a	n/a	n/a	n/a	150.148	n/a
120.703	0.497	happy	Picture	96.952	n/a	2	4	3	n/a	63	57	2	n/a	n/a	n/a	n/a	150.679	BF28HAS.jpg
121.2	0.514	Blank	Blank	96.438	n/a	2	4	3	n/a	63	n/a	2	n/a	n/a	n/a	n/a	151.176	n/a
121.731	0.497	happy	Picture	95.924	n/a	2	4	4	n/a	64	77	2	n/a	n/a	n/a	n/a	151.707	BM25HAS.jpg
122.228	0.514	Blank	Blank	95.41	n/a	2	4	4	n/a	64	n/a	2	n/a	n/a	n/a	n/a	152.204	n/a
122.759	0.497	happy	Picture	94.896	n/a	2	4	5	n/a	65	47	2	n/a	n/a	n/a	n/a	152.735	BF11HAS.jpg
123.256	0.514	Blank	Blank	94.382	n/a	2	4	5	n/a	65	n/a	2	n/a	n/a	n/a	n/a	153.232	n/a
123.787	0.497	happy	Picture	93.868	n/a	2	4	6	n/a	66	50	2	n/a	n/a	n/a	n/a	153.762	AF18HAS.jpg
124.284	0.514	Blank	Blank	93.355	n/a	2	4	6	n/a	66	n/a	2	n/a	n/a	n/a	n/a	154.26	n/a
124.815	0.497	happy	Picture	92.84	n/a	2	4	7	n/a	67	78	2	n/a	n/a	n/a	n/a	154.79	BM26HAS.jpg
125.312	0.514	Blank	Blank	92.327	n/a	2	4	7	n/a	67	n/a	2	n/a	n/a	n/a	n/a	155.288	n/a
125.842	0.497	happy	Picture	91.813	n/a	2	4	8	n/a	68	45	2	n/a	n/a	n/a	n/a	155.818	BF07HAS.jpg
126.34	0.514	Blank	Blank	91.299	n/a	2	4	8	n/a	68	n/a	2	n/a	n/a	n/a	n/a	156.316	n/a
126.87	0.497	happy	Picture	90.785	n/a	2	4	9	n/a	69	56	2	n/a	n/a	n/a	n/a	156.846	AF26HAS.jpg
127.368	0.514	Blank	Blank	90.271	n/a	2	4	9	n/a	69	n/a	2	n/a	n/a	n/a	n/a	157.344	n/a
127.898	0.497	happy	Picture	89.757	n/a	2	4	10	n/a	70	65	2	n/a	n/a	n/a	n/a	157.874	BM06HAS.jpg
128.395	0.514	Blank	Blank	89.243	n/a	2	4	10	n/a	70	n/a	2	n/a	n/a	n/a	n/a	158.371	n/a
128.926	0.497	happy	Picture	88.729	n/a	2	4	11	n/a	71	73	2	n/a	n/a	n/a	n/a	158.902	AM21HAS.jpg
129.423	0.514	Blank	Blank	88.215	n/a	2	4	11	n/a	71	n/a	2	n/a	n/a	n/a	n/a	159.399	n/a
129.954	0.497	happy	Picture	87.701	n/a	2	4	12	n/a	72	41	2	n/a	n/a	n/a	n/a	159.93	AF01HAS.jpg
130.451	0.514	Blank	Blank	87.187	n/a	2	4	12	n/a	72	n/a	2	n/a	n/a	n/a	n/a	160.427	n/a
130.982	0.497	happy	Picture	86.673	n/a	2	4	13	n/a	73	59	2	n/a	n/a	n/a	n/a	160.958	AF31HAS.jpg
131.479	0.514	Blank	Blank	86.159	n/a	2	4	13	n/a	73	n/a	2	n/a	n/a	n/a	n/a	161.455	n/a
132.01	0.497	happy	Picture	85.645	n/a	2	4	14	n/a	74	64	2	n/a	n/a	n/a	n/a	161.986	BM05HAS.jpg
132.507	0.514	Blank	Blank	85.131	n/a	2	4	14	n/a	74	n/a	2	n/a	n/a	n/a	n/a	162.483	n/a
133.038	0.497	happy	Picture	84.618	n/a	2	4	15	n/a	75	68	2	n/a	n/a	n/a	n/a	163.013	AM09HAS.jpg
133.535	0.514	Blank	Blank	84.103	n/a	2	4	15	n/a	75	n/a	2	n/a	n/a	n/a	n/a	163.511	n/a
134.066	0.497	happy	Picture	83.59	n/a	2	4	16	n/a	76	54	2	n/a	n/a	n/a	n/a	164.041	AF23HAS.jpg
134.563	0.514	Blank	Blank	83.076	n/a	2	4	16	n/a	76	n/a	2	n/a	n/a	n/a	n/a	164.539	n/a
135.093	0.497	happy	Picture	82.562	n/a	2	4	17	n/a	77	53	2	n/a	n/a	n/a	n/a	165.069	BF22HAS.jpg
135.591	0.514	Blank	Blank	82.048	n/a	2	4	17	n/a	77	n/a	2	n/a	n/a	n/a	n/a	165.567	n/a
136.121	0.497	happy	Picture	81.534	n/a	2	4	18	n/a	78	44	2	n/a	n/a	n/a	n/a	166.097	AF05HAS.jpg
136.619	0.514	Blank	Blank	81.02	n/a	2	4	18	n/a	78	n/a	2	n/a	n/a	n/a	n/a	166.595	n/a
137.149	0.497	happy	Picture	80.506	n/a	2	4	19	n/a	79	52	2	n/a	n/a	n/a	n/a	167.125	AF21HAS.jpg
137.647	0.514	Blank	Blank	79.992	n/a	2	4	19	n/a	79	n/a	2	n/a	n/a	n/a	n/a	167.622	n/a
138.177	0.497	happy	Picture	79.478	n/a	2	4	20	n/a	80	62	2	n/a	n/a	n/a	n/a	168.153	BM03HAS.jpg
138.674	0.514	Blank	Blank	78.964	n/a	2	4	20	n/a	80	n/a	2	n/a	n/a	n/a	n/a	168.65	n/a
139.205	10.014	ITI	Fixation+	68.934	n/a	2	n/a	n/a	n/a	n/a	n/a	n/a	n/a	n/a	n/a	n/a	169.181	n/a
149.235	0.497	neutral	Picture	68.42	n/a	2	5	1	n/a	81	23	1	n/a	n/a	n/a	n/a	179.211	AM04NES.jpg
149.732	0.514	Blank	Blank	67.906	n/a	2	5	1	n/a	81	n/a	1	n/a	n/a	n/a	n/a	179.708	n/a
150.263	0.497	neutral	Picture	67.392	n/a	2	5	2	n/a	82	29	1	n/a	n/a	n/a	n/a	180.239	AM10NES.jpg
150.76	0.514	Blank	Blank	66.878	n/a	2	5	2	n/a	82	n/a	1	n/a	n/a	n/a	n/a	180.736	n/a
151.291	0.497	neutral	Picture	66.364	n/a	2	5	3	n/a	83	24	1	n/a	n/a	n/a	n/a	181.267	BM05NES.jpg
151.788	0.514	Blank	Blank	65.85	n/a	2	5	3	n/a	83	n/a	1	n/a	n/a	n/a	n/a	181.764	n/a
152.319	0.497	neutral	Picture	65.336	n/a	2	5	4	n/a	84	12	1	n/a	n/a	n/a	n/a	182.294	AF21NES.jpg
152.816	0.514	Blank	Blank	64.822	n/a	2	5	4	n/a	84	n/a	1	n/a	n/a	n/a	n/a	182.792	n/a
153.346	0.497	neutral	Picture	64.309	n/a	2	5	5	n/a	85	13	1	n/a	n/a	n/a	n/a	183.322	BF22NES.jpg
153.844	0.514	Blank	Blank	63.795	n/a	2	5	5	n/a	85	n/a	1	n/a	n/a	n/a	n/a	183.82	n/a
154.374	0.497	neutral	Picture	63.281	n/a	2	5	6	n/a	86	17	1	n/a	n/a	n/a	n/a	184.35	BF28NES.jpg
154.872	0.514	Blank	Blank	62.767	n/a	2	5	6	n/a	86	n/a	1	n/a	n/a	n/a	n/a	184.848	n/a
155.402	0.497	neutral	Picture	62.253	n/a	2	5	7	n/a	87	4	1	n/a	n/a	n/a	n/a	185.378	AF05NES.jpg
155.9	0.514	Blank	Blank	61.739	n/a	2	5	7	n/a	87	n/a	1	n/a	n/a	n/a	n/a	185.876	n/a
156.43	0.497	neutral	Picture	61.225	n/a	2	5	8	n/a	88	11	1	n/a	n/a	n/a	n/a	186.406	AF20NES.jpg
156.928	0.514	Blank	Blank	60.711	n/a	2	5	8	n/a	88	n/a	1	n/a	n/a	n/a	n/a	186.903	n/a
157.458	0.497	neutral	Picture	60.197	n/a	2	5	9	n/a	89	22	1	n/a	n/a	n/a	n/a	187.434	BM03NES.jpg
157.955	0.514	Blank	Blank	59.683	n/a	2	5	9	n/a	89	n/a	1	n/a	n/a	n/a	n/a	187.931	n/a
158.486	0.497	neutral	Picture	59.169	n/a	2	5	10	n/a	90	15	1	n/a	n/a	n/a	n/a	188.462	AF25NES.jpg
158.983	0.514	Blank	Blank	58.655	n/a	2	5	10	n/a	90	n/a	1	n/a	n/a	n/a	n/a	188.959	n/a
159.514	0.497	neutral	Picture	58.141	n/a	2	5	11	n/a	91	19	1	n/a	n/a	n/a	n/a	189.49	AF31NES.jpg
160.011	0.514	Blank	Blank	57.627	n/a	2	5	11	n/a	91	n/a	1	n/a	n/a	n/a	n/a	189.987	n/a
160.542	0.497	neutral	Picture	57.113	n/a	2	5	12	n/a	92	9	1	n/a	n/a	n/a	n/a	190.518	AF17NES.jpg
161.039	0.514	Blank	Blank	56.599	n/a	2	5	12	n/a	92	n/a	1	n/a	n/a	n/a	n/a	191.015	n/a
161.57	0.497	neutral	Picture	56.085	n/a	2	5	13	n/a	93	14	1	n/a	n/a	n/a	n/a	191.546	AF23NES.jpg
162.067	0.514	Blank	Blank	55.571	n/a	2	5	13	n/a	93	n/a	1	n/a	n/a	n/a	n/a	192.043	n/a
162.597	0.497	neutral	Picture	55.058	n/a	2	5	14	n/a	94	36	1	n/a	n/a	n/a	n/a	192.573	BM24NES.jpg
163.095	0.514	Blank	Blank	54.544	n/a	2	5	14	n/a	94	n/a	1	n/a	n/a	n/a	n/a	193.071	n/a
163.625	0.497	neutral	Picture	54.03	n/a	2	5	15	n/a	95	34	1	n/a	n/a	n/a	n/a	193.601	AM22NES.jpg
164.123	0.514	Blank	Blank	53.516	n/a	2	5	15	n/a	95	n/a	1	n/a	n/a	n/a	n/a	194.099	n/a
164.653	0.497	neutral	Picture	53.002	n/a	2	5	16	n/a	96	10	1	n/a	n/a	n/a	n/a	194.629	AF18NES.jpg
165.151	0.514	Blank	Blank	52.488	n/a	2	5	16	n/a	96	n/a	1	n/a	n/a	n/a	n/a	195.126	n/a
165.681	0.497	neutral	Picture	51.974	n/a	2	5	17	n/a	97	5	1	n/a	n/a	n/a	n/a	195.657	BF07NES.jpg
166.179	0.514	Blank	Blank	51.46	n/a	2	5	17	n/a	97	n/a	1	n/a	n/a	n/a	n/a	196.154	n/a
166.709	0.497	neutral	Picture	50.946	n/a	2	5	18	n/a	98	25	1	n/a	n/a	n/a	n/a	196.685	BM06NES.jpg
167.206	0.514	Blank	Blank	50.432	n/a	2	5	18	n/a	98	n/a	1	n/a	n/a	n/a	n/a	197.182	n/a
167.737	0.497	neutral	Picture	49.918	n/a	2	5	19	n/a	99	39	1	n/a	n/a	n/a	n/a	197.713	AM28NES.jpg
168.234	0.514	Blank	Blank	49.404	n/a	2	5	19	n/a	99	n/a	1	n/a	n/a	n/a	n/a	198.21	n/a
168.765	0.497	neutral	Picture	48.89	n/a	2	5	20	n/a	100	33	1	n/a	n/a	n/a	n/a	198.741	AM21NES.jpg
169.262	0.514	Blank	Blank	48.376	n/a	2	5	20	n/a	100	n/a	1	n/a	n/a	n/a	n/a	199.238	n/a
169.793	10.014	ITI	Fixation+	38.346	n/a	2	n/a	n/a	n/a	n/a	n/a	n/a	n/a	n/a	n/a	n/a	199.769	n/a
179.823	0.497	happy	Picture	37.832	n/a	2	6	1	n/a	101	74	2	n/a	n/a	n/a	n/a	209.799	AM22HAS.jpg
180.32	0.514	Blank	Blank	37.318	n/a	2	6	1	n/a	101	n/a	2	n/a	n/a	n/a	n/a	210.296	n/a
180.851	0.497	happy	Picture	36.804	n/a	2	6	2	n/a	102	76	2	n/a	n/a	n/a	n/a	210.827	BM24HAS.jpg
181.348	0.514	Blank	Blank	36.29	n/a	2	6	2	n/a	102	n/a	2	n/a	n/a	n/a	n/a	211.324	n/a
181.879	0.497	happy	Picture	35.776	n/a	2	6	3	n/a	103	80	2	n/a	n/a	n/a	n/a	211.855	BM35HAS.jpg
182.376	0.514	Blank	Blank	35.262	n/a	2	6	3	n/a	103	n/a	2	n/a	n/a	n/a	n/a	212.352	n/a
182.906	0.497	happy	Picture	34.749	n/a	2	6	4	n/a	104	75	2	n/a	n/a	n/a	n/a	212.882	AM23HAS.jpg
183.404	0.514	Blank	Blank	34.235	n/a	2	6	4	n/a	104	n/a	2	n/a	n/a	n/a	n/a	213.38	n/a
183.934	0.497	happy	Picture	33.721	n/a	2	6	5	n/a	105	49	2	n/a	n/a	n/a	n/a	213.91	AF17HAS.jpg
184.432	0.514	Blank	Blank	33.207	n/a	2	6	5	n/a	105	n/a	2	n/a	n/a	n/a	n/a	214.408	n/a
184.962	0.497	happy	Picture	32.693	n/a	2	6	6	n/a	106	43	2	n/a	n/a	n/a	n/a	214.938	BF04HAS.jpg
185.46	0.514	Blank	Blank	32.179	n/a	2	6	6	n/a	106	n/a	2	n/a	n/a	n/a	n/a	215.435	n/a
185.99	0.497	happy	Picture	31.665	n/a	2	6	7	n/a	107	70	2	n/a	n/a	n/a	n/a	215.966	BM11HAS.jpg
186.487	0.514	Blank	Blank	31.151	n/a	2	6	7	n/a	107	n/a	2	n/a	n/a	n/a	n/a	216.463	n/a
187.018	0.497	happy	Picture	30.637	n/a	2	6	8	n/a	108	66	2	n/a	n/a	n/a	n/a	216.994	BM07HAS.jpg
187.515	0.514	Blank	Blank	30.123	n/a	2	6	8	n/a	108	n/a	2	n/a	n/a	n/a	n/a	217.491	n/a
188.046	0.497	happy	Picture	29.609	n/a	2	6	9	n/a	109	48	2	n/a	n/a	n/a	n/a	218.022	AF14HAS.jpg
188.543	0.514	Blank	Blank	29.095	n/a	2	6	9	n/a	109	n/a	2	n/a	n/a	n/a	n/a	218.519	n/a
189.074	0.497	happy	Picture	28.581	n/a	2	6	10	n/a	110	58	2	n/a	n/a	n/a	n/a	219.05	BF29HAS.jpg
189.571	0.514	Blank	Blank	28.067	n/a	2	6	10	n/a	110	n/a	2	n/a	n/a	n/a	n/a	219.547	n/a
190.102	0.497	happy	Picture	27.553	n/a	2	6	11	n/a	111	63	2	n/a	n/a	n/a	n/a	220.077	AM04HAS.jpg
190.599	0.514	Blank	Blank	27.039	n/a	2	6	11	n/a	111	n/a	2	n/a	n/a	n/a	n/a	220.575	n/a
191.13	0.497	happy	Picture	26.525	n/a	2	6	12	n/a	112	72	2	n/a	n/a	n/a	n/a	221.105	AM14HAS.jpg
191.627	0.514	Blank	Blank	26.012	n/a	2	6	12	n/a	112	n/a	2	n/a	n/a	n/a	n/a	221.603	n/a
192.157	0.497	happy	Picture	25.498	n/a	2	6	13	n/a	113	55	2	n/a	n/a	n/a	n/a	222.133	AF25HAS.jpg
192.655	0.514	Blank	Blank	24.984	n/a	2	6	13	n/a	113	n/a	2	n/a	n/a	n/a	n/a	222.631	n/a
193.185	0.497	happy	Picture	24.47	n/a	2	6	14	n/a	114	42	2	n/a	n/a	n/a	n/a	223.161	AF03HAS.jpg
193.683	0.514	Blank	Blank	23.956	n/a	2	6	14	n/a	114	n/a	2	n/a	n/a	n/a	n/a	223.659	n/a
194.213	0.497	happy	Picture	23.442	n/a	2	6	15	n/a	115	60	2	n/a	n/a	n/a	n/a	224.189	AF32HAS.jpg
194.71	0.514	Blank	Blank	22.928	n/a	2	6	15	n/a	115	n/a	2	n/a	n/a	n/a	n/a	224.686	n/a
195.241	0.497	happy	Picture	22.414	n/a	2	6	16	n/a	116	67	2	n/a	n/a	n/a	n/a	225.217	BM08HAS.jpg
195.738	0.514	Blank	Blank	21.9	n/a	2	6	16	n/a	116	n/a	2	n/a	n/a	n/a	n/a	225.714	n/a
196.269	0.497	happy	Picture	21.386	n/a	2	6	17	n/a	117	51	2	n/a	n/a	n/a	n/a	226.245	AF20HAS.jpg
196.766	0.514	Blank	Blank	20.872	n/a	2	6	17	n/a	117	n/a	2	n/a	n/a	n/a	n/a	226.742	n/a
197.297	0.497	happy	Picture	20.358	n/a	2	6	18	n/a	118	71	2	n/a	n/a	n/a	n/a	227.273	BM12HAS.jpg
197.794	0.514	Blank	Blank	19.844	n/a	2	6	18	n/a	118	n/a	2	n/a	n/a	n/a	n/a	227.77	n/a
198.325	0.497	happy	Picture	19.33	n/a	2	6	19	n/a	119	69	2	n/a	n/a	n/a	n/a	228.301	AM10HAS.jpg
198.822	0.514	Blank	Blank	18.816	n/a	2	6	19	n/a	119	n/a	2	n/a	n/a	n/a	n/a	228.798	n/a
199.353	0.497	happy	Picture	18.303	n/a	2	6	20	n/a	120	46	2	n/a	n/a	n/a	n/a	229.328	AF09HAS.jpg
199.85	0.514	Blank	Blank	17.788	n/a	2	6	20	n/a	120	n/a	2	n/a	n/a	n/a	n/a	229.826	n/a
200.38	10.014	ITI	Fixation+	7.758	n/a	2	n/a	n/a	n/a	n/a	n/a	n/a	n/a	n/a	n/a	n/a	230.356	n/a
218.152	n/a	ConfirmRating	Rate	n/a	7.742	2	n/a	n/a	0	n/a	n/a	n/a	2	Happy	26	49	248.128	n/a
224.389	n/a	ConfirmRating	Rate	n/a	6.234	2	n/a	n/a	1	n/a	n/a	n/a	3	Happy	3	48	254.365	n/a
224.42	15.004	Rest	Picture	n/a	n/a	n/a	n/a	n/a	n/a	n/a	n/a	n/a	0	n/a	0	0	254.395	n/a
239.44	10.014	ITI	Fixation+	95.367	n/a	3	n/a	n/a	n/a	n/a	n/a	n/a	n/a	n/a	n/a	n/a	269.416	n/a
249.47	0.497	angry	Picture	94.853	n/a	3	7	1	n/a	1	108	3	n/a	n/a	n/a	n/a	279.446	AM09ANS.jpg
249.968	0.514	Blank	Blank	94.34	n/a	3	7	1	n/a	1	n/a	3	n/a	n/a	n/a	n/a	279.943	n/a
250.498	0.497	angry	Picture	93.826	n/a	3	7	2	n/a	2	99	3	n/a	n/a	n/a	n/a	280.474	AF31ANS.jpg
250.995	0.514	Blank	Blank	93.312	n/a	3	7	2	n/a	2	n/a	3	n/a	n/a	n/a	n/a	280.971	n/a
251.526	0.497	angry	Picture	92.798	n/a	3	7	3	n/a	3	98	3	n/a	n/a	n/a	n/a	281.502	BF29ANS.jpg
252.023	0.514	Blank	Blank	92.284	n/a	3	7	3	n/a	3	n/a	3	n/a	n/a	n/a	n/a	281.999	n/a
252.554	0.497	angry	Picture	91.77	n/a	3	7	4	n/a	4	107	3	n/a	n/a	n/a	n/a	282.53	BM08ANS.jpg
253.051	0.514	Blank	Blank	91.256	n/a	3	7	4	n/a	4	n/a	3	n/a	n/a	n/a	n/a	283.027	n/a
253.582	0.497	angry	Picture	90.742	n/a	3	7	5	n/a	5	104	3	n/a	n/a	n/a	n/a	283.558	BM05ANS.jpg
254.079	0.514	Blank	Blank	90.228	n/a	3	7	5	n/a	5	n/a	3	n/a	n/a	n/a	n/a	284.055	n/a
254.609	0.497	angry	Picture	89.714	n/a	3	7	6	n/a	6	101	3	n/a	n/a	n/a	n/a	284.585	AM01ANS.jpg
255.107	0.514	Blank	Blank	89.2	n/a	3	7	6	n/a	6	n/a	3	n/a	n/a	n/a	n/a	285.083	n/a
255.637	0.497	angry	Picture	88.686	n/a	3	7	7	n/a	7	103	3	n/a	n/a	n/a	n/a	285.613	AM04ANS.jpg
256.135	0.514	Blank	Blank	88.172	n/a	3	7	7	n/a	7	n/a	3	n/a	n/a	n/a	n/a	286.111	n/a
256.665	0.497	angry	Picture	87.658	n/a	3	7	8	n/a	8	111	3	n/a	n/a	n/a	n/a	286.641	BM12ANS.jpg
257.163	0.514	Blank	Blank	87.144	n/a	3	7	8	n/a	8	n/a	3	n/a	n/a	n/a	n/a	287.139	n/a
257.693	0.497	angry	Picture	86.63	n/a	3	7	9	n/a	9	110	3	n/a	n/a	n/a	n/a	287.669	AM11ANS.jpg
258.19	0.514	Blank	Blank	86.116	n/a	3	7	9	n/a	9	n/a	3	n/a	n/a	n/a	n/a	288.166	n/a
258.721	0.497	angry	Picture	85.603	n/a	3	7	10	n/a	10	85	3	n/a	n/a	n/a	n/a	288.697	BF07ANS.jpg
259.218	0.514	Blank	Blank	85.089	n/a	3	7	10	n/a	10	n/a	3	n/a	n/a	n/a	n/a	289.194	n/a
259.749	0.497	angry	Picture	84.575	n/a	3	7	11	n/a	11	87	3	n/a	n/a	n/a	n/a	289.725	BF11ANS.jpg
260.246	0.514	Blank	Blank	84.061	n/a	3	7	11	n/a	11	n/a	3	n/a	n/a	n/a	n/a	290.222	n/a
260.777	0.497	angry	Picture	83.547	n/a	3	7	12	n/a	12	91	3	n/a	n/a	n/a	n/a	290.753	AF20ANS.jpg
261.274	0.514	Blank	Blank	83.033	n/a	3	7	12	n/a	12	n/a	3	n/a	n/a	n/a	n/a	291.25	n/a
261.805	0.497	angry	Picture	82.519	n/a	3	7	13	n/a	13	115	3	n/a	n/a	n/a	n/a	291.781	AM23ANS.jpg
262.302	0.514	Blank	Blank	82.005	n/a	3	7	13	n/a	13	n/a	3	n/a	n/a	n/a	n/a	292.278	n/a
262.833	0.497	angry	Picture	81.491	n/a	3	7	14	n/a	14	97	3	n/a	n/a	n/a	n/a	292.808	BF28ANS.jpg
263.33	0.514	Blank	Blank	80.977	n/a	3	7	14	n/a	14	n/a	3	n/a	n/a	n/a	n/a	293.306	n/a
263.861	0.497	angry	Picture	80.463	n/a	3	7	15	n/a	15	82	3	n/a	n/a	n/a	n/a	293.836	AF03ANS.jpg
264.358	0.514	Blank	Blank	79.949	n/a	3	7	15	n/a	15	n/a	3	n/a	n/a	n/a	n/a	294.334	n/a
264.888	0.497	angry	Picture	79.435	n/a	3	7	16	n/a	16	96	3	n/a	n/a	n/a	n/a	294.864	AF26ANS.jpg
265.386	0.514	Blank	Blank	78.921	n/a	3	7	16	n/a	16	n/a	3	n/a	n/a	n/a	n/a	295.362	n/a
265.916	0.497	angry	Picture	78.407	n/a	3	7	17	n/a	17	109	3	n/a	n/a	n/a	n/a	295.892	AM10ANS.jpg
266.414	0.514	Blank	Blank	77.894	n/a	3	7	17	n/a	17	n/a	3	n/a	n/a	n/a	n/a	296.389	n/a
266.944	0.497	angry	Picture	77.379	n/a	3	7	18	n/a	18	114	3	n/a	n/a	n/a	n/a	296.92	AM22ANS.jpg
267.441	0.514	Blank	Blank	76.866	n/a	3	7	18	n/a	18	n/a	3	n/a	n/a	n/a	n/a	297.417	n/a
267.972	0.497	angry	Picture	76.352	n/a	3	7	19	n/a	19	120	3	n/a	n/a	n/a	n/a	297.948	AM35ANS.jpg
268.469	0.514	Blank	Blank	75.838	n/a	3	7	19	n/a	19	n/a	3	n/a	n/a	n/a	n/a	298.445	n/a
269.0	0.497	angry	Picture	75.324	n/a	3	7	20	n/a	20	81	3	n/a	n/a	n/a	n/a	298.976	AF01ANS.jpg
269.497	0.514	Blank	Blank	74.81	n/a	3	7	20	n/a	20	n/a	3	n/a	n/a	n/a	n/a	299.473	n/a
270.028	10.014	ITI	Fixation+	64.78	n/a	3	n/a	n/a	n/a	n/a	n/a	n/a	n/a	n/a	n/a	n/a	300.004	n/a
280.058	0.497	neutral	Picture	64.266	n/a	3	8	1	n/a	21	28	1	n/a	n/a	n/a	n/a	310.034	AM09NES.jpg
280.555	0.514	Blank	Blank	63.752	n/a	3	8	1	n/a	21	n/a	1	n/a	n/a	n/a	n/a	310.531	n/a
281.086	0.497	neutral	Picture	63.238	n/a	3	8	2	n/a	22	27	1	n/a	n/a	n/a	n/a	311.062	BM08NES.jpg
281.583	0.514	Blank	Blank	62.724	n/a	3	8	2	n/a	22	n/a	1	n/a	n/a	n/a	n/a	311.559	n/a
282.114	0.497	neutral	Picture	62.21	n/a	3	8	3	n/a	23	16	1	n/a	n/a	n/a	n/a	312.09	AF26NES.jpg
282.611	0.514	Blank	Blank	61.696	n/a	3	8	3	n/a	23	n/a	1	n/a	n/a	n/a	n/a	312.587	n/a
283.141	0.497	neutral	Picture	61.182	n/a	3	8	4	n/a	24	3	1	n/a	n/a	n/a	n/a	313.117	BF04NES.jpg
283.639	0.514	Blank	Blank	60.668	n/a	3	8	4	n/a	24	n/a	1	n/a	n/a	n/a	n/a	313.615	n/a
284.169	0.497	neutral	Picture	60.154	n/a	3	8	5	n/a	25	32	1	n/a	n/a	n/a	n/a	314.145	AM14NES.jpg
284.667	0.514	Blank	Blank	59.64	n/a	3	8	5	n/a	25	n/a	1	n/a	n/a	n/a	n/a	314.643	n/a
285.197	0.497	neutral	Picture	59.126	n/a	3	8	6	n/a	26	37	1	n/a	n/a	n/a	n/a	315.173	BM25NES.jpg
285.695	0.514	Blank	Blank	58.612	n/a	3	8	6	n/a	26	n/a	1	n/a	n/a	n/a	n/a	315.671	n/a
286.225	0.497	neutral	Picture	58.099	n/a	3	8	7	n/a	27	15	1	n/a	n/a	n/a	n/a	316.201	AF25NES.jpg
286.722	0.514	Blank	Blank	57.584	n/a	3	8	7	n/a	27	n/a	1	n/a	n/a	n/a	n/a	316.698	n/a
287.253	0.497	neutral	Picture	57.071	n/a	3	8	8	n/a	28	23	1	n/a	n/a	n/a	n/a	317.229	AM04NES.jpg
287.75	0.514	Blank	Blank	56.557	n/a	3	8	8	n/a	28	n/a	1	n/a	n/a	n/a	n/a	317.726	n/a
288.281	0.497	neutral	Picture	56.043	n/a	3	8	9	n/a	29	34	1	n/a	n/a	n/a	n/a	318.257	AM22NES.jpg
288.778	0.514	Blank	Blank	55.529	n/a	3	8	9	n/a	29	n/a	1	n/a	n/a	n/a	n/a	318.754	n/a
289.309	0.497	neutral	Picture	55.015	n/a	3	8	10	n/a	30	24	1	n/a	n/a	n/a	n/a	319.285	BM05NES.jpg
289.806	0.514	Blank	Blank	54.501	n/a	3	8	10	n/a	30	n/a	1	n/a	n/a	n/a	n/a	319.782	n/a
290.337	0.497	neutral	Picture	53.987	n/a	3	8	11	n/a	31	12	1	n/a	n/a	n/a	n/a	320.313	AF21NES.jpg
290.834	0.514	Blank	Blank	53.473	n/a	3	8	11	n/a	31	n/a	1	n/a	n/a	n/a	n/a	320.81	n/a
291.365	0.497	neutral	Picture	52.959	n/a	3	8	12	n/a	32	6	1	n/a	n/a	n/a	n/a	321.341	AF09NES.jpg
291.862	0.514	Blank	Blank	52.445	n/a	3	8	12	n/a	32	n/a	1	n/a	n/a	n/a	n/a	321.838	n/a
292.392	0.497	neutral	Picture	51.931	n/a	3	8	13	n/a	33	17	1	n/a	n/a	n/a	n/a	322.368	BF28NES.jpg
292.89	0.514	Blank	Blank	51.417	n/a	3	8	13	n/a	33	n/a	1	n/a	n/a	n/a	n/a	322.866	n/a
293.42	0.497	neutral	Picture	50.903	n/a	3	8	14	n/a	34	2	1	n/a	n/a	n/a	n/a	323.396	AF03NES.jpg
293.918	0.514	Blank	Blank	50.389	n/a	3	8	14	n/a	34	n/a	1	n/a	n/a	n/a	n/a	323.894	n/a
294.448	0.497	neutral	Picture	49.875	n/a	3	8	15	n/a	35	9	1	n/a	n/a	n/a	n/a	324.424	AF17NES.jpg
294.946	0.514	Blank	Blank	49.362	n/a	3	8	15	n/a	35	n/a	1	n/a	n/a	n/a	n/a	324.921	n/a
295.476	0.497	neutral	Picture	48.847	n/a	3	8	16	n/a	36	25	1	n/a	n/a	n/a	n/a	325.452	BM06NES.jpg
295.974	0.514	Blank	Blank	48.334	n/a	3	8	16	n/a	36	n/a	1	n/a	n/a	n/a	n/a	325.949	n/a
296.504	0.497	neutral	Picture	47.82	n/a	3	8	17	n/a	37	8	1	n/a	n/a	n/a	n/a	326.48	AF14NES.jpg
297.001	0.514	Blank	Blank	47.306	n/a	3	8	17	n/a	37	n/a	1	n/a	n/a	n/a	n/a	326.977	n/a
297.532	0.497	neutral	Picture	46.792	n/a	3	8	18	n/a	38	19	1	n/a	n/a	n/a	n/a	327.508	AF31NES.jpg
298.029	0.514	Blank	Blank	46.278	n/a	3	8	18	n/a	38	n/a	1	n/a	n/a	n/a	n/a	328.005	n/a
298.56	0.497	neutral	Picture	45.764	n/a	3	8	19	n/a	39	14	1	n/a	n/a	n/a	n/a	328.536	AF23NES.jpg
299.057	0.514	Blank	Blank	45.25	n/a	3	8	19	n/a	39	n/a	1	n/a	n/a	n/a	n/a	329.033	n/a
299.588	0.497	neutral	Picture	44.736	n/a	3	8	20	n/a	40	4	1	n/a	n/a	n/a	n/a	329.564	AF05NES.jpg
300.085	0.514	Blank	Blank	44.222	n/a	3	8	20	n/a	40	n/a	1	n/a	n/a	n/a	n/a	330.061	n/a
300.615	10.014	ITI	Fixation+	34.192	n/a	3	n/a	n/a	n/a	n/a	n/a	n/a	n/a	n/a	n/a	n/a	330.591	n/a
310.646	0.497	angry	Picture	33.678	n/a	3	9	1	n/a	41	84	3	n/a	n/a	n/a	n/a	340.622	AF05ANS.jpg
311.143	0.514	Blank	Blank	33.164	n/a	3	9	1	n/a	41	n/a	3	n/a	n/a	n/a	n/a	341.119	n/a
311.674	0.497	angry	Picture	32.65	n/a	3	9	2	n/a	42	92	3	n/a	n/a	n/a	n/a	341.649	AF21ANS.jpg
312.171	0.514	Blank	Blank	32.136	n/a	3	9	2	n/a	42	n/a	3	n/a	n/a	n/a	n/a	342.147	n/a
312.701	0.497	angry	Picture	31.622	n/a	3	9	3	n/a	43	86	3	n/a	n/a	n/a	n/a	342.677	AF09ANS.jpg
313.199	0.514	Blank	Blank	31.108	n/a	3	9	3	n/a	43	n/a	3	n/a	n/a	n/a	n/a	343.175	n/a
313.729	0.497	angry	Picture	30.594	n/a	3	9	4	n/a	44	93	3	n/a	n/a	n/a	n/a	343.705	BF22ANS.jpg
314.227	0.514	Blank	Blank	30.08	n/a	3	9	4	n/a	44	n/a	3	n/a	n/a	n/a	n/a	344.203	n/a
314.757	0.497	angry	Picture	29.566	n/a	3	9	5	n/a	45	88	3	n/a	n/a	n/a	n/a	344.733	AF14ANS.jpg
315.255	0.514	Blank	Blank	29.053	n/a	3	9	5	n/a	45	n/a	3	n/a	n/a	n/a	n/a	345.231	n/a
315.785	0.497	angry	Picture	28.538	n/a	3	9	6	n/a	46	113	3	n/a	n/a	n/a	n/a	345.761	AM21ANS.jpg
316.282	0.514	Blank	Blank	28.025	n/a	3	9	6	n/a	46	n/a	3	n/a	n/a	n/a	n/a	346.258	n/a
316.813	0.497	angry	Picture	27.511	n/a	3	9	7	n/a	47	95	3	n/a	n/a	n/a	n/a	346.789	AF25ANS.jpg
317.31	0.514	Blank	Blank	26.997	n/a	3	9	7	n/a	47	n/a	3	n/a	n/a	n/a	n/a	347.286	n/a
317.841	0.497	angry	Picture	26.483	n/a	3	9	8	n/a	48	102	3	n/a	n/a	n/a	n/a	347.817	BM03ANS.jpg
318.338	0.514	Blank	Blank	25.969	n/a	3	9	8	n/a	48	n/a	3	n/a	n/a	n/a	n/a	348.314	n/a
318.869	0.497	angry	Picture	25.455	n/a	3	9	9	n/a	49	112	3	n/a	n/a	n/a	n/a	348.845	AM14ANS.jpg
319.366	0.514	Blank	Blank	24.941	n/a	3	9	9	n/a	49	n/a	3	n/a	n/a	n/a	n/a	349.342	n/a
319.897	0.497	angry	Picture	24.427	n/a	3	9	10	n/a	50	83	3	n/a	n/a	n/a	n/a	349.873	BF04ANS.jpg
320.394	0.514	Blank	Blank	23.913	n/a	3	9	10	n/a	50	n/a	3	n/a	n/a	n/a	n/a	350.37	n/a
320.924	0.497	angry	Picture	23.399	n/a	3	9	11	n/a	51	90	3	n/a	n/a	n/a	n/a	350.9	AF18ANS.jpg
321.422	0.514	Blank	Blank	22.885	n/a	3	9	11	n/a	51	n/a	3	n/a	n/a	n/a	n/a	351.398	n/a
321.952	0.497	angry	Picture	22.371	n/a	3	9	12	n/a	52	117	3	n/a	n/a	n/a	n/a	351.928	BM25ANS.jpg
322.45	0.514	Blank	Blank	21.857	n/a	3	9	12	n/a	52	n/a	3	n/a	n/a	n/a	n/a	352.426	n/a
322.98	0.497	angry	Picture	21.343	n/a	3	9	13	n/a	53	94	3	n/a	n/a	n/a	n/a	352.956	AF23ANS.jpg
323.478	0.514	Blank	Blank	20.829	n/a	3	9	13	n/a	53	n/a	3	n/a	n/a	n/a	n/a	353.454	n/a
324.008	0.497	angry	Picture	20.315	n/a	3	9	14	n/a	54	106	3	n/a	n/a	n/a	n/a	353.984	AM07ANS.jpg
324.505	0.514	Blank	Blank	19.801	n/a	3	9	14	n/a	54	n/a	3	n/a	n/a	n/a	n/a	354.481	n/a
325.036	0.497	angry	Picture	19.288	n/a	3	9	15	n/a	55	105	3	n/a	n/a	n/a	n/a	355.012	BM06ANS.jpg
325.533	0.514	Blank	Blank	18.774	n/a	3	9	15	n/a	55	n/a	3	n/a	n/a	n/a	n/a	355.509	n/a
326.064	0.497	angry	Picture	18.26	n/a	3	9	16	n/a	56	116	3	n/a	n/a	n/a	n/a	356.04	BM24ANS.jpg
326.561	0.514	Blank	Blank	17.746	n/a	3	9	16	n/a	56	n/a	3	n/a	n/a	n/a	n/a	356.537	n/a
327.092	0.497	angry	Picture	17.232	n/a	3	9	17	n/a	57	89	3	n/a	n/a	n/a	n/a	357.068	AF17ANS.jpg
327.589	0.514	Blank	Blank	16.718	n/a	3	9	17	n/a	57	n/a	3	n/a	n/a	n/a	n/a	357.565	n/a
328.12	0.497	angry	Picture	16.204	n/a	3	9	18	n/a	58	118	3	n/a	n/a	n/a	n/a	358.096	BM26ANS.jpg
328.617	0.514	Blank	Blank	15.69	n/a	3	9	18	n/a	58	n/a	3	n/a	n/a	n/a	n/a	358.593	n/a
329.148	0.497	angry	Picture	15.176	n/a	3	9	19	n/a	59	100	3	n/a	n/a	n/a	n/a	359.123	AF32ANS.jpg
329.645	0.514	Blank	Blank	14.662	n/a	3	9	19	n/a	59	n/a	3	n/a	n/a	n/a	n/a	359.621	n/a
330.175	0.497	angry	Picture	14.148	n/a	3	9	20	n/a	60	119	3	n/a	n/a	n/a	n/a	360.151	BM28ANS.jpg
330.673	0.514	Blank	Blank	13.634	n/a	3	9	20	n/a	60	n/a	3	n/a	n/a	n/a	n/a	360.649	n/a
331.203	10.014	ITI	Fixation+	3.604	n/a	3	n/a	n/a	n/a	n/a	n/a	n/a	n/a	n/a	n/a	n/a	361.179	n/a
344.821	n/a	ConfirmRating	Rate	n/a	3.598	3	n/a	n/a	0	n/a	n/a	n/a	2	Angry	21	49	374.797	n/a
348.024	n/a	ConfirmRating	Rate	n/a	3.183	3	n/a	n/a	1	n/a	n/a	n/a	3	Angry	0	49	378.0	n/a
348.047	10.014	ITI	Fixation+	106.417	n/a	4	n/a	n/a	n/a	n/a	n/a	n/a	n/a	n/a	n/a	n/a	378.023	n/a
358.077	0.497	happy	Picture	105.903	n/a	4	10	1	n/a	61	79	2	n/a	n/a	n/a	n/a	388.053	BM28HAS.jpg
358.575	0.514	Blank	Blank	105.389	n/a	4	10	1	n/a	61	n/a	2	n/a	n/a	n/a	n/a	388.551	n/a
359.105	0.497	happy	Picture	104.875	n/a	4	10	2	n/a	62	61	2	n/a	n/a	n/a	n/a	389.081	AM01HAS.jpg
359.603	0.514	Blank	Blank	104.361	n/a	4	10	2	n/a	62	n/a	2	n/a	n/a	n/a	n/a	389.579	n/a
360.133	0.497	happy	Picture	103.847	n/a	4	10	3	n/a	63	57	2	n/a	n/a	n/a	n/a	390.109	BF28HAS.jpg
360.631	0.514	Blank	Blank	103.333	n/a	4	10	3	n/a	63	n/a	2	n/a	n/a	n/a	n/a	390.606	n/a
361.161	0.497	happy	Picture	102.819	n/a	4	10	4	n/a	64	77	2	n/a	n/a	n/a	n/a	391.137	BM25HAS.jpg
361.659	0.514	Blank	Blank	102.305	n/a	4	10	4	n/a	64	n/a	2	n/a	n/a	n/a	n/a	391.634	n/a
362.189	0.497	happy	Picture	101.791	n/a	4	10	5	n/a	65	47	2	n/a	n/a	n/a	n/a	392.165	BF11HAS.jpg
362.686	0.514	Blank	Blank	101.278	n/a	4	10	5	n/a	65	n/a	2	n/a	n/a	n/a	n/a	392.662	n/a
363.217	0.497	happy	Picture	100.764	n/a	4	10	6	n/a	66	50	2	n/a	n/a	n/a	n/a	393.193	AF18HAS.jpg
363.714	0.514	Blank	Blank	100.25	n/a	4	10	6	n/a	66	n/a	2	n/a	n/a	n/a	n/a	393.69	n/a
364.245	0.497	happy	Picture	99.736	n/a	4	10	7	n/a	67	78	2	n/a	n/a	n/a	n/a	394.221	BM26HAS.jpg
364.742	0.514	Blank	Blank	99.222	n/a	4	10	7	n/a	67	n/a	2	n/a	n/a	n/a	n/a	394.718	n/a
365.273	0.497	happy	Picture	98.708	n/a	4	10	8	n/a	68	45	2	n/a	n/a	n/a	n/a	395.249	BF07HAS.jpg
365.77	0.514	Blank	Blank	98.194	n/a	4	10	8	n/a	68	n/a	2	n/a	n/a	n/a	n/a	395.746	n/a
366.3	0.497	happy	Picture	97.68	n/a	4	10	9	n/a	69	56	2	n/a	n/a	n/a	n/a	396.276	AF26HAS.jpg
366.798	0.514	Blank	Blank	97.166	n/a	4	10	9	n/a	69	n/a	2	n/a	n/a	n/a	n/a	396.774	n/a
367.328	0.497	happy	Picture	96.652	n/a	4	10	10	n/a	70	65	2	n/a	n/a	n/a	n/a	397.304	BM06HAS.jpg
367.826	0.514	Blank	Blank	96.138	n/a	4	10	10	n/a	70	n/a	2	n/a	n/a	n/a	n/a	397.802	n/a
368.356	0.497	happy	Picture	95.624	n/a	4	10	11	n/a	71	73	2	n/a	n/a	n/a	n/a	398.332	AM21HAS.jpg
368.854	0.514	Blank	Blank	95.11	n/a	4	10	11	n/a	71	n/a	2	n/a	n/a	n/a	n/a	398.83	n/a
369.384	0.497	happy	Picture	94.596	n/a	4	10	12	n/a	72	41	2	n/a	n/a	n/a	n/a	399.36	AF01HAS.jpg
369.881	0.514	Blank	Blank	94.082	n/a	4	10	12	n/a	72	n/a	2	n/a	n/a	n/a	n/a	399.857	n/a
370.412	0.497	happy	Picture	93.568	n/a	4	10	13	n/a	73	59	2	n/a	n/a	n/a	n/a	400.388	AF31HAS.jpg
370.909	0.514	Blank	Blank	93.054	n/a	4	10	13	n/a	73	n/a	2	n/a	n/a	n/a	n/a	400.885	n/a
371.44	0.497	happy	Picture	92.541	n/a	4	10	14	n/a	74	64	2	n/a	n/a	n/a	n/a	401.416	BM05HAS.jpg
371.937	0.514	Blank	Blank	92.027	n/a	4	10	14	n/a	74	n/a	2	n/a	n/a	n/a	n/a	401.913	n/a
372.468	0.497	happy	Picture	91.513	n/a	4	10	15	n/a	75	68	2	n/a	n/a	n/a	n/a	402.444	AM09HAS.jpg
372.965	0.514	Blank	Blank	90.999	n/a	4	10	15	n/a	75	n/a	2	n/a	n/a	n/a	n/a	402.941	n/a
373.496	0.497	happy	Picture	90.485	n/a	4	10	16	n/a	76	54	2	n/a	n/a	n/a	n/a	403.472	AF23HAS.jpg
373.993	0.514	Blank	Blank	89.971	n/a	4	10	16	n/a	76	n/a	2	n/a	n/a	n/a	n/a	403.969	n/a
374.524	0.497	happy	Picture	89.457	n/a	4	10	17	n/a	77	53	2	n/a	n/a	n/a	n/a	404.5	BF22HAS.jpg
375.021	0.514	Blank	Blank	88.943	n/a	4	10	17	n/a	77	n/a	2	n/a	n/a	n/a	n/a	404.997	n/a
375.551	0.497	happy	Picture	88.429	n/a	4	10	18	n/a	78	44	2	n/a	n/a	n/a	n/a	405.527	AF05HAS.jpg
376.049	0.514	Blank	Blank	87.915	n/a	4	10	18	n/a	78	n/a	2	n/a	n/a	n/a	n/a	406.025	n/a
376.579	0.497	happy	Picture	87.401	n/a	4	10	19	n/a	79	52	2	n/a	n/a	n/a	n/a	406.555	AF21HAS.jpg
377.077	0.514	Blank	Blank	86.887	n/a	4	10	19	n/a	79	n/a	2	n/a	n/a	n/a	n/a	407.053	n/a
377.607	0.497	happy	Picture	86.373	n/a	4	10	20	n/a	80	62	2	n/a	n/a	n/a	n/a	407.583	BM03HAS.jpg
378.105	0.514	Blank	Blank	85.859	n/a	4	10	20	n/a	80	n/a	2	n/a	n/a	n/a	n/a	408.08	n/a
378.635	10.014	ITI	Fixation+	75.829	n/a	4	n/a	n/a	n/a	n/a	n/a	n/a	n/a	n/a	n/a	n/a	408.611	n/a
388.665	0.497	neutral	Picture	75.315	n/a	4	11	1	n/a	81	23	1	n/a	n/a	n/a	n/a	418.641	AM04NES.jpg
389.163	0.514	Blank	Blank	74.801	n/a	4	11	1	n/a	81	n/a	1	n/a	n/a	n/a	n/a	419.139	n/a
389.693	0.497	neutral	Picture	74.287	n/a	4	11	2	n/a	82	29	1	n/a	n/a	n/a	n/a	419.669	AM10NES.jpg
390.19	0.514	Blank	Blank	73.773	n/a	4	11	2	n/a	82	n/a	1	n/a	n/a	n/a	n/a	420.166	n/a
390.721	0.497	neutral	Picture	73.259	n/a	4	11	3	n/a	83	24	1	n/a	n/a	n/a	n/a	420.697	BM05NES.jpg
391.218	0.514	Blank	Blank	72.746	n/a	4	11	3	n/a	83	n/a	1	n/a	n/a	n/a	n/a	421.194	n/a
391.749	0.497	neutral	Picture	72.231	n/a	4	11	4	n/a	84	12	1	n/a	n/a	n/a	n/a	421.725	AF21NES.jpg
392.246	0.514	Blank	Blank	71.718	n/a	4	11	4	n/a	84	n/a	1	n/a	n/a	n/a	n/a	422.222	n/a
392.777	0.497	neutral	Picture	71.204	n/a	4	11	5	n/a	85	13	1	n/a	n/a	n/a	n/a	422.753	BF22NES.jpg
393.274	0.514	Blank	Blank	70.69	n/a	4	11	5	n/a	85	n/a	1	n/a	n/a	n/a	n/a	423.25	n/a
393.805	0.497	neutral	Picture	70.176	n/a	4	11	6	n/a	86	17	1	n/a	n/a	n/a	n/a	423.781	BF28NES.jpg
394.302	0.514	Blank	Blank	69.662	n/a	4	11	6	n/a	86	n/a	1	n/a	n/a	n/a	n/a	424.278	n/a
394.833	0.497	neutral	Picture	69.148	n/a	4	11	7	n/a	87	4	1	n/a	n/a	n/a	n/a	424.808	AF05NES.jpg
395.33	0.514	Blank	Blank	68.634	n/a	4	11	7	n/a	87	n/a	1	n/a	n/a	n/a	n/a	425.306	n/a
395.86	0.497	neutral	Picture	68.12	n/a	4	11	8	n/a	88	11	1	n/a	n/a	n/a	n/a	425.836	AF20NES.jpg
396.358	0.514	Blank	Blank	67.606	n/a	4	11	8	n/a	88	n/a	1	n/a	n/a	n/a	n/a	426.334	n/a
396.888	0.497	neutral	Picture	67.092	n/a	4	11	9	n/a	89	22	1	n/a	n/a	n/a	n/a	426.864	BM03NES.jpg
397.386	0.514	Blank	Blank	66.578	n/a	4	11	9	n/a	89	n/a	1	n/a	n/a	n/a	n/a	427.362	n/a
397.916	0.497	neutral	Picture	66.064	n/a	4	11	10	n/a	90	15	1	n/a	n/a	n/a	n/a	427.892	AF25NES.jpg
398.414	0.514	Blank	Blank	65.55	n/a	4	11	10	n/a	90	n/a	1	n/a	n/a	n/a	n/a	428.389	n/a
398.944	0.497	neutral	Picture	65.036	n/a	4	11	11	n/a	91	19	1	n/a	n/a	n/a	n/a	428.92	AF31NES.jpg
399.441	0.514	Blank	Blank	64.522	n/a	4	11	11	n/a	91	n/a	1	n/a	n/a	n/a	n/a	429.417	n/a
399.972	0.497	neutral	Picture	64.009	n/a	4	11	12	n/a	92	9	1	n/a	n/a	n/a	n/a	429.948	AF17NES.jpg
400.469	0.514	Blank	Blank	63.495	n/a	4	11	12	n/a	92	n/a	1	n/a	n/a	n/a	n/a	430.445	n/a
401.0	0.497	neutral	Picture	62.981	n/a	4	11	13	n/a	93	14	1	n/a	n/a	n/a	n/a	430.976	AF23NES.jpg
401.497	0.514	Blank	Blank	62.467	n/a	4	11	13	n/a	93	n/a	1	n/a	n/a	n/a	n/a	431.473	n/a
402.028	0.497	neutral	Picture	61.953	n/a	4	11	14	n/a	94	36	1	n/a	n/a	n/a	n/a	432.004	BM24NES.jpg
402.525	0.514	Blank	Blank	61.439	n/a	4	11	14	n/a	94	n/a	1	n/a	n/a	n/a	n/a	432.501	n/a
403.056	0.497	neutral	Picture	60.925	n/a	4	11	15	n/a	95	34	1	n/a	n/a	n/a	n/a	433.031	AM22NES.jpg
403.553	0.514	Blank	Blank	60.411	n/a	4	11	15	n/a	95	n/a	1	n/a	n/a	n/a	n/a	433.529	n/a
404.083	0.497	neutral	Picture	59.897	n/a	4	11	16	n/a	96	10	1	n/a	n/a	n/a	n/a	434.059	AF18NES.jpg
404.581	0.514	Blank	Blank	59.383	n/a	4	11	16	n/a	96	n/a	1	n/a	n/a	n/a	n/a	434.557	n/a
405.111	0.497	neutral	Picture	58.869	n/a	4	11	17	n/a	97	5	1	n/a	n/a	n/a	n/a	435.087	BF07NES.jpg
405.609	0.514	Blank	Blank	58.355	n/a	4	11	17	n/a	97	n/a	1	n/a	n/a	n/a	n/a	435.585	n/a
406.139	0.497	neutral	Picture	57.841	n/a	4	11	18	n/a	98	25	1	n/a	n/a	n/a	n/a	436.115	BM06NES.jpg
406.637	0.514	Blank	Blank	57.327	n/a	4	11	18	n/a	98	n/a	1	n/a	n/a	n/a	n/a	436.613	n/a
407.167	0.497	neutral	Picture	56.813	n/a	4	11	19	n/a	99	39	1	n/a	n/a	n/a	n/a	437.143	AM28NES.jpg
407.664	0.514	Blank	Blank	56.299	n/a	4	11	19	n/a	99	n/a	1	n/a	n/a	n/a	n/a	437.64	n/a
408.195	0.497	neutral	Picture	55.785	n/a	4	11	20	n/a	100	33	1	n/a	n/a	n/a	n/a	438.171	AM21NES.jpg
408.692	0.514	Blank	Blank	55.272	n/a	4	11	20	n/a	100	n/a	1	n/a	n/a	n/a	n/a	438.668	n/a
409.223	10.014	ITI	Fixation+	45.241	n/a	4	n/a	n/a	n/a	n/a	n/a	n/a	n/a	n/a	n/a	n/a	439.199	n/a
419.253	0.497	happy	Picture	44.727	n/a	4	12	1	n/a	101	74	2	n/a	n/a	n/a	n/a	449.229	AM22HAS.jpg
419.75	0.514	Blank	Blank	44.213	n/a	4	12	1	n/a	101	n/a	2	n/a	n/a	n/a	n/a	449.726	n/a
420.281	0.497	happy	Picture	43.7	n/a	4	12	2	n/a	102	76	2	n/a	n/a	n/a	n/a	450.257	BM24HAS.jpg
420.778	0.513	Blank	Blank	43.186	n/a	4	12	2	n/a	102	n/a	2	n/a	n/a	n/a	n/a	450.754	n/a
421.309	0.497	happy	Picture	42.672	n/a	4	12	3	n/a	103	80	2	n/a	n/a	n/a	n/a	451.285	BM35HAS.jpg
421.806	0.514	Blank	Blank	42.158	n/a	4	12	3	n/a	103	n/a	2	n/a	n/a	n/a	n/a	451.782	n/a
422.337	0.497	happy	Picture	41.644	n/a	4	12	4	n/a	104	75	2	n/a	n/a	n/a	n/a	452.313	AM23HAS.jpg
422.834	0.514	Blank	Blank	41.13	n/a	4	12	4	n/a	104	n/a	2	n/a	n/a	n/a	n/a	452.81	n/a
423.365	0.497	happy	Picture	40.616	n/a	4	12	5	n/a	105	49	2	n/a	n/a	n/a	n/a	453.341	AF17HAS.jpg
423.862	0.514	Blank	Blank	40.102	n/a	4	12	5	n/a	105	n/a	2	n/a	n/a	n/a	n/a	453.838	n/a
424.392	0.497	happy	Picture	39.588	n/a	4	12	6	n/a	106	43	2	n/a	n/a	n/a	n/a	454.368	BF04HAS.jpg
424.89	0.514	Blank	Blank	39.074	n/a	4	12	6	n/a	106	n/a	2	n/a	n/a	n/a	n/a	454.866	n/a
425.42	0.497	happy	Picture	38.56	n/a	4	12	7	n/a	107	70	2	n/a	n/a	n/a	n/a	455.396	BM11HAS.jpg
425.918	0.514	Blank	Blank	38.046	n/a	4	12	7	n/a	107	n/a	2	n/a	n/a	n/a	n/a	455.894	n/a
426.448	0.497	happy	Picture	37.532	n/a	4	12	8	n/a	108	66	2	n/a	n/a	n/a	n/a	456.424	BM07HAS.jpg
426.946	0.514	Blank	Blank	37.018	n/a	4	12	8	n/a	108	n/a	2	n/a	n/a	n/a	n/a	456.921	n/a
427.476	0.497	happy	Picture	36.504	n/a	4	12	9	n/a	109	48	2	n/a	n/a	n/a	n/a	457.452	AF14HAS.jpg
427.974	0.514	Blank	Blank	35.99	n/a	4	12	9	n/a	109	n/a	2	n/a	n/a	n/a	n/a	457.949	n/a
428.504	0.497	happy	Picture	35.476	n/a	4	12	10	n/a	110	58	2	n/a	n/a	n/a	n/a	458.48	BF29HAS.jpg
429.001	0.514	Blank	Blank	34.963	n/a	4	12	10	n/a	110	n/a	2	n/a	n/a	n/a	n/a	458.977	n/a
429.532	0.497	happy	Picture	34.449	n/a	4	12	11	n/a	111	63	2	n/a	n/a	n/a	n/a	459.508	AM04HAS.jpg
430.029	0.514	Blank	Blank	33.935	n/a	4	12	11	n/a	111	n/a	2	n/a	n/a	n/a	n/a	460.005	n/a
430.56	0.497	happy	Picture	33.421	n/a	4	12	12	n/a	112	72	2	n/a	n/a	n/a	n/a	460.536	AM14HAS.jpg
431.057	0.514	Blank	Blank	32.907	n/a	4	12	12	n/a	112	n/a	2	n/a	n/a	n/a	n/a	461.033	n/a
431.588	0.497	happy	Picture	32.393	n/a	4	12	13	n/a	113	55	2	n/a	n/a	n/a	n/a	461.563	AF25HAS.jpg
432.085	0.514	Blank	Blank	31.879	n/a	4	12	13	n/a	113	n/a	2	n/a	n/a	n/a	n/a	462.061	n/a
432.615	0.497	happy	Picture	31.365	n/a	4	12	14	n/a	114	42	2	n/a	n/a	n/a	n/a	462.591	AF03HAS.jpg
433.113	0.514	Blank	Blank	30.851	n/a	4	12	14	n/a	114	n/a	2	n/a	n/a	n/a	n/a	463.089	n/a
433.643	0.497	happy	Picture	30.337	n/a	4	12	15	n/a	115	60	2	n/a	n/a	n/a	n/a	463.619	AF32HAS.jpg
434.141	0.514	Blank	Blank	29.823	n/a	4	12	15	n/a	115	n/a	2	n/a	n/a	n/a	n/a	464.117	n/a
434.671	0.497	happy	Picture	29.309	n/a	4	12	16	n/a	116	67	2	n/a	n/a	n/a	n/a	464.647	BM08HAS.jpg
435.169	0.514	Blank	Blank	28.795	n/a	4	12	16	n/a	116	n/a	2	n/a	n/a	n/a	n/a	465.144	n/a
435.699	0.497	happy	Picture	28.281	n/a	4	12	17	n/a	117	51	2	n/a	n/a	n/a	n/a	465.675	AF20HAS.jpg
436.196	0.514	Blank	Blank	27.767	n/a	4	12	17	n/a	117	n/a	2	n/a	n/a	n/a	n/a	466.172	n/a
436.727	0.497	happy	Picture	27.253	n/a	4	12	18	n/a	118	71	2	n/a	n/a	n/a	n/a	466.703	BM12HAS.jpg
437.224	0.514	Blank	Blank	26.739	n/a	4	12	18	n/a	118	n/a	2	n/a	n/a	n/a	n/a	467.2	n/a
437.755	0.497	happy	Picture	26.226	n/a	4	12	19	n/a	119	69	2	n/a	n/a	n/a	n/a	467.731	AM10HAS.jpg
438.252	0.514	Blank	Blank	25.712	n/a	4	12	19	n/a	119	n/a	2	n/a	n/a	n/a	n/a	468.228	n/a
438.783	0.497	happy	Picture	25.198	n/a	4	12	20	n/a	120	46	2	n/a	n/a	n/a	n/a	468.759	AF09HAS.jpg
439.28	0.514	Blank	Blank	24.684	n/a	4	12	20	n/a	120	n/a	2	n/a	n/a	n/a	n/a	469.256	n/a
439.811	10.014	ITI	Fixation+	14.654	n/a	4	n/a	n/a	n/a	n/a	n/a	n/a	n/a	n/a	n/a	n/a	469.787	n/a
464.478	n/a	ConfirmRating	Rate	n/a	14.639	4	n/a	n/a	0	n/a	n/a	n/a	2	Happy	11	49	494.454	n/a
467.42	n/a	ConfirmRating	Rate	n/a	2.934	4	n/a	n/a	1	n/a	n/a	n/a	3	Happy	11	49	497.396	n/a
