onset	duration	trial_type	event_type	time_until_response	response_time	trial_number	block_num_within_trial	image_seq_num_within_block	question_seq_num_within_block	image_seq_num	picture_number	condition	question_type	block_type	rating	rating_computed	onset_uncorrected	KDEV_imagefile
0.017	10.014	ITI	Fixation+	94.523	n/a	1	n/a	n/a	n/a	n/a	n/a	n/a	n/a	n/a	n/a	n/a	31.014	n/a
10.047	0.497	angry	Picture	94.01	n/a	1	1	1	n/a	1	46	2	n/a	n/a	n/a	n/a	41.044	AF09HAS.jpg
10.544	0.514	Blank	Blank	93.496	n/a	1	1	1	n/a	1	n/a	2	n/a	n/a	n/a	n/a	41.541	n/a
11.075	0.497	angry	Picture	92.982	n/a	1	1	2	n/a	2	69	2	n/a	n/a	n/a	n/a	42.072	AM10HAS.jpg
11.572	0.514	Blank	Blank	92.468	n/a	1	1	2	n/a	2	n/a	2	n/a	n/a	n/a	n/a	42.569	n/a
12.103	0.497	angry	Picture	91.954	n/a	1	1	3	n/a	3	71	2	n/a	n/a	n/a	n/a	43.099	BM12HAS.jpg
12.6	0.514	Blank	Blank	91.44	n/a	1	1	3	n/a	3	n/a	2	n/a	n/a	n/a	n/a	43.597	n/a
13.131	0.497	angry	Picture	90.926	n/a	1	1	4	n/a	4	51	2	n/a	n/a	n/a	n/a	44.127	AF20HAS.jpg
13.628	0.514	Blank	Blank	90.412	n/a	1	1	4	n/a	4	n/a	2	n/a	n/a	n/a	n/a	44.625	n/a
14.159	0.497	angry	Picture	89.898	n/a	1	1	5	n/a	5	67	2	n/a	n/a	n/a	n/a	45.155	BM08HAS.jpg
14.656	0.514	Blank	Blank	89.384	n/a	1	1	5	n/a	5	n/a	2	n/a	n/a	n/a	n/a	45.653	n/a
15.187	0.497	angry	Picture	88.87	n/a	1	1	6	n/a	6	60	2	n/a	n/a	n/a	n/a	46.183	AF32HAS.jpg
15.684	0.514	Blank	Blank	88.356	n/a	1	1	6	n/a	6	n/a	2	n/a	n/a	n/a	n/a	46.681	n/a
16.214	0.497	angry	Picture	87.842	n/a	1	1	7	n/a	7	42	2	n/a	n/a	n/a	n/a	47.211	AF03HAS.jpg
16.712	0.514	Blank	Blank	87.328	n/a	1	1	7	n/a	7	n/a	2	n/a	n/a	n/a	n/a	47.708	n/a
17.242	0.497	angry	Picture	86.814	n/a	1	1	8	n/a	8	55	2	n/a	n/a	n/a	n/a	48.239	AF25HAS.jpg
17.74	0.514	Blank	Blank	86.3	n/a	1	1	8	n/a	8	n/a	2	n/a	n/a	n/a	n/a	48.736	n/a
18.27	0.497	angry	Picture	85.786	n/a	1	1	9	n/a	9	72	2	n/a	n/a	n/a	n/a	49.267	AM14HAS.jpg
18.767	0.514	Blank	Blank	85.273	n/a	1	1	9	n/a	9	n/a	2	n/a	n/a	n/a	n/a	49.764	n/a
19.298	0.497	angry	Picture	84.758	n/a	1	1	10	n/a	10	63	2	n/a	n/a	n/a	n/a	50.295	AM04HAS.jpg
19.795	0.514	Blank	Blank	84.245	n/a	1	1	10	n/a	10	n/a	2	n/a	n/a	n/a	n/a	50.792	n/a
20.326	0.497	angry	Picture	83.731	n/a	1	1	11	n/a	11	58	2	n/a	n/a	n/a	n/a	51.322	BF29HAS.jpg
20.823	0.514	Blank	Blank	83.217	n/a	1	1	11	n/a	11	n/a	2	n/a	n/a	n/a	n/a	51.82	n/a
21.354	0.497	angry	Picture	82.703	n/a	1	1	12	n/a	12	48	2	n/a	n/a	n/a	n/a	52.35	AF14HAS.jpg
21.851	0.514	Blank	Blank	82.189	n/a	1	1	12	n/a	12	n/a	2	n/a	n/a	n/a	n/a	52.848	n/a
22.382	0.497	angry	Picture	81.675	n/a	1	1	13	n/a	13	66	2	n/a	n/a	n/a	n/a	53.378	BM07HAS.jpg
22.879	0.514	Blank	Blank	81.161	n/a	1	1	13	n/a	13	n/a	2	n/a	n/a	n/a	n/a	53.876	n/a
23.41	0.497	angry	Picture	80.647	n/a	1	1	14	n/a	14	70	2	n/a	n/a	n/a	n/a	54.406	BM11HAS.jpg
23.907	0.514	Blank	Blank	80.133	n/a	1	1	14	n/a	14	n/a	2	n/a	n/a	n/a	n/a	54.904	n/a
24.437	0.497	angry	Picture	79.619	n/a	1	1	15	n/a	15	43	2	n/a	n/a	n/a	n/a	55.434	BF04HAS.jpg
24.935	0.514	Blank	Blank	79.105	n/a	1	1	15	n/a	15	n/a	2	n/a	n/a	n/a	n/a	55.931	n/a
25.465	0.497	angry	Picture	78.591	n/a	1	1	16	n/a	16	49	2	n/a	n/a	n/a	n/a	56.462	AF17HAS.jpg
25.963	0.514	Blank	Blank	78.077	n/a	1	1	16	n/a	16	n/a	2	n/a	n/a	n/a	n/a	56.959	n/a
26.493	0.497	angry	Picture	77.563	n/a	1	1	17	n/a	17	75	2	n/a	n/a	n/a	n/a	57.49	AM23HAS.jpg
26.991	0.514	Blank	Blank	77.049	n/a	1	1	17	n/a	17	n/a	2	n/a	n/a	n/a	n/a	57.987	n/a
27.521	0.497	angry	Picture	76.535	n/a	1	1	18	n/a	18	80	2	n/a	n/a	n/a	n/a	58.518	BM35HAS.jpg
28.018	0.514	Blank	Blank	76.022	n/a	1	1	18	n/a	18	n/a	2	n/a	n/a	n/a	n/a	59.015	n/a
28.549	0.497	angry	Picture	75.508	n/a	1	1	19	n/a	19	76	2	n/a	n/a	n/a	n/a	59.546	BM24HAS.jpg
29.046	0.514	Blank	Blank	74.994	n/a	1	1	19	n/a	19	n/a	2	n/a	n/a	n/a	n/a	60.043	n/a
29.577	0.497	angry	Picture	74.48	n/a	1	1	20	n/a	20	74	2	n/a	n/a	n/a	n/a	60.573	AM22HAS.jpg
30.074	0.514	Blank	Blank	73.966	n/a	1	1	20	n/a	20	n/a	2	n/a	n/a	n/a	n/a	61.071	n/a
30.605	10.014	ITI	Fixation+	63.936	n/a	1	n/a	n/a	n/a	n/a	n/a	n/a	n/a	n/a	n/a	n/a	61.601	n/a
40.635	0.497	neutral	Picture	63.422	n/a	1	2	1	n/a	21	33	1	n/a	n/a	n/a	n/a	71.632	AM21NES.jpg
41.132	0.514	Blank	Blank	62.908	n/a	1	2	1	n/a	21	n/a	1	n/a	n/a	n/a	n/a	72.129	n/a
41.663	0.497	neutral	Picture	62.394	n/a	1	2	2	n/a	22	39	1	n/a	n/a	n/a	n/a	72.659	AM28NES.jpg
42.16	0.514	Blank	Blank	61.88	n/a	1	2	2	n/a	22	n/a	1	n/a	n/a	n/a	n/a	73.157	n/a
42.691	0.497	neutral	Picture	61.366	n/a	1	2	3	n/a	23	25	1	n/a	n/a	n/a	n/a	73.687	BM06NES.jpg
43.188	0.514	Blank	Blank	60.852	n/a	1	2	3	n/a	23	n/a	1	n/a	n/a	n/a	n/a	74.185	n/a
43.719	0.497	neutral	Picture	60.338	n/a	1	2	4	n/a	24	5	1	n/a	n/a	n/a	n/a	74.715	BF07NES.jpg
44.216	0.514	Blank	Blank	59.824	n/a	1	2	4	n/a	24	n/a	1	n/a	n/a	n/a	n/a	75.213	n/a
44.746	0.497	neutral	Picture	59.31	n/a	1	2	5	n/a	25	10	1	n/a	n/a	n/a	n/a	75.743	AF18NES.jpg
45.244	0.514	Blank	Blank	58.796	n/a	1	2	5	n/a	25	n/a	1	n/a	n/a	n/a	n/a	76.24	n/a
45.774	0.497	neutral	Picture	58.282	n/a	1	2	6	n/a	26	34	1	n/a	n/a	n/a	n/a	76.771	AM22NES.jpg
46.272	0.514	Blank	Blank	57.768	n/a	1	2	6	n/a	26	n/a	1	n/a	n/a	n/a	n/a	77.268	n/a
46.802	0.497	neutral	Picture	57.254	n/a	1	2	7	n/a	27	36	1	n/a	n/a	n/a	n/a	77.799	BM24NES.jpg
47.299	0.514	Blank	Blank	56.74	n/a	1	2	7	n/a	27	n/a	1	n/a	n/a	n/a	n/a	78.296	n/a
47.83	0.497	neutral	Picture	56.226	n/a	1	2	8	n/a	28	14	1	n/a	n/a	n/a	n/a	78.827	AF23NES.jpg
48.327	0.514	Blank	Blank	55.712	n/a	1	2	8	n/a	28	n/a	1	n/a	n/a	n/a	n/a	79.324	n/a
48.858	0.497	neutral	Picture	55.199	n/a	1	2	9	n/a	29	9	1	n/a	n/a	n/a	n/a	79.855	AF17NES.jpg
49.355	0.514	Blank	Blank	54.685	n/a	1	2	9	n/a	29	n/a	1	n/a	n/a	n/a	n/a	80.352	n/a
49.886	0.497	neutral	Picture	54.171	n/a	1	2	10	n/a	30	19	1	n/a	n/a	n/a	n/a	80.882	AF31NES.jpg
50.383	0.514	Blank	Blank	53.657	n/a	1	2	10	n/a	30	n/a	1	n/a	n/a	n/a	n/a	81.38	n/a
50.914	0.497	neutral	Picture	53.143	n/a	1	2	11	n/a	31	15	1	n/a	n/a	n/a	n/a	81.91	AF25NES.jpg
51.411	0.514	Blank	Blank	52.629	n/a	1	2	11	n/a	31	n/a	1	n/a	n/a	n/a	n/a	82.408	n/a
51.942	0.497	neutral	Picture	52.115	n/a	1	2	12	n/a	32	22	1	n/a	n/a	n/a	n/a	82.938	BM03NES.jpg
52.439	0.514	Blank	Blank	51.601	n/a	1	2	12	n/a	32	n/a	1	n/a	n/a	n/a	n/a	83.436	n/a
52.969	0.497	neutral	Picture	51.087	n/a	1	2	13	n/a	33	11	1	n/a	n/a	n/a	n/a	83.966	AF20NES.jpg
53.467	0.514	Blank	Blank	50.573	n/a	1	2	13	n/a	33	n/a	1	n/a	n/a	n/a	n/a	84.463	n/a
53.997	0.497	neutral	Picture	50.059	n/a	1	2	14	n/a	34	4	1	n/a	n/a	n/a	n/a	84.994	AF05NES.jpg
54.495	0.514	Blank	Blank	49.545	n/a	1	2	14	n/a	34	n/a	1	n/a	n/a	n/a	n/a	85.491	n/a
55.025	0.497	neutral	Picture	49.031	n/a	1	2	15	n/a	35	17	1	n/a	n/a	n/a	n/a	86.022	BF28NES.jpg
55.523	0.514	Blank	Blank	48.517	n/a	1	2	15	n/a	35	n/a	1	n/a	n/a	n/a	n/a	86.519	n/a
56.053	0.497	neutral	Picture	48.003	n/a	1	2	16	n/a	36	13	1	n/a	n/a	n/a	n/a	87.05	BF22NES.jpg
56.55	0.514	Blank	Blank	47.489	n/a	1	2	16	n/a	36	n/a	1	n/a	n/a	n/a	n/a	87.547	n/a
57.081	0.497	neutral	Picture	46.975	n/a	1	2	17	n/a	37	12	1	n/a	n/a	n/a	n/a	88.078	AF21NES.jpg
57.578	0.514	Blank	Blank	46.462	n/a	1	2	17	n/a	37	n/a	1	n/a	n/a	n/a	n/a	88.575	n/a
58.109	0.497	neutral	Picture	45.948	n/a	1	2	18	n/a	38	24	1	n/a	n/a	n/a	n/a	89.106	BM05NES.jpg
58.606	0.514	Blank	Blank	45.434	n/a	1	2	18	n/a	38	n/a	1	n/a	n/a	n/a	n/a	89.603	n/a
59.137	0.497	neutral	Picture	44.92	n/a	1	2	19	n/a	39	29	1	n/a	n/a	n/a	n/a	90.133	AM10NES.jpg
59.634	0.514	Blank	Blank	44.406	n/a	1	2	19	n/a	39	n/a	1	n/a	n/a	n/a	n/a	90.631	n/a
60.165	0.497	neutral	Picture	43.892	n/a	1	2	20	n/a	40	23	1	n/a	n/a	n/a	n/a	91.161	AM04NES.jpg
60.662	0.514	Blank	Blank	43.378	n/a	1	2	20	n/a	40	n/a	1	n/a	n/a	n/a	n/a	91.659	n/a
61.193	10.014	ITI	Fixation+	33.348	n/a	1	n/a	n/a	n/a	n/a	n/a	n/a	n/a	n/a	n/a	n/a	92.189	n/a
71.223	0.497	angry	Picture	32.834	n/a	1	3	1	n/a	41	62	2	n/a	n/a	n/a	n/a	102.219	BM03HAS.jpg
71.72	0.514	Blank	Blank	32.32	n/a	1	3	1	n/a	41	n/a	2	n/a	n/a	n/a	n/a	102.717	n/a
72.251	0.497	angry	Picture	31.806	n/a	1	3	2	n/a	42	52	2	n/a	n/a	n/a	n/a	103.247	AF21HAS.jpg
72.748	0.514	Blank	Blank	31.292	n/a	1	3	2	n/a	42	n/a	2	n/a	n/a	n/a	n/a	103.745	n/a
73.278	0.497	angry	Picture	30.778	n/a	1	3	3	n/a	43	44	2	n/a	n/a	n/a	n/a	104.275	AF05HAS.jpg
73.776	0.514	Blank	Blank	30.264	n/a	1	3	3	n/a	43	n/a	2	n/a	n/a	n/a	n/a	104.772	n/a
74.306	0.497	angry	Picture	29.75	n/a	1	3	4	n/a	44	53	2	n/a	n/a	n/a	n/a	105.303	BF22HAS.jpg
74.804	0.514	Blank	Blank	29.236	n/a	1	3	4	n/a	44	n/a	2	n/a	n/a	n/a	n/a	105.8	n/a
75.334	0.497	angry	Picture	28.722	n/a	1	3	5	n/a	45	54	2	n/a	n/a	n/a	n/a	106.331	AF23HAS.jpg
75.832	0.514	Blank	Blank	28.208	n/a	1	3	5	n/a	45	n/a	2	n/a	n/a	n/a	n/a	106.828	n/a
76.362	0.497	angry	Picture	27.694	n/a	1	3	6	n/a	46	68	2	n/a	n/a	n/a	n/a	107.359	AM09HAS.jpg
76.859	0.514	Blank	Blank	27.18	n/a	1	3	6	n/a	46	n/a	2	n/a	n/a	n/a	n/a	107.856	n/a
77.39	0.497	angry	Picture	26.666	n/a	1	3	7	n/a	47	64	2	n/a	n/a	n/a	n/a	108.387	BM05HAS.jpg
77.887	0.514	Blank	Blank	26.153	n/a	1	3	7	n/a	47	n/a	2	n/a	n/a	n/a	n/a	108.884	n/a
78.418	0.497	angry	Picture	25.639	n/a	1	3	8	n/a	48	59	2	n/a	n/a	n/a	n/a	109.415	AF31HAS.jpg
78.915	0.514	Blank	Blank	25.125	n/a	1	3	8	n/a	48	n/a	2	n/a	n/a	n/a	n/a	109.912	n/a
79.446	0.497	angry	Picture	24.611	n/a	1	3	9	n/a	49	41	2	n/a	n/a	n/a	n/a	110.442	AF01HAS.jpg
79.943	0.514	Blank	Blank	24.097	n/a	1	3	9	n/a	49	n/a	2	n/a	n/a	n/a	n/a	110.94	n/a
80.474	0.497	angry	Picture	23.583	n/a	1	3	10	n/a	50	73	2	n/a	n/a	n/a	n/a	111.47	AM21HAS.jpg
80.971	0.514	Blank	Blank	23.069	n/a	1	3	10	n/a	50	n/a	2	n/a	n/a	n/a	n/a	111.968	n/a
81.501	0.497	angry	Picture	22.555	n/a	1	3	11	n/a	51	65	2	n/a	n/a	n/a	n/a	112.498	BM06HAS.jpg
81.999	0.514	Blank	Blank	22.041	n/a	1	3	11	n/a	51	n/a	2	n/a	n/a	n/a	n/a	112.996	n/a
82.529	0.497	angry	Picture	21.527	n/a	1	3	12	n/a	52	56	2	n/a	n/a	n/a	n/a	113.526	AF26HAS.jpg
83.027	0.514	Blank	Blank	21.013	n/a	1	3	12	n/a	52	n/a	2	n/a	n/a	n/a	n/a	114.023	n/a
83.557	0.497	angry	Picture	20.499	n/a	1	3	13	n/a	53	45	2	n/a	n/a	n/a	n/a	114.554	BF07HAS.jpg
84.055	0.514	Blank	Blank	19.985	n/a	1	3	13	n/a	53	n/a	2	n/a	n/a	n/a	n/a	115.051	n/a
84.585	0.497	angry	Picture	19.471	n/a	1	3	14	n/a	54	78	2	n/a	n/a	n/a	n/a	115.582	BM26HAS.jpg
85.082	0.514	Blank	Blank	18.957	n/a	1	3	14	n/a	54	n/a	2	n/a	n/a	n/a	n/a	116.079	n/a
85.613	0.497	angry	Picture	18.444	n/a	1	3	15	n/a	55	50	2	n/a	n/a	n/a	n/a	116.61	AF18HAS.jpg
86.11	0.514	Blank	Blank	17.93	n/a	1	3	15	n/a	55	n/a	2	n/a	n/a	n/a	n/a	117.107	n/a
86.641	0.497	angry	Picture	17.416	n/a	1	3	16	n/a	56	47	2	n/a	n/a	n/a	n/a	117.638	BF11HAS.jpg
87.138	0.514	Blank	Blank	16.902	n/a	1	3	16	n/a	56	n/a	2	n/a	n/a	n/a	n/a	118.135	n/a
87.669	0.497	angry	Picture	16.388	n/a	1	3	17	n/a	57	77	2	n/a	n/a	n/a	n/a	118.665	BM25HAS.jpg
88.166	0.514	Blank	Blank	15.874	n/a	1	3	17	n/a	57	n/a	2	n/a	n/a	n/a	n/a	119.163	n/a
88.697	0.497	angry	Picture	15.36	n/a	1	3	18	n/a	58	57	2	n/a	n/a	n/a	n/a	119.693	BF28HAS.jpg
89.194	0.514	Blank	Blank	14.846	n/a	1	3	18	n/a	58	n/a	2	n/a	n/a	n/a	n/a	120.191	n/a
89.725	0.497	angry	Picture	14.332	n/a	1	3	19	n/a	59	61	2	n/a	n/a	n/a	n/a	120.721	AM01HAS.jpg
90.222	0.514	Blank	Blank	13.818	n/a	1	3	19	n/a	59	n/a	2	n/a	n/a	n/a	n/a	121.219	n/a
90.752	0.497	angry	Picture	13.304	n/a	1	3	20	n/a	60	79	2	n/a	n/a	n/a	n/a	121.749	BM28HAS.jpg
91.25	0.514	Blank	Blank	12.79	n/a	1	3	20	n/a	60	n/a	2	n/a	n/a	n/a	n/a	122.246	n/a
91.78	10.014	ITI	Fixation+	2.76	n/a	1	n/a	n/a	n/a	n/a	n/a	n/a	n/a	n/a	n/a	n/a	122.777	n/a
104.554	n/a	ConfirmRating	Rate	n/a	2.719	1	n/a	n/a	0	n/a	n/a	n/a	2	Angry	63	51	135.55	n/a
108.194	n/a	ConfirmRating	Rate	n/a	3.631	1	n/a	n/a	1	n/a	n/a	n/a	3	Angry	21	47	139.19	n/a
108.226	10.014	ITI	Fixation+	99.222	n/a	2	n/a	n/a	n/a	n/a	n/a	n/a	n/a	n/a	n/a	n/a	139.223	n/a
118.257	0.497	happy	Picture	98.708	n/a	2	4	1	n/a	61	119	3	n/a	n/a	n/a	n/a	149.253	BM28ANS.jpg
118.754	0.514	Blank	Blank	98.194	n/a	2	4	1	n/a	61	n/a	3	n/a	n/a	n/a	n/a	149.751	n/a
119.285	0.497	happy	Picture	97.68	n/a	2	4	2	n/a	62	100	3	n/a	n/a	n/a	n/a	150.281	AF32ANS.jpg
119.782	0.514	Blank	Blank	97.166	n/a	2	4	2	n/a	62	n/a	3	n/a	n/a	n/a	n/a	150.779	n/a
120.312	0.497	happy	Picture	96.653	n/a	2	4	3	n/a	63	118	3	n/a	n/a	n/a	n/a	151.309	BM26ANS.jpg
120.81	0.514	Blank	Blank	96.139	n/a	2	4	3	n/a	63	n/a	3	n/a	n/a	n/a	n/a	151.806	n/a
121.34	0.497	happy	Picture	95.625	n/a	2	4	4	n/a	64	89	3	n/a	n/a	n/a	n/a	152.337	AF17ANS.jpg
121.838	0.514	Blank	Blank	95.111	n/a	2	4	4	n/a	64	n/a	3	n/a	n/a	n/a	n/a	152.834	n/a
122.368	0.497	happy	Picture	94.597	n/a	2	4	5	n/a	65	116	3	n/a	n/a	n/a	n/a	153.365	BM24ANS.jpg
122.865	0.514	Blank	Blank	94.083	n/a	2	4	5	n/a	65	n/a	3	n/a	n/a	n/a	n/a	153.862	n/a
123.396	0.497	happy	Picture	93.569	n/a	2	4	6	n/a	66	105	3	n/a	n/a	n/a	n/a	154.393	BM06ANS.jpg
123.893	0.514	Blank	Blank	93.055	n/a	2	4	6	n/a	66	n/a	3	n/a	n/a	n/a	n/a	154.89	n/a
124.424	0.497	happy	Picture	92.541	n/a	2	4	7	n/a	67	106	3	n/a	n/a	n/a	n/a	155.421	AM07ANS.jpg
124.921	0.514	Blank	Blank	92.027	n/a	2	4	7	n/a	67	n/a	3	n/a	n/a	n/a	n/a	155.918	n/a
125.452	0.497	happy	Picture	91.513	n/a	2	4	8	n/a	68	94	3	n/a	n/a	n/a	n/a	156.448	AF23ANS.jpg
125.949	0.514	Blank	Blank	90.999	n/a	2	4	8	n/a	68	n/a	3	n/a	n/a	n/a	n/a	156.946	n/a
126.48	0.497	happy	Picture	90.485	n/a	2	4	9	n/a	69	117	3	n/a	n/a	n/a	n/a	157.476	BM25ANS.jpg
126.977	0.514	Blank	Blank	89.971	n/a	2	4	9	n/a	69	n/a	3	n/a	n/a	n/a	n/a	157.974	n/a
127.508	0.497	happy	Picture	89.457	n/a	2	4	10	n/a	70	90	3	n/a	n/a	n/a	n/a	158.504	AF18ANS.jpg
128.005	0.514	Blank	Blank	88.943	n/a	2	4	10	n/a	70	n/a	3	n/a	n/a	n/a	n/a	159.002	n/a
128.536	0.497	happy	Picture	88.429	n/a	2	4	11	n/a	71	83	3	n/a	n/a	n/a	n/a	159.532	BF04ANS.jpg
129.033	0.514	Blank	Blank	87.915	n/a	2	4	11	n/a	71	n/a	3	n/a	n/a	n/a	n/a	160.029	n/a
129.563	0.497	happy	Picture	87.402	n/a	2	4	12	n/a	72	112	3	n/a	n/a	n/a	n/a	160.56	AM14ANS.jpg
130.061	0.514	Blank	Blank	86.888	n/a	2	4	12	n/a	72	n/a	3	n/a	n/a	n/a	n/a	161.057	n/a
130.591	0.497	happy	Picture	86.374	n/a	2	4	13	n/a	73	102	3	n/a	n/a	n/a	n/a	161.588	BM03ANS.jpg
131.089	0.514	Blank	Blank	85.86	n/a	2	4	13	n/a	73	n/a	3	n/a	n/a	n/a	n/a	162.085	n/a
131.619	0.497	happy	Picture	85.346	n/a	2	4	14	n/a	74	95	3	n/a	n/a	n/a	n/a	162.616	AF25ANS.jpg
132.117	0.514	Blank	Blank	84.832	n/a	2	4	14	n/a	74	n/a	3	n/a	n/a	n/a	n/a	163.113	n/a
132.647	0.497	happy	Picture	84.318	n/a	2	4	15	n/a	75	113	3	n/a	n/a	n/a	n/a	163.644	AM21ANS.jpg
133.144	0.514	Blank	Blank	83.804	n/a	2	4	15	n/a	75	n/a	3	n/a	n/a	n/a	n/a	164.141	n/a
133.675	0.497	happy	Picture	83.29	n/a	2	4	16	n/a	76	88	3	n/a	n/a	n/a	n/a	164.672	AF14ANS.jpg
134.172	0.514	Blank	Blank	82.776	n/a	2	4	16	n/a	76	n/a	3	n/a	n/a	n/a	n/a	165.169	n/a
134.703	0.497	happy	Picture	82.262	n/a	2	4	17	n/a	77	93	3	n/a	n/a	n/a	n/a	165.699	BF22ANS.jpg
135.2	0.514	Blank	Blank	81.748	n/a	2	4	17	n/a	77	n/a	3	n/a	n/a	n/a	n/a	166.197	n/a
135.731	0.497	happy	Picture	81.234	n/a	2	4	18	n/a	78	86	3	n/a	n/a	n/a	n/a	166.727	AF09ANS.jpg
136.228	0.514	Blank	Blank	80.72	n/a	2	4	18	n/a	78	n/a	3	n/a	n/a	n/a	n/a	167.225	n/a
136.758	0.497	happy	Picture	80.206	n/a	2	4	19	n/a	79	92	3	n/a	n/a	n/a	n/a	167.755	AF21ANS.jpg
137.256	0.514	Blank	Blank	79.692	n/a	2	4	19	n/a	79	n/a	3	n/a	n/a	n/a	n/a	168.252	n/a
137.786	0.497	happy	Picture	79.179	n/a	2	4	20	n/a	80	84	3	n/a	n/a	n/a	n/a	168.783	AF05ANS.jpg
138.284	0.514	Blank	Blank	78.665	n/a	2	4	20	n/a	80	n/a	3	n/a	n/a	n/a	n/a	169.28	n/a
138.814	10.014	ITI	Fixation+	68.634	n/a	2	n/a	n/a	n/a	n/a	n/a	n/a	n/a	n/a	n/a	n/a	169.811	n/a
148.845	0.497	neutral	Picture	68.12	n/a	2	5	1	n/a	81	4	1	n/a	n/a	n/a	n/a	179.841	AF05NES.jpg
149.342	0.514	Blank	Blank	67.606	n/a	2	5	1	n/a	81	n/a	1	n/a	n/a	n/a	n/a	180.338	n/a
149.872	0.497	neutral	Picture	67.093	n/a	2	5	2	n/a	82	14	1	n/a	n/a	n/a	n/a	180.869	AF23NES.jpg
150.37	0.514	Blank	Blank	66.579	n/a	2	5	2	n/a	82	n/a	1	n/a	n/a	n/a	n/a	181.366	n/a
150.9	0.497	neutral	Picture	66.065	n/a	2	5	3	n/a	83	19	1	n/a	n/a	n/a	n/a	181.897	AF31NES.jpg
151.398	0.514	Blank	Blank	65.551	n/a	2	5	3	n/a	83	n/a	1	n/a	n/a	n/a	n/a	182.394	n/a
151.928	0.497	neutral	Picture	65.037	n/a	2	5	4	n/a	84	8	1	n/a	n/a	n/a	n/a	182.925	AF14NES.jpg
152.425	0.514	Blank	Blank	64.523	n/a	2	5	4	n/a	84	n/a	1	n/a	n/a	n/a	n/a	183.422	n/a
152.956	0.497	neutral	Picture	64.009	n/a	2	5	5	n/a	85	25	1	n/a	n/a	n/a	n/a	183.953	BM06NES.jpg
153.453	0.514	Blank	Blank	63.495	n/a	2	5	5	n/a	85	n/a	1	n/a	n/a	n/a	n/a	184.45	n/a
153.984	0.497	neutral	Picture	62.981	n/a	2	5	6	n/a	86	9	1	n/a	n/a	n/a	n/a	184.981	AF17NES.jpg
154.481	0.514	Blank	Blank	62.467	n/a	2	5	6	n/a	86	n/a	1	n/a	n/a	n/a	n/a	185.478	n/a
155.012	0.497	neutral	Picture	61.953	n/a	2	5	7	n/a	87	2	1	n/a	n/a	n/a	n/a	186.008	AF03NES.jpg
155.509	0.514	Blank	Blank	61.439	n/a	2	5	7	n/a	87	n/a	1	n/a	n/a	n/a	n/a	186.506	n/a
156.04	0.497	neutral	Picture	60.925	n/a	2	5	8	n/a	88	17	1	n/a	n/a	n/a	n/a	187.036	BF28NES.jpg
156.537	0.514	Blank	Blank	60.411	n/a	2	5	8	n/a	88	n/a	1	n/a	n/a	n/a	n/a	187.534	n/a
157.067	0.497	neutral	Picture	59.897	n/a	2	5	9	n/a	89	6	1	n/a	n/a	n/a	n/a	188.064	AF09NES.jpg
157.565	0.514	Blank	Blank	59.383	n/a	2	5	9	n/a	89	n/a	1	n/a	n/a	n/a	n/a	188.561	n/a
158.095	0.497	neutral	Picture	58.869	n/a	2	5	10	n/a	90	12	1	n/a	n/a	n/a	n/a	189.092	AF21NES.jpg
158.593	0.514	Blank	Blank	58.356	n/a	2	5	10	n/a	90	n/a	1	n/a	n/a	n/a	n/a	189.589	n/a
159.123	0.497	neutral	Picture	57.842	n/a	2	5	11	n/a	91	24	1	n/a	n/a	n/a	n/a	190.12	BM05NES.jpg
159.621	0.514	Blank	Blank	57.328	n/a	2	5	11	n/a	91	n/a	1	n/a	n/a	n/a	n/a	190.617	n/a
160.151	0.497	neutral	Picture	56.814	n/a	2	5	12	n/a	92	34	1	n/a	n/a	n/a	n/a	191.148	AM22NES.jpg
160.649	0.514	Blank	Blank	56.3	n/a	2	5	12	n/a	92	n/a	1	n/a	n/a	n/a	n/a	191.645	n/a
161.179	0.497	neutral	Picture	55.786	n/a	2	5	13	n/a	93	23	1	n/a	n/a	n/a	n/a	192.176	AM04NES.jpg
161.676	0.514	Blank	Blank	55.272	n/a	2	5	13	n/a	93	n/a	1	n/a	n/a	n/a	n/a	192.673	n/a
162.207	0.497	neutral	Picture	54.758	n/a	2	5	14	n/a	94	15	1	n/a	n/a	n/a	n/a	193.203	AF25NES.jpg
162.704	0.514	Blank	Blank	54.244	n/a	2	5	14	n/a	94	n/a	1	n/a	n/a	n/a	n/a	193.701	n/a
163.235	0.497	neutral	Picture	53.73	n/a	2	5	15	n/a	95	37	1	n/a	n/a	n/a	n/a	194.231	BM25NES.jpg
163.732	0.514	Blank	Blank	53.216	n/a	2	5	15	n/a	95	n/a	1	n/a	n/a	n/a	n/a	194.729	n/a
164.263	0.497	neutral	Picture	52.702	n/a	2	5	16	n/a	96	32	1	n/a	n/a	n/a	n/a	195.259	AM14NES.jpg
164.76	0.514	Blank	Blank	52.188	n/a	2	5	16	n/a	96	n/a	1	n/a	n/a	n/a	n/a	195.757	n/a
165.291	0.497	neutral	Picture	51.674	n/a	2	5	17	n/a	97	3	1	n/a	n/a	n/a	n/a	196.287	BF04NES.jpg
165.788	0.514	Blank	Blank	51.16	n/a	2	5	17	n/a	97	n/a	1	n/a	n/a	n/a	n/a	196.785	n/a
166.319	0.497	neutral	Picture	50.647	n/a	2	5	18	n/a	98	16	1	n/a	n/a	n/a	n/a	197.315	AF26NES.jpg
166.816	0.514	Blank	Blank	50.132	n/a	2	5	18	n/a	98	n/a	1	n/a	n/a	n/a	n/a	197.812	n/a
167.346	0.497	neutral	Picture	49.619	n/a	2	5	19	n/a	99	27	1	n/a	n/a	n/a	n/a	198.343	BM08NES.jpg
167.844	0.514	Blank	Blank	49.105	n/a	2	5	19	n/a	99	n/a	1	n/a	n/a	n/a	n/a	198.84	n/a
168.374	0.497	neutral	Picture	48.591	n/a	2	5	20	n/a	100	28	1	n/a	n/a	n/a	n/a	199.371	AM09NES.jpg
168.872	0.514	Blank	Blank	48.077	n/a	2	5	20	n/a	100	n/a	1	n/a	n/a	n/a	n/a	199.868	n/a
169.402	10.014	ITI	Fixation+	38.047	n/a	2	n/a	n/a	n/a	n/a	n/a	n/a	n/a	n/a	n/a	n/a	200.399	n/a
179.432	0.497	happy	Picture	37.533	n/a	2	6	1	n/a	101	81	3	n/a	n/a	n/a	n/a	210.429	AF01ANS.jpg
179.93	0.514	Blank	Blank	37.019	n/a	2	6	1	n/a	101	n/a	3	n/a	n/a	n/a	n/a	210.926	n/a
180.46	0.497	happy	Picture	36.505	n/a	2	6	2	n/a	102	120	3	n/a	n/a	n/a	n/a	211.457	AM35ANS.jpg
180.958	0.514	Blank	Blank	35.991	n/a	2	6	2	n/a	102	n/a	3	n/a	n/a	n/a	n/a	211.954	n/a
181.488	0.497	happy	Picture	35.477	n/a	2	6	3	n/a	103	114	3	n/a	n/a	n/a	n/a	212.485	AM22ANS.jpg
181.985	0.514	Blank	Blank	34.963	n/a	2	6	3	n/a	103	n/a	3	n/a	n/a	n/a	n/a	212.982	n/a
182.516	0.497	happy	Picture	34.449	n/a	2	6	4	n/a	104	109	3	n/a	n/a	n/a	n/a	213.512	AM10ANS.jpg
183.013	0.514	Blank	Blank	33.935	n/a	2	6	4	n/a	104	n/a	3	n/a	n/a	n/a	n/a	214.01	n/a
183.544	0.497	happy	Picture	33.421	n/a	2	6	5	n/a	105	96	3	n/a	n/a	n/a	n/a	214.54	AF26ANS.jpg
184.041	0.514	Blank	Blank	32.907	n/a	2	6	5	n/a	105	n/a	3	n/a	n/a	n/a	n/a	215.038	n/a
184.572	0.497	happy	Picture	32.393	n/a	2	6	6	n/a	106	82	3	n/a	n/a	n/a	n/a	215.568	AF03ANS.jpg
185.069	0.514	Blank	Blank	31.879	n/a	2	6	6	n/a	106	n/a	3	n/a	n/a	n/a	n/a	216.066	n/a
185.6	0.497	happy	Picture	31.365	n/a	2	6	7	n/a	107	97	3	n/a	n/a	n/a	n/a	216.596	BF28ANS.jpg
186.097	0.514	Blank	Blank	30.851	n/a	2	6	7	n/a	107	n/a	3	n/a	n/a	n/a	n/a	217.094	n/a
186.627	0.497	happy	Picture	30.338	n/a	2	6	8	n/a	108	115	3	n/a	n/a	n/a	n/a	217.624	AM23ANS.jpg
187.125	0.514	Blank	Blank	29.823	n/a	2	6	8	n/a	108	n/a	3	n/a	n/a	n/a	n/a	218.121	n/a
187.655	0.497	happy	Picture	29.31	n/a	2	6	9	n/a	109	91	3	n/a	n/a	n/a	n/a	218.652	AF20ANS.jpg
188.153	0.514	Blank	Blank	28.796	n/a	2	6	9	n/a	109	n/a	3	n/a	n/a	n/a	n/a	219.149	n/a
188.683	0.497	happy	Picture	28.282	n/a	2	6	10	n/a	110	87	3	n/a	n/a	n/a	n/a	219.68	BF11ANS.jpg
189.181	0.514	Blank	Blank	27.768	n/a	2	6	10	n/a	110	n/a	3	n/a	n/a	n/a	n/a	220.177	n/a
189.711	0.497	happy	Picture	27.254	n/a	2	6	11	n/a	111	85	3	n/a	n/a	n/a	n/a	220.708	BF07ANS.jpg
190.208	0.514	Blank	Blank	26.74	n/a	2	6	11	n/a	111	n/a	3	n/a	n/a	n/a	n/a	221.205	n/a
190.739	0.497	happy	Picture	26.226	n/a	2	6	12	n/a	112	110	3	n/a	n/a	n/a	n/a	221.736	AM11ANS.jpg
191.236	0.514	Blank	Blank	25.712	n/a	2	6	12	n/a	112	n/a	3	n/a	n/a	n/a	n/a	222.233	n/a
191.767	0.497	happy	Picture	25.198	n/a	2	6	13	n/a	113	111	3	n/a	n/a	n/a	n/a	222.763	BM12ANS.jpg
192.264	0.514	Blank	Blank	24.684	n/a	2	6	13	n/a	113	n/a	3	n/a	n/a	n/a	n/a	223.261	n/a
192.795	0.497	happy	Picture	24.17	n/a	2	6	14	n/a	114	103	3	n/a	n/a	n/a	n/a	223.791	AM04ANS.jpg
193.292	0.514	Blank	Blank	23.656	n/a	2	6	14	n/a	114	n/a	3	n/a	n/a	n/a	n/a	224.289	n/a
193.823	0.497	happy	Picture	23.142	n/a	2	6	15	n/a	115	101	3	n/a	n/a	n/a	n/a	224.819	AM01ANS.jpg
194.32	0.514	Blank	Blank	22.628	n/a	2	6	15	n/a	115	n/a	3	n/a	n/a	n/a	n/a	225.317	n/a
194.851	0.497	happy	Picture	22.114	n/a	2	6	16	n/a	116	104	3	n/a	n/a	n/a	n/a	225.847	BM05ANS.jpg
195.348	0.514	Blank	Blank	21.6	n/a	2	6	16	n/a	116	n/a	3	n/a	n/a	n/a	n/a	226.345	n/a
195.878	0.497	happy	Picture	21.087	n/a	2	6	17	n/a	117	107	3	n/a	n/a	n/a	n/a	226.875	BM08ANS.jpg
196.376	0.514	Blank	Blank	20.573	n/a	2	6	17	n/a	117	n/a	3	n/a	n/a	n/a	n/a	227.372	n/a
196.906	0.497	happy	Picture	20.059	n/a	2	6	18	n/a	118	98	3	n/a	n/a	n/a	n/a	227.903	BF29ANS.jpg
197.404	0.514	Blank	Blank	19.545	n/a	2	6	18	n/a	118	n/a	3	n/a	n/a	n/a	n/a	228.4	n/a
197.934	0.497	happy	Picture	19.031	n/a	2	6	19	n/a	119	99	3	n/a	n/a	n/a	n/a	228.931	AF31ANS.jpg
198.431	0.514	Blank	Blank	18.517	n/a	2	6	19	n/a	119	n/a	3	n/a	n/a	n/a	n/a	229.428	n/a
198.962	0.497	happy	Picture	18.003	n/a	2	6	20	n/a	120	108	3	n/a	n/a	n/a	n/a	229.959	AM09ANS.jpg
199.459	0.514	Blank	Blank	17.489	n/a	2	6	20	n/a	120	n/a	3	n/a	n/a	n/a	n/a	230.456	n/a
199.99	10.014	ITI	Fixation+	7.459	n/a	2	n/a	n/a	n/a	n/a	n/a	n/a	n/a	n/a	n/a	n/a	230.987	n/a
217.462	n/a	ConfirmRating	Rate	n/a	7.444	2	n/a	n/a	0	n/a	n/a	n/a	2	Happy	63	51	248.459	n/a
219.991	n/a	ConfirmRating	Rate	n/a	2.52	2	n/a	n/a	1	n/a	n/a	n/a	3	Happy	25	47	250.988	n/a
220.017	15.004	Rest	Picture	n/a	n/a	n/a	n/a	n/a	n/a	n/a	n/a	n/a	0	n/a	0	0	251.014	n/a
235.037	10.014	ITI	Fixation+	93.586	n/a	3	n/a	n/a	n/a	n/a	n/a	n/a	n/a	n/a	n/a	n/a	266.034	n/a
245.068	0.497	angry	Picture	93.071	n/a	3	7	1	n/a	1	46	2	n/a	n/a	n/a	n/a	276.064	AF09HAS.jpg
245.565	0.514	Blank	Blank	92.558	n/a	3	7	1	n/a	1	n/a	2	n/a	n/a	n/a	n/a	276.562	n/a
246.096	0.497	angry	Picture	92.044	n/a	3	7	2	n/a	2	69	2	n/a	n/a	n/a	n/a	277.092	AM10HAS.jpg
246.593	0.514	Blank	Blank	91.53	n/a	3	7	2	n/a	2	n/a	2	n/a	n/a	n/a	n/a	277.589	n/a
247.123	0.497	angry	Picture	91.016	n/a	3	7	3	n/a	3	71	2	n/a	n/a	n/a	n/a	278.12	BM12HAS.jpg
247.621	0.514	Blank	Blank	90.502	n/a	3	7	3	n/a	3	n/a	2	n/a	n/a	n/a	n/a	278.617	n/a
248.151	0.497	angry	Picture	89.988	n/a	3	7	4	n/a	4	51	2	n/a	n/a	n/a	n/a	279.148	AF20HAS.jpg
248.649	0.514	Blank	Blank	89.474	n/a	3	7	4	n/a	4	n/a	2	n/a	n/a	n/a	n/a	279.645	n/a
249.179	0.497	angry	Picture	88.96	n/a	3	7	5	n/a	5	67	2	n/a	n/a	n/a	n/a	280.176	BM08HAS.jpg
249.676	0.514	Blank	Blank	88.446	n/a	3	7	5	n/a	5	n/a	2	n/a	n/a	n/a	n/a	280.673	n/a
250.207	0.497	angry	Picture	87.932	n/a	3	7	6	n/a	6	60	2	n/a	n/a	n/a	n/a	281.204	AF32HAS.jpg
250.704	0.514	Blank	Blank	87.418	n/a	3	7	6	n/a	6	n/a	2	n/a	n/a	n/a	n/a	281.701	n/a
251.235	0.497	angry	Picture	86.904	n/a	3	7	7	n/a	7	42	2	n/a	n/a	n/a	n/a	282.231	AF03HAS.jpg
251.732	0.514	Blank	Blank	86.39	n/a	3	7	7	n/a	7	n/a	2	n/a	n/a	n/a	n/a	282.729	n/a
252.263	0.497	angry	Picture	85.876	n/a	3	7	8	n/a	8	55	2	n/a	n/a	n/a	n/a	283.259	AF25HAS.jpg
252.76	0.514	Blank	Blank	85.362	n/a	3	7	8	n/a	8	n/a	2	n/a	n/a	n/a	n/a	283.757	n/a
253.291	0.497	angry	Picture	84.849	n/a	3	7	9	n/a	9	72	2	n/a	n/a	n/a	n/a	284.287	AM14HAS.jpg
253.788	0.514	Blank	Blank	84.334	n/a	3	7	9	n/a	9	n/a	2	n/a	n/a	n/a	n/a	284.785	n/a
254.318	0.497	angry	Picture	83.821	n/a	3	7	10	n/a	10	63	2	n/a	n/a	n/a	n/a	285.315	AM04HAS.jpg
254.816	0.514	Blank	Blank	83.307	n/a	3	7	10	n/a	10	n/a	2	n/a	n/a	n/a	n/a	285.813	n/a
255.346	0.497	angry	Picture	82.793	n/a	3	7	11	n/a	11	58	2	n/a	n/a	n/a	n/a	286.343	BF29HAS.jpg
255.844	0.514	Blank	Blank	82.279	n/a	3	7	11	n/a	11	n/a	2	n/a	n/a	n/a	n/a	286.84	n/a
256.374	0.497	angry	Picture	81.765	n/a	3	7	12	n/a	12	48	2	n/a	n/a	n/a	n/a	287.371	AF14HAS.jpg
256.872	0.514	Blank	Blank	81.251	n/a	3	7	12	n/a	12	n/a	2	n/a	n/a	n/a	n/a	287.868	n/a
257.402	0.497	angry	Picture	80.737	n/a	3	7	13	n/a	13	66	2	n/a	n/a	n/a	n/a	288.399	BM07HAS.jpg
257.9	0.514	Blank	Blank	80.223	n/a	3	7	13	n/a	13	n/a	2	n/a	n/a	n/a	n/a	288.896	n/a
258.43	0.497	angry	Picture	79.709	n/a	3	7	14	n/a	14	70	2	n/a	n/a	n/a	n/a	289.427	BM11HAS.jpg
258.927	0.514	Blank	Blank	79.195	n/a	3	7	14	n/a	14	n/a	2	n/a	n/a	n/a	n/a	289.924	n/a
259.458	0.497	angry	Picture	78.681	n/a	3	7	15	n/a	15	43	2	n/a	n/a	n/a	n/a	290.455	BF04HAS.jpg
259.955	0.514	Blank	Blank	78.167	n/a	3	7	15	n/a	15	n/a	2	n/a	n/a	n/a	n/a	290.952	n/a
260.486	0.497	angry	Picture	77.653	n/a	3	7	16	n/a	16	49	2	n/a	n/a	n/a	n/a	291.482	AF17HAS.jpg
260.983	0.514	Blank	Blank	77.139	n/a	3	7	16	n/a	16	n/a	2	n/a	n/a	n/a	n/a	291.98	n/a
261.514	0.497	angry	Picture	76.625	n/a	3	7	17	n/a	17	75	2	n/a	n/a	n/a	n/a	292.51	AM23HAS.jpg
262.011	0.514	Blank	Blank	76.112	n/a	3	7	17	n/a	17	n/a	2	n/a	n/a	n/a	n/a	293.008	n/a
262.542	0.497	angry	Picture	75.597	n/a	3	7	18	n/a	18	80	2	n/a	n/a	n/a	n/a	293.538	BM35HAS.jpg
263.039	0.514	Blank	Blank	75.084	n/a	3	7	18	n/a	18	n/a	2	n/a	n/a	n/a	n/a	294.036	n/a
263.57	0.497	angry	Picture	74.57	n/a	3	7	19	n/a	19	76	2	n/a	n/a	n/a	n/a	294.566	BM24HAS.jpg
264.067	0.514	Blank	Blank	74.056	n/a	3	7	19	n/a	19	n/a	2	n/a	n/a	n/a	n/a	295.063	n/a
264.597	0.497	angry	Picture	73.542	n/a	3	7	20	n/a	20	74	2	n/a	n/a	n/a	n/a	295.594	AM22HAS.jpg
265.095	0.514	Blank	Blank	73.028	n/a	3	7	20	n/a	20	n/a	2	n/a	n/a	n/a	n/a	296.091	n/a
265.625	10.014	ITI	Fixation+	62.998	n/a	3	n/a	n/a	n/a	n/a	n/a	n/a	n/a	n/a	n/a	n/a	296.622	n/a
275.655	0.497	neutral	Picture	62.484	n/a	3	8	1	n/a	21	33	1	n/a	n/a	n/a	n/a	306.652	AM21NES.jpg
276.153	0.514	Blank	Blank	61.97	n/a	3	8	1	n/a	21	n/a	1	n/a	n/a	n/a	n/a	307.149	n/a
276.683	0.497	neutral	Picture	61.456	n/a	3	8	2	n/a	22	39	1	n/a	n/a	n/a	n/a	307.68	AM28NES.jpg
277.181	0.514	Blank	Blank	60.942	n/a	3	8	2	n/a	22	n/a	1	n/a	n/a	n/a	n/a	308.177	n/a
277.711	0.497	neutral	Picture	60.428	n/a	3	8	3	n/a	23	25	1	n/a	n/a	n/a	n/a	308.708	BM06NES.jpg
278.209	0.514	Blank	Blank	59.914	n/a	3	8	3	n/a	23	n/a	1	n/a	n/a	n/a	n/a	309.205	n/a
278.739	0.497	neutral	Picture	59.4	n/a	3	8	4	n/a	24	5	1	n/a	n/a	n/a	n/a	309.736	BF07NES.jpg
279.236	0.514	Blank	Blank	58.886	n/a	3	8	4	n/a	24	n/a	1	n/a	n/a	n/a	n/a	310.233	n/a
279.767	0.497	neutral	Picture	58.372	n/a	3	8	5	n/a	25	10	1	n/a	n/a	n/a	n/a	310.764	AF18NES.jpg
280.264	0.514	Blank	Blank	57.858	n/a	3	8	5	n/a	25	n/a	1	n/a	n/a	n/a	n/a	311.261	n/a
280.795	0.497	neutral	Picture	57.344	n/a	3	8	6	n/a	26	34	1	n/a	n/a	n/a	n/a	311.791	AM22NES.jpg
281.292	0.514	Blank	Blank	56.83	n/a	3	8	6	n/a	26	n/a	1	n/a	n/a	n/a	n/a	312.289	n/a
281.823	0.497	neutral	Picture	56.316	n/a	3	8	7	n/a	27	36	1	n/a	n/a	n/a	n/a	312.819	BM24NES.jpg
282.32	0.514	Blank	Blank	55.803	n/a	3	8	7	n/a	27	n/a	1	n/a	n/a	n/a	n/a	313.317	n/a
282.851	0.497	neutral	Picture	55.289	n/a	3	8	8	n/a	28	14	1	n/a	n/a	n/a	n/a	313.847	AF23NES.jpg
283.348	0.514	Blank	Blank	54.775	n/a	3	8	8	n/a	28	n/a	1	n/a	n/a	n/a	n/a	314.344	n/a
283.878	0.497	neutral	Picture	54.261	n/a	3	8	9	n/a	29	9	1	n/a	n/a	n/a	n/a	314.875	AF17NES.jpg
284.376	0.514	Blank	Blank	53.747	n/a	3	8	9	n/a	29	n/a	1	n/a	n/a	n/a	n/a	315.372	n/a
284.906	0.497	neutral	Picture	53.233	n/a	3	8	10	n/a	30	19	1	n/a	n/a	n/a	n/a	315.903	AF31NES.jpg
285.404	0.514	Blank	Blank	52.719	n/a	3	8	10	n/a	30	n/a	1	n/a	n/a	n/a	n/a	316.4	n/a
285.934	0.497	neutral	Picture	52.205	n/a	3	8	11	n/a	31	15	1	n/a	n/a	n/a	n/a	316.931	AF25NES.jpg
286.432	0.514	Blank	Blank	51.691	n/a	3	8	11	n/a	31	n/a	1	n/a	n/a	n/a	n/a	317.428	n/a
286.962	0.497	neutral	Picture	51.177	n/a	3	8	12	n/a	32	22	1	n/a	n/a	n/a	n/a	317.959	BM03NES.jpg
287.459	0.514	Blank	Blank	50.663	n/a	3	8	12	n/a	32	n/a	1	n/a	n/a	n/a	n/a	318.456	n/a
287.99	0.497	neutral	Picture	50.149	n/a	3	8	13	n/a	33	11	1	n/a	n/a	n/a	n/a	318.987	AF20NES.jpg
288.487	0.514	Blank	Blank	49.635	n/a	3	8	13	n/a	33	n/a	1	n/a	n/a	n/a	n/a	319.484	n/a
289.018	0.497	neutral	Picture	49.121	n/a	3	8	14	n/a	34	4	1	n/a	n/a	n/a	n/a	320.014	AF05NES.jpg
289.515	0.514	Blank	Blank	48.607	n/a	3	8	14	n/a	34	n/a	1	n/a	n/a	n/a	n/a	320.512	n/a
290.046	0.497	neutral	Picture	48.093	n/a	3	8	15	n/a	35	17	1	n/a	n/a	n/a	n/a	321.042	BF28NES.jpg
290.543	0.514	Blank	Blank	47.579	n/a	3	8	15	n/a	35	n/a	1	n/a	n/a	n/a	n/a	321.54	n/a
291.074	0.497	neutral	Picture	47.066	n/a	3	8	16	n/a	36	13	1	n/a	n/a	n/a	n/a	322.07	BF22NES.jpg
291.571	0.514	Blank	Blank	46.551	n/a	3	8	16	n/a	36	n/a	1	n/a	n/a	n/a	n/a	322.568	n/a
292.101	0.497	neutral	Picture	46.038	n/a	3	8	17	n/a	37	12	1	n/a	n/a	n/a	n/a	323.098	AF21NES.jpg
292.599	0.514	Blank	Blank	45.524	n/a	3	8	17	n/a	37	n/a	1	n/a	n/a	n/a	n/a	323.596	n/a
293.129	0.497	neutral	Picture	45.01	n/a	3	8	18	n/a	38	24	1	n/a	n/a	n/a	n/a	324.126	BM05NES.jpg
293.627	0.514	Blank	Blank	44.496	n/a	3	8	18	n/a	38	n/a	1	n/a	n/a	n/a	n/a	324.623	n/a
294.157	0.497	neutral	Picture	43.982	n/a	3	8	19	n/a	39	29	1	n/a	n/a	n/a	n/a	325.154	AM10NES.jpg
294.655	0.514	Blank	Blank	43.468	n/a	3	8	19	n/a	39	n/a	1	n/a	n/a	n/a	n/a	325.651	n/a
295.185	0.497	neutral	Picture	42.954	n/a	3	8	20	n/a	40	23	1	n/a	n/a	n/a	n/a	326.182	AM04NES.jpg
295.683	0.514	Blank	Blank	42.44	n/a	3	8	20	n/a	40	n/a	1	n/a	n/a	n/a	n/a	326.679	n/a
296.213	10.014	ITI	Fixation+	32.41	n/a	3	n/a	n/a	n/a	n/a	n/a	n/a	n/a	n/a	n/a	n/a	327.21	n/a
306.243	0.497	angry	Picture	31.896	n/a	3	9	1	n/a	41	62	2	n/a	n/a	n/a	n/a	337.24	BM03HAS.jpg
306.741	0.514	Blank	Blank	31.382	n/a	3	9	1	n/a	41	n/a	2	n/a	n/a	n/a	n/a	337.737	n/a
307.271	0.497	angry	Picture	30.868	n/a	3	9	2	n/a	42	52	2	n/a	n/a	n/a	n/a	338.268	AF21HAS.jpg
307.769	0.514	Blank	Blank	30.354	n/a	3	9	2	n/a	42	n/a	2	n/a	n/a	n/a	n/a	338.765	n/a
308.299	0.497	angry	Picture	29.84	n/a	3	9	3	n/a	43	44	2	n/a	n/a	n/a	n/a	339.296	AF05HAS.jpg
308.796	0.514	Blank	Blank	29.326	n/a	3	9	3	n/a	43	n/a	2	n/a	n/a	n/a	n/a	339.793	n/a
309.327	0.497	angry	Picture	28.812	n/a	3	9	4	n/a	44	53	2	n/a	n/a	n/a	n/a	340.324	BF22HAS.jpg
309.824	0.514	Blank	Blank	28.298	n/a	3	9	4	n/a	44	n/a	2	n/a	n/a	n/a	n/a	340.821	n/a
310.355	0.497	angry	Picture	27.784	n/a	3	9	5	n/a	45	54	2	n/a	n/a	n/a	n/a	341.351	AF23HAS.jpg
310.852	0.514	Blank	Blank	27.27	n/a	3	9	5	n/a	45	n/a	2	n/a	n/a	n/a	n/a	341.849	n/a
311.383	0.497	angry	Picture	26.756	n/a	3	9	6	n/a	46	68	2	n/a	n/a	n/a	n/a	342.379	AM09HAS.jpg
311.88	0.514	Blank	Blank	26.243	n/a	3	9	6	n/a	46	n/a	2	n/a	n/a	n/a	n/a	342.877	n/a
312.411	0.497	angry	Picture	25.729	n/a	3	9	7	n/a	47	64	2	n/a	n/a	n/a	n/a	343.407	BM05HAS.jpg
312.908	0.514	Blank	Blank	25.215	n/a	3	9	7	n/a	47	n/a	2	n/a	n/a	n/a	n/a	343.904	n/a
313.438	0.497	angry	Picture	24.701	n/a	3	9	8	n/a	48	59	2	n/a	n/a	n/a	n/a	344.435	AF31HAS.jpg
313.936	0.514	Blank	Blank	24.187	n/a	3	9	8	n/a	48	n/a	2	n/a	n/a	n/a	n/a	344.932	n/a
314.466	0.497	angry	Picture	23.673	n/a	3	9	9	n/a	49	41	2	n/a	n/a	n/a	n/a	345.463	AF01HAS.jpg
314.964	0.514	Blank	Blank	23.159	n/a	3	9	9	n/a	49	n/a	2	n/a	n/a	n/a	n/a	345.96	n/a
315.494	0.497	angry	Picture	22.645	n/a	3	9	10	n/a	50	73	2	n/a	n/a	n/a	n/a	346.491	AM21HAS.jpg
315.991	0.514	Blank	Blank	22.131	n/a	3	9	10	n/a	50	n/a	2	n/a	n/a	n/a	n/a	346.988	n/a
316.522	0.497	angry	Picture	21.617	n/a	3	9	11	n/a	51	65	2	n/a	n/a	n/a	n/a	347.519	BM06HAS.jpg
317.019	0.514	Blank	Blank	21.103	n/a	3	9	11	n/a	51	n/a	2	n/a	n/a	n/a	n/a	348.016	n/a
317.55	0.497	angry	Picture	20.589	n/a	3	9	12	n/a	52	56	2	n/a	n/a	n/a	n/a	348.546	AF26HAS.jpg
318.047	0.514	Blank	Blank	20.075	n/a	3	9	12	n/a	52	n/a	2	n/a	n/a	n/a	n/a	349.044	n/a
318.578	0.497	angry	Picture	19.561	n/a	3	9	13	n/a	53	45	2	n/a	n/a	n/a	n/a	349.574	BF07HAS.jpg
319.075	0.514	Blank	Blank	19.047	n/a	3	9	13	n/a	53	n/a	2	n/a	n/a	n/a	n/a	350.072	n/a
319.606	0.497	angry	Picture	18.533	n/a	3	9	14	n/a	54	78	2	n/a	n/a	n/a	n/a	350.602	BM26HAS.jpg
320.103	0.514	Blank	Blank	18.02	n/a	3	9	14	n/a	54	n/a	2	n/a	n/a	n/a	n/a	351.1	n/a
320.634	0.497	angry	Picture	17.506	n/a	3	9	15	n/a	55	50	2	n/a	n/a	n/a	n/a	351.63	AF18HAS.jpg
321.131	0.514	Blank	Blank	16.992	n/a	3	9	15	n/a	55	n/a	2	n/a	n/a	n/a	n/a	352.127	n/a
321.661	0.497	angry	Picture	16.478	n/a	3	9	16	n/a	56	47	2	n/a	n/a	n/a	n/a	352.658	BF11HAS.jpg
322.159	0.514	Blank	Blank	15.964	n/a	3	9	16	n/a	56	n/a	2	n/a	n/a	n/a	n/a	353.155	n/a
322.689	0.497	angry	Picture	15.45	n/a	3	9	17	n/a	57	77	2	n/a	n/a	n/a	n/a	353.686	BM25HAS.jpg
323.187	0.514	Blank	Blank	14.936	n/a	3	9	17	n/a	57	n/a	2	n/a	n/a	n/a	n/a	354.183	n/a
323.717	0.497	angry	Picture	14.422	n/a	3	9	18	n/a	58	57	2	n/a	n/a	n/a	n/a	354.714	BF28HAS.jpg
324.215	0.514	Blank	Blank	13.908	n/a	3	9	18	n/a	58	n/a	2	n/a	n/a	n/a	n/a	355.211	n/a
324.745	0.497	angry	Picture	13.394	n/a	3	9	19	n/a	59	61	2	n/a	n/a	n/a	n/a	355.742	AM01HAS.jpg
325.243	0.514	Blank	Blank	12.88	n/a	3	9	19	n/a	59	n/a	2	n/a	n/a	n/a	n/a	356.239	n/a
325.773	0.497	angry	Picture	12.366	n/a	3	9	20	n/a	60	79	2	n/a	n/a	n/a	n/a	356.77	BM28HAS.jpg
326.27	0.514	Blank	Blank	11.852	n/a	3	9	20	n/a	60	n/a	2	n/a	n/a	n/a	n/a	357.267	n/a
326.801	10.014	ITI	Fixation+	1.822	n/a	3	n/a	n/a	n/a	n/a	n/a	n/a	n/a	n/a	n/a	n/a	357.798	n/a
338.637	n/a	ConfirmRating	Rate	n/a	1.807	3	n/a	n/a	0	n/a	n/a	n/a	2	Angry	64	51	369.633	n/a
340.409	n/a	ConfirmRating	Rate	n/a	1.757	3	n/a	n/a	1	n/a	n/a	n/a	3	Angry	21	47	371.405	n/a
340.429	10.014	ITI	Fixation+	93.534	n/a	4	n/a	n/a	n/a	n/a	n/a	n/a	n/a	n/a	n/a	n/a	371.425	n/a
350.459	0.497	happy	Picture	93.02	n/a	4	10	1	n/a	61	119	3	n/a	n/a	n/a	n/a	381.455	BM28ANS.jpg
350.956	0.514	Blank	Blank	92.506	n/a	4	10	1	n/a	61	n/a	3	n/a	n/a	n/a	n/a	381.953	n/a
351.485	0.499	happy	Picture	91.992	n/a	4	10	2	n/a	62	100	3	n/a	n/a	n/a	n/a	382.481	AF32ANS.jpg
351.984	0.514	Blank	Blank	91.478	n/a	4	10	2	n/a	62	n/a	3	n/a	n/a	n/a	n/a	382.981	n/a
352.514	0.497	happy	Picture	90.964	n/a	4	10	3	n/a	63	118	3	n/a	n/a	n/a	n/a	383.511	BM26ANS.jpg
353.012	0.514	Blank	Blank	90.45	n/a	4	10	3	n/a	63	n/a	3	n/a	n/a	n/a	n/a	384.009	n/a
353.542	0.497	happy	Picture	89.936	n/a	4	10	4	n/a	64	89	3	n/a	n/a	n/a	n/a	384.539	AF17ANS.jpg
354.04	0.514	Blank	Blank	89.422	n/a	4	10	4	n/a	64	n/a	3	n/a	n/a	n/a	n/a	385.036	n/a
354.57	0.497	happy	Picture	88.908	n/a	4	10	5	n/a	65	116	3	n/a	n/a	n/a	n/a	385.567	BM24ANS.jpg
355.068	0.514	Blank	Blank	88.394	n/a	4	10	5	n/a	65	n/a	3	n/a	n/a	n/a	n/a	386.064	n/a
355.598	0.497	happy	Picture	87.88	n/a	4	10	6	n/a	66	105	3	n/a	n/a	n/a	n/a	386.595	BM06ANS.jpg
356.096	0.514	Blank	Blank	87.367	n/a	4	10	6	n/a	66	n/a	3	n/a	n/a	n/a	n/a	387.092	n/a
356.626	0.497	happy	Picture	86.853	n/a	4	10	7	n/a	67	106	3	n/a	n/a	n/a	n/a	387.623	AM07ANS.jpg
357.123	0.514	Blank	Blank	86.339	n/a	4	10	7	n/a	67	n/a	3	n/a	n/a	n/a	n/a	388.12	n/a
357.654	0.497	happy	Picture	85.825	n/a	4	10	8	n/a	68	94	3	n/a	n/a	n/a	n/a	388.651	AF23ANS.jpg
358.151	0.514	Blank	Blank	85.311	n/a	4	10	8	n/a	68	n/a	3	n/a	n/a	n/a	n/a	389.148	n/a
358.682	0.497	happy	Picture	84.797	n/a	4	10	9	n/a	69	117	3	n/a	n/a	n/a	n/a	389.678	BM25ANS.jpg
359.179	0.514	Blank	Blank	84.283	n/a	4	10	9	n/a	69	n/a	3	n/a	n/a	n/a	n/a	390.176	n/a
359.71	0.497	happy	Picture	83.769	n/a	4	10	10	n/a	70	90	3	n/a	n/a	n/a	n/a	390.706	AF18ANS.jpg
360.207	0.514	Blank	Blank	83.255	n/a	4	10	10	n/a	70	n/a	3	n/a	n/a	n/a	n/a	391.204	n/a
360.738	0.497	happy	Picture	82.741	n/a	4	10	11	n/a	71	83	3	n/a	n/a	n/a	n/a	391.734	BF04ANS.jpg
361.235	0.514	Blank	Blank	82.227	n/a	4	10	11	n/a	71	n/a	3	n/a	n/a	n/a	n/a	392.232	n/a
361.765	0.497	happy	Picture	81.713	n/a	4	10	12	n/a	72	112	3	n/a	n/a	n/a	n/a	392.762	AM14ANS.jpg
362.263	0.514	Blank	Blank	81.199	n/a	4	10	12	n/a	72	n/a	3	n/a	n/a	n/a	n/a	393.259	n/a
362.793	0.497	happy	Picture	80.685	n/a	4	10	13	n/a	73	102	3	n/a	n/a	n/a	n/a	393.79	BM03ANS.jpg
363.291	0.514	Blank	Blank	80.171	n/a	4	10	13	n/a	73	n/a	3	n/a	n/a	n/a	n/a	394.287	n/a
363.821	0.497	happy	Picture	79.657	n/a	4	10	14	n/a	74	95	3	n/a	n/a	n/a	n/a	394.818	AF25ANS.jpg
364.319	0.514	Blank	Blank	79.143	n/a	4	10	14	n/a	74	n/a	3	n/a	n/a	n/a	n/a	395.315	n/a
364.849	0.497	happy	Picture	78.629	n/a	4	10	15	n/a	75	113	3	n/a	n/a	n/a	n/a	395.846	AM21ANS.jpg
365.346	0.514	Blank	Blank	78.116	n/a	4	10	15	n/a	75	n/a	3	n/a	n/a	n/a	n/a	396.343	n/a
365.877	0.497	happy	Picture	77.602	n/a	4	10	16	n/a	76	88	3	n/a	n/a	n/a	n/a	396.874	AF14ANS.jpg
366.374	0.514	Blank	Blank	77.088	n/a	4	10	16	n/a	76	n/a	3	n/a	n/a	n/a	n/a	397.371	n/a
366.905	0.497	happy	Picture	76.574	n/a	4	10	17	n/a	77	93	3	n/a	n/a	n/a	n/a	397.901	BF22ANS.jpg
367.402	0.514	Blank	Blank	76.06	n/a	4	10	17	n/a	77	n/a	3	n/a	n/a	n/a	n/a	398.399	n/a
367.933	0.497	happy	Picture	75.546	n/a	4	10	18	n/a	78	86	3	n/a	n/a	n/a	n/a	398.929	AF09ANS.jpg
368.43	0.514	Blank	Blank	75.032	n/a	4	10	18	n/a	78	n/a	3	n/a	n/a	n/a	n/a	399.427	n/a
368.961	0.497	happy	Picture	74.518	n/a	4	10	19	n/a	79	92	3	n/a	n/a	n/a	n/a	399.957	AF21ANS.jpg
369.458	0.514	Blank	Blank	74.004	n/a	4	10	19	n/a	79	n/a	3	n/a	n/a	n/a	n/a	400.455	n/a
369.989	0.497	happy	Picture	73.491	n/a	4	10	20	n/a	80	84	3	n/a	n/a	n/a	n/a	400.985	AF05ANS.jpg
370.485	0.515	Blank	Blank	72.976	n/a	4	10	20	n/a	80	n/a	3	n/a	n/a	n/a	n/a	401.482	n/a
371.016	10.014	ITI	Fixation+	62.946	n/a	4	n/a	n/a	n/a	n/a	n/a	n/a	n/a	n/a	n/a	n/a	402.013	n/a
381.047	0.497	neutral	Picture	62.432	n/a	4	11	1	n/a	81	4	1	n/a	n/a	n/a	n/a	412.043	AF05NES.jpg
381.544	0.514	Blank	Blank	61.918	n/a	4	11	1	n/a	81	n/a	1	n/a	n/a	n/a	n/a	412.541	n/a
382.075	0.497	neutral	Picture	61.404	n/a	4	11	2	n/a	82	14	1	n/a	n/a	n/a	n/a	413.071	AF23NES.jpg
382.572	0.514	Blank	Blank	60.89	n/a	4	11	2	n/a	82	n/a	1	n/a	n/a	n/a	n/a	413.568	n/a
383.102	0.497	neutral	Picture	60.376	n/a	4	11	3	n/a	83	19	1	n/a	n/a	n/a	n/a	414.099	AF31NES.jpg
383.6	0.514	Blank	Blank	59.862	n/a	4	11	3	n/a	83	n/a	1	n/a	n/a	n/a	n/a	414.596	n/a
384.13	0.497	neutral	Picture	59.348	n/a	4	11	4	n/a	84	8	1	n/a	n/a	n/a	n/a	415.127	AF14NES.jpg
384.628	0.514	Blank	Blank	58.835	n/a	4	11	4	n/a	84	n/a	1	n/a	n/a	n/a	n/a	415.624	n/a
385.158	0.497	neutral	Picture	58.32	n/a	4	11	5	n/a	85	25	1	n/a	n/a	n/a	n/a	416.155	BM06NES.jpg
385.656	0.514	Blank	Blank	57.807	n/a	4	11	5	n/a	85	n/a	1	n/a	n/a	n/a	n/a	416.652	n/a
386.186	0.497	neutral	Picture	57.293	n/a	4	11	6	n/a	86	9	1	n/a	n/a	n/a	n/a	417.183	AF17NES.jpg
386.683	0.514	Blank	Blank	56.779	n/a	4	11	6	n/a	86	n/a	1	n/a	n/a	n/a	n/a	417.68	n/a
387.214	0.497	neutral	Picture	56.265	n/a	4	11	7	n/a	87	2	1	n/a	n/a	n/a	n/a	418.211	AF03NES.jpg
387.711	0.514	Blank	Blank	55.751	n/a	4	11	7	n/a	87	n/a	1	n/a	n/a	n/a	n/a	418.708	n/a
388.242	0.497	neutral	Picture	55.237	n/a	4	11	8	n/a	88	17	1	n/a	n/a	n/a	n/a	419.238	BF28NES.jpg
388.739	0.514	Blank	Blank	54.723	n/a	4	11	8	n/a	88	n/a	1	n/a	n/a	n/a	n/a	419.736	n/a
389.27	0.497	neutral	Picture	54.209	n/a	4	11	9	n/a	89	6	1	n/a	n/a	n/a	n/a	420.266	AF09NES.jpg
389.767	0.514	Blank	Blank	53.695	n/a	4	11	9	n/a	89	n/a	1	n/a	n/a	n/a	n/a	420.764	n/a
390.298	0.497	neutral	Picture	53.181	n/a	4	11	10	n/a	90	12	1	n/a	n/a	n/a	n/a	421.294	AF21NES.jpg
390.795	0.514	Blank	Blank	52.667	n/a	4	11	10	n/a	90	n/a	1	n/a	n/a	n/a	n/a	421.791	n/a
391.325	0.497	neutral	Picture	52.153	n/a	4	11	11	n/a	91	24	1	n/a	n/a	n/a	n/a	422.322	BM05NES.jpg
391.823	0.514	Blank	Blank	51.639	n/a	4	11	11	n/a	91	n/a	1	n/a	n/a	n/a	n/a	422.819	n/a
392.353	0.497	neutral	Picture	51.125	n/a	4	11	12	n/a	92	34	1	n/a	n/a	n/a	n/a	423.35	AM22NES.jpg
392.851	0.514	Blank	Blank	50.611	n/a	4	11	12	n/a	92	n/a	1	n/a	n/a	n/a	n/a	423.847	n/a
393.381	0.497	neutral	Picture	50.098	n/a	4	11	13	n/a	93	23	1	n/a	n/a	n/a	n/a	424.378	AM04NES.jpg
393.878	0.514	Blank	Blank	49.584	n/a	4	11	13	n/a	93	n/a	1	n/a	n/a	n/a	n/a	424.875	n/a
394.409	0.497	neutral	Picture	49.07	n/a	4	11	14	n/a	94	15	1	n/a	n/a	n/a	n/a	425.406	AF25NES.jpg
394.906	0.514	Blank	Blank	48.556	n/a	4	11	14	n/a	94	n/a	1	n/a	n/a	n/a	n/a	425.903	n/a
395.437	0.497	neutral	Picture	48.042	n/a	4	11	15	n/a	95	37	1	n/a	n/a	n/a	n/a	426.434	BM25NES.jpg
395.934	0.514	Blank	Blank	47.528	n/a	4	11	15	n/a	95	n/a	1	n/a	n/a	n/a	n/a	426.931	n/a
396.465	0.497	neutral	Picture	47.014	n/a	4	11	16	n/a	96	32	1	n/a	n/a	n/a	n/a	427.461	AM14NES.jpg
396.962	0.514	Blank	Blank	46.5	n/a	4	11	16	n/a	96	n/a	1	n/a	n/a	n/a	n/a	427.959	n/a
397.493	0.497	neutral	Picture	45.986	n/a	4	11	17	n/a	97	3	1	n/a	n/a	n/a	n/a	428.489	BF04NES.jpg
397.99	0.514	Blank	Blank	45.472	n/a	4	11	17	n/a	97	n/a	1	n/a	n/a	n/a	n/a	428.987	n/a
398.521	0.497	neutral	Picture	44.958	n/a	4	11	18	n/a	98	16	1	n/a	n/a	n/a	n/a	429.517	AF26NES.jpg
399.018	0.514	Blank	Blank	44.444	n/a	4	11	18	n/a	98	n/a	1	n/a	n/a	n/a	n/a	430.015	n/a
399.548	0.497	neutral	Picture	43.93	n/a	4	11	19	n/a	99	27	1	n/a	n/a	n/a	n/a	430.545	BM08NES.jpg
400.046	0.514	Blank	Blank	43.416	n/a	4	11	19	n/a	99	n/a	1	n/a	n/a	n/a	n/a	431.043	n/a
400.576	0.497	neutral	Picture	42.902	n/a	4	11	20	n/a	100	28	1	n/a	n/a	n/a	n/a	431.573	AM09NES.jpg
401.074	0.514	Blank	Blank	42.388	n/a	4	11	20	n/a	100	n/a	1	n/a	n/a	n/a	n/a	432.07	n/a
401.604	10.014	ITI	Fixation+	32.358	n/a	4	n/a	n/a	n/a	n/a	n/a	n/a	n/a	n/a	n/a	n/a	432.601	n/a
411.634	0.497	happy	Picture	31.844	n/a	4	12	1	n/a	101	81	3	n/a	n/a	n/a	n/a	442.631	AF01ANS.jpg
412.132	0.514	Blank	Blank	31.33	n/a	4	12	1	n/a	101	n/a	3	n/a	n/a	n/a	n/a	443.128	n/a
412.662	0.497	happy	Picture	30.816	n/a	4	12	2	n/a	102	120	3	n/a	n/a	n/a	n/a	443.659	AM35ANS.jpg
413.16	0.514	Blank	Blank	30.302	n/a	4	12	2	n/a	102	n/a	3	n/a	n/a	n/a	n/a	444.156	n/a
413.69	0.497	happy	Picture	29.788	n/a	4	12	3	n/a	103	114	3	n/a	n/a	n/a	n/a	444.687	AM22ANS.jpg
414.188	0.514	Blank	Blank	29.274	n/a	4	12	3	n/a	103	n/a	3	n/a	n/a	n/a	n/a	445.184	n/a
414.718	0.497	happy	Picture	28.761	n/a	4	12	4	n/a	104	109	3	n/a	n/a	n/a	n/a	445.715	AM10ANS.jpg
415.215	0.514	Blank	Blank	28.247	n/a	4	12	4	n/a	104	n/a	3	n/a	n/a	n/a	n/a	446.212	n/a
415.746	0.497	happy	Picture	27.733	n/a	4	12	5	n/a	105	96	3	n/a	n/a	n/a	n/a	446.743	AF26ANS.jpg
416.243	0.514	Blank	Blank	27.219	n/a	4	12	5	n/a	105	n/a	3	n/a	n/a	n/a	n/a	447.24	n/a
416.774	0.497	happy	Picture	26.705	n/a	4	12	6	n/a	106	82	3	n/a	n/a	n/a	n/a	447.77	AF03ANS.jpg
417.271	0.514	Blank	Blank	26.191	n/a	4	12	6	n/a	106	n/a	3	n/a	n/a	n/a	n/a	448.268	n/a
417.802	0.497	happy	Picture	25.677	n/a	4	12	7	n/a	107	97	3	n/a	n/a	n/a	n/a	448.798	BF28ANS.jpg
418.299	0.514	Blank	Blank	25.163	n/a	4	12	7	n/a	107	n/a	3	n/a	n/a	n/a	n/a	449.296	n/a
418.83	0.497	happy	Picture	24.649	n/a	4	12	8	n/a	108	115	3	n/a	n/a	n/a	n/a	449.826	AM23ANS.jpg
419.327	0.514	Blank	Blank	24.135	n/a	4	12	8	n/a	108	n/a	3	n/a	n/a	n/a	n/a	450.324	n/a
419.858	0.497	happy	Picture	23.621	n/a	4	12	9	n/a	109	91	3	n/a	n/a	n/a	n/a	450.854	AF20ANS.jpg
420.355	0.514	Blank	Blank	23.107	n/a	4	12	9	n/a	109	n/a	3	n/a	n/a	n/a	n/a	451.351	n/a
420.885	0.497	happy	Picture	22.593	n/a	4	12	10	n/a	110	87	3	n/a	n/a	n/a	n/a	451.882	BF11ANS.jpg
421.383	0.514	Blank	Blank	22.079	n/a	4	12	10	n/a	110	n/a	3	n/a	n/a	n/a	n/a	452.379	n/a
421.913	0.497	happy	Picture	21.565	n/a	4	12	11	n/a	111	85	3	n/a	n/a	n/a	n/a	452.91	BF07ANS.jpg
422.411	0.514	Blank	Blank	21.052	n/a	4	12	11	n/a	111	n/a	3	n/a	n/a	n/a	n/a	453.407	n/a
422.941	0.497	happy	Picture	20.537	n/a	4	12	12	n/a	112	110	3	n/a	n/a	n/a	n/a	453.938	AM11ANS.jpg
423.438	0.514	Blank	Blank	20.024	n/a	4	12	12	n/a	112	n/a	3	n/a	n/a	n/a	n/a	454.435	n/a
423.969	0.497	happy	Picture	19.51	n/a	4	12	13	n/a	113	111	3	n/a	n/a	n/a	n/a	454.966	BM12ANS.jpg
424.466	0.514	Blank	Blank	18.996	n/a	4	12	13	n/a	113	n/a	3	n/a	n/a	n/a	n/a	455.463	n/a
424.997	0.497	happy	Picture	18.482	n/a	4	12	14	n/a	114	103	3	n/a	n/a	n/a	n/a	455.993	AM04ANS.jpg
425.494	0.514	Blank	Blank	17.968	n/a	4	12	14	n/a	114	n/a	3	n/a	n/a	n/a	n/a	456.491	n/a
426.025	0.497	happy	Picture	17.454	n/a	4	12	15	n/a	115	101	3	n/a	n/a	n/a	n/a	457.021	AM01ANS.jpg
426.522	0.514	Blank	Blank	16.94	n/a	4	12	15	n/a	115	n/a	3	n/a	n/a	n/a	n/a	457.519	n/a
427.053	0.497	happy	Picture	16.426	n/a	4	12	16	n/a	116	104	3	n/a	n/a	n/a	n/a	458.049	BM05ANS.jpg
427.55	0.514	Blank	Blank	15.912	n/a	4	12	16	n/a	116	n/a	3	n/a	n/a	n/a	n/a	458.547	n/a
428.08	0.497	happy	Picture	15.398	n/a	4	12	17	n/a	117	107	3	n/a	n/a	n/a	n/a	459.077	BM08ANS.jpg
428.578	0.514	Blank	Blank	14.884	n/a	4	12	17	n/a	117	n/a	3	n/a	n/a	n/a	n/a	459.575	n/a
429.108	0.497	happy	Picture	14.37	n/a	4	12	18	n/a	118	98	3	n/a	n/a	n/a	n/a	460.105	BF29ANS.jpg
429.606	0.514	Blank	Blank	13.856	n/a	4	12	18	n/a	118	n/a	3	n/a	n/a	n/a	n/a	460.602	n/a
430.136	0.497	happy	Picture	13.342	n/a	4	12	19	n/a	119	99	3	n/a	n/a	n/a	n/a	461.133	AF31ANS.jpg
430.634	0.514	Blank	Blank	12.828	n/a	4	12	19	n/a	119	n/a	3	n/a	n/a	n/a	n/a	461.63	n/a
431.164	0.497	happy	Picture	12.315	n/a	4	12	20	n/a	120	108	3	n/a	n/a	n/a	n/a	462.161	AM09ANS.jpg
431.661	0.514	Blank	Blank	11.8	n/a	4	12	20	n/a	120	n/a	3	n/a	n/a	n/a	n/a	462.658	n/a
432.192	10.014	ITI	Fixation+	1.77	n/a	4	n/a	n/a	n/a	n/a	n/a	n/a	n/a	n/a	n/a	n/a	463.189	n/a
443.976	n/a	ConfirmRating	Rate	n/a	1.758	4	n/a	n/a	0	n/a	n/a	n/a	2	Happy	61	51	474.973	n/a
445.911	n/a	ConfirmRating	Rate	n/a	1.923	4	n/a	n/a	1	n/a	n/a	n/a	3	Happy	23	47	476.908	n/a
