onset	duration	trial_type	event_type	trial_number	condition	picture_number	time_until_response	response_time	unpleasantness_rating	onset_uncorrected
0.01	5.637	ITI	Fixation+	0	No_Pain	n/a	9.74	n/a	n/a	28.212
5.663	3.498	Pic2	Picture	0	No_Pain	24	6.225	n/a	n/a	33.865
9.161	2.006	Blank	Blank	0	No_Pain	n/a	4.219	n/a	n/a	37.363
15.387	n/a	ConfirmRating	Rate	0	No_Pain	24	n/a	3.703	0	43.588
15.412	4.625	ITI	Fixation+	1	No_Pain	n/a	10.1	n/a	n/a	43.613
20.054	3.498	Pic2	Picture	1	No_Pain	25	6.586	n/a	n/a	48.255
23.552	2.006	Blank	Blank	1	No_Pain	n/a	4.58	n/a	n/a	51.754
30.137	n/a	ConfirmRating	Rate	1	No_Pain	25	n/a	4.063	0	58.339
30.167	4.742	ITI	Fixation+	2	Pain	n/a	9.69	n/a	n/a	58.368
34.925	3.498	Pic2	Picture	2	Pain	19	6.175	n/a	n/a	63.127
38.423	2.006	Blank	Blank	2	Pain	n/a	4.169	n/a	n/a	66.625
44.598	n/a	ConfirmRating	Rate	2	Pain	19	n/a	3.652	2	72.8
44.623	5.156	ITI	Fixation+	3	No_Pain	n/a	8.24	n/a	n/a	72.825
49.796	3.498	Pic2	Picture	3	No_Pain	37	4.725	n/a	n/a	77.998
53.294	2.006	Blank	Blank	3	No_Pain	n/a	2.719	n/a	n/a	81.496
58.019	n/a	ConfirmRating	Rate	3	No_Pain	37	n/a	2.202	0	86.221
58.036	5.836	ITI	Fixation+	4	Pain	n/a	9.939	n/a	n/a	86.237
63.888	3.498	Pic2	Picture	4	Pain	2	6.425	n/a	n/a	92.09
67.386	2.006	Blank	Blank	4	Pain	n/a	4.419	n/a	n/a	95.588
73.811	n/a	ConfirmRating	Rate	4	Pain	2	n/a	3.902	10	102.012
73.835	4.543	ITI	Fixation+	5	No_Pain	n/a	9.585	n/a	n/a	102.037
78.394	3.498	Pic2	Picture	5	No_Pain	26	6.07	n/a	n/a	106.596
81.892	2.006	Blank	Blank	5	No_Pain	n/a	4.064	n/a	n/a	110.094
87.962	n/a	ConfirmRating	Rate	5	No_Pain	26	n/a	3.548	0	116.164
87.993	4.625	ITI	Fixation+	6	Pain	n/a	11.089	n/a	n/a	116.195
92.635	3.498	Pic2	Picture	6	Pain	12	7.575	n/a	n/a	120.837
96.133	2.006	Blank	Blank	6	Pain	n/a	5.569	n/a	n/a	124.335
103.708	n/a	ConfirmRating	Rate	6	Pain	12	n/a	5.052	8	131.91
103.727	4.576	ITI	Fixation+	7	Pain	n/a	12.433	n/a	n/a	131.928
108.319	3.498	Pic2	Picture	7	Pain	3	8.919	n/a	n/a	136.521
111.817	2.006	Blank	Blank	7	Pain	n/a	6.913	n/a	n/a	140.019
120.736	n/a	ConfirmRating	Rate	7	Pain	3	n/a	6.396	14	148.938
120.753	5.687	ITI	Fixation+	8	No_Pain	n/a	9.402	n/a	n/a	148.955
126.456	3.498	Pic2	Picture	8	No_Pain	30	5.887	n/a	n/a	154.658
129.954	2.006	Blank	Blank	8	No_Pain	n/a	3.881	n/a	n/a	158.156
135.841	n/a	ConfirmRating	Rate	8	No_Pain	30	n/a	3.365	0	164.043
135.873	4.857	ITI	Fixation+	9	Pain	n/a	10.426	n/a	n/a	164.075
140.747	3.498	Pic2	Picture	9	Pain	4	6.911	n/a	n/a	168.949
144.245	2.006	Blank	Blank	9	Pain	n/a	4.905	n/a	n/a	172.447
151.156	n/a	ConfirmRating	Rate	9	Pain	4	n/a	4.389	5	179.358
151.175	4.625	ITI	Fixation+	10	No_Pain	n/a	9.558	n/a	n/a	179.377
155.817	3.498	Pic2	Picture	10	No_Pain	28	6.043	n/a	n/a	184.019
159.315	2.006	Blank	Blank	10	No_Pain	n/a	4.037	n/a	n/a	187.517
165.358	n/a	ConfirmRating	Rate	10	No_Pain	28	n/a	3.52	1	193.56
165.383	5.703	ITI	Fixation+	11	Pain	n/a	13.672	n/a	n/a	193.585
171.103	3.498	Pic2	Picture	11	Pain	13	10.157	n/a	n/a	199.304
174.601	2.006	Blank	Blank	11	Pain	n/a	8.151	n/a	n/a	202.802
184.758	n/a	ConfirmRating	Rate	11	Pain	13	n/a	7.634	11	212.959
184.78	4.874	ITI	Fixation+	12	No_Pain	n/a	8.513	n/a	n/a	212.982
189.671	3.498	Pic2	Picture	12	No_Pain	32	4.999	n/a	n/a	217.873
193.169	2.006	Blank	Blank	12	No_Pain	n/a	2.993	n/a	n/a	221.371
198.167	n/a	ConfirmRating	Rate	12	No_Pain	32	n/a	2.476	0	226.369
198.192	5.09	ITI	Fixation+	13	Pain	n/a	13.38	n/a	n/a	226.394
203.298	3.498	Pic2	Picture	13	Pain	5	9.865	n/a	n/a	231.5
206.797	2.006	Blank	Blank	13	Pain	n/a	7.859	n/a	n/a	234.998
216.662	n/a	ConfirmRating	Rate	13	Pain	5	n/a	7.343	12	244.864
216.694	4.808	ITI	Fixation+	14	No_Pain	n/a	9.59	n/a	n/a	244.896
221.518	3.498	Pic2	Picture	14	No_Pain	21	6.075	n/a	n/a	249.72
225.017	2.006	Blank	Blank	14	No_Pain	n/a	4.069	n/a	n/a	253.218
231.092	n/a	ConfirmRating	Rate	14	No_Pain	21	n/a	3.552	0	259.293
231.118	4.277	ITI	Fixation+	15	No_Pain	n/a	7.605	n/a	n/a	259.319
235.411	3.498	Pic2	Picture	15	No_Pain	38	4.09	n/a	n/a	263.613
238.91	2.006	Blank	Blank	15	No_Pain	n/a	2.084	n/a	n/a	267.111
242.999	n/a	ConfirmRating	Rate	15	No_Pain	38	n/a	1.568	0	271.201
243.021	4.012	ITI	Fixation+	16	Pain	n/a	11.955	n/a	n/a	271.223
247.05	3.498	Pic2	Picture	16	Pain	16	8.44	n/a	n/a	275.252
250.548	2.006	Blank	Blank	16	Pain	n/a	6.434	n/a	n/a	278.75
258.988	n/a	ConfirmRating	Rate	16	Pain	16	n/a	5.918	17	287.19
259.02	5.885	ITI	Fixation+	17	No_Pain	n/a	8.615	n/a	n/a	287.221
264.922	3.498	Pic2	Picture	17	No_Pain	22	5.1	n/a	n/a	293.123
268.42	2.006	Blank	Blank	17	No_Pain	n/a	3.094	n/a	n/a	296.622
273.52	n/a	ConfirmRating	Rate	17	No_Pain	22	n/a	2.577	0	301.722
273.543	4.344	ITI	Fixation+	18	Pain	n/a	10.902	n/a	n/a	301.744
277.903	3.498	Pic2	Picture	18	Pain	8	7.388	n/a	n/a	306.104
281.401	2.006	Blank	Blank	18	Pain	n/a	5.382	n/a	n/a	309.603
288.789	n/a	ConfirmRating	Rate	18	Pain	8	n/a	4.865	8	316.99
288.812	5.289	ITI	Fixation+	19	Pain	n/a	8.869	n/a	n/a	317.013
294.117	3.498	Pic2	Picture	19	Pain	1	5.354	n/a	n/a	322.319
297.615	2.006	Blank	Blank	19	Pain	n/a	3.348	n/a	n/a	325.817
302.969	n/a	ConfirmRating	Rate	19	Pain	1	n/a	2.832	20	331.171
302.986	15.004	Rest	n/a	19	n/a	n/a	-15.021	n/a	n/a	331.188
318.007	5.156	ITI	Fixation+	20	No_Pain	n/a	10.327	n/a	n/a	346.209
323.179	3.498	Pic2	Picture	20	No_Pain	23	6.812	n/a	n/a	351.381
326.677	2.006	Blank	Blank	20	No_Pain	n/a	4.806	n/a	n/a	354.879
333.49	n/a	ConfirmRating	Rate	20	No_Pain	23	n/a	4.29	0	361.692
333.508	4.874	ITI	Fixation+	21	Pain	n/a	11.798	n/a	n/a	361.71
338.399	3.498	Pic2	Picture	21	Pain	10	8.283	n/a	n/a	366.6
341.897	2.006	Blank	Blank	21	Pain	n/a	6.277	n/a	n/a	370.099
350.18	n/a	ConfirmRating	Rate	21	Pain	10	n/a	5.76	9	378.381
350.203	5.338	ITI	Fixation+	22	No_Pain	n/a	8.265	n/a	n/a	378.404
355.558	3.498	Pic2	Picture	22	No_Pain	36	4.75	n/a	n/a	383.759
359.056	2.006	Blank	Blank	22	No_Pain	n/a	2.745	n/a	n/a	387.257
363.806	n/a	ConfirmRating	Rate	22	No_Pain	36	n/a	2.228	0	392.008
363.83	4.576	ITI	Fixation+	23	Pain	n/a	11.345	n/a	n/a	392.032
368.423	3.498	Pic2	Picture	23	Pain	11	7.83	n/a	n/a	396.625
371.921	2.006	Blank	Blank	23	Pain	n/a	5.824	n/a	n/a	400.123
379.751	n/a	ConfirmRating	Rate	23	Pain	11	n/a	5.307	24	407.953
379.779	4.874	ITI	Fixation+	24	Pain	n/a	8.708	n/a	n/a	407.981
384.67	3.498	Pic2	Picture	24	Pain	17	5.194	n/a	n/a	412.872
388.168	2.006	Blank	Blank	24	Pain	n/a	3.188	n/a	n/a	416.37
393.362	n/a	ConfirmRating	Rate	24	Pain	17	n/a	2.671	36	421.563
393.39	4.642	ITI	Fixation+	25	No_Pain	n/a	9.416	n/a	n/a	421.592
398.049	3.498	Pic2	Picture	25	No_Pain	31	5.901	n/a	n/a	426.251
401.547	2.006	Blank	Blank	25	No_Pain	n/a	3.895	n/a	n/a	429.749
407.448	n/a	ConfirmRating	Rate	25	No_Pain	31	n/a	3.379	0	435.65
407.466	5.587	ITI	Fixation+	26	Pain	n/a	9.247	n/a	n/a	435.667
413.069	3.498	Pic2	Picture	26	Pain	18	5.732	n/a	n/a	441.271
416.567	2.006	Blank	Blank	26	Pain	n/a	3.726	n/a	n/a	444.769
422.299	n/a	ConfirmRating	Rate	26	Pain	18	n/a	3.209	6	450.501
422.32	5.405	ITI	Fixation+	27	No_Pain	n/a	9.261	n/a	n/a	450.522
427.741	3.498	Pic2	Picture	27	No_Pain	33	5.746	n/a	n/a	455.943
431.24	2.006	Blank	Blank	27	No_Pain	n/a	3.74	n/a	n/a	459.441
436.986	n/a	ConfirmRating	Rate	27	No_Pain	33	n/a	3.224	0	465.188
437.009	4.692	ITI	Fixation+	28	No_Pain	n/a	7.743	n/a	n/a	465.211
441.717	3.498	Pic2	Picture	28	No_Pain	40	4.228	n/a	n/a	469.919
445.215	2.006	Blank	Blank	28	No_Pain	n/a	2.222	n/a	n/a	473.417
449.444	n/a	ConfirmRating	Rate	28	No_Pain	40	n/a	1.706	0	477.645
449.476	4.907	ITI	Fixation+	29	Pain	n/a	12.541	n/a	n/a	477.678
454.4	3.498	Pic2	Picture	29	Pain	20	9.026	n/a	n/a	482.602
457.898	2.006	Blank	Blank	29	Pain	n/a	7.02	n/a	n/a	486.1
466.924	n/a	ConfirmRating	Rate	29	Pain	20	n/a	6.504	3	495.126
466.95	4.327	ITI	Fixation+	30	No_Pain	n/a	9.264	n/a	n/a	495.152
471.294	3.498	Pic2	Picture	30	No_Pain	27	5.749	n/a	n/a	499.496
474.792	2.006	Blank	Blank	30	No_Pain	n/a	3.743	n/a	n/a	502.994
480.541	n/a	ConfirmRating	Rate	30	No_Pain	27	n/a	3.226	0	508.743
480.561	5.388	ITI	Fixation+	31	Pain	n/a	12.906	n/a	n/a	508.763
485.966	3.498	Pic2	Picture	31	Pain	14	9.392	n/a	n/a	514.168
489.464	2.006	Blank	Blank	31	Pain	n/a	7.386	n/a	n/a	517.666
498.856	n/a	ConfirmRating	Rate	31	Pain	14	n/a	6.869	19	527.058
498.881	5.885	ITI	Fixation+	32	Pain	n/a	9.364	n/a	n/a	527.083
504.783	3.498	Pic2	Picture	32	Pain	9	5.85	n/a	n/a	532.985
508.281	2.006	Blank	Blank	32	Pain	n/a	3.843	n/a	n/a	536.483
514.13	n/a	ConfirmRating	Rate	32	Pain	9	n/a	3.327	0	542.332
514.15	4.112	ITI	Fixation+	33	No_Pain	n/a	8.814	n/a	n/a	542.352
518.278	3.498	Pic2	Picture	33	No_Pain	39	5.299	n/a	n/a	546.48
521.776	2.006	Blank	Blank	33	No_Pain	n/a	3.293	n/a	n/a	549.978
527.075	n/a	ConfirmRating	Rate	33	No_Pain	39	n/a	2.777	0	555.277
527.098	4.957	ITI	Fixation+	34	No_Pain	n/a	9.937	n/a	n/a	555.3
532.071	3.498	Pic2	Picture	34	No_Pain	29	6.422	n/a	n/a	560.273
535.569	2.006	Blank	Blank	34	No_Pain	n/a	4.416	n/a	n/a	563.771
541.992	n/a	ConfirmRating	Rate	34	No_Pain	29	n/a	3.9	0	570.194
542.019	4.029	ITI	Fixation+	35	Pain	n/a	15.652	n/a	n/a	570.221
546.064	3.498	Pic2	Picture	35	Pain	6	12.138	n/a	n/a	574.266
549.562	2.006	Blank	Blank	35	Pain	n/a	10.132	n/a	n/a	577.764
561.7	n/a	ConfirmRating	Rate	35	Pain	6	n/a	9.615	1	589.901
561.731	4.957	ITI	Fixation+	36	No_Pain	n/a	8.423	n/a	n/a	589.933
566.704	3.498	Pic2	Picture	36	No_Pain	35	4.908	n/a	n/a	594.906
570.202	2.006	Blank	Blank	36	No_Pain	n/a	2.902	n/a	n/a	598.404
575.11	n/a	ConfirmRating	Rate	36	No_Pain	35	n/a	2.386	0	603.312
575.143	5.04	ITI	Fixation+	37	No_Pain	n/a	9.923	n/a	n/a	603.345
580.199	3.498	Pic2	Picture	37	No_Pain	34	6.408	n/a	n/a	608.401
583.698	2.006	Blank	Blank	37	No_Pain	n/a	4.402	n/a	n/a	611.899
590.106	n/a	ConfirmRating	Rate	37	No_Pain	34	n/a	3.885	1	618.308
590.13	4.758	ITI	Fixation+	38	Pain	n/a	10.395	n/a	n/a	618.332
594.905	3.498	Pic2	Picture	38	Pain	15	6.881	n/a	n/a	623.107
598.403	2.006	Blank	Blank	38	Pain	n/a	4.875	n/a	n/a	626.605
605.284	n/a	ConfirmRating	Rate	38	Pain	15	n/a	4.358	11	633.486
605.316	5.04	ITI	Fixation+	39	Pain	n/a	9.195	n/a	n/a	633.518
610.373	3.498	Pic2	Picture	39	Pain	7	5.681	n/a	n/a	638.575
613.871	2.006	Blank	Blank	39	Pain	n/a	3.674	n/a	n/a	642.073
619.551	n/a	ConfirmRating	Rate	39	Pain	7	n/a	3.158	27	647.753
