onset	duration	trial_type	event_type	time_until_response	response_time	trial_number	block_num_within_trial	image_seq_num_within_block	question_seq_num_within_block	image_seq_num	picture_number	condition	question_type	block_type	rating	rating_computed	onset_uncorrected	KDEV_imagefile
0.01	10.014	ITI	Fixation+	98.293	n/a	1	n/a	n/a	n/a	n/a	n/a	n/a	n/a	n/a	n/a	n/a	32.274	n/a
10.041	0.497	happy	Picture	97.779	n/a	1	1	1	n/a	1	46	2	n/a	n/a	n/a	n/a	42.304	AF09HAS.jpg
10.538	0.514	Blank	Blank	97.265	n/a	1	1	1	n/a	1	n/a	2	n/a	n/a	n/a	n/a	42.801	n/a
11.069	0.497	happy	Picture	96.751	n/a	1	1	2	n/a	2	69	2	n/a	n/a	n/a	n/a	43.332	AM10HAS.jpg
11.566	0.514	Blank	Blank	96.237	n/a	1	1	2	n/a	2	n/a	2	n/a	n/a	n/a	n/a	43.829	n/a
12.096	0.497	happy	Picture	95.723	n/a	1	1	3	n/a	3	71	2	n/a	n/a	n/a	n/a	44.36	BM12HAS.jpg
12.594	0.514	Blank	Blank	95.209	n/a	1	1	3	n/a	3	n/a	2	n/a	n/a	n/a	n/a	44.857	n/a
13.124	0.497	happy	Picture	94.695	n/a	1	1	4	n/a	4	51	2	n/a	n/a	n/a	n/a	45.388	AF20HAS.jpg
13.622	0.514	Blank	Blank	94.181	n/a	1	1	4	n/a	4	n/a	2	n/a	n/a	n/a	n/a	45.885	n/a
14.152	0.497	happy	Picture	93.667	n/a	1	1	5	n/a	5	67	2	n/a	n/a	n/a	n/a	46.415	BM08HAS.jpg
14.65	0.514	Blank	Blank	93.153	n/a	1	1	5	n/a	5	n/a	2	n/a	n/a	n/a	n/a	46.913	n/a
15.18	0.497	happy	Picture	92.639	n/a	1	1	6	n/a	6	60	2	n/a	n/a	n/a	n/a	47.443	AF32HAS.jpg
15.677	0.514	Blank	Blank	92.125	n/a	1	1	6	n/a	6	n/a	2	n/a	n/a	n/a	n/a	47.941	n/a
16.208	0.497	happy	Picture	91.612	n/a	1	1	7	n/a	7	42	2	n/a	n/a	n/a	n/a	48.471	AF03HAS.jpg
16.705	0.514	Blank	Blank	91.098	n/a	1	1	7	n/a	7	n/a	2	n/a	n/a	n/a	n/a	48.968	n/a
17.236	0.497	happy	Picture	90.584	n/a	1	1	8	n/a	8	55	2	n/a	n/a	n/a	n/a	49.499	AF25HAS.jpg
17.733	0.514	Blank	Blank	90.07	n/a	1	1	8	n/a	8	n/a	2	n/a	n/a	n/a	n/a	49.996	n/a
18.264	0.497	happy	Picture	89.556	n/a	1	1	9	n/a	9	72	2	n/a	n/a	n/a	n/a	50.527	AM14HAS.jpg
18.761	0.514	Blank	Blank	89.042	n/a	1	1	9	n/a	9	n/a	2	n/a	n/a	n/a	n/a	51.024	n/a
19.292	0.497	happy	Picture	88.528	n/a	1	1	10	n/a	10	63	2	n/a	n/a	n/a	n/a	51.555	AM04HAS.jpg
19.789	0.514	Blank	Blank	88.014	n/a	1	1	10	n/a	10	n/a	2	n/a	n/a	n/a	n/a	52.052	n/a
20.32	0.497	happy	Picture	87.5	n/a	1	1	11	n/a	11	58	2	n/a	n/a	n/a	n/a	52.583	BF29HAS.jpg
20.817	0.514	Blank	Blank	86.986	n/a	1	1	11	n/a	11	n/a	2	n/a	n/a	n/a	n/a	53.08	n/a
21.347	0.497	happy	Picture	86.472	n/a	1	1	12	n/a	12	48	2	n/a	n/a	n/a	n/a	53.611	AF14HAS.jpg
21.845	0.514	Blank	Blank	85.958	n/a	1	1	12	n/a	12	n/a	2	n/a	n/a	n/a	n/a	54.108	n/a
22.375	0.497	happy	Picture	85.444	n/a	1	1	13	n/a	13	66	2	n/a	n/a	n/a	n/a	54.639	BM07HAS.jpg
22.873	0.514	Blank	Blank	84.93	n/a	1	1	13	n/a	13	n/a	2	n/a	n/a	n/a	n/a	55.136	n/a
23.403	0.497	happy	Picture	84.416	n/a	1	1	14	n/a	14	70	2	n/a	n/a	n/a	n/a	55.666	BM11HAS.jpg
23.901	0.514	Blank	Blank	83.902	n/a	1	1	14	n/a	14	n/a	2	n/a	n/a	n/a	n/a	56.164	n/a
24.431	0.497	happy	Picture	83.388	n/a	1	1	15	n/a	15	43	2	n/a	n/a	n/a	n/a	56.694	BF04HAS.jpg
24.928	0.514	Blank	Blank	82.875	n/a	1	1	15	n/a	15	n/a	2	n/a	n/a	n/a	n/a	57.192	n/a
25.459	0.497	happy	Picture	82.361	n/a	1	1	16	n/a	16	49	2	n/a	n/a	n/a	n/a	57.722	AF17HAS.jpg
25.956	0.514	Blank	Blank	81.847	n/a	1	1	16	n/a	16	n/a	2	n/a	n/a	n/a	n/a	58.219	n/a
26.487	0.497	happy	Picture	81.333	n/a	1	1	17	n/a	17	75	2	n/a	n/a	n/a	n/a	58.75	AM23HAS.jpg
26.984	0.514	Blank	Blank	80.819	n/a	1	1	17	n/a	17	n/a	2	n/a	n/a	n/a	n/a	59.247	n/a
27.515	0.497	happy	Picture	80.305	n/a	1	1	18	n/a	18	80	2	n/a	n/a	n/a	n/a	59.778	BM35HAS.jpg
28.012	0.514	Blank	Blank	79.791	n/a	1	1	18	n/a	18	n/a	2	n/a	n/a	n/a	n/a	60.275	n/a
28.543	0.497	happy	Picture	79.277	n/a	1	1	19	n/a	19	76	2	n/a	n/a	n/a	n/a	60.806	BM24HAS.jpg
29.04	0.514	Blank	Blank	78.763	n/a	1	1	19	n/a	19	n/a	2	n/a	n/a	n/a	n/a	61.303	n/a
29.571	0.497	happy	Picture	78.249	n/a	1	1	20	n/a	20	74	2	n/a	n/a	n/a	n/a	61.834	AM22HAS.jpg
30.068	0.514	Blank	Blank	77.735	n/a	1	1	20	n/a	20	n/a	2	n/a	n/a	n/a	n/a	62.331	n/a
30.598	10.014	ITI	Fixation+	67.705	n/a	1	n/a	n/a	n/a	n/a	n/a	n/a	n/a	n/a	n/a	n/a	62.862	n/a
40.629	0.497	neutral	Picture	67.191	n/a	1	2	1	n/a	21	33	1	n/a	n/a	n/a	n/a	72.892	AM21NES.jpg
41.126	0.514	Blank	Blank	66.677	n/a	1	2	1	n/a	21	n/a	1	n/a	n/a	n/a	n/a	73.389	n/a
41.656	0.497	neutral	Picture	66.163	n/a	1	2	2	n/a	22	39	1	n/a	n/a	n/a	n/a	73.92	AM28NES.jpg
42.154	0.514	Blank	Blank	65.649	n/a	1	2	2	n/a	22	n/a	1	n/a	n/a	n/a	n/a	74.417	n/a
42.684	0.497	neutral	Picture	65.135	n/a	1	2	3	n/a	23	25	1	n/a	n/a	n/a	n/a	74.948	BM06NES.jpg
43.182	0.514	Blank	Blank	64.621	n/a	1	2	3	n/a	23	n/a	1	n/a	n/a	n/a	n/a	75.445	n/a
43.712	0.497	neutral	Picture	64.107	n/a	1	2	4	n/a	24	5	1	n/a	n/a	n/a	n/a	75.975	BF07NES.jpg
44.21	0.514	Blank	Blank	63.593	n/a	1	2	4	n/a	24	n/a	1	n/a	n/a	n/a	n/a	76.473	n/a
44.74	0.497	neutral	Picture	63.079	n/a	1	2	5	n/a	25	10	1	n/a	n/a	n/a	n/a	77.003	AF18NES.jpg
45.237	0.514	Blank	Blank	62.565	n/a	1	2	5	n/a	25	n/a	1	n/a	n/a	n/a	n/a	77.501	n/a
45.768	0.497	neutral	Picture	62.052	n/a	1	2	6	n/a	26	34	1	n/a	n/a	n/a	n/a	78.031	AM22NES.jpg
46.265	0.514	Blank	Blank	61.538	n/a	1	2	6	n/a	26	n/a	1	n/a	n/a	n/a	n/a	78.528	n/a
46.796	0.497	neutral	Picture	61.024	n/a	1	2	7	n/a	27	36	1	n/a	n/a	n/a	n/a	79.059	BM24NES.jpg
47.293	0.514	Blank	Blank	60.51	n/a	1	2	7	n/a	27	n/a	1	n/a	n/a	n/a	n/a	79.556	n/a
47.824	0.497	neutral	Picture	59.996	n/a	1	2	8	n/a	28	14	1	n/a	n/a	n/a	n/a	80.087	AF23NES.jpg
48.321	0.514	Blank	Blank	59.482	n/a	1	2	8	n/a	28	n/a	1	n/a	n/a	n/a	n/a	80.584	n/a
48.852	0.497	neutral	Picture	58.968	n/a	1	2	9	n/a	29	9	1	n/a	n/a	n/a	n/a	81.115	AF17NES.jpg
49.349	0.514	Blank	Blank	58.454	n/a	1	2	9	n/a	29	n/a	1	n/a	n/a	n/a	n/a	81.612	n/a
49.88	0.497	neutral	Picture	57.94	n/a	1	2	10	n/a	30	19	1	n/a	n/a	n/a	n/a	82.143	AF31NES.jpg
50.377	0.514	Blank	Blank	57.426	n/a	1	2	10	n/a	30	n/a	1	n/a	n/a	n/a	n/a	82.64	n/a
50.907	0.497	neutral	Picture	56.912	n/a	1	2	11	n/a	31	15	1	n/a	n/a	n/a	n/a	83.171	AF25NES.jpg
51.405	0.514	Blank	Blank	56.398	n/a	1	2	11	n/a	31	n/a	1	n/a	n/a	n/a	n/a	83.668	n/a
51.935	0.497	neutral	Picture	55.884	n/a	1	2	12	n/a	32	22	1	n/a	n/a	n/a	n/a	84.198	BM03NES.jpg
52.433	0.514	Blank	Blank	55.37	n/a	1	2	12	n/a	32	n/a	1	n/a	n/a	n/a	n/a	84.696	n/a
52.963	0.497	neutral	Picture	54.856	n/a	1	2	13	n/a	33	11	1	n/a	n/a	n/a	n/a	85.226	AF20NES.jpg
53.461	0.514	Blank	Blank	54.342	n/a	1	2	13	n/a	33	n/a	1	n/a	n/a	n/a	n/a	85.724	n/a
53.991	0.497	neutral	Picture	53.828	n/a	1	2	14	n/a	34	4	1	n/a	n/a	n/a	n/a	86.254	AF05NES.jpg
54.488	0.514	Blank	Blank	53.314	n/a	1	2	14	n/a	34	n/a	1	n/a	n/a	n/a	n/a	86.752	n/a
55.019	0.497	neutral	Picture	52.801	n/a	1	2	15	n/a	35	17	1	n/a	n/a	n/a	n/a	87.282	BF28NES.jpg
55.516	0.514	Blank	Blank	52.287	n/a	1	2	15	n/a	35	n/a	1	n/a	n/a	n/a	n/a	87.779	n/a
56.047	0.497	neutral	Picture	51.773	n/a	1	2	16	n/a	36	13	1	n/a	n/a	n/a	n/a	88.31	BF22NES.jpg
56.544	0.514	Blank	Blank	51.259	n/a	1	2	16	n/a	36	n/a	1	n/a	n/a	n/a	n/a	88.807	n/a
57.075	0.497	neutral	Picture	50.745	n/a	1	2	17	n/a	37	12	1	n/a	n/a	n/a	n/a	89.338	AF21NES.jpg
57.572	0.514	Blank	Blank	50.231	n/a	1	2	17	n/a	37	n/a	1	n/a	n/a	n/a	n/a	89.835	n/a
58.103	0.497	neutral	Picture	49.717	n/a	1	2	18	n/a	38	24	1	n/a	n/a	n/a	n/a	90.366	BM05NES.jpg
58.6	0.514	Blank	Blank	49.203	n/a	1	2	18	n/a	38	n/a	1	n/a	n/a	n/a	n/a	90.863	n/a
59.13	0.497	neutral	Picture	48.689	n/a	1	2	19	n/a	39	29	1	n/a	n/a	n/a	n/a	91.394	AM10NES.jpg
59.628	0.514	Blank	Blank	48.175	n/a	1	2	19	n/a	39	n/a	1	n/a	n/a	n/a	n/a	91.891	n/a
60.158	0.497	neutral	Picture	47.661	n/a	1	2	20	n/a	40	23	1	n/a	n/a	n/a	n/a	92.422	AM04NES.jpg
60.656	0.514	Blank	Blank	47.147	n/a	1	2	20	n/a	40	n/a	1	n/a	n/a	n/a	n/a	92.919	n/a
61.186	10.014	ITI	Fixation+	37.117	n/a	1	n/a	n/a	n/a	n/a	n/a	n/a	n/a	n/a	n/a	n/a	93.45	n/a
71.216	0.497	happy	Picture	36.603	n/a	1	3	1	n/a	41	62	2	n/a	n/a	n/a	n/a	103.48	BM03HAS.jpg
71.714	0.514	Blank	Blank	36.089	n/a	1	3	1	n/a	41	n/a	2	n/a	n/a	n/a	n/a	103.977	n/a
72.244	0.497	happy	Picture	35.575	n/a	1	3	2	n/a	42	52	2	n/a	n/a	n/a	n/a	104.508	AF21HAS.jpg
72.742	0.514	Blank	Blank	35.061	n/a	1	3	2	n/a	42	n/a	2	n/a	n/a	n/a	n/a	105.005	n/a
73.272	0.497	happy	Picture	34.547	n/a	1	3	3	n/a	43	44	2	n/a	n/a	n/a	n/a	105.535	AF05HAS.jpg
73.77	0.514	Blank	Blank	34.033	n/a	1	3	3	n/a	43	n/a	2	n/a	n/a	n/a	n/a	106.033	n/a
74.3	0.497	happy	Picture	33.519	n/a	1	3	4	n/a	44	53	2	n/a	n/a	n/a	n/a	106.563	BF22HAS.jpg
74.797	0.514	Blank	Blank	33.005	n/a	1	3	4	n/a	44	n/a	2	n/a	n/a	n/a	n/a	107.061	n/a
75.328	0.497	happy	Picture	32.491	n/a	1	3	5	n/a	45	54	2	n/a	n/a	n/a	n/a	107.591	AF23HAS.jpg
75.825	0.514	Blank	Blank	31.978	n/a	1	3	5	n/a	45	n/a	2	n/a	n/a	n/a	n/a	108.089	n/a
76.356	0.497	happy	Picture	31.464	n/a	1	3	6	n/a	46	68	2	n/a	n/a	n/a	n/a	108.619	AM09HAS.jpg
76.853	0.514	Blank	Blank	30.95	n/a	1	3	6	n/a	46	n/a	2	n/a	n/a	n/a	n/a	109.117	n/a
77.384	0.497	happy	Picture	30.436	n/a	1	3	7	n/a	47	64	2	n/a	n/a	n/a	n/a	109.647	BM05HAS.jpg
77.881	0.514	Blank	Blank	29.922	n/a	1	3	7	n/a	47	n/a	2	n/a	n/a	n/a	n/a	110.144	n/a
78.412	0.497	happy	Picture	29.408	n/a	1	3	8	n/a	48	59	2	n/a	n/a	n/a	n/a	110.675	AF31HAS.jpg
78.909	0.514	Blank	Blank	28.894	n/a	1	3	8	n/a	48	n/a	2	n/a	n/a	n/a	n/a	111.172	n/a
79.44	0.497	happy	Picture	28.38	n/a	1	3	9	n/a	49	41	2	n/a	n/a	n/a	n/a	111.703	AF01HAS.jpg
79.937	0.514	Blank	Blank	27.866	n/a	1	3	9	n/a	49	n/a	2	n/a	n/a	n/a	n/a	112.2	n/a
80.468	0.497	happy	Picture	27.352	n/a	1	3	10	n/a	50	73	2	n/a	n/a	n/a	n/a	112.731	AM21HAS.jpg
80.965	0.514	Blank	Blank	26.838	n/a	1	3	10	n/a	50	n/a	2	n/a	n/a	n/a	n/a	113.228	n/a
81.495	0.497	happy	Picture	26.324	n/a	1	3	11	n/a	51	65	2	n/a	n/a	n/a	n/a	113.758	BM06HAS.jpg
81.993	0.514	Blank	Blank	25.81	n/a	1	3	11	n/a	51	n/a	2	n/a	n/a	n/a	n/a	114.256	n/a
82.523	0.497	happy	Picture	25.296	n/a	1	3	12	n/a	52	56	2	n/a	n/a	n/a	n/a	114.786	AF26HAS.jpg
83.021	0.514	Blank	Blank	24.782	n/a	1	3	12	n/a	52	n/a	2	n/a	n/a	n/a	n/a	115.284	n/a
83.551	0.497	happy	Picture	24.268	n/a	1	3	13	n/a	53	45	2	n/a	n/a	n/a	n/a	115.814	BF07HAS.jpg
84.049	0.514	Blank	Blank	23.754	n/a	1	3	13	n/a	53	n/a	2	n/a	n/a	n/a	n/a	116.312	n/a
84.579	0.497	happy	Picture	23.24	n/a	1	3	14	n/a	54	78	2	n/a	n/a	n/a	n/a	116.842	BM26HAS.jpg
85.076	0.514	Blank	Blank	22.727	n/a	1	3	14	n/a	54	n/a	2	n/a	n/a	n/a	n/a	117.34	n/a
85.607	0.497	happy	Picture	22.213	n/a	1	3	15	n/a	55	50	2	n/a	n/a	n/a	n/a	117.87	AF18HAS.jpg
86.104	0.514	Blank	Blank	21.699	n/a	1	3	15	n/a	55	n/a	2	n/a	n/a	n/a	n/a	118.368	n/a
86.635	0.497	happy	Picture	21.185	n/a	1	3	16	n/a	56	47	2	n/a	n/a	n/a	n/a	118.898	BF11HAS.jpg
87.132	0.514	Blank	Blank	20.671	n/a	1	3	16	n/a	56	n/a	2	n/a	n/a	n/a	n/a	119.395	n/a
87.663	0.497	happy	Picture	20.157	n/a	1	3	17	n/a	57	77	2	n/a	n/a	n/a	n/a	119.926	BM25HAS.jpg
88.16	0.514	Blank	Blank	19.643	n/a	1	3	17	n/a	57	n/a	2	n/a	n/a	n/a	n/a	120.423	n/a
88.691	0.497	happy	Picture	19.129	n/a	1	3	18	n/a	58	57	2	n/a	n/a	n/a	n/a	120.954	BF28HAS.jpg
89.188	0.514	Blank	Blank	18.615	n/a	1	3	18	n/a	58	n/a	2	n/a	n/a	n/a	n/a	121.451	n/a
89.718	0.497	happy	Picture	18.101	n/a	1	3	19	n/a	59	61	2	n/a	n/a	n/a	n/a	121.982	AM01HAS.jpg
90.216	0.514	Blank	Blank	17.587	n/a	1	3	19	n/a	59	n/a	2	n/a	n/a	n/a	n/a	122.479	n/a
90.746	0.497	happy	Picture	17.073	n/a	1	3	20	n/a	60	79	2	n/a	n/a	n/a	n/a	123.01	BM28HAS.jpg
91.244	0.514	Blank	Blank	16.559	n/a	1	3	20	n/a	60	n/a	2	n/a	n/a	n/a	n/a	123.507	n/a
91.774	10.014	ITI	Fixation+	6.529	n/a	1	n/a	n/a	n/a	n/a	n/a	n/a	n/a	n/a	n/a	n/a	124.037	n/a
108.317	n/a	ConfirmRating	Rate	n/a	6.516	1	n/a	n/a	0	n/a	n/a	n/a	2	Happy	77	52	140.58	n/a
113.89	n/a	ConfirmRating	Rate	n/a	5.554	1	n/a	n/a	1	n/a	n/a	n/a	3	Happy	0	46	146.153	n/a
113.907	10.014	ITI	Fixation+	97.334	n/a	2	n/a	n/a	n/a	n/a	n/a	n/a	n/a	n/a	n/a	n/a	146.17	n/a
123.937	0.497	angry	Picture	96.82	n/a	2	4	1	n/a	61	119	3	n/a	n/a	n/a	n/a	156.2	BM28ANS.jpg
124.434	0.514	Blank	Blank	96.306	n/a	2	4	1	n/a	61	n/a	3	n/a	n/a	n/a	n/a	156.698	n/a
124.965	0.497	angry	Picture	95.792	n/a	2	4	2	n/a	62	100	3	n/a	n/a	n/a	n/a	157.228	AF32ANS.jpg
125.462	0.514	Blank	Blank	95.278	n/a	2	4	2	n/a	62	n/a	3	n/a	n/a	n/a	n/a	157.726	n/a
125.993	0.497	angry	Picture	94.764	n/a	2	4	3	n/a	63	118	3	n/a	n/a	n/a	n/a	158.256	BM26ANS.jpg
126.49	0.514	Blank	Blank	94.251	n/a	2	4	3	n/a	63	n/a	3	n/a	n/a	n/a	n/a	158.754	n/a
127.021	0.497	angry	Picture	93.737	n/a	2	4	4	n/a	64	89	3	n/a	n/a	n/a	n/a	159.284	AF17ANS.jpg
127.518	0.514	Blank	Blank	93.223	n/a	2	4	4	n/a	64	n/a	3	n/a	n/a	n/a	n/a	159.781	n/a
128.049	0.497	angry	Picture	92.709	n/a	2	4	5	n/a	65	116	3	n/a	n/a	n/a	n/a	160.312	BM24ANS.jpg
128.546	0.514	Blank	Blank	92.195	n/a	2	4	5	n/a	65	n/a	3	n/a	n/a	n/a	n/a	160.809	n/a
129.077	0.497	angry	Picture	91.681	n/a	2	4	6	n/a	66	105	3	n/a	n/a	n/a	n/a	161.34	BM06ANS.jpg
129.574	0.514	Blank	Blank	91.167	n/a	2	4	6	n/a	66	n/a	3	n/a	n/a	n/a	n/a	161.837	n/a
130.105	0.497	angry	Picture	90.653	n/a	2	4	7	n/a	67	106	3	n/a	n/a	n/a	n/a	162.368	AM07ANS.jpg
130.602	0.514	Blank	Blank	90.139	n/a	2	4	7	n/a	67	n/a	3	n/a	n/a	n/a	n/a	162.865	n/a
131.132	0.497	angry	Picture	89.625	n/a	2	4	8	n/a	68	94	3	n/a	n/a	n/a	n/a	163.395	AF23ANS.jpg
131.63	0.514	Blank	Blank	89.111	n/a	2	4	8	n/a	68	n/a	3	n/a	n/a	n/a	n/a	163.893	n/a
132.16	0.497	angry	Picture	88.597	n/a	2	4	9	n/a	69	117	3	n/a	n/a	n/a	n/a	164.423	BM25ANS.jpg
132.658	0.514	Blank	Blank	88.083	n/a	2	4	9	n/a	69	n/a	3	n/a	n/a	n/a	n/a	164.921	n/a
133.188	0.497	angry	Picture	87.569	n/a	2	4	10	n/a	70	90	3	n/a	n/a	n/a	n/a	165.451	AF18ANS.jpg
133.685	0.514	Blank	Blank	87.055	n/a	2	4	10	n/a	70	n/a	3	n/a	n/a	n/a	n/a	165.949	n/a
134.216	0.497	angry	Picture	86.541	n/a	2	4	11	n/a	71	83	3	n/a	n/a	n/a	n/a	166.479	BF04ANS.jpg
134.713	0.514	Blank	Blank	86.028	n/a	2	4	11	n/a	71	n/a	3	n/a	n/a	n/a	n/a	166.977	n/a
135.244	0.497	angry	Picture	85.513	n/a	2	4	12	n/a	72	112	3	n/a	n/a	n/a	n/a	167.507	AM14ANS.jpg
135.741	0.514	Blank	Blank	85.0	n/a	2	4	12	n/a	72	n/a	3	n/a	n/a	n/a	n/a	168.005	n/a
136.272	0.497	angry	Picture	84.486	n/a	2	4	13	n/a	73	102	3	n/a	n/a	n/a	n/a	168.535	BM03ANS.jpg
136.769	0.514	Blank	Blank	83.972	n/a	2	4	13	n/a	73	n/a	3	n/a	n/a	n/a	n/a	169.032	n/a
137.3	0.497	angry	Picture	83.458	n/a	2	4	14	n/a	74	95	3	n/a	n/a	n/a	n/a	169.563	AF25ANS.jpg
137.797	0.514	Blank	Blank	82.944	n/a	2	4	14	n/a	74	n/a	3	n/a	n/a	n/a	n/a	170.06	n/a
138.328	0.497	angry	Picture	82.43	n/a	2	4	15	n/a	75	113	3	n/a	n/a	n/a	n/a	170.591	AM21ANS.jpg
138.825	0.514	Blank	Blank	81.916	n/a	2	4	15	n/a	75	n/a	3	n/a	n/a	n/a	n/a	171.088	n/a
139.355	0.497	angry	Picture	81.402	n/a	2	4	16	n/a	76	88	3	n/a	n/a	n/a	n/a	171.619	AF14ANS.jpg
139.853	0.514	Blank	Blank	80.888	n/a	2	4	16	n/a	76	n/a	3	n/a	n/a	n/a	n/a	172.116	n/a
140.383	0.497	angry	Picture	80.374	n/a	2	4	17	n/a	77	93	3	n/a	n/a	n/a	n/a	172.647	BF22ANS.jpg
140.881	0.514	Blank	Blank	79.86	n/a	2	4	17	n/a	77	n/a	3	n/a	n/a	n/a	n/a	173.144	n/a
141.411	0.497	angry	Picture	79.346	n/a	2	4	18	n/a	78	86	3	n/a	n/a	n/a	n/a	173.674	AF09ANS.jpg
141.909	0.514	Blank	Blank	78.832	n/a	2	4	18	n/a	78	n/a	3	n/a	n/a	n/a	n/a	174.172	n/a
142.439	0.497	angry	Picture	78.318	n/a	2	4	19	n/a	79	92	3	n/a	n/a	n/a	n/a	174.702	AF21ANS.jpg
142.937	0.514	Blank	Blank	77.804	n/a	2	4	19	n/a	79	n/a	3	n/a	n/a	n/a	n/a	175.2	n/a
143.467	0.497	angry	Picture	77.291	n/a	2	4	20	n/a	80	84	3	n/a	n/a	n/a	n/a	175.73	AF05ANS.jpg
143.964	0.514	Blank	Blank	76.776	n/a	2	4	20	n/a	80	n/a	3	n/a	n/a	n/a	n/a	176.227	n/a
144.495	10.014	ITI	Fixation+	66.746	n/a	2	n/a	n/a	n/a	n/a	n/a	n/a	n/a	n/a	n/a	n/a	176.758	n/a
154.525	0.497	neutral	Picture	66.232	n/a	2	5	1	n/a	81	4	1	n/a	n/a	n/a	n/a	186.788	AF05NES.jpg
155.022	0.514	Blank	Blank	65.718	n/a	2	5	1	n/a	81	n/a	1	n/a	n/a	n/a	n/a	187.286	n/a
155.553	0.497	neutral	Picture	65.204	n/a	2	5	2	n/a	82	14	1	n/a	n/a	n/a	n/a	187.816	AF23NES.jpg
156.05	0.514	Blank	Blank	64.69	n/a	2	5	2	n/a	82	n/a	1	n/a	n/a	n/a	n/a	188.314	n/a
156.581	0.497	neutral	Picture	64.177	n/a	2	5	3	n/a	83	19	1	n/a	n/a	n/a	n/a	188.844	AF31NES.jpg
157.078	0.514	Blank	Blank	63.663	n/a	2	5	3	n/a	83	n/a	1	n/a	n/a	n/a	n/a	189.341	n/a
157.609	0.497	neutral	Picture	63.149	n/a	2	5	4	n/a	84	8	1	n/a	n/a	n/a	n/a	189.872	AF14NES.jpg
158.106	0.513	Blank	Blank	62.635	n/a	2	5	4	n/a	84	n/a	1	n/a	n/a	n/a	n/a	190.369	n/a
158.637	0.497	neutral	Picture	62.121	n/a	2	5	5	n/a	85	25	1	n/a	n/a	n/a	n/a	190.9	BM06NES.jpg
159.134	0.514	Blank	Blank	61.607	n/a	2	5	5	n/a	85	n/a	1	n/a	n/a	n/a	n/a	191.397	n/a
159.664	0.497	neutral	Picture	61.093	n/a	2	5	6	n/a	86	9	1	n/a	n/a	n/a	n/a	191.928	AF17NES.jpg
160.162	0.514	Blank	Blank	60.579	n/a	2	5	6	n/a	86	n/a	1	n/a	n/a	n/a	n/a	192.425	n/a
160.692	0.497	neutral	Picture	60.065	n/a	2	5	7	n/a	87	2	1	n/a	n/a	n/a	n/a	192.956	AF03NES.jpg
161.19	0.514	Blank	Blank	59.551	n/a	2	5	7	n/a	87	n/a	1	n/a	n/a	n/a	n/a	193.453	n/a
161.72	0.497	neutral	Picture	59.037	n/a	2	5	8	n/a	88	17	1	n/a	n/a	n/a	n/a	193.983	BF28NES.jpg
162.218	0.514	Blank	Blank	58.523	n/a	2	5	8	n/a	88	n/a	1	n/a	n/a	n/a	n/a	194.481	n/a
162.748	0.497	neutral	Picture	58.009	n/a	2	5	9	n/a	89	6	1	n/a	n/a	n/a	n/a	195.011	AF09NES.jpg
163.245	0.514	Blank	Blank	57.495	n/a	2	5	9	n/a	89	n/a	1	n/a	n/a	n/a	n/a	195.509	n/a
163.776	0.497	neutral	Picture	56.981	n/a	2	5	10	n/a	90	12	1	n/a	n/a	n/a	n/a	196.039	AF21NES.jpg
164.273	0.514	Blank	Blank	56.467	n/a	2	5	10	n/a	90	n/a	1	n/a	n/a	n/a	n/a	196.537	n/a
164.804	0.497	neutral	Picture	55.953	n/a	2	5	11	n/a	91	24	1	n/a	n/a	n/a	n/a	197.067	BM05NES.jpg
165.301	0.514	Blank	Blank	55.44	n/a	2	5	11	n/a	91	n/a	1	n/a	n/a	n/a	n/a	197.565	n/a
165.832	0.497	neutral	Picture	54.926	n/a	2	5	12	n/a	92	34	1	n/a	n/a	n/a	n/a	198.095	AM22NES.jpg
166.329	0.514	Blank	Blank	54.412	n/a	2	5	12	n/a	92	n/a	1	n/a	n/a	n/a	n/a	198.592	n/a
166.86	0.497	neutral	Picture	53.898	n/a	2	5	13	n/a	93	23	1	n/a	n/a	n/a	n/a	199.123	AM04NES.jpg
167.357	0.514	Blank	Blank	53.384	n/a	2	5	13	n/a	93	n/a	1	n/a	n/a	n/a	n/a	199.62	n/a
167.888	0.497	neutral	Picture	52.87	n/a	2	5	14	n/a	94	15	1	n/a	n/a	n/a	n/a	200.151	AF25NES.jpg
168.385	0.514	Blank	Blank	52.356	n/a	2	5	14	n/a	94	n/a	1	n/a	n/a	n/a	n/a	200.648	n/a
168.916	0.497	neutral	Picture	51.842	n/a	2	5	15	n/a	95	37	1	n/a	n/a	n/a	n/a	201.179	BM25NES.jpg
169.413	0.514	Blank	Blank	51.328	n/a	2	5	15	n/a	95	n/a	1	n/a	n/a	n/a	n/a	201.676	n/a
169.943	0.497	neutral	Picture	50.814	n/a	2	5	16	n/a	96	32	1	n/a	n/a	n/a	n/a	202.207	AM14NES.jpg
170.441	0.514	Blank	Blank	50.3	n/a	2	5	16	n/a	96	n/a	1	n/a	n/a	n/a	n/a	202.704	n/a
170.971	0.497	neutral	Picture	49.786	n/a	2	5	17	n/a	97	3	1	n/a	n/a	n/a	n/a	203.234	BF04NES.jpg
171.469	0.514	Blank	Blank	49.272	n/a	2	5	17	n/a	97	n/a	1	n/a	n/a	n/a	n/a	203.732	n/a
171.999	0.497	neutral	Picture	48.758	n/a	2	5	18	n/a	98	16	1	n/a	n/a	n/a	n/a	204.262	AF26NES.jpg
172.497	0.514	Blank	Blank	48.244	n/a	2	5	18	n/a	98	n/a	1	n/a	n/a	n/a	n/a	204.76	n/a
173.027	0.497	neutral	Picture	47.73	n/a	2	5	19	n/a	99	27	1	n/a	n/a	n/a	n/a	205.29	BM08NES.jpg
173.524	0.514	Blank	Blank	47.216	n/a	2	5	19	n/a	99	n/a	1	n/a	n/a	n/a	n/a	205.788	n/a
174.055	0.497	neutral	Picture	46.703	n/a	2	5	20	n/a	100	28	1	n/a	n/a	n/a	n/a	206.318	AM09NES.jpg
174.552	0.514	Blank	Blank	46.189	n/a	2	5	20	n/a	100	n/a	1	n/a	n/a	n/a	n/a	206.815	n/a
175.083	10.014	ITI	Fixation+	36.158	n/a	2	n/a	n/a	n/a	n/a	n/a	n/a	n/a	n/a	n/a	n/a	207.346	n/a
185.113	0.497	angry	Picture	35.644	n/a	2	6	1	n/a	101	81	3	n/a	n/a	n/a	n/a	217.376	AF01ANS.jpg
185.61	0.514	Blank	Blank	35.13	n/a	2	6	1	n/a	101	n/a	3	n/a	n/a	n/a	n/a	217.874	n/a
186.141	0.497	angry	Picture	34.617	n/a	2	6	2	n/a	102	120	3	n/a	n/a	n/a	n/a	218.404	AM35ANS.jpg
186.638	0.514	Blank	Blank	34.103	n/a	2	6	2	n/a	102	n/a	3	n/a	n/a	n/a	n/a	218.901	n/a
187.169	0.497	angry	Picture	33.589	n/a	2	6	3	n/a	103	114	3	n/a	n/a	n/a	n/a	219.432	AM22ANS.jpg
187.666	0.514	Blank	Blank	33.075	n/a	2	6	3	n/a	103	n/a	3	n/a	n/a	n/a	n/a	219.929	n/a
188.197	0.497	angry	Picture	32.561	n/a	2	6	4	n/a	104	109	3	n/a	n/a	n/a	n/a	220.46	AM10ANS.jpg
188.694	0.514	Blank	Blank	32.047	n/a	2	6	4	n/a	104	n/a	3	n/a	n/a	n/a	n/a	220.957	n/a
189.224	0.497	angry	Picture	31.533	n/a	2	6	5	n/a	105	96	3	n/a	n/a	n/a	n/a	221.488	AF26ANS.jpg
189.722	0.514	Blank	Blank	31.019	n/a	2	6	5	n/a	105	n/a	3	n/a	n/a	n/a	n/a	221.985	n/a
190.252	0.497	angry	Picture	30.505	n/a	2	6	6	n/a	106	82	3	n/a	n/a	n/a	n/a	222.516	AF03ANS.jpg
190.75	0.514	Blank	Blank	29.991	n/a	2	6	6	n/a	106	n/a	3	n/a	n/a	n/a	n/a	223.013	n/a
191.28	0.497	angry	Picture	29.477	n/a	2	6	7	n/a	107	97	3	n/a	n/a	n/a	n/a	223.543	BF28ANS.jpg
191.778	0.514	Blank	Blank	28.963	n/a	2	6	7	n/a	107	n/a	3	n/a	n/a	n/a	n/a	224.041	n/a
192.308	0.497	angry	Picture	28.449	n/a	2	6	8	n/a	108	115	3	n/a	n/a	n/a	n/a	224.571	AM23ANS.jpg
192.806	0.514	Blank	Blank	27.935	n/a	2	6	8	n/a	108	n/a	3	n/a	n/a	n/a	n/a	225.069	n/a
193.336	0.497	angry	Picture	27.421	n/a	2	6	9	n/a	109	91	3	n/a	n/a	n/a	n/a	225.599	AF20ANS.jpg
193.834	0.514	Blank	Blank	26.907	n/a	2	6	9	n/a	109	n/a	3	n/a	n/a	n/a	n/a	226.097	n/a
194.364	0.497	angry	Picture	26.394	n/a	2	6	10	n/a	110	87	3	n/a	n/a	n/a	n/a	226.627	BF11ANS.jpg
194.861	0.514	Blank	Blank	25.879	n/a	2	6	10	n/a	110	n/a	3	n/a	n/a	n/a	n/a	227.125	n/a
195.392	0.497	angry	Picture	25.366	n/a	2	6	11	n/a	111	85	3	n/a	n/a	n/a	n/a	227.655	BF07ANS.jpg
195.889	0.514	Blank	Blank	24.852	n/a	2	6	11	n/a	111	n/a	3	n/a	n/a	n/a	n/a	228.152	n/a
196.42	0.497	angry	Picture	24.338	n/a	2	6	12	n/a	112	110	3	n/a	n/a	n/a	n/a	228.683	AM11ANS.jpg
196.917	0.514	Blank	Blank	23.824	n/a	2	6	12	n/a	112	n/a	3	n/a	n/a	n/a	n/a	229.18	n/a
197.448	0.497	angry	Picture	23.31	n/a	2	6	13	n/a	113	111	3	n/a	n/a	n/a	n/a	229.711	BM12ANS.jpg
197.945	0.514	Blank	Blank	22.796	n/a	2	6	13	n/a	113	n/a	3	n/a	n/a	n/a	n/a	230.208	n/a
198.476	0.497	angry	Picture	22.282	n/a	2	6	14	n/a	114	103	3	n/a	n/a	n/a	n/a	230.739	AM04ANS.jpg
198.973	0.514	Blank	Blank	21.768	n/a	2	6	14	n/a	114	n/a	3	n/a	n/a	n/a	n/a	231.236	n/a
199.503	0.497	angry	Picture	21.254	n/a	2	6	15	n/a	115	101	3	n/a	n/a	n/a	n/a	231.767	AM01ANS.jpg
200.001	0.514	Blank	Blank	20.74	n/a	2	6	15	n/a	115	n/a	3	n/a	n/a	n/a	n/a	232.264	n/a
200.531	0.497	angry	Picture	20.226	n/a	2	6	16	n/a	116	104	3	n/a	n/a	n/a	n/a	232.794	BM05ANS.jpg
201.029	0.514	Blank	Blank	19.712	n/a	2	6	16	n/a	116	n/a	3	n/a	n/a	n/a	n/a	233.292	n/a
201.559	0.497	angry	Picture	19.198	n/a	2	6	17	n/a	117	107	3	n/a	n/a	n/a	n/a	233.822	BM08ANS.jpg
202.057	0.514	Blank	Blank	18.684	n/a	2	6	17	n/a	117	n/a	3	n/a	n/a	n/a	n/a	234.32	n/a
202.587	0.497	angry	Picture	18.17	n/a	2	6	18	n/a	118	98	3	n/a	n/a	n/a	n/a	234.85	BF29ANS.jpg
203.084	0.514	Blank	Blank	17.656	n/a	2	6	18	n/a	118	n/a	3	n/a	n/a	n/a	n/a	235.348	n/a
203.615	0.497	angry	Picture	17.142	n/a	2	6	19	n/a	119	99	3	n/a	n/a	n/a	n/a	235.878	AF31ANS.jpg
204.112	0.514	Blank	Blank	16.628	n/a	2	6	19	n/a	119	n/a	3	n/a	n/a	n/a	n/a	236.375	n/a
204.643	0.497	angry	Picture	16.115	n/a	2	6	20	n/a	120	108	3	n/a	n/a	n/a	n/a	236.906	AM09ANS.jpg
205.14	0.514	Blank	Blank	15.601	n/a	2	6	20	n/a	120	n/a	3	n/a	n/a	n/a	n/a	237.403	n/a
205.671	10.014	ITI	Fixation+	5.57	n/a	2	n/a	n/a	n/a	n/a	n/a	n/a	n/a	n/a	n/a	n/a	237.934	n/a
221.255	n/a	ConfirmRating	Rate	n/a	5.554	2	n/a	n/a	0	n/a	n/a	n/a	2	Angry	67	52	253.518	n/a
226.478	n/a	ConfirmRating	Rate	n/a	5.222	2	n/a	n/a	1	n/a	n/a	n/a	3	Angry	0	45	258.741	n/a
226.51	15.004	Rest	Picture	n/a	n/a	n/a	n/a	n/a	n/a	n/a	n/a	n/a	0	n/a	0	0	258.774	n/a
241.531	10.014	ITI	Fixation+	97.37	n/a	3	n/a	n/a	n/a	n/a	n/a	n/a	n/a	n/a	n/a	n/a	273.794	n/a
251.561	0.497	happy	Picture	96.856	n/a	3	7	1	n/a	1	46	2	n/a	n/a	n/a	n/a	283.824	AF09HAS.jpg
252.058	0.514	Blank	Blank	96.342	n/a	3	7	1	n/a	1	n/a	2	n/a	n/a	n/a	n/a	284.322	n/a
252.589	0.497	happy	Picture	95.828	n/a	3	7	2	n/a	2	69	2	n/a	n/a	n/a	n/a	284.852	AM10HAS.jpg
253.086	0.514	Blank	Blank	95.314	n/a	3	7	2	n/a	2	n/a	2	n/a	n/a	n/a	n/a	285.349	n/a
253.617	0.497	happy	Picture	94.8	n/a	3	7	3	n/a	3	71	2	n/a	n/a	n/a	n/a	285.88	BM12HAS.jpg
254.114	0.514	Blank	Blank	94.286	n/a	3	7	3	n/a	3	n/a	2	n/a	n/a	n/a	n/a	286.377	n/a
254.645	0.497	happy	Picture	93.772	n/a	3	7	4	n/a	4	51	2	n/a	n/a	n/a	n/a	286.908	AF20HAS.jpg
255.142	0.514	Blank	Blank	93.258	n/a	3	7	4	n/a	4	n/a	2	n/a	n/a	n/a	n/a	287.405	n/a
255.673	0.497	happy	Picture	92.745	n/a	3	7	5	n/a	5	67	2	n/a	n/a	n/a	n/a	287.936	BM08HAS.jpg
256.17	0.514	Blank	Blank	92.231	n/a	3	7	5	n/a	5	n/a	2	n/a	n/a	n/a	n/a	288.433	n/a
256.7	0.497	happy	Picture	91.717	n/a	3	7	6	n/a	6	60	2	n/a	n/a	n/a	n/a	288.964	AF32HAS.jpg
257.198	0.514	Blank	Blank	91.203	n/a	3	7	6	n/a	6	n/a	2	n/a	n/a	n/a	n/a	289.461	n/a
257.728	0.497	happy	Picture	90.689	n/a	3	7	7	n/a	7	42	2	n/a	n/a	n/a	n/a	289.991	AF03HAS.jpg
258.226	0.514	Blank	Blank	90.175	n/a	3	7	7	n/a	7	n/a	2	n/a	n/a	n/a	n/a	290.489	n/a
258.756	0.497	happy	Picture	89.661	n/a	3	7	8	n/a	8	55	2	n/a	n/a	n/a	n/a	291.019	AF25HAS.jpg
259.254	0.514	Blank	Blank	89.147	n/a	3	7	8	n/a	8	n/a	2	n/a	n/a	n/a	n/a	291.517	n/a
259.784	0.497	happy	Picture	88.633	n/a	3	7	9	n/a	9	72	2	n/a	n/a	n/a	n/a	292.047	AM14HAS.jpg
260.281	0.514	Blank	Blank	88.119	n/a	3	7	9	n/a	9	n/a	2	n/a	n/a	n/a	n/a	292.545	n/a
260.812	0.497	happy	Picture	87.605	n/a	3	7	10	n/a	10	63	2	n/a	n/a	n/a	n/a	293.075	AM04HAS.jpg
261.309	0.514	Blank	Blank	87.091	n/a	3	7	10	n/a	10	n/a	2	n/a	n/a	n/a	n/a	293.572	n/a
261.84	0.497	happy	Picture	86.577	n/a	3	7	11	n/a	11	58	2	n/a	n/a	n/a	n/a	294.103	BF29HAS.jpg
262.337	0.514	Blank	Blank	86.063	n/a	3	7	11	n/a	11	n/a	2	n/a	n/a	n/a	n/a	294.6	n/a
262.868	0.497	happy	Picture	85.549	n/a	3	7	12	n/a	12	48	2	n/a	n/a	n/a	n/a	295.131	AF14HAS.jpg
263.365	0.514	Blank	Blank	85.035	n/a	3	7	12	n/a	12	n/a	2	n/a	n/a	n/a	n/a	295.628	n/a
263.896	0.497	happy	Picture	84.522	n/a	3	7	13	n/a	13	66	2	n/a	n/a	n/a	n/a	296.159	BM07HAS.jpg
264.393	0.514	Blank	Blank	84.007	n/a	3	7	13	n/a	13	n/a	2	n/a	n/a	n/a	n/a	296.656	n/a
264.923	0.497	happy	Picture	83.494	n/a	3	7	14	n/a	14	70	2	n/a	n/a	n/a	n/a	297.187	BM11HAS.jpg
265.421	0.514	Blank	Blank	82.98	n/a	3	7	14	n/a	14	n/a	2	n/a	n/a	n/a	n/a	297.684	n/a
265.951	0.497	happy	Picture	82.466	n/a	3	7	15	n/a	15	43	2	n/a	n/a	n/a	n/a	298.214	BF04HAS.jpg
266.449	0.514	Blank	Blank	81.952	n/a	3	7	15	n/a	15	n/a	2	n/a	n/a	n/a	n/a	298.712	n/a
266.979	0.497	happy	Picture	81.438	n/a	3	7	16	n/a	16	49	2	n/a	n/a	n/a	n/a	299.242	AF17HAS.jpg
267.477	0.514	Blank	Blank	80.924	n/a	3	7	16	n/a	16	n/a	2	n/a	n/a	n/a	n/a	299.74	n/a
268.007	0.497	happy	Picture	80.41	n/a	3	7	17	n/a	17	75	2	n/a	n/a	n/a	n/a	300.27	AM23HAS.jpg
268.505	0.514	Blank	Blank	79.896	n/a	3	7	17	n/a	17	n/a	2	n/a	n/a	n/a	n/a	300.768	n/a
269.035	0.497	happy	Picture	79.382	n/a	3	7	18	n/a	18	80	2	n/a	n/a	n/a	n/a	301.298	BM35HAS.jpg
269.532	0.514	Blank	Blank	78.868	n/a	3	7	18	n/a	18	n/a	2	n/a	n/a	n/a	n/a	301.796	n/a
270.063	0.497	happy	Picture	78.354	n/a	3	7	19	n/a	19	76	2	n/a	n/a	n/a	n/a	302.326	BM24HAS.jpg
270.56	0.514	Blank	Blank	77.84	n/a	3	7	19	n/a	19	n/a	2	n/a	n/a	n/a	n/a	302.823	n/a
271.091	0.497	happy	Picture	77.326	n/a	3	7	20	n/a	20	74	2	n/a	n/a	n/a	n/a	303.354	AM22HAS.jpg
271.588	0.514	Blank	Blank	76.812	n/a	3	7	20	n/a	20	n/a	2	n/a	n/a	n/a	n/a	303.851	n/a
272.119	10.014	ITI	Fixation+	66.782	n/a	3	n/a	n/a	n/a	n/a	n/a	n/a	n/a	n/a	n/a	n/a	304.382	n/a
282.149	0.497	neutral	Picture	66.268	n/a	3	8	1	n/a	21	33	1	n/a	n/a	n/a	n/a	314.412	AM21NES.jpg
282.646	0.514	Blank	Blank	65.754	n/a	3	8	1	n/a	21	n/a	1	n/a	n/a	n/a	n/a	314.909	n/a
283.177	0.497	neutral	Picture	65.24	n/a	3	8	2	n/a	22	39	1	n/a	n/a	n/a	n/a	315.44	AM28NES.jpg
283.674	0.514	Blank	Blank	64.726	n/a	3	8	2	n/a	22	n/a	1	n/a	n/a	n/a	n/a	315.937	n/a
284.205	0.497	neutral	Picture	64.212	n/a	3	8	3	n/a	23	25	1	n/a	n/a	n/a	n/a	316.468	BM06NES.jpg
284.702	0.514	Blank	Blank	63.699	n/a	3	8	3	n/a	23	n/a	1	n/a	n/a	n/a	n/a	316.965	n/a
285.233	0.497	neutral	Picture	63.184	n/a	3	8	4	n/a	24	5	1	n/a	n/a	n/a	n/a	317.496	BF07NES.jpg
285.73	0.514	Blank	Blank	62.671	n/a	3	8	4	n/a	24	n/a	1	n/a	n/a	n/a	n/a	317.993	n/a
286.26	0.497	neutral	Picture	62.157	n/a	3	8	5	n/a	25	10	1	n/a	n/a	n/a	n/a	318.524	AF18NES.jpg
286.758	0.514	Blank	Blank	61.643	n/a	3	8	5	n/a	25	n/a	1	n/a	n/a	n/a	n/a	319.021	n/a
287.288	0.497	neutral	Picture	61.129	n/a	3	8	6	n/a	26	34	1	n/a	n/a	n/a	n/a	319.551	AM22NES.jpg
287.786	0.514	Blank	Blank	60.615	n/a	3	8	6	n/a	26	n/a	1	n/a	n/a	n/a	n/a	320.049	n/a
288.316	0.497	neutral	Picture	60.101	n/a	3	8	7	n/a	27	36	1	n/a	n/a	n/a	n/a	320.579	BM24NES.jpg
288.814	0.514	Blank	Blank	59.587	n/a	3	8	7	n/a	27	n/a	1	n/a	n/a	n/a	n/a	321.077	n/a
289.344	0.497	neutral	Picture	59.073	n/a	3	8	8	n/a	28	14	1	n/a	n/a	n/a	n/a	321.607	AF23NES.jpg
289.841	0.514	Blank	Blank	58.559	n/a	3	8	8	n/a	28	n/a	1	n/a	n/a	n/a	n/a	322.105	n/a
290.372	0.497	neutral	Picture	58.045	n/a	3	8	9	n/a	29	9	1	n/a	n/a	n/a	n/a	322.635	AF17NES.jpg
290.869	0.514	Blank	Blank	57.531	n/a	3	8	9	n/a	29	n/a	1	n/a	n/a	n/a	n/a	323.132	n/a
291.4	0.497	neutral	Picture	57.017	n/a	3	8	10	n/a	30	19	1	n/a	n/a	n/a	n/a	323.663	AF31NES.jpg
291.897	0.514	Blank	Blank	56.503	n/a	3	8	10	n/a	30	n/a	1	n/a	n/a	n/a	n/a	324.16	n/a
292.428	0.497	neutral	Picture	55.989	n/a	3	8	11	n/a	31	15	1	n/a	n/a	n/a	n/a	324.691	AF25NES.jpg
292.925	0.514	Blank	Blank	55.475	n/a	3	8	11	n/a	31	n/a	1	n/a	n/a	n/a	n/a	325.188	n/a
293.456	0.497	neutral	Picture	54.961	n/a	3	8	12	n/a	32	22	1	n/a	n/a	n/a	n/a	325.719	BM03NES.jpg
293.953	0.514	Blank	Blank	54.447	n/a	3	8	12	n/a	32	n/a	1	n/a	n/a	n/a	n/a	326.216	n/a
294.483	0.497	neutral	Picture	53.934	n/a	3	8	13	n/a	33	11	1	n/a	n/a	n/a	n/a	326.747	AF20NES.jpg
294.981	0.514	Blank	Blank	53.42	n/a	3	8	13	n/a	33	n/a	1	n/a	n/a	n/a	n/a	327.244	n/a
295.511	0.497	neutral	Picture	52.906	n/a	3	8	14	n/a	34	4	1	n/a	n/a	n/a	n/a	327.775	AF05NES.jpg
296.009	0.514	Blank	Blank	52.392	n/a	3	8	14	n/a	34	n/a	1	n/a	n/a	n/a	n/a	328.272	n/a
296.539	0.497	neutral	Picture	51.878	n/a	3	8	15	n/a	35	17	1	n/a	n/a	n/a	n/a	328.803	BF28NES.jpg
297.037	0.514	Blank	Blank	51.364	n/a	3	8	15	n/a	35	n/a	1	n/a	n/a	n/a	n/a	329.3	n/a
297.567	0.497	neutral	Picture	50.85	n/a	3	8	16	n/a	36	13	1	n/a	n/a	n/a	n/a	329.83	BF22NES.jpg
298.065	0.514	Blank	Blank	50.336	n/a	3	8	16	n/a	36	n/a	1	n/a	n/a	n/a	n/a	330.328	n/a
298.595	0.497	neutral	Picture	49.822	n/a	3	8	17	n/a	37	12	1	n/a	n/a	n/a	n/a	330.858	AF21NES.jpg
299.092	0.514	Blank	Blank	49.308	n/a	3	8	17	n/a	37	n/a	1	n/a	n/a	n/a	n/a	331.356	n/a
299.623	0.497	neutral	Picture	48.794	n/a	3	8	18	n/a	38	24	1	n/a	n/a	n/a	n/a	331.886	BM05NES.jpg
300.12	0.514	Blank	Blank	48.28	n/a	3	8	18	n/a	38	n/a	1	n/a	n/a	n/a	n/a	332.384	n/a
300.651	0.497	neutral	Picture	47.766	n/a	3	8	19	n/a	39	29	1	n/a	n/a	n/a	n/a	332.914	AM10NES.jpg
301.148	0.514	Blank	Blank	47.252	n/a	3	8	19	n/a	39	n/a	1	n/a	n/a	n/a	n/a	333.411	n/a
301.679	0.497	neutral	Picture	46.738	n/a	3	8	20	n/a	40	23	1	n/a	n/a	n/a	n/a	333.942	AM04NES.jpg
302.176	0.514	Blank	Blank	46.224	n/a	3	8	20	n/a	40	n/a	1	n/a	n/a	n/a	n/a	334.439	n/a
302.707	10.014	ITI	Fixation+	36.194	n/a	3	n/a	n/a	n/a	n/a	n/a	n/a	n/a	n/a	n/a	n/a	334.97	n/a
312.737	0.497	happy	Picture	35.68	n/a	3	9	1	n/a	41	62	2	n/a	n/a	n/a	n/a	345.0	BM03HAS.jpg
313.234	0.514	Blank	Blank	35.166	n/a	3	9	1	n/a	41	n/a	2	n/a	n/a	n/a	n/a	345.497	n/a
313.765	0.497	happy	Picture	34.652	n/a	3	9	2	n/a	42	52	2	n/a	n/a	n/a	n/a	346.028	AF21HAS.jpg
314.262	0.514	Blank	Blank	34.138	n/a	3	9	2	n/a	42	n/a	2	n/a	n/a	n/a	n/a	346.525	n/a
314.793	0.497	happy	Picture	33.624	n/a	3	9	3	n/a	43	44	2	n/a	n/a	n/a	n/a	347.056	AF05HAS.jpg
315.29	0.514	Blank	Blank	33.111	n/a	3	9	3	n/a	43	n/a	2	n/a	n/a	n/a	n/a	347.553	n/a
315.82	0.497	happy	Picture	32.597	n/a	3	9	4	n/a	44	53	2	n/a	n/a	n/a	n/a	348.084	BF22HAS.jpg
316.318	0.514	Blank	Blank	32.083	n/a	3	9	4	n/a	44	n/a	2	n/a	n/a	n/a	n/a	348.581	n/a
316.848	0.497	happy	Picture	31.569	n/a	3	9	5	n/a	45	54	2	n/a	n/a	n/a	n/a	349.111	AF23HAS.jpg
317.346	0.514	Blank	Blank	31.055	n/a	3	9	5	n/a	45	n/a	2	n/a	n/a	n/a	n/a	349.609	n/a
317.876	0.497	happy	Picture	30.541	n/a	3	9	6	n/a	46	68	2	n/a	n/a	n/a	n/a	350.139	AM09HAS.jpg
318.374	0.514	Blank	Blank	30.027	n/a	3	9	6	n/a	46	n/a	2	n/a	n/a	n/a	n/a	350.637	n/a
318.904	0.497	happy	Picture	29.513	n/a	3	9	7	n/a	47	64	2	n/a	n/a	n/a	n/a	351.167	BM05HAS.jpg
319.401	0.514	Blank	Blank	28.999	n/a	3	9	7	n/a	47	n/a	2	n/a	n/a	n/a	n/a	351.665	n/a
319.932	0.497	happy	Picture	28.485	n/a	3	9	8	n/a	48	59	2	n/a	n/a	n/a	n/a	352.195	AF31HAS.jpg
320.429	0.514	Blank	Blank	27.971	n/a	3	9	8	n/a	48	n/a	2	n/a	n/a	n/a	n/a	352.692	n/a
320.96	0.497	happy	Picture	27.457	n/a	3	9	9	n/a	49	41	2	n/a	n/a	n/a	n/a	353.223	AF01HAS.jpg
321.457	0.514	Blank	Blank	26.943	n/a	3	9	9	n/a	49	n/a	2	n/a	n/a	n/a	n/a	353.72	n/a
321.988	0.497	happy	Picture	26.429	n/a	3	9	10	n/a	50	73	2	n/a	n/a	n/a	n/a	354.251	AM21HAS.jpg
322.485	0.514	Blank	Blank	25.915	n/a	3	9	10	n/a	50	n/a	2	n/a	n/a	n/a	n/a	354.748	n/a
323.016	0.497	happy	Picture	25.401	n/a	3	9	11	n/a	51	65	2	n/a	n/a	n/a	n/a	355.279	BM06HAS.jpg
323.513	0.514	Blank	Blank	24.887	n/a	3	9	11	n/a	51	n/a	2	n/a	n/a	n/a	n/a	355.776	n/a
324.043	0.497	happy	Picture	24.373	n/a	3	9	12	n/a	52	56	2	n/a	n/a	n/a	n/a	356.307	AF26HAS.jpg
324.541	0.514	Blank	Blank	23.86	n/a	3	9	12	n/a	52	n/a	2	n/a	n/a	n/a	n/a	356.804	n/a
325.071	0.497	happy	Picture	23.346	n/a	3	9	13	n/a	53	45	2	n/a	n/a	n/a	n/a	357.335	BF07HAS.jpg
325.569	0.514	Blank	Blank	22.832	n/a	3	9	13	n/a	53	n/a	2	n/a	n/a	n/a	n/a	357.832	n/a
326.099	0.497	happy	Picture	22.318	n/a	3	9	14	n/a	54	78	2	n/a	n/a	n/a	n/a	358.363	BM26HAS.jpg
326.597	0.514	Blank	Blank	21.804	n/a	3	9	14	n/a	54	n/a	2	n/a	n/a	n/a	n/a	358.86	n/a
327.127	0.497	happy	Picture	21.29	n/a	3	9	15	n/a	55	50	2	n/a	n/a	n/a	n/a	359.39	AF18HAS.jpg
327.625	0.514	Blank	Blank	20.776	n/a	3	9	15	n/a	55	n/a	2	n/a	n/a	n/a	n/a	359.888	n/a
328.155	0.497	happy	Picture	20.262	n/a	3	9	16	n/a	56	47	2	n/a	n/a	n/a	n/a	360.418	BF11HAS.jpg
328.652	0.514	Blank	Blank	19.748	n/a	3	9	16	n/a	56	n/a	2	n/a	n/a	n/a	n/a	360.916	n/a
329.183	0.497	happy	Picture	19.234	n/a	3	9	17	n/a	57	77	2	n/a	n/a	n/a	n/a	361.446	BM25HAS.jpg
329.68	0.514	Blank	Blank	18.72	n/a	3	9	17	n/a	57	n/a	2	n/a	n/a	n/a	n/a	361.943	n/a
330.211	0.497	happy	Picture	18.206	n/a	3	9	18	n/a	58	57	2	n/a	n/a	n/a	n/a	362.474	BF28HAS.jpg
330.708	0.514	Blank	Blank	17.692	n/a	3	9	18	n/a	58	n/a	2	n/a	n/a	n/a	n/a	362.971	n/a
331.239	0.497	happy	Picture	17.178	n/a	3	9	19	n/a	59	61	2	n/a	n/a	n/a	n/a	363.502	AM01HAS.jpg
331.736	0.514	Blank	Blank	16.664	n/a	3	9	19	n/a	59	n/a	2	n/a	n/a	n/a	n/a	363.999	n/a
332.267	0.497	happy	Picture	16.15	n/a	3	9	20	n/a	60	79	2	n/a	n/a	n/a	n/a	364.53	BM28HAS.jpg
332.764	0.514	Blank	Blank	15.637	n/a	3	9	20	n/a	60	n/a	2	n/a	n/a	n/a	n/a	365.027	n/a
333.295	10.014	ITI	Fixation+	5.606	n/a	3	n/a	n/a	n/a	n/a	n/a	n/a	n/a	n/a	n/a	n/a	365.558	n/a
348.914	n/a	ConfirmRating	Rate	n/a	5.604	3	n/a	n/a	0	n/a	n/a	n/a	2	Happy	76	52	381.178	n/a
353.209	n/a	ConfirmRating	Rate	n/a	4.277	3	n/a	n/a	1	n/a	n/a	n/a	3	Happy	0	49	385.473	n/a
353.239	10.014	ITI	Fixation+	97.655	n/a	4	n/a	n/a	n/a	n/a	n/a	n/a	n/a	n/a	n/a	n/a	385.502	n/a
363.269	0.497	angry	Picture	97.141	n/a	4	10	1	n/a	61	119	3	n/a	n/a	n/a	n/a	395.532	BM28ANS.jpg
363.766	0.514	Blank	Blank	96.627	n/a	4	10	1	n/a	61	n/a	3	n/a	n/a	n/a	n/a	396.03	n/a
364.297	0.497	angry	Picture	96.113	n/a	4	10	2	n/a	62	100	3	n/a	n/a	n/a	n/a	396.56	AF32ANS.jpg
364.794	0.514	Blank	Blank	95.599	n/a	4	10	2	n/a	62	n/a	3	n/a	n/a	n/a	n/a	397.058	n/a
365.325	0.497	angry	Picture	95.085	n/a	4	10	3	n/a	63	118	3	n/a	n/a	n/a	n/a	397.588	BM26ANS.jpg
365.822	0.514	Blank	Blank	94.571	n/a	4	10	3	n/a	63	n/a	3	n/a	n/a	n/a	n/a	398.085	n/a
366.353	0.497	angry	Picture	94.057	n/a	4	10	4	n/a	64	89	3	n/a	n/a	n/a	n/a	398.616	AF17ANS.jpg
366.85	0.514	Blank	Blank	93.543	n/a	4	10	4	n/a	64	n/a	3	n/a	n/a	n/a	n/a	399.113	n/a
367.381	0.497	angry	Picture	93.029	n/a	4	10	5	n/a	65	116	3	n/a	n/a	n/a	n/a	399.644	BM24ANS.jpg
367.878	0.514	Blank	Blank	92.515	n/a	4	10	5	n/a	65	n/a	3	n/a	n/a	n/a	n/a	400.141	n/a
368.408	0.497	angry	Picture	92.001	n/a	4	10	6	n/a	66	105	3	n/a	n/a	n/a	n/a	400.672	BM06ANS.jpg
368.906	0.514	Blank	Blank	91.487	n/a	4	10	6	n/a	66	n/a	3	n/a	n/a	n/a	n/a	401.169	n/a
369.436	0.497	angry	Picture	90.973	n/a	4	10	7	n/a	67	106	3	n/a	n/a	n/a	n/a	401.7	AM07ANS.jpg
369.934	0.514	Blank	Blank	90.46	n/a	4	10	7	n/a	67	n/a	3	n/a	n/a	n/a	n/a	402.197	n/a
370.464	0.497	angry	Picture	89.946	n/a	4	10	8	n/a	68	94	3	n/a	n/a	n/a	n/a	402.727	AF23ANS.jpg
370.962	0.514	Blank	Blank	89.432	n/a	4	10	8	n/a	68	n/a	3	n/a	n/a	n/a	n/a	403.225	n/a
371.492	0.497	angry	Picture	88.918	n/a	4	10	9	n/a	69	117	3	n/a	n/a	n/a	n/a	403.755	BM25ANS.jpg
371.99	0.514	Blank	Blank	88.404	n/a	4	10	9	n/a	69	n/a	3	n/a	n/a	n/a	n/a	404.253	n/a
372.52	0.497	angry	Picture	87.89	n/a	4	10	10	n/a	70	90	3	n/a	n/a	n/a	n/a	404.783	AF18ANS.jpg
373.017	0.514	Blank	Blank	87.376	n/a	4	10	10	n/a	70	n/a	3	n/a	n/a	n/a	n/a	405.281	n/a
373.548	0.497	angry	Picture	86.862	n/a	4	10	11	n/a	71	83	3	n/a	n/a	n/a	n/a	405.811	BF04ANS.jpg
374.045	0.514	Blank	Blank	86.348	n/a	4	10	11	n/a	71	n/a	3	n/a	n/a	n/a	n/a	406.308	n/a
374.576	0.497	angry	Picture	85.834	n/a	4	10	12	n/a	72	112	3	n/a	n/a	n/a	n/a	406.839	AM14ANS.jpg
375.073	0.514	Blank	Blank	85.32	n/a	4	10	12	n/a	72	n/a	3	n/a	n/a	n/a	n/a	407.336	n/a
375.604	0.497	angry	Picture	84.806	n/a	4	10	13	n/a	73	102	3	n/a	n/a	n/a	n/a	407.867	BM03ANS.jpg
376.101	0.511	Blank	Blank	84.295	n/a	4	10	13	n/a	73	n/a	3	n/a	n/a	n/a	n/a	408.364	n/a
376.632	0.497	angry	Picture	83.778	n/a	4	10	14	n/a	74	95	3	n/a	n/a	n/a	n/a	408.895	AF25ANS.jpg
377.129	0.514	Blank	Blank	83.264	n/a	4	10	14	n/a	74	n/a	3	n/a	n/a	n/a	n/a	409.392	n/a
377.659	0.497	angry	Picture	82.75	n/a	4	10	15	n/a	75	113	3	n/a	n/a	n/a	n/a	409.923	AM21ANS.jpg
378.157	0.514	Blank	Blank	82.236	n/a	4	10	15	n/a	75	n/a	3	n/a	n/a	n/a	n/a	410.42	n/a
378.687	0.497	angry	Picture	81.722	n/a	4	10	16	n/a	76	88	3	n/a	n/a	n/a	n/a	410.95	AF14ANS.jpg
379.185	0.514	Blank	Blank	81.209	n/a	4	10	16	n/a	76	n/a	3	n/a	n/a	n/a	n/a	411.448	n/a
379.715	0.497	angry	Picture	80.695	n/a	4	10	17	n/a	77	93	3	n/a	n/a	n/a	n/a	411.978	BF22ANS.jpg
380.213	0.514	Blank	Blank	80.181	n/a	4	10	17	n/a	77	n/a	3	n/a	n/a	n/a	n/a	412.476	n/a
380.743	0.497	angry	Picture	79.667	n/a	4	10	18	n/a	78	86	3	n/a	n/a	n/a	n/a	413.006	AF09ANS.jpg
381.24	0.514	Blank	Blank	79.153	n/a	4	10	18	n/a	78	n/a	3	n/a	n/a	n/a	n/a	413.504	n/a
381.771	0.497	angry	Picture	78.639	n/a	4	10	19	n/a	79	92	3	n/a	n/a	n/a	n/a	414.034	AF21ANS.jpg
382.268	0.514	Blank	Blank	78.125	n/a	4	10	19	n/a	79	n/a	3	n/a	n/a	n/a	n/a	414.531	n/a
382.799	0.497	angry	Picture	77.611	n/a	4	10	20	n/a	80	84	3	n/a	n/a	n/a	n/a	415.062	AF05ANS.jpg
383.296	0.514	Blank	Blank	77.097	n/a	4	10	20	n/a	80	n/a	3	n/a	n/a	n/a	n/a	415.559	n/a
383.827	10.014	ITI	Fixation+	67.067	n/a	4	n/a	n/a	n/a	n/a	n/a	n/a	n/a	n/a	n/a	n/a	416.09	n/a
393.857	0.497	neutral	Picture	66.553	n/a	4	11	1	n/a	81	4	1	n/a	n/a	n/a	n/a	426.12	AF05NES.jpg
394.354	0.514	Blank	Blank	66.039	n/a	4	11	1	n/a	81	n/a	1	n/a	n/a	n/a	n/a	426.618	n/a
394.885	0.497	neutral	Picture	65.525	n/a	4	11	2	n/a	82	14	1	n/a	n/a	n/a	n/a	427.148	AF23NES.jpg
395.382	0.514	Blank	Blank	65.011	n/a	4	11	2	n/a	82	n/a	1	n/a	n/a	n/a	n/a	427.645	n/a
395.913	0.497	neutral	Picture	64.497	n/a	4	11	3	n/a	83	19	1	n/a	n/a	n/a	n/a	428.176	AF31NES.jpg
396.41	0.514	Blank	Blank	63.983	n/a	4	11	3	n/a	83	n/a	1	n/a	n/a	n/a	n/a	428.673	n/a
396.941	0.497	neutral	Picture	63.469	n/a	4	11	4	n/a	84	8	1	n/a	n/a	n/a	n/a	429.204	AF14NES.jpg
397.438	0.514	Blank	Blank	62.955	n/a	4	11	4	n/a	84	n/a	1	n/a	n/a	n/a	n/a	429.701	n/a
397.969	0.497	neutral	Picture	62.441	n/a	4	11	5	n/a	85	25	1	n/a	n/a	n/a	n/a	430.232	BM06NES.jpg
398.466	0.514	Blank	Blank	61.927	n/a	4	11	5	n/a	85	n/a	1	n/a	n/a	n/a	n/a	430.729	n/a
398.996	0.497	neutral	Picture	61.413	n/a	4	11	6	n/a	86	9	1	n/a	n/a	n/a	n/a	431.26	AF17NES.jpg
399.494	0.514	Blank	Blank	60.899	n/a	4	11	6	n/a	86	n/a	1	n/a	n/a	n/a	n/a	431.757	n/a
400.024	0.497	neutral	Picture	60.386	n/a	4	11	7	n/a	87	2	1	n/a	n/a	n/a	n/a	432.288	AF03NES.jpg
400.522	0.514	Blank	Blank	59.872	n/a	4	11	7	n/a	87	n/a	1	n/a	n/a	n/a	n/a	432.785	n/a
401.052	0.497	neutral	Picture	59.358	n/a	4	11	8	n/a	88	17	1	n/a	n/a	n/a	n/a	433.315	BF28NES.jpg
401.55	0.514	Blank	Blank	58.844	n/a	4	11	8	n/a	88	n/a	1	n/a	n/a	n/a	n/a	433.813	n/a
402.08	0.497	neutral	Picture	58.33	n/a	4	11	9	n/a	89	6	1	n/a	n/a	n/a	n/a	434.343	AF09NES.jpg
402.577	0.514	Blank	Blank	57.816	n/a	4	11	9	n/a	89	n/a	1	n/a	n/a	n/a	n/a	434.841	n/a
403.108	0.497	neutral	Picture	57.302	n/a	4	11	10	n/a	90	12	1	n/a	n/a	n/a	n/a	435.371	AF21NES.jpg
403.605	0.514	Blank	Blank	56.788	n/a	4	11	10	n/a	90	n/a	1	n/a	n/a	n/a	n/a	435.868	n/a
404.136	0.497	neutral	Picture	56.274	n/a	4	11	11	n/a	91	24	1	n/a	n/a	n/a	n/a	436.399	BM05NES.jpg
404.633	0.514	Blank	Blank	55.76	n/a	4	11	11	n/a	91	n/a	1	n/a	n/a	n/a	n/a	436.896	n/a
405.164	0.497	neutral	Picture	55.246	n/a	4	11	12	n/a	92	34	1	n/a	n/a	n/a	n/a	437.427	AM22NES.jpg
405.661	0.514	Blank	Blank	54.732	n/a	4	11	12	n/a	92	n/a	1	n/a	n/a	n/a	n/a	437.924	n/a
406.192	0.497	neutral	Picture	54.218	n/a	4	11	13	n/a	93	23	1	n/a	n/a	n/a	n/a	438.455	AM04NES.jpg
406.689	0.514	Blank	Blank	53.704	n/a	4	11	13	n/a	93	n/a	1	n/a	n/a	n/a	n/a	438.952	n/a
407.22	0.497	neutral	Picture	53.19	n/a	4	11	14	n/a	94	15	1	n/a	n/a	n/a	n/a	439.483	AF25NES.jpg
407.717	0.514	Blank	Blank	52.676	n/a	4	11	14	n/a	94	n/a	1	n/a	n/a	n/a	n/a	439.98	n/a
408.247	0.497	neutral	Picture	52.162	n/a	4	11	15	n/a	95	37	1	n/a	n/a	n/a	n/a	440.511	BM25NES.jpg
408.745	0.514	Blank	Blank	51.648	n/a	4	11	15	n/a	95	n/a	1	n/a	n/a	n/a	n/a	441.008	n/a
409.275	0.497	neutral	Picture	51.135	n/a	4	11	16	n/a	96	32	1	n/a	n/a	n/a	n/a	441.538	AM14NES.jpg
409.773	0.514	Blank	Blank	50.621	n/a	4	11	16	n/a	96	n/a	1	n/a	n/a	n/a	n/a	442.036	n/a
410.303	0.497	neutral	Picture	50.107	n/a	4	11	17	n/a	97	3	1	n/a	n/a	n/a	n/a	442.566	BF04NES.jpg
410.8	0.514	Blank	Blank	49.593	n/a	4	11	17	n/a	97	n/a	1	n/a	n/a	n/a	n/a	443.064	n/a
411.331	0.497	neutral	Picture	49.079	n/a	4	11	18	n/a	98	16	1	n/a	n/a	n/a	n/a	443.594	AF26NES.jpg
411.828	0.514	Blank	Blank	48.565	n/a	4	11	18	n/a	98	n/a	1	n/a	n/a	n/a	n/a	444.092	n/a
412.359	0.497	neutral	Picture	48.051	n/a	4	11	19	n/a	99	27	1	n/a	n/a	n/a	n/a	444.622	BM08NES.jpg
412.856	0.514	Blank	Blank	47.537	n/a	4	11	19	n/a	99	n/a	1	n/a	n/a	n/a	n/a	445.12	n/a
413.387	0.497	neutral	Picture	47.023	n/a	4	11	20	n/a	100	28	1	n/a	n/a	n/a	n/a	445.65	AM09NES.jpg
413.884	0.514	Blank	Blank	46.509	n/a	4	11	20	n/a	100	n/a	1	n/a	n/a	n/a	n/a	446.147	n/a
414.415	10.014	ITI	Fixation+	36.479	n/a	4	n/a	n/a	n/a	n/a	n/a	n/a	n/a	n/a	n/a	n/a	446.678	n/a
424.445	0.497	angry	Picture	35.965	n/a	4	12	1	n/a	101	81	3	n/a	n/a	n/a	n/a	456.708	AF01ANS.jpg
424.942	0.514	Blank	Blank	35.451	n/a	4	12	1	n/a	101	n/a	3	n/a	n/a	n/a	n/a	457.205	n/a
425.473	0.497	angry	Picture	34.937	n/a	4	12	2	n/a	102	120	3	n/a	n/a	n/a	n/a	457.736	AM35ANS.jpg
425.97	0.514	Blank	Blank	34.423	n/a	4	12	2	n/a	102	n/a	3	n/a	n/a	n/a	n/a	458.233	n/a
426.501	0.497	angry	Picture	33.909	n/a	4	12	3	n/a	103	114	3	n/a	n/a	n/a	n/a	458.764	AM22ANS.jpg
426.998	0.514	Blank	Blank	33.395	n/a	4	12	3	n/a	103	n/a	3	n/a	n/a	n/a	n/a	459.261	n/a
427.529	0.497	angry	Picture	32.881	n/a	4	12	4	n/a	104	109	3	n/a	n/a	n/a	n/a	459.792	AM10ANS.jpg
428.026	0.514	Blank	Blank	32.367	n/a	4	12	4	n/a	104	n/a	3	n/a	n/a	n/a	n/a	460.289	n/a
428.556	0.497	angry	Picture	31.853	n/a	4	12	5	n/a	105	96	3	n/a	n/a	n/a	n/a	460.82	AF26ANS.jpg
429.054	0.514	Blank	Blank	31.339	n/a	4	12	5	n/a	105	n/a	3	n/a	n/a	n/a	n/a	461.317	n/a
429.584	0.497	angry	Picture	30.825	n/a	4	12	6	n/a	106	82	3	n/a	n/a	n/a	n/a	461.848	AF03ANS.jpg
430.082	0.514	Blank	Blank	30.312	n/a	4	12	6	n/a	106	n/a	3	n/a	n/a	n/a	n/a	462.345	n/a
430.61	0.499	angry	Picture	29.798	n/a	4	12	7	n/a	107	97	3	n/a	n/a	n/a	n/a	462.873	BF28ANS.jpg
431.11	0.514	Blank	Blank	29.284	n/a	4	12	7	n/a	107	n/a	3	n/a	n/a	n/a	n/a	463.373	n/a
431.64	0.497	angry	Picture	28.77	n/a	4	12	8	n/a	108	115	3	n/a	n/a	n/a	n/a	463.903	AM23ANS.jpg
432.137	0.514	Blank	Blank	28.256	n/a	4	12	8	n/a	108	n/a	3	n/a	n/a	n/a	n/a	464.401	n/a
432.668	0.497	angry	Picture	27.742	n/a	4	12	9	n/a	109	91	3	n/a	n/a	n/a	n/a	464.931	AF20ANS.jpg
433.165	0.514	Blank	Blank	27.228	n/a	4	12	9	n/a	109	n/a	3	n/a	n/a	n/a	n/a	465.428	n/a
433.696	0.497	angry	Picture	26.714	n/a	4	12	10	n/a	110	87	3	n/a	n/a	n/a	n/a	465.959	BF11ANS.jpg
434.193	0.514	Blank	Blank	26.2	n/a	4	12	10	n/a	110	n/a	3	n/a	n/a	n/a	n/a	466.456	n/a
434.724	0.497	angry	Picture	25.686	n/a	4	12	11	n/a	111	85	3	n/a	n/a	n/a	n/a	466.987	BF07ANS.jpg
435.221	0.514	Blank	Blank	25.172	n/a	4	12	11	n/a	111	n/a	3	n/a	n/a	n/a	n/a	467.484	n/a
435.752	0.497	angry	Picture	24.658	n/a	4	12	12	n/a	112	110	3	n/a	n/a	n/a	n/a	468.015	AM11ANS.jpg
436.249	0.514	Blank	Blank	24.144	n/a	4	12	12	n/a	112	n/a	3	n/a	n/a	n/a	n/a	468.512	n/a
436.78	0.497	angry	Picture	23.63	n/a	4	12	13	n/a	113	111	3	n/a	n/a	n/a	n/a	469.043	BM12ANS.jpg
437.277	0.514	Blank	Blank	23.116	n/a	4	12	13	n/a	113	n/a	3	n/a	n/a	n/a	n/a	469.54	n/a
437.807	0.497	angry	Picture	22.602	n/a	4	12	14	n/a	114	103	3	n/a	n/a	n/a	n/a	470.071	AM04ANS.jpg
438.305	0.514	Blank	Blank	22.089	n/a	4	12	14	n/a	114	n/a	3	n/a	n/a	n/a	n/a	470.568	n/a
438.835	0.497	angry	Picture	21.575	n/a	4	12	15	n/a	115	101	3	n/a	n/a	n/a	n/a	471.099	AM01ANS.jpg
439.333	0.514	Blank	Blank	21.061	n/a	4	12	15	n/a	115	n/a	3	n/a	n/a	n/a	n/a	471.596	n/a
439.863	0.497	angry	Picture	20.547	n/a	4	12	16	n/a	116	104	3	n/a	n/a	n/a	n/a	472.126	BM05ANS.jpg
440.361	0.514	Blank	Blank	20.033	n/a	4	12	16	n/a	116	n/a	3	n/a	n/a	n/a	n/a	472.624	n/a
440.891	0.497	angry	Picture	19.519	n/a	4	12	17	n/a	117	107	3	n/a	n/a	n/a	n/a	473.154	BM08ANS.jpg
441.388	0.514	Blank	Blank	19.005	n/a	4	12	17	n/a	117	n/a	3	n/a	n/a	n/a	n/a	473.652	n/a
441.919	0.497	angry	Picture	18.491	n/a	4	12	18	n/a	118	98	3	n/a	n/a	n/a	n/a	474.182	BF29ANS.jpg
442.416	0.514	Blank	Blank	17.977	n/a	4	12	18	n/a	118	n/a	3	n/a	n/a	n/a	n/a	474.68	n/a
442.947	0.497	angry	Picture	17.463	n/a	4	12	19	n/a	119	99	3	n/a	n/a	n/a	n/a	475.21	AF31ANS.jpg
443.444	0.514	Blank	Blank	16.949	n/a	4	12	19	n/a	119	n/a	3	n/a	n/a	n/a	n/a	475.707	n/a
443.975	0.497	angry	Picture	16.435	n/a	4	12	20	n/a	120	108	3	n/a	n/a	n/a	n/a	476.238	AM09ANS.jpg
444.472	0.514	Blank	Blank	15.921	n/a	4	12	20	n/a	120	n/a	3	n/a	n/a	n/a	n/a	476.735	n/a
445.003	10.014	ITI	Fixation+	5.891	n/a	4	n/a	n/a	n/a	n/a	n/a	n/a	n/a	n/a	n/a	n/a	477.266	n/a
460.907	n/a	ConfirmRating	Rate	n/a	5.885	4	n/a	n/a	0	n/a	n/a	n/a	2	Angry	84	53	493.17	n/a
465.376	n/a	ConfirmRating	Rate	n/a	4.443	4	n/a	n/a	1	n/a	n/a	n/a	3	Angry	0	49	497.639	n/a
