onset	duration	trial_type	event_type	time_until_response	response_time	trial_number	block_num_within_trial	image_seq_num_within_block	question_seq_num_within_block	image_seq_num	picture_number	condition	question_type	block_type	rating	rating_computed	onset_uncorrected	KDEV_imagefile
0.016	10.014	ITI	Fixation+	96.033	n/a	1	n/a	n/a	n/a	n/a	n/a	n/a	n/a	n/a	n/a	n/a	28.544	n/a
10.046	0.497	happy	Picture	95.519	n/a	1	1	1	n/a	1	46	2	n/a	n/a	n/a	n/a	38.574	AF09HAS.jpg
10.543	0.514	Blank	Blank	95.005	n/a	1	1	1	n/a	1	n/a	2	n/a	n/a	n/a	n/a	39.071	n/a
11.074	0.497	happy	Picture	94.491	n/a	1	1	2	n/a	2	69	2	n/a	n/a	n/a	n/a	39.602	AM10HAS.jpg
11.571	0.514	Blank	Blank	93.977	n/a	1	1	2	n/a	2	n/a	2	n/a	n/a	n/a	n/a	40.099	n/a
12.102	0.497	happy	Picture	93.463	n/a	1	1	3	n/a	3	71	2	n/a	n/a	n/a	n/a	40.63	BM12HAS.jpg
12.599	0.514	Blank	Blank	92.95	n/a	1	1	3	n/a	3	n/a	2	n/a	n/a	n/a	n/a	41.127	n/a
13.13	0.497	happy	Picture	92.436	n/a	1	1	4	n/a	4	51	2	n/a	n/a	n/a	n/a	41.657	AF20HAS.jpg
13.627	0.514	Blank	Blank	91.922	n/a	1	1	4	n/a	4	n/a	2	n/a	n/a	n/a	n/a	42.155	n/a
14.158	0.497	happy	Picture	91.408	n/a	1	1	5	n/a	5	67	2	n/a	n/a	n/a	n/a	42.685	BM08HAS.jpg
14.655	0.514	Blank	Blank	90.894	n/a	1	1	5	n/a	5	n/a	2	n/a	n/a	n/a	n/a	43.183	n/a
15.186	0.497	happy	Picture	90.38	n/a	1	1	6	n/a	6	60	2	n/a	n/a	n/a	n/a	43.713	AF32HAS.jpg
15.683	0.514	Blank	Blank	89.866	n/a	1	1	6	n/a	6	n/a	2	n/a	n/a	n/a	n/a	44.211	n/a
16.213	0.497	happy	Picture	89.352	n/a	1	1	7	n/a	7	42	2	n/a	n/a	n/a	n/a	44.741	AF03HAS.jpg
16.711	0.514	Blank	Blank	88.838	n/a	1	1	7	n/a	7	n/a	2	n/a	n/a	n/a	n/a	45.238	n/a
17.241	0.497	happy	Picture	88.324	n/a	1	1	8	n/a	8	55	2	n/a	n/a	n/a	n/a	45.769	AF25HAS.jpg
17.739	0.514	Blank	Blank	87.81	n/a	1	1	8	n/a	8	n/a	2	n/a	n/a	n/a	n/a	46.266	n/a
18.269	0.497	happy	Picture	87.296	n/a	1	1	9	n/a	9	72	2	n/a	n/a	n/a	n/a	46.797	AM14HAS.jpg
18.766	0.514	Blank	Blank	86.782	n/a	1	1	9	n/a	9	n/a	2	n/a	n/a	n/a	n/a	47.294	n/a
19.297	0.497	happy	Picture	86.268	n/a	1	1	10	n/a	10	63	2	n/a	n/a	n/a	n/a	47.825	AM04HAS.jpg
19.794	0.514	Blank	Blank	85.754	n/a	1	1	10	n/a	10	n/a	2	n/a	n/a	n/a	n/a	48.322	n/a
20.325	0.497	happy	Picture	85.24	n/a	1	1	11	n/a	11	58	2	n/a	n/a	n/a	n/a	48.853	BF29HAS.jpg
20.822	0.514	Blank	Blank	84.726	n/a	1	1	11	n/a	11	n/a	2	n/a	n/a	n/a	n/a	49.35	n/a
21.353	0.497	happy	Picture	84.212	n/a	1	1	12	n/a	12	48	2	n/a	n/a	n/a	n/a	49.88	AF14HAS.jpg
21.85	0.514	Blank	Blank	83.699	n/a	1	1	12	n/a	12	n/a	2	n/a	n/a	n/a	n/a	50.378	n/a
22.381	0.497	happy	Picture	83.185	n/a	1	1	13	n/a	13	66	2	n/a	n/a	n/a	n/a	50.908	BM07HAS.jpg
22.878	0.514	Blank	Blank	82.671	n/a	1	1	13	n/a	13	n/a	2	n/a	n/a	n/a	n/a	51.406	n/a
23.409	0.497	happy	Picture	82.157	n/a	1	1	14	n/a	14	70	2	n/a	n/a	n/a	n/a	51.936	BM11HAS.jpg
23.906	0.514	Blank	Blank	81.643	n/a	1	1	14	n/a	14	n/a	2	n/a	n/a	n/a	n/a	52.434	n/a
24.436	0.497	happy	Picture	81.129	n/a	1	1	15	n/a	15	43	2	n/a	n/a	n/a	n/a	52.964	BF04HAS.jpg
24.934	0.514	Blank	Blank	80.615	n/a	1	1	15	n/a	15	n/a	2	n/a	n/a	n/a	n/a	53.462	n/a
25.464	0.497	happy	Picture	80.101	n/a	1	1	16	n/a	16	49	2	n/a	n/a	n/a	n/a	53.992	AF17HAS.jpg
25.962	0.514	Blank	Blank	79.587	n/a	1	1	16	n/a	16	n/a	2	n/a	n/a	n/a	n/a	54.489	n/a
26.492	0.497	happy	Picture	79.073	n/a	1	1	17	n/a	17	75	2	n/a	n/a	n/a	n/a	55.02	AM23HAS.jpg
26.99	0.514	Blank	Blank	78.559	n/a	1	1	17	n/a	17	n/a	2	n/a	n/a	n/a	n/a	55.517	n/a
27.52	0.497	happy	Picture	78.045	n/a	1	1	18	n/a	18	80	2	n/a	n/a	n/a	n/a	56.048	BM35HAS.jpg
28.018	0.514	Blank	Blank	77.531	n/a	1	1	18	n/a	18	n/a	2	n/a	n/a	n/a	n/a	56.545	n/a
28.548	0.497	happy	Picture	77.017	n/a	1	1	19	n/a	19	76	2	n/a	n/a	n/a	n/a	57.076	BM24HAS.jpg
29.045	0.514	Blank	Blank	76.503	n/a	1	1	19	n/a	19	n/a	2	n/a	n/a	n/a	n/a	57.573	n/a
29.576	0.497	happy	Picture	75.989	n/a	1	1	20	n/a	20	74	2	n/a	n/a	n/a	n/a	58.104	AM22HAS.jpg
30.073	0.514	Blank	Blank	75.475	n/a	1	1	20	n/a	20	n/a	2	n/a	n/a	n/a	n/a	58.601	n/a
30.604	10.014	ITI	Fixation+	65.445	n/a	1	n/a	n/a	n/a	n/a	n/a	n/a	n/a	n/a	n/a	n/a	59.132	n/a
40.634	0.497	neutral	Picture	64.931	n/a	1	2	1	n/a	21	33	1	n/a	n/a	n/a	n/a	69.162	AM21NES.jpg
41.131	0.514	Blank	Blank	64.417	n/a	1	2	1	n/a	21	n/a	1	n/a	n/a	n/a	n/a	69.659	n/a
41.662	0.497	neutral	Picture	63.903	n/a	1	2	2	n/a	22	39	1	n/a	n/a	n/a	n/a	70.19	AM28NES.jpg
42.159	0.514	Blank	Blank	63.389	n/a	1	2	2	n/a	22	n/a	1	n/a	n/a	n/a	n/a	70.687	n/a
42.69	0.497	neutral	Picture	62.875	n/a	1	2	3	n/a	23	25	1	n/a	n/a	n/a	n/a	71.218	BM06NES.jpg
43.187	0.514	Blank	Blank	62.362	n/a	1	2	3	n/a	23	n/a	1	n/a	n/a	n/a	n/a	71.715	n/a
43.718	0.497	neutral	Picture	61.848	n/a	1	2	4	n/a	24	5	1	n/a	n/a	n/a	n/a	72.245	BF07NES.jpg
44.215	0.514	Blank	Blank	61.334	n/a	1	2	4	n/a	24	n/a	1	n/a	n/a	n/a	n/a	72.743	n/a
44.746	0.497	neutral	Picture	60.82	n/a	1	2	5	n/a	25	10	1	n/a	n/a	n/a	n/a	73.273	AF18NES.jpg
45.243	0.514	Blank	Blank	60.306	n/a	1	2	5	n/a	25	n/a	1	n/a	n/a	n/a	n/a	73.771	n/a
45.773	0.497	neutral	Picture	59.792	n/a	1	2	6	n/a	26	34	1	n/a	n/a	n/a	n/a	74.301	AM22NES.jpg
46.271	0.514	Blank	Blank	59.278	n/a	1	2	6	n/a	26	n/a	1	n/a	n/a	n/a	n/a	74.799	n/a
46.801	0.497	neutral	Picture	58.764	n/a	1	2	7	n/a	27	36	1	n/a	n/a	n/a	n/a	75.329	BM24NES.jpg
47.299	0.514	Blank	Blank	58.25	n/a	1	2	7	n/a	27	n/a	1	n/a	n/a	n/a	n/a	75.826	n/a
47.829	0.497	neutral	Picture	57.736	n/a	1	2	8	n/a	28	14	1	n/a	n/a	n/a	n/a	76.357	AF23NES.jpg
48.327	0.514	Blank	Blank	57.222	n/a	1	2	8	n/a	28	n/a	1	n/a	n/a	n/a	n/a	76.854	n/a
48.857	0.497	neutral	Picture	56.708	n/a	1	2	9	n/a	29	9	1	n/a	n/a	n/a	n/a	77.385	AF17NES.jpg
49.355	0.514	Blank	Blank	56.194	n/a	1	2	9	n/a	29	n/a	1	n/a	n/a	n/a	n/a	77.882	n/a
49.885	0.497	neutral	Picture	55.68	n/a	1	2	10	n/a	30	19	1	n/a	n/a	n/a	n/a	78.413	AF31NES.jpg
50.382	0.514	Blank	Blank	55.166	n/a	1	2	10	n/a	30	n/a	1	n/a	n/a	n/a	n/a	78.91	n/a
50.913	0.497	neutral	Picture	54.652	n/a	1	2	11	n/a	31	15	1	n/a	n/a	n/a	n/a	79.441	AF25NES.jpg
51.41	0.514	Blank	Blank	54.138	n/a	1	2	11	n/a	31	n/a	1	n/a	n/a	n/a	n/a	79.938	n/a
51.941	0.497	neutral	Picture	53.624	n/a	1	2	12	n/a	32	22	1	n/a	n/a	n/a	n/a	80.469	BM03NES.jpg
52.438	0.514	Blank	Blank	53.111	n/a	1	2	12	n/a	32	n/a	1	n/a	n/a	n/a	n/a	80.966	n/a
52.969	0.497	neutral	Picture	52.597	n/a	1	2	13	n/a	33	11	1	n/a	n/a	n/a	n/a	81.496	AF20NES.jpg
53.466	0.514	Blank	Blank	52.083	n/a	1	2	13	n/a	33	n/a	1	n/a	n/a	n/a	n/a	81.994	n/a
53.997	0.497	neutral	Picture	51.569	n/a	1	2	14	n/a	34	4	1	n/a	n/a	n/a	n/a	82.524	AF05NES.jpg
54.494	0.514	Blank	Blank	51.055	n/a	1	2	14	n/a	34	n/a	1	n/a	n/a	n/a	n/a	83.022	n/a
55.025	0.497	neutral	Picture	50.541	n/a	1	2	15	n/a	35	17	1	n/a	n/a	n/a	n/a	83.552	BF28NES.jpg
55.522	0.514	Blank	Blank	50.027	n/a	1	2	15	n/a	35	n/a	1	n/a	n/a	n/a	n/a	84.05	n/a
56.052	0.497	neutral	Picture	49.513	n/a	1	2	16	n/a	36	13	1	n/a	n/a	n/a	n/a	84.58	BF22NES.jpg
56.55	0.514	Blank	Blank	48.999	n/a	1	2	16	n/a	36	n/a	1	n/a	n/a	n/a	n/a	85.078	n/a
57.08	0.497	neutral	Picture	48.485	n/a	1	2	17	n/a	37	12	1	n/a	n/a	n/a	n/a	85.608	AF21NES.jpg
57.578	0.514	Blank	Blank	47.971	n/a	1	2	17	n/a	37	n/a	1	n/a	n/a	n/a	n/a	86.105	n/a
58.108	0.497	neutral	Picture	47.457	n/a	1	2	18	n/a	38	24	1	n/a	n/a	n/a	n/a	86.636	BM05NES.jpg
58.606	0.514	Blank	Blank	46.943	n/a	1	2	18	n/a	38	n/a	1	n/a	n/a	n/a	n/a	87.133	n/a
59.136	0.497	neutral	Picture	46.429	n/a	1	2	19	n/a	39	29	1	n/a	n/a	n/a	n/a	87.664	AM10NES.jpg
59.633	0.514	Blank	Blank	45.915	n/a	1	2	19	n/a	39	n/a	1	n/a	n/a	n/a	n/a	88.161	n/a
60.164	0.497	neutral	Picture	45.401	n/a	1	2	20	n/a	40	23	1	n/a	n/a	n/a	n/a	88.692	AM04NES.jpg
60.661	0.514	Blank	Blank	44.887	n/a	1	2	20	n/a	40	n/a	1	n/a	n/a	n/a	n/a	89.189	n/a
61.192	10.014	ITI	Fixation+	34.857	n/a	1	n/a	n/a	n/a	n/a	n/a	n/a	n/a	n/a	n/a	n/a	89.72	n/a
71.222	0.497	happy	Picture	34.343	n/a	1	3	1	n/a	41	62	2	n/a	n/a	n/a	n/a	99.75	BM03HAS.jpg
71.719	0.514	Blank	Blank	33.829	n/a	1	3	1	n/a	41	n/a	2	n/a	n/a	n/a	n/a	100.247	n/a
72.25	0.497	happy	Picture	33.315	n/a	1	3	2	n/a	42	52	2	n/a	n/a	n/a	n/a	100.778	AF21HAS.jpg
72.747	0.514	Blank	Blank	32.801	n/a	1	3	2	n/a	42	n/a	2	n/a	n/a	n/a	n/a	101.275	n/a
73.278	0.497	happy	Picture	32.287	n/a	1	3	3	n/a	43	44	2	n/a	n/a	n/a	n/a	101.806	AF05HAS.jpg
73.775	0.514	Blank	Blank	31.773	n/a	1	3	3	n/a	43	n/a	2	n/a	n/a	n/a	n/a	102.303	n/a
74.306	0.497	happy	Picture	31.26	n/a	1	3	4	n/a	44	53	2	n/a	n/a	n/a	n/a	102.833	BF22HAS.jpg
74.803	0.514	Blank	Blank	30.746	n/a	1	3	4	n/a	44	n/a	2	n/a	n/a	n/a	n/a	103.331	n/a
75.334	0.497	happy	Picture	30.232	n/a	1	3	5	n/a	45	54	2	n/a	n/a	n/a	n/a	103.861	AF23HAS.jpg
75.831	0.514	Blank	Blank	29.718	n/a	1	3	5	n/a	45	n/a	2	n/a	n/a	n/a	n/a	104.359	n/a
76.362	0.497	happy	Picture	29.204	n/a	1	3	6	n/a	46	68	2	n/a	n/a	n/a	n/a	104.889	AM09HAS.jpg
76.859	0.514	Blank	Blank	28.69	n/a	1	3	6	n/a	46	n/a	2	n/a	n/a	n/a	n/a	105.387	n/a
77.389	0.497	happy	Picture	28.176	n/a	1	3	7	n/a	47	64	2	n/a	n/a	n/a	n/a	105.917	BM05HAS.jpg
77.887	0.514	Blank	Blank	27.662	n/a	1	3	7	n/a	47	n/a	2	n/a	n/a	n/a	n/a	106.415	n/a
78.417	0.497	happy	Picture	27.148	n/a	1	3	8	n/a	48	59	2	n/a	n/a	n/a	n/a	106.945	AF31HAS.jpg
78.915	0.514	Blank	Blank	26.634	n/a	1	3	8	n/a	48	n/a	2	n/a	n/a	n/a	n/a	107.442	n/a
79.445	0.497	happy	Picture	26.12	n/a	1	3	9	n/a	49	41	2	n/a	n/a	n/a	n/a	107.973	AF01HAS.jpg
79.943	0.514	Blank	Blank	25.606	n/a	1	3	9	n/a	49	n/a	2	n/a	n/a	n/a	n/a	108.47	n/a
80.473	0.497	happy	Picture	25.092	n/a	1	3	10	n/a	50	73	2	n/a	n/a	n/a	n/a	109.001	AM21HAS.jpg
80.971	0.514	Blank	Blank	24.578	n/a	1	3	10	n/a	50	n/a	2	n/a	n/a	n/a	n/a	109.498	n/a
81.501	0.497	happy	Picture	24.064	n/a	1	3	11	n/a	51	65	2	n/a	n/a	n/a	n/a	110.029	BM06HAS.jpg
81.998	0.514	Blank	Blank	23.55	n/a	1	3	11	n/a	51	n/a	2	n/a	n/a	n/a	n/a	110.526	n/a
82.529	0.497	happy	Picture	23.036	n/a	1	3	12	n/a	52	56	2	n/a	n/a	n/a	n/a	111.057	AF26HAS.jpg
83.026	0.514	Blank	Blank	22.522	n/a	1	3	12	n/a	52	n/a	2	n/a	n/a	n/a	n/a	111.554	n/a
83.557	0.497	happy	Picture	22.009	n/a	1	3	13	n/a	53	45	2	n/a	n/a	n/a	n/a	112.085	BF07HAS.jpg
84.054	0.514	Blank	Blank	21.495	n/a	1	3	13	n/a	53	n/a	2	n/a	n/a	n/a	n/a	112.582	n/a
84.585	0.497	happy	Picture	20.981	n/a	1	3	14	n/a	54	78	2	n/a	n/a	n/a	n/a	113.112	BM26HAS.jpg
85.082	0.514	Blank	Blank	20.467	n/a	1	3	14	n/a	54	n/a	2	n/a	n/a	n/a	n/a	113.61	n/a
85.612	0.497	happy	Picture	19.953	n/a	1	3	15	n/a	55	50	2	n/a	n/a	n/a	n/a	114.14	AF18HAS.jpg
86.11	0.514	Blank	Blank	19.439	n/a	1	3	15	n/a	55	n/a	2	n/a	n/a	n/a	n/a	114.638	n/a
86.64	0.497	happy	Picture	18.925	n/a	1	3	16	n/a	56	47	2	n/a	n/a	n/a	n/a	115.168	BF11HAS.jpg
87.138	0.514	Blank	Blank	18.411	n/a	1	3	16	n/a	56	n/a	2	n/a	n/a	n/a	n/a	115.665	n/a
87.668	0.497	happy	Picture	17.897	n/a	1	3	17	n/a	57	77	2	n/a	n/a	n/a	n/a	116.196	BM25HAS.jpg
88.166	0.514	Blank	Blank	17.383	n/a	1	3	17	n/a	57	n/a	2	n/a	n/a	n/a	n/a	116.693	n/a
88.696	0.497	happy	Picture	16.869	n/a	1	3	18	n/a	58	57	2	n/a	n/a	n/a	n/a	117.224	BF28HAS.jpg
89.194	0.514	Blank	Blank	16.355	n/a	1	3	18	n/a	58	n/a	2	n/a	n/a	n/a	n/a	117.721	n/a
89.724	0.497	happy	Picture	15.841	n/a	1	3	19	n/a	59	61	2	n/a	n/a	n/a	n/a	118.252	AM01HAS.jpg
90.222	0.514	Blank	Blank	15.327	n/a	1	3	19	n/a	59	n/a	2	n/a	n/a	n/a	n/a	118.749	n/a
90.752	0.497	happy	Picture	14.813	n/a	1	3	20	n/a	60	79	2	n/a	n/a	n/a	n/a	119.28	BM28HAS.jpg
91.249	0.514	Blank	Blank	14.299	n/a	1	3	20	n/a	60	n/a	2	n/a	n/a	n/a	n/a	119.777	n/a
91.78	10.014	ITI	Fixation+	4.269	n/a	1	n/a	n/a	n/a	n/a	n/a	n/a	n/a	n/a	n/a	n/a	120.308	n/a
106.063	n/a	ConfirmRating	Rate	n/a	4.261	1	n/a	n/a	0	n/a	n/a	n/a	2	Happy	82	53	134.59	n/a
111.675	n/a	ConfirmRating	Rate	n/a	5.603	1	n/a	n/a	1	n/a	n/a	n/a	3	Happy	12	47	140.202	n/a
111.708	10.014	ITI	Fixation+	94.342	n/a	2	n/a	n/a	n/a	n/a	n/a	n/a	n/a	n/a	n/a	n/a	140.235	n/a
121.738	0.497	angry	Picture	93.828	n/a	2	4	1	n/a	61	119	3	n/a	n/a	n/a	n/a	150.266	BM28ANS.jpg
122.235	0.514	Blank	Blank	93.314	n/a	2	4	1	n/a	61	n/a	3	n/a	n/a	n/a	n/a	150.763	n/a
122.766	0.497	angry	Picture	92.8	n/a	2	4	2	n/a	62	100	3	n/a	n/a	n/a	n/a	151.293	AF32ANS.jpg
123.263	0.514	Blank	Blank	92.286	n/a	2	4	2	n/a	62	n/a	3	n/a	n/a	n/a	n/a	151.791	n/a
123.794	0.497	angry	Picture	91.772	n/a	2	4	3	n/a	63	118	3	n/a	n/a	n/a	n/a	152.321	BM26ANS.jpg
124.291	0.514	Blank	Blank	91.258	n/a	2	4	3	n/a	63	n/a	3	n/a	n/a	n/a	n/a	152.819	n/a
124.822	0.497	angry	Picture	90.744	n/a	2	4	4	n/a	64	89	3	n/a	n/a	n/a	n/a	153.349	AF17ANS.jpg
125.319	0.514	Blank	Blank	90.231	n/a	2	4	4	n/a	64	n/a	3	n/a	n/a	n/a	n/a	153.847	n/a
125.849	0.497	angry	Picture	89.717	n/a	2	4	5	n/a	65	116	3	n/a	n/a	n/a	n/a	154.377	BM24ANS.jpg
126.347	0.514	Blank	Blank	89.203	n/a	2	4	5	n/a	65	n/a	3	n/a	n/a	n/a	n/a	154.875	n/a
126.877	0.497	angry	Picture	88.689	n/a	2	4	6	n/a	66	105	3	n/a	n/a	n/a	n/a	155.405	BM06ANS.jpg
127.375	0.514	Blank	Blank	88.175	n/a	2	4	6	n/a	66	n/a	3	n/a	n/a	n/a	n/a	155.902	n/a
127.905	0.497	angry	Picture	87.661	n/a	2	4	7	n/a	67	106	3	n/a	n/a	n/a	n/a	156.433	AM07ANS.jpg
128.403	0.514	Blank	Blank	87.147	n/a	2	4	7	n/a	67	n/a	3	n/a	n/a	n/a	n/a	156.93	n/a
128.933	0.497	angry	Picture	86.633	n/a	2	4	8	n/a	68	94	3	n/a	n/a	n/a	n/a	157.461	AF23ANS.jpg
129.43	0.514	Blank	Blank	86.119	n/a	2	4	8	n/a	68	n/a	3	n/a	n/a	n/a	n/a	157.958	n/a
129.961	0.497	angry	Picture	85.605	n/a	2	4	9	n/a	69	117	3	n/a	n/a	n/a	n/a	158.489	BM25ANS.jpg
130.458	0.514	Blank	Blank	85.091	n/a	2	4	9	n/a	69	n/a	3	n/a	n/a	n/a	n/a	158.986	n/a
130.989	0.497	angry	Picture	84.577	n/a	2	4	10	n/a	70	90	3	n/a	n/a	n/a	n/a	159.517	AF18ANS.jpg
131.486	0.514	Blank	Blank	84.063	n/a	2	4	10	n/a	70	n/a	3	n/a	n/a	n/a	n/a	160.014	n/a
132.017	0.497	angry	Picture	83.549	n/a	2	4	11	n/a	71	83	3	n/a	n/a	n/a	n/a	160.544	BF04ANS.jpg
132.514	0.514	Blank	Blank	83.035	n/a	2	4	11	n/a	71	n/a	3	n/a	n/a	n/a	n/a	161.042	n/a
133.045	0.497	angry	Picture	82.521	n/a	2	4	12	n/a	72	112	3	n/a	n/a	n/a	n/a	161.572	AM14ANS.jpg
133.542	0.514	Blank	Blank	82.007	n/a	2	4	12	n/a	72	n/a	3	n/a	n/a	n/a	n/a	162.07	n/a
134.073	0.497	angry	Picture	81.493	n/a	2	4	13	n/a	73	102	3	n/a	n/a	n/a	n/a	162.6	BM03ANS.jpg
134.57	0.514	Blank	Blank	80.98	n/a	2	4	13	n/a	73	n/a	3	n/a	n/a	n/a	n/a	163.098	n/a
135.1	0.497	angry	Picture	80.466	n/a	2	4	14	n/a	74	95	3	n/a	n/a	n/a	n/a	163.628	AF25ANS.jpg
135.598	0.514	Blank	Blank	79.952	n/a	2	4	14	n/a	74	n/a	3	n/a	n/a	n/a	n/a	164.126	n/a
136.128	0.497	angry	Picture	79.438	n/a	2	4	15	n/a	75	113	3	n/a	n/a	n/a	n/a	164.656	AM21ANS.jpg
136.626	0.514	Blank	Blank	78.924	n/a	2	4	15	n/a	75	n/a	3	n/a	n/a	n/a	n/a	165.153	n/a
137.156	0.497	angry	Picture	78.41	n/a	2	4	16	n/a	76	88	3	n/a	n/a	n/a	n/a	165.684	AF14ANS.jpg
137.654	0.514	Blank	Blank	77.896	n/a	2	4	16	n/a	76	n/a	3	n/a	n/a	n/a	n/a	166.181	n/a
138.184	0.497	angry	Picture	77.382	n/a	2	4	17	n/a	77	93	3	n/a	n/a	n/a	n/a	166.712	BF22ANS.jpg
138.681	0.514	Blank	Blank	76.868	n/a	2	4	17	n/a	77	n/a	3	n/a	n/a	n/a	n/a	167.209	n/a
139.212	0.497	angry	Picture	76.354	n/a	2	4	18	n/a	78	86	3	n/a	n/a	n/a	n/a	167.74	AF09ANS.jpg
139.709	0.514	Blank	Blank	75.84	n/a	2	4	18	n/a	78	n/a	3	n/a	n/a	n/a	n/a	168.237	n/a
140.24	0.497	angry	Picture	75.326	n/a	2	4	19	n/a	79	92	3	n/a	n/a	n/a	n/a	168.768	AF21ANS.jpg
140.737	0.514	Blank	Blank	74.812	n/a	2	4	19	n/a	79	n/a	3	n/a	n/a	n/a	n/a	169.265	n/a
141.268	0.497	angry	Picture	74.298	n/a	2	4	20	n/a	80	84	3	n/a	n/a	n/a	n/a	169.796	AF05ANS.jpg
141.765	0.514	Blank	Blank	73.784	n/a	2	4	20	n/a	80	n/a	3	n/a	n/a	n/a	n/a	170.293	n/a
142.296	10.014	ITI	Fixation+	63.754	n/a	2	n/a	n/a	n/a	n/a	n/a	n/a	n/a	n/a	n/a	n/a	170.823	n/a
152.326	0.497	neutral	Picture	63.24	n/a	2	5	1	n/a	81	4	1	n/a	n/a	n/a	n/a	180.854	AF05NES.jpg
152.823	0.514	Blank	Blank	62.726	n/a	2	5	1	n/a	81	n/a	1	n/a	n/a	n/a	n/a	181.351	n/a
153.354	0.497	neutral	Picture	62.212	n/a	2	5	2	n/a	82	14	1	n/a	n/a	n/a	n/a	181.881	AF23NES.jpg
153.851	0.514	Blank	Blank	61.698	n/a	2	5	2	n/a	82	n/a	1	n/a	n/a	n/a	n/a	182.379	n/a
154.382	0.497	neutral	Picture	61.184	n/a	2	5	3	n/a	83	19	1	n/a	n/a	n/a	n/a	182.909	AF31NES.jpg
154.879	0.514	Blank	Blank	60.67	n/a	2	5	3	n/a	83	n/a	1	n/a	n/a	n/a	n/a	183.407	n/a
155.41	0.497	neutral	Picture	60.156	n/a	2	5	4	n/a	84	8	1	n/a	n/a	n/a	n/a	183.937	AF14NES.jpg
155.907	0.514	Blank	Blank	59.643	n/a	2	5	4	n/a	84	n/a	1	n/a	n/a	n/a	n/a	184.435	n/a
156.438	0.497	neutral	Picture	59.129	n/a	2	5	5	n/a	85	25	1	n/a	n/a	n/a	n/a	184.965	BM06NES.jpg
156.935	0.514	Blank	Blank	58.615	n/a	2	5	5	n/a	85	n/a	1	n/a	n/a	n/a	n/a	185.463	n/a
157.465	0.497	neutral	Picture	58.101	n/a	2	5	6	n/a	86	9	1	n/a	n/a	n/a	n/a	185.993	AF17NES.jpg
157.963	0.514	Blank	Blank	57.587	n/a	2	5	6	n/a	86	n/a	1	n/a	n/a	n/a	n/a	186.49	n/a
158.493	0.497	neutral	Picture	57.073	n/a	2	5	7	n/a	87	2	1	n/a	n/a	n/a	n/a	187.021	AF03NES.jpg
158.991	0.514	Blank	Blank	56.559	n/a	2	5	7	n/a	87	n/a	1	n/a	n/a	n/a	n/a	187.518	n/a
159.521	0.497	neutral	Picture	56.045	n/a	2	5	8	n/a	88	17	1	n/a	n/a	n/a	n/a	188.049	BF28NES.jpg
160.018	0.514	Blank	Blank	55.531	n/a	2	5	8	n/a	88	n/a	1	n/a	n/a	n/a	n/a	188.546	n/a
160.549	0.497	neutral	Picture	55.017	n/a	2	5	9	n/a	89	6	1	n/a	n/a	n/a	n/a	189.077	AF09NES.jpg
161.046	0.514	Blank	Blank	54.503	n/a	2	5	9	n/a	89	n/a	1	n/a	n/a	n/a	n/a	189.574	n/a
161.577	0.497	neutral	Picture	53.989	n/a	2	5	10	n/a	90	12	1	n/a	n/a	n/a	n/a	190.105	AF21NES.jpg
162.074	0.514	Blank	Blank	53.475	n/a	2	5	10	n/a	90	n/a	1	n/a	n/a	n/a	n/a	190.602	n/a
162.605	0.497	neutral	Picture	52.961	n/a	2	5	11	n/a	91	24	1	n/a	n/a	n/a	n/a	191.132	BM05NES.jpg
163.102	0.514	Blank	Blank	52.447	n/a	2	5	11	n/a	91	n/a	1	n/a	n/a	n/a	n/a	191.63	n/a
163.633	0.497	neutral	Picture	51.933	n/a	2	5	12	n/a	92	34	1	n/a	n/a	n/a	n/a	192.16	AM22NES.jpg
164.13	0.514	Blank	Blank	51.419	n/a	2	5	12	n/a	92	n/a	1	n/a	n/a	n/a	n/a	192.658	n/a
164.661	0.497	neutral	Picture	50.905	n/a	2	5	13	n/a	93	23	1	n/a	n/a	n/a	n/a	193.188	AM04NES.jpg
165.158	0.514	Blank	Blank	50.392	n/a	2	5	13	n/a	93	n/a	1	n/a	n/a	n/a	n/a	193.686	n/a
165.688	0.497	neutral	Picture	49.878	n/a	2	5	14	n/a	94	15	1	n/a	n/a	n/a	n/a	194.216	AF25NES.jpg
166.186	0.514	Blank	Blank	49.364	n/a	2	5	14	n/a	94	n/a	1	n/a	n/a	n/a	n/a	194.714	n/a
166.716	0.497	neutral	Picture	48.85	n/a	2	5	15	n/a	95	37	1	n/a	n/a	n/a	n/a	195.244	BM25NES.jpg
167.214	0.514	Blank	Blank	48.336	n/a	2	5	15	n/a	95	n/a	1	n/a	n/a	n/a	n/a	195.742	n/a
167.744	0.497	neutral	Picture	47.822	n/a	2	5	16	n/a	96	32	1	n/a	n/a	n/a	n/a	196.272	AM14NES.jpg
168.242	0.514	Blank	Blank	47.308	n/a	2	5	16	n/a	96	n/a	1	n/a	n/a	n/a	n/a	196.769	n/a
168.772	0.497	neutral	Picture	46.794	n/a	2	5	17	n/a	97	3	1	n/a	n/a	n/a	n/a	197.3	BF04NES.jpg
169.27	0.514	Blank	Blank	46.28	n/a	2	5	17	n/a	97	n/a	1	n/a	n/a	n/a	n/a	197.797	n/a
169.8	0.497	neutral	Picture	45.766	n/a	2	5	18	n/a	98	16	1	n/a	n/a	n/a	n/a	198.328	AF26NES.jpg
170.297	0.514	Blank	Blank	45.252	n/a	2	5	18	n/a	98	n/a	1	n/a	n/a	n/a	n/a	198.825	n/a
170.828	0.497	neutral	Picture	44.738	n/a	2	5	19	n/a	99	27	1	n/a	n/a	n/a	n/a	199.356	BM08NES.jpg
171.325	0.514	Blank	Blank	44.224	n/a	2	5	19	n/a	99	n/a	1	n/a	n/a	n/a	n/a	199.853	n/a
171.856	0.497	neutral	Picture	43.71	n/a	2	5	20	n/a	100	28	1	n/a	n/a	n/a	n/a	200.384	AM09NES.jpg
172.353	0.514	Blank	Blank	43.196	n/a	2	5	20	n/a	100	n/a	1	n/a	n/a	n/a	n/a	200.881	n/a
172.884	10.014	ITI	Fixation+	33.166	n/a	2	n/a	n/a	n/a	n/a	n/a	n/a	n/a	n/a	n/a	n/a	201.411	n/a
182.914	0.497	angry	Picture	32.652	n/a	2	6	1	n/a	101	81	3	n/a	n/a	n/a	n/a	211.442	AF01ANS.jpg
183.411	0.514	Blank	Blank	32.138	n/a	2	6	1	n/a	101	n/a	3	n/a	n/a	n/a	n/a	211.939	n/a
183.942	0.497	angry	Picture	31.624	n/a	2	6	2	n/a	102	120	3	n/a	n/a	n/a	n/a	212.47	AM35ANS.jpg
184.439	0.514	Blank	Blank	31.11	n/a	2	6	2	n/a	102	n/a	3	n/a	n/a	n/a	n/a	212.967	n/a
184.97	0.497	angry	Picture	30.596	n/a	2	6	3	n/a	103	114	3	n/a	n/a	n/a	n/a	213.498	AM22ANS.jpg
185.467	0.514	Blank	Blank	30.082	n/a	2	6	3	n/a	103	n/a	3	n/a	n/a	n/a	n/a	213.995	n/a
185.998	0.497	angry	Picture	29.569	n/a	2	6	4	n/a	104	109	3	n/a	n/a	n/a	n/a	214.525	AM10ANS.jpg
186.495	0.514	Blank	Blank	29.054	n/a	2	6	4	n/a	104	n/a	3	n/a	n/a	n/a	n/a	215.023	n/a
187.025	0.497	angry	Picture	28.541	n/a	2	6	5	n/a	105	96	3	n/a	n/a	n/a	n/a	215.553	AF26ANS.jpg
187.523	0.514	Blank	Blank	28.027	n/a	2	6	5	n/a	105	n/a	3	n/a	n/a	n/a	n/a	216.051	n/a
188.053	0.497	angry	Picture	27.513	n/a	2	6	6	n/a	106	82	3	n/a	n/a	n/a	n/a	216.581	AF03ANS.jpg
188.551	0.514	Blank	Blank	26.999	n/a	2	6	6	n/a	106	n/a	3	n/a	n/a	n/a	n/a	217.078	n/a
189.081	0.497	angry	Picture	26.485	n/a	2	6	7	n/a	107	97	3	n/a	n/a	n/a	n/a	217.609	BF28ANS.jpg
189.579	0.514	Blank	Blank	25.971	n/a	2	6	7	n/a	107	n/a	3	n/a	n/a	n/a	n/a	218.106	n/a
190.109	0.497	angry	Picture	25.457	n/a	2	6	8	n/a	108	115	3	n/a	n/a	n/a	n/a	218.637	AM23ANS.jpg
190.607	0.514	Blank	Blank	24.943	n/a	2	6	8	n/a	108	n/a	3	n/a	n/a	n/a	n/a	219.134	n/a
191.137	0.497	angry	Picture	24.429	n/a	2	6	9	n/a	109	91	3	n/a	n/a	n/a	n/a	219.665	AF20ANS.jpg
191.635	0.514	Blank	Blank	23.915	n/a	2	6	9	n/a	109	n/a	3	n/a	n/a	n/a	n/a	220.162	n/a
192.165	0.497	angry	Picture	23.401	n/a	2	6	10	n/a	110	87	3	n/a	n/a	n/a	n/a	220.693	BF11ANS.jpg
192.662	0.514	Blank	Blank	22.887	n/a	2	6	10	n/a	110	n/a	3	n/a	n/a	n/a	n/a	221.19	n/a
193.193	0.497	angry	Picture	22.373	n/a	2	6	11	n/a	111	85	3	n/a	n/a	n/a	n/a	221.721	BF07ANS.jpg
193.69	0.514	Blank	Blank	21.859	n/a	2	6	11	n/a	111	n/a	3	n/a	n/a	n/a	n/a	222.218	n/a
194.221	0.497	angry	Picture	21.345	n/a	2	6	12	n/a	112	110	3	n/a	n/a	n/a	n/a	222.749	AM11ANS.jpg
194.718	0.514	Blank	Blank	20.831	n/a	2	6	12	n/a	112	n/a	3	n/a	n/a	n/a	n/a	223.246	n/a
195.249	0.497	angry	Picture	20.317	n/a	2	6	13	n/a	113	111	3	n/a	n/a	n/a	n/a	223.776	BM12ANS.jpg
195.746	0.514	Blank	Blank	19.803	n/a	2	6	13	n/a	113	n/a	3	n/a	n/a	n/a	n/a	224.274	n/a
196.276	0.497	angry	Picture	19.29	n/a	2	6	14	n/a	114	103	3	n/a	n/a	n/a	n/a	224.804	AM04ANS.jpg
196.774	0.514	Blank	Blank	18.776	n/a	2	6	14	n/a	114	n/a	3	n/a	n/a	n/a	n/a	225.302	n/a
197.304	0.497	angry	Picture	18.262	n/a	2	6	15	n/a	115	101	3	n/a	n/a	n/a	n/a	225.832	AM01ANS.jpg
197.802	0.514	Blank	Blank	17.748	n/a	2	6	15	n/a	115	n/a	3	n/a	n/a	n/a	n/a	226.329	n/a
198.332	0.497	angry	Picture	17.234	n/a	2	6	16	n/a	116	104	3	n/a	n/a	n/a	n/a	226.86	BM05ANS.jpg
198.83	0.514	Blank	Blank	16.72	n/a	2	6	16	n/a	116	n/a	3	n/a	n/a	n/a	n/a	227.357	n/a
199.36	0.497	angry	Picture	16.206	n/a	2	6	17	n/a	117	107	3	n/a	n/a	n/a	n/a	227.888	BM08ANS.jpg
199.858	0.514	Blank	Blank	15.692	n/a	2	6	17	n/a	117	n/a	3	n/a	n/a	n/a	n/a	228.385	n/a
200.388	0.497	angry	Picture	15.178	n/a	2	6	18	n/a	118	98	3	n/a	n/a	n/a	n/a	228.916	BF29ANS.jpg
200.885	0.514	Blank	Blank	14.664	n/a	2	6	18	n/a	118	n/a	3	n/a	n/a	n/a	n/a	229.413	n/a
201.416	0.497	angry	Picture	14.15	n/a	2	6	19	n/a	119	99	3	n/a	n/a	n/a	n/a	229.944	AF31ANS.jpg
201.913	0.514	Blank	Blank	13.636	n/a	2	6	19	n/a	119	n/a	3	n/a	n/a	n/a	n/a	230.441	n/a
202.444	0.497	angry	Picture	13.122	n/a	2	6	20	n/a	120	108	3	n/a	n/a	n/a	n/a	230.972	AM09ANS.jpg
202.941	0.514	Blank	Blank	12.608	n/a	2	6	20	n/a	120	n/a	3	n/a	n/a	n/a	n/a	231.469	n/a
203.472	10.014	ITI	Fixation+	2.578	n/a	2	n/a	n/a	n/a	n/a	n/a	n/a	n/a	n/a	n/a	n/a	232.0	n/a
216.063	n/a	ConfirmRating	Rate	n/a	2.57	2	n/a	n/a	0	n/a	n/a	n/a	2	Angry	74	52	244.591	n/a
220.55	n/a	ConfirmRating	Rate	n/a	4.476	2	n/a	n/a	1	n/a	n/a	n/a	3	Angry	41	49	249.078	n/a
220.581	15.004	Rest	Picture	n/a	n/a	n/a	n/a	n/a	n/a	n/a	n/a	n/a	0	n/a	0	0	249.109	n/a
235.602	10.014	ITI	Fixation+	95.429	n/a	3	n/a	n/a	n/a	n/a	n/a	n/a	n/a	n/a	n/a	n/a	264.129	n/a
245.632	0.497	happy	Picture	94.915	n/a	3	7	1	n/a	1	46	2	n/a	n/a	n/a	n/a	274.16	AF09HAS.jpg
246.129	0.514	Blank	Blank	94.401	n/a	3	7	1	n/a	1	n/a	2	n/a	n/a	n/a	n/a	274.657	n/a
246.66	0.497	happy	Picture	93.887	n/a	3	7	2	n/a	2	69	2	n/a	n/a	n/a	n/a	275.188	AM10HAS.jpg
247.157	0.514	Blank	Blank	93.373	n/a	3	7	2	n/a	2	n/a	2	n/a	n/a	n/a	n/a	275.685	n/a
247.688	0.497	happy	Picture	92.859	n/a	3	7	3	n/a	3	71	2	n/a	n/a	n/a	n/a	276.215	BM12HAS.jpg
248.185	0.514	Blank	Blank	92.345	n/a	3	7	3	n/a	3	n/a	2	n/a	n/a	n/a	n/a	276.713	n/a
248.715	0.497	happy	Picture	91.831	n/a	3	7	4	n/a	4	51	2	n/a	n/a	n/a	n/a	277.243	AF20HAS.jpg
249.213	0.514	Blank	Blank	91.317	n/a	3	7	4	n/a	4	n/a	2	n/a	n/a	n/a	n/a	277.741	n/a
249.743	0.497	happy	Picture	90.803	n/a	3	7	5	n/a	5	67	2	n/a	n/a	n/a	n/a	278.271	BM08HAS.jpg
250.241	0.514	Blank	Blank	90.29	n/a	3	7	5	n/a	5	n/a	2	n/a	n/a	n/a	n/a	278.769	n/a
250.771	0.497	happy	Picture	89.776	n/a	3	7	6	n/a	6	60	2	n/a	n/a	n/a	n/a	279.299	AF32HAS.jpg
251.269	0.514	Blank	Blank	89.262	n/a	3	7	6	n/a	6	n/a	2	n/a	n/a	n/a	n/a	279.796	n/a
251.799	0.497	happy	Picture	88.748	n/a	3	7	7	n/a	7	42	2	n/a	n/a	n/a	n/a	280.327	AF03HAS.jpg
252.297	0.514	Blank	Blank	88.234	n/a	3	7	7	n/a	7	n/a	2	n/a	n/a	n/a	n/a	280.824	n/a
252.827	0.497	happy	Picture	87.72	n/a	3	7	8	n/a	8	55	2	n/a	n/a	n/a	n/a	281.355	AF25HAS.jpg
253.324	0.514	Blank	Blank	87.206	n/a	3	7	8	n/a	8	n/a	2	n/a	n/a	n/a	n/a	281.852	n/a
253.855	0.497	happy	Picture	86.692	n/a	3	7	9	n/a	9	72	2	n/a	n/a	n/a	n/a	282.383	AM14HAS.jpg
254.352	0.514	Blank	Blank	86.178	n/a	3	7	9	n/a	9	n/a	2	n/a	n/a	n/a	n/a	282.88	n/a
254.883	0.497	happy	Picture	85.664	n/a	3	7	10	n/a	10	63	2	n/a	n/a	n/a	n/a	283.411	AM04HAS.jpg
255.38	0.514	Blank	Blank	85.15	n/a	3	7	10	n/a	10	n/a	2	n/a	n/a	n/a	n/a	283.908	n/a
255.911	0.497	happy	Picture	84.636	n/a	3	7	11	n/a	11	58	2	n/a	n/a	n/a	n/a	284.438	BF29HAS.jpg
256.408	0.514	Blank	Blank	84.122	n/a	3	7	11	n/a	11	n/a	2	n/a	n/a	n/a	n/a	284.936	n/a
256.939	0.497	happy	Picture	83.608	n/a	3	7	12	n/a	12	48	2	n/a	n/a	n/a	n/a	285.466	AF14HAS.jpg
257.436	0.514	Blank	Blank	83.094	n/a	3	7	12	n/a	12	n/a	2	n/a	n/a	n/a	n/a	285.964	n/a
257.966	0.497	happy	Picture	82.58	n/a	3	7	13	n/a	13	66	2	n/a	n/a	n/a	n/a	286.494	BM07HAS.jpg
258.464	0.514	Blank	Blank	82.066	n/a	3	7	13	n/a	13	n/a	2	n/a	n/a	n/a	n/a	286.992	n/a
258.994	0.497	happy	Picture	81.552	n/a	3	7	14	n/a	14	70	2	n/a	n/a	n/a	n/a	287.522	BM11HAS.jpg
259.492	0.514	Blank	Blank	81.038	n/a	3	7	14	n/a	14	n/a	2	n/a	n/a	n/a	n/a	288.019	n/a
260.022	0.497	happy	Picture	80.524	n/a	3	7	15	n/a	15	43	2	n/a	n/a	n/a	n/a	288.55	BF04HAS.jpg
260.52	0.514	Blank	Blank	80.011	n/a	3	7	15	n/a	15	n/a	2	n/a	n/a	n/a	n/a	289.047	n/a
261.05	0.497	happy	Picture	79.497	n/a	3	7	16	n/a	16	49	2	n/a	n/a	n/a	n/a	289.578	AF17HAS.jpg
261.548	0.514	Blank	Blank	78.983	n/a	3	7	16	n/a	16	n/a	2	n/a	n/a	n/a	n/a	290.075	n/a
262.078	0.497	happy	Picture	78.469	n/a	3	7	17	n/a	17	75	2	n/a	n/a	n/a	n/a	290.606	AM23HAS.jpg
262.576	0.514	Blank	Blank	77.955	n/a	3	7	17	n/a	17	n/a	2	n/a	n/a	n/a	n/a	291.103	n/a
263.106	0.497	happy	Picture	77.441	n/a	3	7	18	n/a	18	80	2	n/a	n/a	n/a	n/a	291.634	BM35HAS.jpg
263.603	0.514	Blank	Blank	76.927	n/a	3	7	18	n/a	18	n/a	2	n/a	n/a	n/a	n/a	292.131	n/a
264.134	0.497	happy	Picture	76.413	n/a	3	7	19	n/a	19	76	2	n/a	n/a	n/a	n/a	292.662	BM24HAS.jpg
264.631	0.514	Blank	Blank	75.899	n/a	3	7	19	n/a	19	n/a	2	n/a	n/a	n/a	n/a	293.159	n/a
265.162	0.497	happy	Picture	75.385	n/a	3	7	20	n/a	20	74	2	n/a	n/a	n/a	n/a	293.69	AM22HAS.jpg
265.659	0.514	Blank	Blank	74.871	n/a	3	7	20	n/a	20	n/a	2	n/a	n/a	n/a	n/a	294.187	n/a
266.19	10.014	ITI	Fixation+	64.841	n/a	3	n/a	n/a	n/a	n/a	n/a	n/a	n/a	n/a	n/a	n/a	294.717	n/a
276.22	0.497	neutral	Picture	64.327	n/a	3	8	1	n/a	21	33	1	n/a	n/a	n/a	n/a	304.748	AM21NES.jpg
276.717	0.514	Blank	Blank	63.813	n/a	3	8	1	n/a	21	n/a	1	n/a	n/a	n/a	n/a	305.245	n/a
277.248	0.497	neutral	Picture	63.299	n/a	3	8	2	n/a	22	39	1	n/a	n/a	n/a	n/a	305.776	AM28NES.jpg
277.745	0.514	Blank	Blank	62.785	n/a	3	8	2	n/a	22	n/a	1	n/a	n/a	n/a	n/a	306.273	n/a
278.276	0.497	neutral	Picture	62.271	n/a	3	8	3	n/a	23	25	1	n/a	n/a	n/a	n/a	306.803	BM06NES.jpg
278.773	0.514	Blank	Blank	61.757	n/a	3	8	3	n/a	23	n/a	1	n/a	n/a	n/a	n/a	307.301	n/a
279.304	0.497	neutral	Picture	61.243	n/a	3	8	4	n/a	24	5	1	n/a	n/a	n/a	n/a	307.831	BF07NES.jpg
279.801	0.514	Blank	Blank	60.729	n/a	3	8	4	n/a	24	n/a	1	n/a	n/a	n/a	n/a	308.329	n/a
280.332	0.497	neutral	Picture	60.215	n/a	3	8	5	n/a	25	10	1	n/a	n/a	n/a	n/a	308.859	AF18NES.jpg
280.829	0.514	Blank	Blank	59.701	n/a	3	8	5	n/a	25	n/a	1	n/a	n/a	n/a	n/a	309.356	n/a
281.359	0.497	neutral	Picture	59.188	n/a	3	8	6	n/a	26	34	1	n/a	n/a	n/a	n/a	309.887	AM22NES.jpg
281.857	0.514	Blank	Blank	58.673	n/a	3	8	6	n/a	26	n/a	1	n/a	n/a	n/a	n/a	310.384	n/a
282.387	0.497	neutral	Picture	58.16	n/a	3	8	7	n/a	27	36	1	n/a	n/a	n/a	n/a	310.915	BM24NES.jpg
282.885	0.514	Blank	Blank	57.646	n/a	3	8	7	n/a	27	n/a	1	n/a	n/a	n/a	n/a	311.412	n/a
283.415	0.497	neutral	Picture	57.132	n/a	3	8	8	n/a	28	14	1	n/a	n/a	n/a	n/a	311.943	AF23NES.jpg
283.913	0.514	Blank	Blank	56.618	n/a	3	8	8	n/a	28	n/a	1	n/a	n/a	n/a	n/a	312.44	n/a
284.443	0.497	neutral	Picture	56.104	n/a	3	8	9	n/a	29	9	1	n/a	n/a	n/a	n/a	312.971	AF17NES.jpg
284.94	0.514	Blank	Blank	55.59	n/a	3	8	9	n/a	29	n/a	1	n/a	n/a	n/a	n/a	313.468	n/a
285.471	0.497	neutral	Picture	55.076	n/a	3	8	10	n/a	30	19	1	n/a	n/a	n/a	n/a	313.999	AF31NES.jpg
285.968	0.514	Blank	Blank	54.562	n/a	3	8	10	n/a	30	n/a	1	n/a	n/a	n/a	n/a	314.496	n/a
286.499	0.497	neutral	Picture	54.048	n/a	3	8	11	n/a	31	15	1	n/a	n/a	n/a	n/a	315.026	AF25NES.jpg
286.996	0.514	Blank	Blank	53.534	n/a	3	8	11	n/a	31	n/a	1	n/a	n/a	n/a	n/a	315.524	n/a
287.527	0.497	neutral	Picture	53.02	n/a	3	8	12	n/a	32	22	1	n/a	n/a	n/a	n/a	316.054	BM03NES.jpg
288.024	0.514	Blank	Blank	52.506	n/a	3	8	12	n/a	32	n/a	1	n/a	n/a	n/a	n/a	316.552	n/a
288.555	0.497	neutral	Picture	51.992	n/a	3	8	13	n/a	33	11	1	n/a	n/a	n/a	n/a	317.082	AF20NES.jpg
289.052	0.514	Blank	Blank	51.478	n/a	3	8	13	n/a	33	n/a	1	n/a	n/a	n/a	n/a	317.58	n/a
289.583	0.497	neutral	Picture	50.964	n/a	3	8	14	n/a	34	4	1	n/a	n/a	n/a	n/a	318.11	AF05NES.jpg
290.08	0.514	Blank	Blank	50.45	n/a	3	8	14	n/a	34	n/a	1	n/a	n/a	n/a	n/a	318.608	n/a
290.61	0.497	neutral	Picture	49.937	n/a	3	8	15	n/a	35	17	1	n/a	n/a	n/a	n/a	319.138	BF28NES.jpg
291.108	0.514	Blank	Blank	49.423	n/a	3	8	15	n/a	35	n/a	1	n/a	n/a	n/a	n/a	319.635	n/a
291.638	0.497	neutral	Picture	48.909	n/a	3	8	16	n/a	36	13	1	n/a	n/a	n/a	n/a	320.166	BF22NES.jpg
292.136	0.514	Blank	Blank	48.395	n/a	3	8	16	n/a	36	n/a	1	n/a	n/a	n/a	n/a	320.663	n/a
292.666	0.497	neutral	Picture	47.881	n/a	3	8	17	n/a	37	12	1	n/a	n/a	n/a	n/a	321.194	AF21NES.jpg
293.163	0.514	Blank	Blank	47.367	n/a	3	8	17	n/a	37	n/a	1	n/a	n/a	n/a	n/a	321.691	n/a
293.694	0.497	neutral	Picture	46.853	n/a	3	8	18	n/a	38	24	1	n/a	n/a	n/a	n/a	322.222	BM05NES.jpg
294.191	0.514	Blank	Blank	46.339	n/a	3	8	18	n/a	38	n/a	1	n/a	n/a	n/a	n/a	322.719	n/a
294.722	0.497	neutral	Picture	45.825	n/a	3	8	19	n/a	39	29	1	n/a	n/a	n/a	n/a	323.25	AM10NES.jpg
295.219	0.514	Blank	Blank	45.311	n/a	3	8	19	n/a	39	n/a	1	n/a	n/a	n/a	n/a	323.747	n/a
295.75	0.497	neutral	Picture	44.797	n/a	3	8	20	n/a	40	23	1	n/a	n/a	n/a	n/a	324.277	AM04NES.jpg
296.247	0.514	Blank	Blank	44.283	n/a	3	8	20	n/a	40	n/a	1	n/a	n/a	n/a	n/a	324.775	n/a
296.778	10.014	ITI	Fixation+	34.253	n/a	3	n/a	n/a	n/a	n/a	n/a	n/a	n/a	n/a	n/a	n/a	325.305	n/a
306.808	0.497	happy	Picture	33.739	n/a	3	9	1	n/a	41	62	2	n/a	n/a	n/a	n/a	335.336	BM03HAS.jpg
307.305	0.514	Blank	Blank	33.225	n/a	3	9	1	n/a	41	n/a	2	n/a	n/a	n/a	n/a	335.833	n/a
307.836	0.497	happy	Picture	32.711	n/a	3	9	2	n/a	42	52	2	n/a	n/a	n/a	n/a	336.363	AF21HAS.jpg
308.333	0.514	Blank	Blank	32.197	n/a	3	9	2	n/a	42	n/a	2	n/a	n/a	n/a	n/a	336.861	n/a
308.864	0.497	happy	Picture	31.683	n/a	3	9	3	n/a	43	44	2	n/a	n/a	n/a	n/a	337.391	AF05HAS.jpg
309.361	0.514	Blank	Blank	31.169	n/a	3	9	3	n/a	43	n/a	2	n/a	n/a	n/a	n/a	337.889	n/a
309.892	0.497	happy	Picture	30.655	n/a	3	9	4	n/a	44	53	2	n/a	n/a	n/a	n/a	338.419	BF22HAS.jpg
310.389	0.514	Blank	Blank	30.141	n/a	3	9	4	n/a	44	n/a	2	n/a	n/a	n/a	n/a	338.917	n/a
310.92	0.497	happy	Picture	29.627	n/a	3	9	5	n/a	45	54	2	n/a	n/a	n/a	n/a	339.447	AF23HAS.jpg
311.417	0.514	Blank	Blank	29.113	n/a	3	9	5	n/a	45	n/a	2	n/a	n/a	n/a	n/a	339.945	n/a
311.947	0.497	happy	Picture	28.6	n/a	3	9	6	n/a	46	68	2	n/a	n/a	n/a	n/a	340.475	AM09HAS.jpg
312.445	0.514	Blank	Blank	28.086	n/a	3	9	6	n/a	46	n/a	2	n/a	n/a	n/a	n/a	340.972	n/a
312.975	0.497	happy	Picture	27.572	n/a	3	9	7	n/a	47	64	2	n/a	n/a	n/a	n/a	341.503	BM05HAS.jpg
313.473	0.514	Blank	Blank	27.058	n/a	3	9	7	n/a	47	n/a	2	n/a	n/a	n/a	n/a	342.0	n/a
314.003	0.497	happy	Picture	26.544	n/a	3	9	8	n/a	48	59	2	n/a	n/a	n/a	n/a	342.531	AF31HAS.jpg
314.501	0.514	Blank	Blank	26.03	n/a	3	9	8	n/a	48	n/a	2	n/a	n/a	n/a	n/a	343.028	n/a
315.031	0.497	happy	Picture	25.516	n/a	3	9	9	n/a	49	41	2	n/a	n/a	n/a	n/a	343.559	AF01HAS.jpg
315.528	0.514	Blank	Blank	25.002	n/a	3	9	9	n/a	49	n/a	2	n/a	n/a	n/a	n/a	344.056	n/a
316.059	0.497	happy	Picture	24.488	n/a	3	9	10	n/a	50	73	2	n/a	n/a	n/a	n/a	344.587	AM21HAS.jpg
316.556	0.514	Blank	Blank	23.974	n/a	3	9	10	n/a	50	n/a	2	n/a	n/a	n/a	n/a	345.084	n/a
317.087	0.497	happy	Picture	23.46	n/a	3	9	11	n/a	51	65	2	n/a	n/a	n/a	n/a	345.615	BM06HAS.jpg
317.584	0.514	Blank	Blank	22.946	n/a	3	9	11	n/a	51	n/a	2	n/a	n/a	n/a	n/a	346.112	n/a
318.115	0.497	happy	Picture	22.432	n/a	3	9	12	n/a	52	56	2	n/a	n/a	n/a	n/a	346.642	AF26HAS.jpg
318.612	0.514	Blank	Blank	21.918	n/a	3	9	12	n/a	52	n/a	2	n/a	n/a	n/a	n/a	347.14	n/a
319.143	0.497	happy	Picture	21.404	n/a	3	9	13	n/a	53	45	2	n/a	n/a	n/a	n/a	347.67	BF07HAS.jpg
319.64	0.514	Blank	Blank	20.89	n/a	3	9	13	n/a	53	n/a	2	n/a	n/a	n/a	n/a	348.168	n/a
320.171	0.497	happy	Picture	20.376	n/a	3	9	14	n/a	54	78	2	n/a	n/a	n/a	n/a	348.698	BM26HAS.jpg
320.668	0.514	Blank	Blank	19.862	n/a	3	9	14	n/a	54	n/a	2	n/a	n/a	n/a	n/a	349.196	n/a
321.198	0.497	happy	Picture	19.348	n/a	3	9	15	n/a	55	50	2	n/a	n/a	n/a	n/a	349.726	AF18HAS.jpg
321.696	0.514	Blank	Blank	18.835	n/a	3	9	15	n/a	55	n/a	2	n/a	n/a	n/a	n/a	350.224	n/a
322.226	0.497	happy	Picture	18.321	n/a	3	9	16	n/a	56	47	2	n/a	n/a	n/a	n/a	350.754	BF11HAS.jpg
322.724	0.514	Blank	Blank	17.807	n/a	3	9	16	n/a	56	n/a	2	n/a	n/a	n/a	n/a	351.251	n/a
323.254	0.497	happy	Picture	17.293	n/a	3	9	17	n/a	57	77	2	n/a	n/a	n/a	n/a	351.782	BM25HAS.jpg
323.752	0.514	Blank	Blank	16.779	n/a	3	9	17	n/a	57	n/a	2	n/a	n/a	n/a	n/a	352.279	n/a
324.282	0.497	happy	Picture	16.265	n/a	3	9	18	n/a	58	57	2	n/a	n/a	n/a	n/a	352.81	BF28HAS.jpg
324.779	0.514	Blank	Blank	15.751	n/a	3	9	18	n/a	58	n/a	2	n/a	n/a	n/a	n/a	353.307	n/a
325.31	0.497	happy	Picture	15.237	n/a	3	9	19	n/a	59	61	2	n/a	n/a	n/a	n/a	353.838	AM01HAS.jpg
325.807	0.514	Blank	Blank	14.723	n/a	3	9	19	n/a	59	n/a	2	n/a	n/a	n/a	n/a	354.335	n/a
326.338	0.497	happy	Picture	14.209	n/a	3	9	20	n/a	60	79	2	n/a	n/a	n/a	n/a	354.865	BM28HAS.jpg
326.835	0.514	Blank	Blank	13.695	n/a	3	9	20	n/a	60	n/a	2	n/a	n/a	n/a	n/a	355.363	n/a
327.366	10.014	ITI	Fixation+	3.665	n/a	3	n/a	n/a	n/a	n/a	n/a	n/a	n/a	n/a	n/a	n/a	355.893	n/a
341.044	n/a	ConfirmRating	Rate	n/a	3.664	3	n/a	n/a	0	n/a	n/a	n/a	2	Happy	79	53	369.572	n/a
345.058	n/a	ConfirmRating	Rate	n/a	3.995	3	n/a	n/a	1	n/a	n/a	n/a	3	Happy	16	47	373.586	n/a
345.089	10.014	ITI	Fixation+	94.793	n/a	4	n/a	n/a	n/a	n/a	n/a	n/a	n/a	n/a	n/a	n/a	373.616	n/a
355.119	0.497	angry	Picture	94.279	n/a	4	10	1	n/a	61	119	3	n/a	n/a	n/a	n/a	383.647	BM28ANS.jpg
355.616	0.514	Blank	Blank	93.765	n/a	4	10	1	n/a	61	n/a	3	n/a	n/a	n/a	n/a	384.144	n/a
356.147	0.497	angry	Picture	93.251	n/a	4	10	2	n/a	62	100	3	n/a	n/a	n/a	n/a	384.674	AF32ANS.jpg
356.644	0.514	Blank	Blank	92.737	n/a	4	10	2	n/a	62	n/a	3	n/a	n/a	n/a	n/a	385.172	n/a
357.175	0.497	angry	Picture	92.223	n/a	4	10	3	n/a	63	118	3	n/a	n/a	n/a	n/a	385.702	BM26ANS.jpg
357.672	0.514	Blank	Blank	91.709	n/a	4	10	3	n/a	63	n/a	3	n/a	n/a	n/a	n/a	386.2	n/a
358.202	0.497	angry	Picture	91.195	n/a	4	10	4	n/a	64	89	3	n/a	n/a	n/a	n/a	386.73	AF17ANS.jpg
358.7	0.514	Blank	Blank	90.681	n/a	4	10	4	n/a	64	n/a	3	n/a	n/a	n/a	n/a	387.228	n/a
359.23	0.497	angry	Picture	90.167	n/a	4	10	5	n/a	65	116	3	n/a	n/a	n/a	n/a	387.758	BM24ANS.jpg
359.728	0.514	Blank	Blank	89.654	n/a	4	10	5	n/a	65	n/a	3	n/a	n/a	n/a	n/a	388.255	n/a
360.258	0.497	angry	Picture	89.139	n/a	4	10	6	n/a	66	105	3	n/a	n/a	n/a	n/a	388.786	BM06ANS.jpg
360.756	0.514	Blank	Blank	88.626	n/a	4	10	6	n/a	66	n/a	3	n/a	n/a	n/a	n/a	389.283	n/a
361.286	0.497	angry	Picture	88.112	n/a	4	10	7	n/a	67	106	3	n/a	n/a	n/a	n/a	389.814	AM07ANS.jpg
361.784	0.514	Blank	Blank	87.598	n/a	4	10	7	n/a	67	n/a	3	n/a	n/a	n/a	n/a	390.311	n/a
362.314	0.497	angry	Picture	87.084	n/a	4	10	8	n/a	68	94	3	n/a	n/a	n/a	n/a	390.842	AF23ANS.jpg
362.811	0.514	Blank	Blank	86.57	n/a	4	10	8	n/a	68	n/a	3	n/a	n/a	n/a	n/a	391.339	n/a
363.342	0.497	angry	Picture	86.056	n/a	4	10	9	n/a	69	117	3	n/a	n/a	n/a	n/a	391.87	BM25ANS.jpg
363.839	0.514	Blank	Blank	85.542	n/a	4	10	9	n/a	69	n/a	3	n/a	n/a	n/a	n/a	392.367	n/a
364.37	0.497	angry	Picture	85.028	n/a	4	10	10	n/a	70	90	3	n/a	n/a	n/a	n/a	392.897	AF18ANS.jpg
364.867	0.514	Blank	Blank	84.514	n/a	4	10	10	n/a	70	n/a	3	n/a	n/a	n/a	n/a	393.395	n/a
365.398	0.497	angry	Picture	84.0	n/a	4	10	11	n/a	71	83	3	n/a	n/a	n/a	n/a	393.925	BF04ANS.jpg
365.895	0.514	Blank	Blank	83.486	n/a	4	10	11	n/a	71	n/a	3	n/a	n/a	n/a	n/a	394.423	n/a
366.426	0.497	angry	Picture	82.972	n/a	4	10	12	n/a	72	112	3	n/a	n/a	n/a	n/a	394.953	AM14ANS.jpg
366.923	0.514	Blank	Blank	82.458	n/a	4	10	12	n/a	72	n/a	3	n/a	n/a	n/a	n/a	395.451	n/a
367.454	0.497	angry	Picture	81.944	n/a	4	10	13	n/a	73	102	3	n/a	n/a	n/a	n/a	395.981	BM03ANS.jpg
367.951	0.514	Blank	Blank	81.43	n/a	4	10	13	n/a	73	n/a	3	n/a	n/a	n/a	n/a	396.478	n/a
368.481	0.497	angry	Picture	80.916	n/a	4	10	14	n/a	74	95	3	n/a	n/a	n/a	n/a	397.009	AF25ANS.jpg
368.979	0.514	Blank	Blank	80.402	n/a	4	10	14	n/a	74	n/a	3	n/a	n/a	n/a	n/a	397.506	n/a
369.509	0.497	angry	Picture	79.888	n/a	4	10	15	n/a	75	113	3	n/a	n/a	n/a	n/a	398.037	AM21ANS.jpg
370.007	0.514	Blank	Blank	79.375	n/a	4	10	15	n/a	75	n/a	3	n/a	n/a	n/a	n/a	398.534	n/a
370.537	0.497	angry	Picture	78.861	n/a	4	10	16	n/a	76	88	3	n/a	n/a	n/a	n/a	399.065	AF14ANS.jpg
371.035	0.514	Blank	Blank	78.347	n/a	4	10	16	n/a	76	n/a	3	n/a	n/a	n/a	n/a	399.562	n/a
371.565	0.497	angry	Picture	77.833	n/a	4	10	17	n/a	77	93	3	n/a	n/a	n/a	n/a	400.093	BF22ANS.jpg
372.062	0.514	Blank	Blank	77.319	n/a	4	10	17	n/a	77	n/a	3	n/a	n/a	n/a	n/a	400.59	n/a
372.593	0.497	angry	Picture	76.805	n/a	4	10	18	n/a	78	86	3	n/a	n/a	n/a	n/a	401.121	AF09ANS.jpg
373.09	0.514	Blank	Blank	76.291	n/a	4	10	18	n/a	78	n/a	3	n/a	n/a	n/a	n/a	401.618	n/a
373.621	0.497	angry	Picture	75.777	n/a	4	10	19	n/a	79	92	3	n/a	n/a	n/a	n/a	402.149	AF21ANS.jpg
374.118	0.514	Blank	Blank	75.263	n/a	4	10	19	n/a	79	n/a	3	n/a	n/a	n/a	n/a	402.646	n/a
374.649	0.497	angry	Picture	74.749	n/a	4	10	20	n/a	80	84	3	n/a	n/a	n/a	n/a	403.176	AF05ANS.jpg
375.146	0.514	Blank	Blank	74.235	n/a	4	10	20	n/a	80	n/a	3	n/a	n/a	n/a	n/a	403.674	n/a
375.677	10.014	ITI	Fixation+	64.205	n/a	4	n/a	n/a	n/a	n/a	n/a	n/a	n/a	n/a	n/a	n/a	404.204	n/a
385.707	0.497	neutral	Picture	63.691	n/a	4	11	1	n/a	81	4	1	n/a	n/a	n/a	n/a	414.235	AF05NES.jpg
386.204	0.514	Blank	Blank	63.177	n/a	4	11	1	n/a	81	n/a	1	n/a	n/a	n/a	n/a	414.732	n/a
386.735	0.497	neutral	Picture	62.663	n/a	4	11	2	n/a	82	14	1	n/a	n/a	n/a	n/a	415.262	AF23NES.jpg
387.232	0.514	Blank	Blank	62.149	n/a	4	11	2	n/a	82	n/a	1	n/a	n/a	n/a	n/a	415.76	n/a
387.763	0.497	neutral	Picture	61.635	n/a	4	11	3	n/a	83	19	1	n/a	n/a	n/a	n/a	416.29	AF31NES.jpg
388.26	0.514	Blank	Blank	61.121	n/a	4	11	3	n/a	83	n/a	1	n/a	n/a	n/a	n/a	416.788	n/a
388.791	0.497	neutral	Picture	60.607	n/a	4	11	4	n/a	84	8	1	n/a	n/a	n/a	n/a	417.318	AF14NES.jpg
389.288	0.514	Blank	Blank	60.093	n/a	4	11	4	n/a	84	n/a	1	n/a	n/a	n/a	n/a	417.815	n/a
389.818	0.497	neutral	Picture	59.579	n/a	4	11	5	n/a	85	25	1	n/a	n/a	n/a	n/a	418.346	BM06NES.jpg
390.316	0.514	Blank	Blank	59.065	n/a	4	11	5	n/a	85	n/a	1	n/a	n/a	n/a	n/a	418.843	n/a
390.846	0.497	neutral	Picture	58.551	n/a	4	11	6	n/a	86	9	1	n/a	n/a	n/a	n/a	419.374	AF17NES.jpg
391.344	0.514	Blank	Blank	58.037	n/a	4	11	6	n/a	86	n/a	1	n/a	n/a	n/a	n/a	419.871	n/a
391.874	0.497	neutral	Picture	57.524	n/a	4	11	7	n/a	87	2	1	n/a	n/a	n/a	n/a	420.402	AF03NES.jpg
392.372	0.514	Blank	Blank	57.01	n/a	4	11	7	n/a	87	n/a	1	n/a	n/a	n/a	n/a	420.899	n/a
392.902	0.497	neutral	Picture	56.496	n/a	4	11	8	n/a	88	17	1	n/a	n/a	n/a	n/a	421.43	BF28NES.jpg
393.399	0.514	Blank	Blank	55.982	n/a	4	11	8	n/a	88	n/a	1	n/a	n/a	n/a	n/a	421.927	n/a
393.93	0.497	neutral	Picture	55.468	n/a	4	11	9	n/a	89	6	1	n/a	n/a	n/a	n/a	422.458	AF09NES.jpg
394.427	0.514	Blank	Blank	54.954	n/a	4	11	9	n/a	89	n/a	1	n/a	n/a	n/a	n/a	422.955	n/a
394.958	0.497	neutral	Picture	54.44	n/a	4	11	10	n/a	90	12	1	n/a	n/a	n/a	n/a	423.486	AF21NES.jpg
395.455	0.514	Blank	Blank	53.926	n/a	4	11	10	n/a	90	n/a	1	n/a	n/a	n/a	n/a	423.983	n/a
395.986	0.497	neutral	Picture	53.412	n/a	4	11	11	n/a	91	24	1	n/a	n/a	n/a	n/a	424.513	BM05NES.jpg
396.483	0.514	Blank	Blank	52.898	n/a	4	11	11	n/a	91	n/a	1	n/a	n/a	n/a	n/a	425.011	n/a
397.014	0.497	neutral	Picture	52.384	n/a	4	11	12	n/a	92	34	1	n/a	n/a	n/a	n/a	425.541	AM22NES.jpg
397.511	0.514	Blank	Blank	51.87	n/a	4	11	12	n/a	92	n/a	1	n/a	n/a	n/a	n/a	426.039	n/a
398.042	0.497	neutral	Picture	51.356	n/a	4	11	13	n/a	93	23	1	n/a	n/a	n/a	n/a	426.569	AM04NES.jpg
398.539	0.514	Blank	Blank	50.842	n/a	4	11	13	n/a	93	n/a	1	n/a	n/a	n/a	n/a	427.067	n/a
399.069	0.497	neutral	Picture	50.328	n/a	4	11	14	n/a	94	15	1	n/a	n/a	n/a	n/a	427.597	AF25NES.jpg
399.567	0.514	Blank	Blank	49.814	n/a	4	11	14	n/a	94	n/a	1	n/a	n/a	n/a	n/a	428.094	n/a
400.097	0.497	neutral	Picture	49.3	n/a	4	11	15	n/a	95	37	1	n/a	n/a	n/a	n/a	428.625	BM25NES.jpg
400.595	0.514	Blank	Blank	48.786	n/a	4	11	15	n/a	95	n/a	1	n/a	n/a	n/a	n/a	429.122	n/a
401.125	0.497	neutral	Picture	48.273	n/a	4	11	16	n/a	96	32	1	n/a	n/a	n/a	n/a	429.653	AM14NES.jpg
401.623	0.514	Blank	Blank	47.759	n/a	4	11	16	n/a	96	n/a	1	n/a	n/a	n/a	n/a	430.15	n/a
402.153	0.497	neutral	Picture	47.245	n/a	4	11	17	n/a	97	3	1	n/a	n/a	n/a	n/a	430.681	BF04NES.jpg
402.65	0.514	Blank	Blank	46.731	n/a	4	11	17	n/a	97	n/a	1	n/a	n/a	n/a	n/a	431.178	n/a
403.181	0.497	neutral	Picture	46.217	n/a	4	11	18	n/a	98	16	1	n/a	n/a	n/a	n/a	431.709	AF26NES.jpg
403.678	0.514	Blank	Blank	45.703	n/a	4	11	18	n/a	98	n/a	1	n/a	n/a	n/a	n/a	432.206	n/a
404.209	0.497	neutral	Picture	45.189	n/a	4	11	19	n/a	99	27	1	n/a	n/a	n/a	n/a	432.736	BM08NES.jpg
404.706	0.514	Blank	Blank	44.675	n/a	4	11	19	n/a	99	n/a	1	n/a	n/a	n/a	n/a	433.234	n/a
405.237	0.497	neutral	Picture	44.161	n/a	4	11	20	n/a	100	28	1	n/a	n/a	n/a	n/a	433.764	AM09NES.jpg
405.734	0.514	Blank	Blank	43.647	n/a	4	11	20	n/a	100	n/a	1	n/a	n/a	n/a	n/a	434.262	n/a
406.265	10.014	ITI	Fixation+	33.617	n/a	4	n/a	n/a	n/a	n/a	n/a	n/a	n/a	n/a	n/a	n/a	434.792	n/a
416.295	0.497	angry	Picture	33.103	n/a	4	12	1	n/a	101	81	3	n/a	n/a	n/a	n/a	444.822	AF01ANS.jpg
416.792	0.514	Blank	Blank	32.589	n/a	4	12	1	n/a	101	n/a	3	n/a	n/a	n/a	n/a	445.32	n/a
417.323	0.497	angry	Picture	32.075	n/a	4	12	2	n/a	102	120	3	n/a	n/a	n/a	n/a	445.85	AM35ANS.jpg
417.82	0.514	Blank	Blank	31.561	n/a	4	12	2	n/a	102	n/a	3	n/a	n/a	n/a	n/a	446.348	n/a
418.351	0.497	angry	Picture	31.047	n/a	4	12	3	n/a	103	114	3	n/a	n/a	n/a	n/a	446.878	AM22ANS.jpg
418.848	0.514	Blank	Blank	30.533	n/a	4	12	3	n/a	103	n/a	3	n/a	n/a	n/a	n/a	447.376	n/a
419.379	0.497	angry	Picture	30.019	n/a	4	12	4	n/a	104	109	3	n/a	n/a	n/a	n/a	447.906	AM10ANS.jpg
419.876	0.514	Blank	Blank	29.505	n/a	4	12	4	n/a	104	n/a	3	n/a	n/a	n/a	n/a	448.404	n/a
420.406	0.497	angry	Picture	28.991	n/a	4	12	5	n/a	105	96	3	n/a	n/a	n/a	n/a	448.934	AF26ANS.jpg
420.904	0.514	Blank	Blank	28.477	n/a	4	12	5	n/a	105	n/a	3	n/a	n/a	n/a	n/a	449.432	n/a
421.434	0.497	angry	Picture	27.964	n/a	4	12	6	n/a	106	82	3	n/a	n/a	n/a	n/a	449.962	AF03ANS.jpg
421.932	0.514	Blank	Blank	27.45	n/a	4	12	6	n/a	106	n/a	3	n/a	n/a	n/a	n/a	450.459	n/a
422.462	0.497	angry	Picture	26.936	n/a	4	12	7	n/a	107	97	3	n/a	n/a	n/a	n/a	450.99	BF28ANS.jpg
422.959	0.514	Blank	Blank	26.422	n/a	4	12	7	n/a	107	n/a	3	n/a	n/a	n/a	n/a	451.487	n/a
423.49	0.497	angry	Picture	25.908	n/a	4	12	8	n/a	108	115	3	n/a	n/a	n/a	n/a	452.018	AM23ANS.jpg
423.987	0.514	Blank	Blank	25.394	n/a	4	12	8	n/a	108	n/a	3	n/a	n/a	n/a	n/a	452.515	n/a
424.518	0.497	angry	Picture	24.88	n/a	4	12	9	n/a	109	91	3	n/a	n/a	n/a	n/a	453.046	AF20ANS.jpg
425.015	0.514	Blank	Blank	24.366	n/a	4	12	9	n/a	109	n/a	3	n/a	n/a	n/a	n/a	453.543	n/a
425.546	0.497	angry	Picture	23.852	n/a	4	12	10	n/a	110	87	3	n/a	n/a	n/a	n/a	454.074	BF11ANS.jpg
426.043	0.514	Blank	Blank	23.338	n/a	4	12	10	n/a	110	n/a	3	n/a	n/a	n/a	n/a	454.571	n/a
426.574	0.497	angry	Picture	22.824	n/a	4	12	11	n/a	111	85	3	n/a	n/a	n/a	n/a	455.101	BF07ANS.jpg
427.071	0.514	Blank	Blank	22.31	n/a	4	12	11	n/a	111	n/a	3	n/a	n/a	n/a	n/a	455.599	n/a
427.602	0.497	angry	Picture	21.796	n/a	4	12	12	n/a	112	110	3	n/a	n/a	n/a	n/a	456.129	AM11ANS.jpg
428.099	0.514	Blank	Blank	21.282	n/a	4	12	12	n/a	112	n/a	3	n/a	n/a	n/a	n/a	456.627	n/a
428.63	0.497	angry	Picture	20.768	n/a	4	12	13	n/a	113	111	3	n/a	n/a	n/a	n/a	457.157	BM12ANS.jpg
429.127	0.514	Blank	Blank	20.254	n/a	4	12	13	n/a	113	n/a	3	n/a	n/a	n/a	n/a	457.655	n/a
429.657	0.497	angry	Picture	19.74	n/a	4	12	14	n/a	114	103	3	n/a	n/a	n/a	n/a	458.185	AM04ANS.jpg
430.155	0.514	Blank	Blank	19.226	n/a	4	12	14	n/a	114	n/a	3	n/a	n/a	n/a	n/a	458.683	n/a
430.685	0.497	angry	Picture	18.712	n/a	4	12	15	n/a	115	101	3	n/a	n/a	n/a	n/a	459.213	AM01ANS.jpg
431.183	0.514	Blank	Blank	18.199	n/a	4	12	15	n/a	115	n/a	3	n/a	n/a	n/a	n/a	459.71	n/a
431.713	0.497	angry	Picture	17.685	n/a	4	12	16	n/a	116	104	3	n/a	n/a	n/a	n/a	460.241	BM05ANS.jpg
432.211	0.514	Blank	Blank	17.171	n/a	4	12	16	n/a	116	n/a	3	n/a	n/a	n/a	n/a	460.738	n/a
432.741	0.497	angry	Picture	16.657	n/a	4	12	17	n/a	117	107	3	n/a	n/a	n/a	n/a	461.269	BM08ANS.jpg
433.238	0.514	Blank	Blank	16.143	n/a	4	12	17	n/a	117	n/a	3	n/a	n/a	n/a	n/a	461.766	n/a
433.769	0.497	angry	Picture	15.629	n/a	4	12	18	n/a	118	98	3	n/a	n/a	n/a	n/a	462.297	BF29ANS.jpg
434.266	0.514	Blank	Blank	15.115	n/a	4	12	18	n/a	118	n/a	3	n/a	n/a	n/a	n/a	462.794	n/a
434.797	0.497	angry	Picture	14.601	n/a	4	12	19	n/a	119	99	3	n/a	n/a	n/a	n/a	463.325	AF31ANS.jpg
435.294	0.514	Blank	Blank	14.087	n/a	4	12	19	n/a	119	n/a	3	n/a	n/a	n/a	n/a	463.822	n/a
435.825	0.497	angry	Picture	13.573	n/a	4	12	20	n/a	120	108	3	n/a	n/a	n/a	n/a	464.352	AM09ANS.jpg
436.322	0.514	Blank	Blank	13.059	n/a	4	12	20	n/a	120	n/a	3	n/a	n/a	n/a	n/a	464.85	n/a
436.853	10.014	ITI	Fixation+	3.029	n/a	4	n/a	n/a	n/a	n/a	n/a	n/a	n/a	n/a	n/a	n/a	465.38	n/a
449.895	n/a	ConfirmRating	Rate	n/a	3.017	4	n/a	n/a	0	n/a	n/a	n/a	2	Angry	63	51	478.423	n/a
452.916	n/a	ConfirmRating	Rate	n/a	3.001	4	n/a	n/a	1	n/a	n/a	n/a	3	Angry	19	47	481.444	n/a
