onset	duration	trial_type	event_type	time_until_response	response_time	trial_number	block_num_within_trial	image_seq_num_within_block	question_seq_num_within_block	image_seq_num	picture_number	condition	question_type	block_type	rating	rating_computed	onset_uncorrected	KDEV_imagefile
0.004	10.014	ITI	Fixation+	96.182	n/a	1	n/a	n/a	n/a	n/a	n/a	n/a	n/a	n/a	n/a	n/a	29.422	n/a
10.034	0.497	angry	Picture	95.668	n/a	1	1	1	n/a	1	108	3	n/a	n/a	n/a	n/a	39.452	AM09ANS.jpg
10.531	0.514	Blank	Blank	95.154	n/a	1	1	1	n/a	1	n/a	3	n/a	n/a	n/a	n/a	39.949	n/a
11.062	0.497	angry	Picture	94.641	n/a	1	1	2	n/a	2	99	3	n/a	n/a	n/a	n/a	40.48	AF31ANS.jpg
11.559	0.514	Blank	Blank	94.126	n/a	1	1	2	n/a	2	n/a	3	n/a	n/a	n/a	n/a	40.977	n/a
12.09	0.497	angry	Picture	93.613	n/a	1	1	3	n/a	3	98	3	n/a	n/a	n/a	n/a	41.508	BF29ANS.jpg
12.587	0.514	Blank	Blank	93.099	n/a	1	1	3	n/a	3	n/a	3	n/a	n/a	n/a	n/a	42.005	n/a
13.118	0.497	angry	Picture	92.585	n/a	1	1	4	n/a	4	107	3	n/a	n/a	n/a	n/a	42.536	BM08ANS.jpg
13.615	0.514	Blank	Blank	92.071	n/a	1	1	4	n/a	4	n/a	3	n/a	n/a	n/a	n/a	43.033	n/a
14.146	0.497	angry	Picture	91.557	n/a	1	1	5	n/a	5	104	3	n/a	n/a	n/a	n/a	43.564	BM05ANS.jpg
14.643	0.514	Blank	Blank	91.043	n/a	1	1	5	n/a	5	n/a	3	n/a	n/a	n/a	n/a	44.061	n/a
15.173	0.497	angry	Picture	90.529	n/a	1	1	6	n/a	6	101	3	n/a	n/a	n/a	n/a	44.592	AM01ANS.jpg
15.671	0.514	Blank	Blank	90.015	n/a	1	1	6	n/a	6	n/a	3	n/a	n/a	n/a	n/a	45.089	n/a
16.201	0.497	angry	Picture	89.501	n/a	1	1	7	n/a	7	103	3	n/a	n/a	n/a	n/a	45.619	AM04ANS.jpg
16.699	0.514	Blank	Blank	88.987	n/a	1	1	7	n/a	7	n/a	3	n/a	n/a	n/a	n/a	46.117	n/a
17.229	0.497	angry	Picture	88.473	n/a	1	1	8	n/a	8	111	3	n/a	n/a	n/a	n/a	46.647	BM12ANS.jpg
17.726	0.514	Blank	Blank	87.959	n/a	1	1	8	n/a	8	n/a	3	n/a	n/a	n/a	n/a	47.145	n/a
18.257	0.497	angry	Picture	87.445	n/a	1	1	9	n/a	9	110	3	n/a	n/a	n/a	n/a	47.675	AM11ANS.jpg
18.754	0.514	Blank	Blank	86.931	n/a	1	1	9	n/a	9	n/a	3	n/a	n/a	n/a	n/a	48.172	n/a
19.285	0.497	angry	Picture	86.417	n/a	1	1	10	n/a	10	85	3	n/a	n/a	n/a	n/a	48.703	BF07ANS.jpg
19.782	0.514	Blank	Blank	85.903	n/a	1	1	10	n/a	10	n/a	3	n/a	n/a	n/a	n/a	49.2	n/a
20.313	0.497	angry	Picture	85.389	n/a	1	1	11	n/a	11	87	3	n/a	n/a	n/a	n/a	49.731	BF11ANS.jpg
20.81	0.514	Blank	Blank	84.876	n/a	1	1	11	n/a	11	n/a	3	n/a	n/a	n/a	n/a	50.228	n/a
21.341	0.497	angry	Picture	84.362	n/a	1	1	12	n/a	12	91	3	n/a	n/a	n/a	n/a	50.759	AF20ANS.jpg
21.838	0.514	Blank	Blank	83.848	n/a	1	1	12	n/a	12	n/a	3	n/a	n/a	n/a	n/a	51.256	n/a
22.369	0.497	angry	Picture	83.334	n/a	1	1	13	n/a	13	115	3	n/a	n/a	n/a	n/a	51.787	AM23ANS.jpg
22.866	0.514	Blank	Blank	82.82	n/a	1	1	13	n/a	13	n/a	3	n/a	n/a	n/a	n/a	52.284	n/a
23.396	0.497	angry	Picture	82.306	n/a	1	1	14	n/a	14	97	3	n/a	n/a	n/a	n/a	52.815	BF28ANS.jpg
23.894	0.514	Blank	Blank	81.792	n/a	1	1	14	n/a	14	n/a	3	n/a	n/a	n/a	n/a	53.312	n/a
24.424	0.497	angry	Picture	81.278	n/a	1	1	15	n/a	15	82	3	n/a	n/a	n/a	n/a	53.842	AF03ANS.jpg
24.922	0.514	Blank	Blank	80.764	n/a	1	1	15	n/a	15	n/a	3	n/a	n/a	n/a	n/a	54.34	n/a
25.452	0.497	angry	Picture	80.25	n/a	1	1	16	n/a	16	96	3	n/a	n/a	n/a	n/a	54.87	AF26ANS.jpg
25.95	0.514	Blank	Blank	79.736	n/a	1	1	16	n/a	16	n/a	3	n/a	n/a	n/a	n/a	55.368	n/a
26.48	0.497	angry	Picture	79.222	n/a	1	1	17	n/a	17	109	3	n/a	n/a	n/a	n/a	55.898	AM10ANS.jpg
26.977	0.514	Blank	Blank	78.708	n/a	1	1	17	n/a	17	n/a	3	n/a	n/a	n/a	n/a	56.395	n/a
27.508	0.497	angry	Picture	78.194	n/a	1	1	18	n/a	18	114	3	n/a	n/a	n/a	n/a	56.926	AM22ANS.jpg
28.005	0.514	Blank	Blank	77.68	n/a	1	1	18	n/a	18	n/a	3	n/a	n/a	n/a	n/a	57.423	n/a
28.536	0.497	angry	Picture	77.166	n/a	1	1	19	n/a	19	120	3	n/a	n/a	n/a	n/a	57.954	AM35ANS.jpg
29.033	0.514	Blank	Blank	76.652	n/a	1	1	19	n/a	19	n/a	3	n/a	n/a	n/a	n/a	58.451	n/a
29.564	0.497	angry	Picture	76.139	n/a	1	1	20	n/a	20	81	3	n/a	n/a	n/a	n/a	58.982	AF01ANS.jpg
30.061	0.514	Blank	Blank	75.625	n/a	1	1	20	n/a	20	n/a	3	n/a	n/a	n/a	n/a	59.479	n/a
30.592	10.014	ITI	Fixation+	65.594	n/a	1	n/a	n/a	n/a	n/a	n/a	n/a	n/a	n/a	n/a	n/a	60.01	n/a
40.622	0.497	neutral	Picture	65.081	n/a	1	2	1	n/a	21	28	1	n/a	n/a	n/a	n/a	70.04	AM09NES.jpg
41.119	0.514	Blank	Blank	64.567	n/a	1	2	1	n/a	21	n/a	1	n/a	n/a	n/a	n/a	70.537	n/a
41.65	0.497	neutral	Picture	64.053	n/a	1	2	2	n/a	22	27	1	n/a	n/a	n/a	n/a	71.068	BM08NES.jpg
42.147	0.514	Blank	Blank	63.539	n/a	1	2	2	n/a	22	n/a	1	n/a	n/a	n/a	n/a	71.565	n/a
42.678	0.497	neutral	Picture	63.025	n/a	1	2	3	n/a	23	16	1	n/a	n/a	n/a	n/a	72.096	AF26NES.jpg
43.175	0.514	Blank	Blank	62.511	n/a	1	2	3	n/a	23	n/a	1	n/a	n/a	n/a	n/a	72.593	n/a
43.705	0.497	neutral	Picture	61.997	n/a	1	2	4	n/a	24	3	1	n/a	n/a	n/a	n/a	73.124	BF04NES.jpg
44.203	0.514	Blank	Blank	61.483	n/a	1	2	4	n/a	24	n/a	1	n/a	n/a	n/a	n/a	73.621	n/a
44.733	0.497	neutral	Picture	60.969	n/a	1	2	5	n/a	25	32	1	n/a	n/a	n/a	n/a	74.151	AM14NES.jpg
45.231	0.514	Blank	Blank	60.455	n/a	1	2	5	n/a	25	n/a	1	n/a	n/a	n/a	n/a	74.649	n/a
45.761	0.497	neutral	Picture	59.941	n/a	1	2	6	n/a	26	37	1	n/a	n/a	n/a	n/a	75.179	BM25NES.jpg
46.258	0.514	Blank	Blank	59.427	n/a	1	2	6	n/a	26	n/a	1	n/a	n/a	n/a	n/a	75.677	n/a
46.789	0.497	neutral	Picture	58.913	n/a	1	2	7	n/a	27	15	1	n/a	n/a	n/a	n/a	76.207	AF25NES.jpg
47.286	0.514	Blank	Blank	58.399	n/a	1	2	7	n/a	27	n/a	1	n/a	n/a	n/a	n/a	76.704	n/a
47.817	0.497	neutral	Picture	57.885	n/a	1	2	8	n/a	28	23	1	n/a	n/a	n/a	n/a	77.235	AM04NES.jpg
48.314	0.514	Blank	Blank	57.371	n/a	1	2	8	n/a	28	n/a	1	n/a	n/a	n/a	n/a	77.732	n/a
48.845	0.497	neutral	Picture	56.857	n/a	1	2	9	n/a	29	34	1	n/a	n/a	n/a	n/a	78.263	AM22NES.jpg
49.342	0.514	Blank	Blank	56.344	n/a	1	2	9	n/a	29	n/a	1	n/a	n/a	n/a	n/a	78.76	n/a
49.873	0.497	neutral	Picture	55.83	n/a	1	2	10	n/a	30	24	1	n/a	n/a	n/a	n/a	79.291	BM05NES.jpg
50.37	0.514	Blank	Blank	55.316	n/a	1	2	10	n/a	30	n/a	1	n/a	n/a	n/a	n/a	79.788	n/a
50.901	0.497	neutral	Picture	54.802	n/a	1	2	11	n/a	31	12	1	n/a	n/a	n/a	n/a	80.319	AF21NES.jpg
51.398	0.514	Blank	Blank	54.288	n/a	1	2	11	n/a	31	n/a	1	n/a	n/a	n/a	n/a	80.816	n/a
51.928	0.497	neutral	Picture	53.774	n/a	1	2	12	n/a	32	6	1	n/a	n/a	n/a	n/a	81.347	AF09NES.jpg
52.426	0.514	Blank	Blank	53.26	n/a	1	2	12	n/a	32	n/a	1	n/a	n/a	n/a	n/a	81.844	n/a
52.956	0.497	neutral	Picture	52.746	n/a	1	2	13	n/a	33	17	1	n/a	n/a	n/a	n/a	82.374	BF28NES.jpg
53.454	0.514	Blank	Blank	52.232	n/a	1	2	13	n/a	33	n/a	1	n/a	n/a	n/a	n/a	82.872	n/a
53.984	0.497	neutral	Picture	51.718	n/a	1	2	14	n/a	34	2	1	n/a	n/a	n/a	n/a	83.402	AF03NES.jpg
54.482	0.514	Blank	Blank	51.204	n/a	1	2	14	n/a	34	n/a	1	n/a	n/a	n/a	n/a	83.9	n/a
55.012	0.497	neutral	Picture	50.69	n/a	1	2	15	n/a	35	9	1	n/a	n/a	n/a	n/a	84.43	AF17NES.jpg
55.51	0.514	Blank	Blank	50.176	n/a	1	2	15	n/a	35	n/a	1	n/a	n/a	n/a	n/a	84.928	n/a
56.04	0.497	neutral	Picture	49.662	n/a	1	2	16	n/a	36	25	1	n/a	n/a	n/a	n/a	85.458	BM06NES.jpg
56.537	0.514	Blank	Blank	49.148	n/a	1	2	16	n/a	36	n/a	1	n/a	n/a	n/a	n/a	85.956	n/a
57.068	0.497	neutral	Picture	48.634	n/a	1	2	17	n/a	37	8	1	n/a	n/a	n/a	n/a	86.486	AF14NES.jpg
57.565	0.514	Blank	Blank	48.12	n/a	1	2	17	n/a	37	n/a	1	n/a	n/a	n/a	n/a	86.983	n/a
58.096	0.497	neutral	Picture	47.607	n/a	1	2	18	n/a	38	19	1	n/a	n/a	n/a	n/a	87.514	AF31NES.jpg
58.593	0.514	Blank	Blank	47.093	n/a	1	2	18	n/a	38	n/a	1	n/a	n/a	n/a	n/a	88.011	n/a
59.124	0.497	neutral	Picture	46.579	n/a	1	2	19	n/a	39	14	1	n/a	n/a	n/a	n/a	88.542	AF23NES.jpg
59.621	0.514	Blank	Blank	46.065	n/a	1	2	19	n/a	39	n/a	1	n/a	n/a	n/a	n/a	89.039	n/a
60.151	0.497	neutral	Picture	45.551	n/a	1	2	20	n/a	40	4	1	n/a	n/a	n/a	n/a	89.57	AF05NES.jpg
60.649	0.514	Blank	Blank	45.037	n/a	1	2	20	n/a	40	n/a	1	n/a	n/a	n/a	n/a	90.067	n/a
61.179	10.014	ITI	Fixation+	35.007	n/a	1	n/a	n/a	n/a	n/a	n/a	n/a	n/a	n/a	n/a	n/a	90.597	n/a
71.21	0.497	angry	Picture	34.493	n/a	1	3	1	n/a	41	84	3	n/a	n/a	n/a	n/a	100.628	AF05ANS.jpg
71.707	0.514	Blank	Blank	33.979	n/a	1	3	1	n/a	41	n/a	3	n/a	n/a	n/a	n/a	101.125	n/a
72.237	0.497	angry	Picture	33.465	n/a	1	3	2	n/a	42	92	3	n/a	n/a	n/a	n/a	101.656	AF21ANS.jpg
72.735	0.514	Blank	Blank	32.951	n/a	1	3	2	n/a	42	n/a	3	n/a	n/a	n/a	n/a	102.153	n/a
73.265	0.497	angry	Picture	32.437	n/a	1	3	3	n/a	43	86	3	n/a	n/a	n/a	n/a	102.683	AF09ANS.jpg
73.763	0.514	Blank	Blank	31.923	n/a	1	3	3	n/a	43	n/a	3	n/a	n/a	n/a	n/a	103.181	n/a
74.293	0.497	angry	Picture	31.409	n/a	1	3	4	n/a	44	93	3	n/a	n/a	n/a	n/a	103.711	BF22ANS.jpg
74.791	0.514	Blank	Blank	30.895	n/a	1	3	4	n/a	44	n/a	3	n/a	n/a	n/a	n/a	104.209	n/a
75.321	0.497	angry	Picture	30.381	n/a	1	3	5	n/a	45	88	3	n/a	n/a	n/a	n/a	104.739	AF14ANS.jpg
75.818	0.514	Blank	Blank	29.867	n/a	1	3	5	n/a	45	n/a	3	n/a	n/a	n/a	n/a	105.237	n/a
76.349	0.497	angry	Picture	29.353	n/a	1	3	6	n/a	46	113	3	n/a	n/a	n/a	n/a	105.767	AM21ANS.jpg
76.846	0.514	Blank	Blank	28.839	n/a	1	3	6	n/a	46	n/a	3	n/a	n/a	n/a	n/a	106.264	n/a
77.377	0.497	angry	Picture	28.325	n/a	1	3	7	n/a	47	95	3	n/a	n/a	n/a	n/a	106.795	AF25ANS.jpg
77.874	0.514	Blank	Blank	27.811	n/a	1	3	7	n/a	47	n/a	3	n/a	n/a	n/a	n/a	107.292	n/a
78.405	0.497	angry	Picture	27.298	n/a	1	3	8	n/a	48	102	3	n/a	n/a	n/a	n/a	107.823	BM03ANS.jpg
78.902	0.514	Blank	Blank	26.784	n/a	1	3	8	n/a	48	n/a	3	n/a	n/a	n/a	n/a	108.32	n/a
79.433	0.497	angry	Picture	26.27	n/a	1	3	9	n/a	49	112	3	n/a	n/a	n/a	n/a	108.851	AM14ANS.jpg
79.93	0.514	Blank	Blank	25.756	n/a	1	3	9	n/a	49	n/a	3	n/a	n/a	n/a	n/a	109.348	n/a
80.461	0.497	angry	Picture	25.242	n/a	1	3	10	n/a	50	83	3	n/a	n/a	n/a	n/a	109.879	BF04ANS.jpg
80.958	0.514	Blank	Blank	24.728	n/a	1	3	10	n/a	50	n/a	3	n/a	n/a	n/a	n/a	110.376	n/a
81.488	0.497	angry	Picture	24.214	n/a	1	3	11	n/a	51	90	3	n/a	n/a	n/a	n/a	110.906	AF18ANS.jpg
81.986	0.514	Blank	Blank	23.7	n/a	1	3	11	n/a	51	n/a	3	n/a	n/a	n/a	n/a	111.404	n/a
82.516	0.497	angry	Picture	23.186	n/a	1	3	12	n/a	52	117	3	n/a	n/a	n/a	n/a	111.934	BM25ANS.jpg
83.014	0.514	Blank	Blank	22.672	n/a	1	3	12	n/a	52	n/a	3	n/a	n/a	n/a	n/a	112.432	n/a
83.544	0.497	angry	Picture	22.158	n/a	1	3	13	n/a	53	94	3	n/a	n/a	n/a	n/a	112.962	AF23ANS.jpg
84.041	0.514	Blank	Blank	21.644	n/a	1	3	13	n/a	53	n/a	3	n/a	n/a	n/a	n/a	113.46	n/a
84.572	0.497	angry	Picture	21.13	n/a	1	3	14	n/a	54	106	3	n/a	n/a	n/a	n/a	113.99	AM07ANS.jpg
85.069	0.514	Blank	Blank	20.616	n/a	1	3	14	n/a	54	n/a	3	n/a	n/a	n/a	n/a	114.487	n/a
85.6	0.497	angry	Picture	20.102	n/a	1	3	15	n/a	55	105	3	n/a	n/a	n/a	n/a	115.018	BM06ANS.jpg
86.097	0.514	Blank	Blank	19.588	n/a	1	3	15	n/a	55	n/a	3	n/a	n/a	n/a	n/a	115.515	n/a
86.628	0.497	angry	Picture	19.075	n/a	1	3	16	n/a	56	116	3	n/a	n/a	n/a	n/a	116.046	BM24ANS.jpg
87.125	0.514	Blank	Blank	18.561	n/a	1	3	16	n/a	56	n/a	3	n/a	n/a	n/a	n/a	116.543	n/a
87.656	0.497	angry	Picture	18.047	n/a	1	3	17	n/a	57	89	3	n/a	n/a	n/a	n/a	117.074	AF17ANS.jpg
88.153	0.514	Blank	Blank	17.533	n/a	1	3	17	n/a	57	n/a	3	n/a	n/a	n/a	n/a	117.571	n/a
88.684	0.497	angry	Picture	17.019	n/a	1	3	18	n/a	58	118	3	n/a	n/a	n/a	n/a	118.102	BM26ANS.jpg
89.181	0.514	Blank	Blank	16.505	n/a	1	3	18	n/a	58	n/a	3	n/a	n/a	n/a	n/a	118.599	n/a
89.711	0.497	angry	Picture	15.991	n/a	1	3	19	n/a	59	100	3	n/a	n/a	n/a	n/a	119.129	AF32ANS.jpg
90.209	0.514	Blank	Blank	15.477	n/a	1	3	19	n/a	59	n/a	3	n/a	n/a	n/a	n/a	119.627	n/a
90.739	0.497	angry	Picture	14.963	n/a	1	3	20	n/a	60	119	3	n/a	n/a	n/a	n/a	120.157	BM28ANS.jpg
91.237	0.514	Blank	Blank	14.449	n/a	1	3	20	n/a	60	n/a	3	n/a	n/a	n/a	n/a	120.655	n/a
91.767	10.014	ITI	Fixation+	4.419	n/a	1	n/a	n/a	n/a	n/a	n/a	n/a	n/a	n/a	n/a	n/a	121.185	n/a
106.2	n/a	ConfirmRating	Rate	n/a	4.41	1	n/a	n/a	0	n/a	n/a	n/a	2	Angry	74	51	135.618	n/a
112.535	n/a	ConfirmRating	Rate	n/a	6.316	1	n/a	n/a	1	n/a	n/a	n/a	3	Angry	70	51	141.954	n/a
112.557	10.014	ITI	Fixation+	95.3	n/a	2	n/a	n/a	n/a	n/a	n/a	n/a	n/a	n/a	n/a	n/a	141.975	n/a
122.587	0.497	happy	Picture	94.786	n/a	2	4	1	n/a	61	79	2	n/a	n/a	n/a	n/a	152.005	BM28HAS.jpg
123.085	0.514	Blank	Blank	94.272	n/a	2	4	1	n/a	61	n/a	2	n/a	n/a	n/a	n/a	152.503	n/a
123.615	0.497	happy	Picture	93.758	n/a	2	4	2	n/a	62	61	2	n/a	n/a	n/a	n/a	153.033	AM01HAS.jpg
124.112	0.514	Blank	Blank	93.244	n/a	2	4	2	n/a	62	n/a	2	n/a	n/a	n/a	n/a	153.53	n/a
124.643	0.497	happy	Picture	92.73	n/a	2	4	3	n/a	63	57	2	n/a	n/a	n/a	n/a	154.061	BF28HAS.jpg
125.14	0.514	Blank	Blank	92.216	n/a	2	4	3	n/a	63	n/a	2	n/a	n/a	n/a	n/a	154.558	n/a
125.671	0.497	happy	Picture	91.703	n/a	2	4	4	n/a	64	77	2	n/a	n/a	n/a	n/a	155.089	BM25HAS.jpg
126.168	0.514	Blank	Blank	91.189	n/a	2	4	4	n/a	64	n/a	2	n/a	n/a	n/a	n/a	155.586	n/a
126.699	0.497	happy	Picture	90.675	n/a	2	4	5	n/a	65	47	2	n/a	n/a	n/a	n/a	156.117	BF11HAS.jpg
127.196	0.514	Blank	Blank	90.161	n/a	2	4	5	n/a	65	n/a	2	n/a	n/a	n/a	n/a	156.614	n/a
127.727	0.497	happy	Picture	89.647	n/a	2	4	6	n/a	66	50	2	n/a	n/a	n/a	n/a	157.145	AF18HAS.jpg
128.224	0.514	Blank	Blank	89.133	n/a	2	4	6	n/a	66	n/a	2	n/a	n/a	n/a	n/a	157.642	n/a
128.754	0.497	happy	Picture	88.619	n/a	2	4	7	n/a	67	78	2	n/a	n/a	n/a	n/a	158.173	BM26HAS.jpg
129.252	0.514	Blank	Blank	88.105	n/a	2	4	7	n/a	67	n/a	2	n/a	n/a	n/a	n/a	158.67	n/a
129.782	0.497	happy	Picture	87.591	n/a	2	4	8	n/a	68	45	2	n/a	n/a	n/a	n/a	159.2	BF07HAS.jpg
130.28	0.514	Blank	Blank	87.077	n/a	2	4	8	n/a	68	n/a	2	n/a	n/a	n/a	n/a	159.698	n/a
130.81	0.497	happy	Picture	86.563	n/a	2	4	9	n/a	69	56	2	n/a	n/a	n/a	n/a	160.228	AF26HAS.jpg
131.307	0.514	Blank	Blank	86.049	n/a	2	4	9	n/a	69	n/a	2	n/a	n/a	n/a	n/a	160.726	n/a
131.838	0.497	happy	Picture	85.535	n/a	2	4	10	n/a	70	65	2	n/a	n/a	n/a	n/a	161.256	BM06HAS.jpg
132.335	0.514	Blank	Blank	85.021	n/a	2	4	10	n/a	70	n/a	2	n/a	n/a	n/a	n/a	161.754	n/a
132.866	0.497	happy	Picture	84.507	n/a	2	4	11	n/a	71	73	2	n/a	n/a	n/a	n/a	162.284	AM21HAS.jpg
133.363	0.514	Blank	Blank	83.993	n/a	2	4	11	n/a	71	n/a	2	n/a	n/a	n/a	n/a	162.781	n/a
133.894	0.497	happy	Picture	83.479	n/a	2	4	12	n/a	72	41	2	n/a	n/a	n/a	n/a	163.312	AF01HAS.jpg
134.391	0.514	Blank	Blank	82.965	n/a	2	4	12	n/a	72	n/a	2	n/a	n/a	n/a	n/a	163.809	n/a
134.922	0.497	happy	Picture	82.452	n/a	2	4	13	n/a	73	59	2	n/a	n/a	n/a	n/a	164.34	AF31HAS.jpg
135.419	0.514	Blank	Blank	81.938	n/a	2	4	13	n/a	73	n/a	2	n/a	n/a	n/a	n/a	164.837	n/a
135.95	0.497	happy	Picture	81.424	n/a	2	4	14	n/a	74	64	2	n/a	n/a	n/a	n/a	165.368	BM05HAS.jpg
136.447	0.514	Blank	Blank	80.91	n/a	2	4	14	n/a	74	n/a	2	n/a	n/a	n/a	n/a	165.865	n/a
136.977	0.497	happy	Picture	80.396	n/a	2	4	15	n/a	75	68	2	n/a	n/a	n/a	n/a	166.395	AM09HAS.jpg
137.475	0.514	Blank	Blank	79.882	n/a	2	4	15	n/a	75	n/a	2	n/a	n/a	n/a	n/a	166.893	n/a
138.005	0.497	happy	Picture	79.368	n/a	2	4	16	n/a	76	54	2	n/a	n/a	n/a	n/a	167.423	AF23HAS.jpg
138.503	0.514	Blank	Blank	78.854	n/a	2	4	16	n/a	76	n/a	2	n/a	n/a	n/a	n/a	167.921	n/a
139.033	0.497	happy	Picture	78.34	n/a	2	4	17	n/a	77	53	2	n/a	n/a	n/a	n/a	168.451	BF22HAS.jpg
139.531	0.514	Blank	Blank	77.826	n/a	2	4	17	n/a	77	n/a	2	n/a	n/a	n/a	n/a	168.949	n/a
140.061	0.497	happy	Picture	77.312	n/a	2	4	18	n/a	78	44	2	n/a	n/a	n/a	n/a	169.479	AF05HAS.jpg
140.558	0.514	Blank	Blank	76.798	n/a	2	4	18	n/a	78	n/a	2	n/a	n/a	n/a	n/a	169.976	n/a
141.089	0.497	happy	Picture	76.284	n/a	2	4	19	n/a	79	52	2	n/a	n/a	n/a	n/a	170.507	AF21HAS.jpg
141.586	0.514	Blank	Blank	75.77	n/a	2	4	19	n/a	79	n/a	2	n/a	n/a	n/a	n/a	171.004	n/a
142.117	0.497	happy	Picture	75.256	n/a	2	4	20	n/a	80	62	2	n/a	n/a	n/a	n/a	171.535	BM03HAS.jpg
142.614	0.514	Blank	Blank	74.742	n/a	2	4	20	n/a	80	n/a	2	n/a	n/a	n/a	n/a	172.032	n/a
143.145	10.014	ITI	Fixation+	64.712	n/a	2	n/a	n/a	n/a	n/a	n/a	n/a	n/a	n/a	n/a	n/a	172.563	n/a
153.175	0.497	neutral	Picture	64.198	n/a	2	5	1	n/a	81	23	1	n/a	n/a	n/a	n/a	182.593	AM04NES.jpg
153.672	0.514	Blank	Blank	63.684	n/a	2	5	1	n/a	81	n/a	1	n/a	n/a	n/a	n/a	183.09	n/a
154.203	0.497	neutral	Picture	63.171	n/a	2	5	2	n/a	82	29	1	n/a	n/a	n/a	n/a	183.621	AM10NES.jpg
154.7	0.514	Blank	Blank	62.656	n/a	2	5	2	n/a	82	n/a	1	n/a	n/a	n/a	n/a	184.118	n/a
155.231	0.497	neutral	Picture	62.143	n/a	2	5	3	n/a	83	24	1	n/a	n/a	n/a	n/a	184.649	BM05NES.jpg
155.728	0.514	Blank	Blank	61.629	n/a	2	5	3	n/a	83	n/a	1	n/a	n/a	n/a	n/a	185.146	n/a
156.258	0.497	neutral	Picture	61.115	n/a	2	5	4	n/a	84	12	1	n/a	n/a	n/a	n/a	185.677	AF21NES.jpg
156.756	0.514	Blank	Blank	60.601	n/a	2	5	4	n/a	84	n/a	1	n/a	n/a	n/a	n/a	186.174	n/a
157.286	0.497	neutral	Picture	60.087	n/a	2	5	5	n/a	85	13	1	n/a	n/a	n/a	n/a	186.704	BF22NES.jpg
157.784	0.514	Blank	Blank	59.573	n/a	2	5	5	n/a	85	n/a	1	n/a	n/a	n/a	n/a	187.202	n/a
158.314	0.497	neutral	Picture	59.059	n/a	2	5	6	n/a	86	17	1	n/a	n/a	n/a	n/a	187.732	BF28NES.jpg
158.812	0.514	Blank	Blank	58.545	n/a	2	5	6	n/a	86	n/a	1	n/a	n/a	n/a	n/a	188.23	n/a
159.342	0.497	neutral	Picture	58.031	n/a	2	5	7	n/a	87	4	1	n/a	n/a	n/a	n/a	188.76	AF05NES.jpg
159.839	0.514	Blank	Blank	57.517	n/a	2	5	7	n/a	87	n/a	1	n/a	n/a	n/a	n/a	189.258	n/a
160.37	0.497	neutral	Picture	57.003	n/a	2	5	8	n/a	88	11	1	n/a	n/a	n/a	n/a	189.788	AF20NES.jpg
160.867	0.514	Blank	Blank	56.489	n/a	2	5	8	n/a	88	n/a	1	n/a	n/a	n/a	n/a	190.286	n/a
161.398	0.497	neutral	Picture	55.975	n/a	2	5	9	n/a	89	22	1	n/a	n/a	n/a	n/a	190.816	BM03NES.jpg
161.895	0.514	Blank	Blank	55.461	n/a	2	5	9	n/a	89	n/a	1	n/a	n/a	n/a	n/a	191.313	n/a
162.426	0.497	neutral	Picture	54.947	n/a	2	5	10	n/a	90	15	1	n/a	n/a	n/a	n/a	191.844	AF25NES.jpg
162.923	0.514	Blank	Blank	54.434	n/a	2	5	10	n/a	90	n/a	1	n/a	n/a	n/a	n/a	192.341	n/a
163.454	0.497	neutral	Picture	53.919	n/a	2	5	11	n/a	91	19	1	n/a	n/a	n/a	n/a	192.872	AF31NES.jpg
163.951	0.514	Blank	Blank	53.406	n/a	2	5	11	n/a	91	n/a	1	n/a	n/a	n/a	n/a	193.369	n/a
164.482	0.497	neutral	Picture	52.892	n/a	2	5	12	n/a	92	9	1	n/a	n/a	n/a	n/a	193.9	AF17NES.jpg
164.979	0.514	Blank	Blank	52.378	n/a	2	5	12	n/a	92	n/a	1	n/a	n/a	n/a	n/a	194.397	n/a
165.51	0.497	neutral	Picture	51.864	n/a	2	5	13	n/a	93	14	1	n/a	n/a	n/a	n/a	194.928	AF23NES.jpg
166.007	0.514	Blank	Blank	51.35	n/a	2	5	13	n/a	93	n/a	1	n/a	n/a	n/a	n/a	195.425	n/a
166.537	0.497	neutral	Picture	50.836	n/a	2	5	14	n/a	94	36	1	n/a	n/a	n/a	n/a	195.955	BM24NES.jpg
167.035	0.514	Blank	Blank	50.322	n/a	2	5	14	n/a	94	n/a	1	n/a	n/a	n/a	n/a	196.453	n/a
167.565	0.497	neutral	Picture	49.808	n/a	2	5	15	n/a	95	34	1	n/a	n/a	n/a	n/a	196.983	AM22NES.jpg
168.063	0.514	Blank	Blank	49.294	n/a	2	5	15	n/a	95	n/a	1	n/a	n/a	n/a	n/a	197.481	n/a
168.593	0.497	neutral	Picture	48.78	n/a	2	5	16	n/a	96	10	1	n/a	n/a	n/a	n/a	198.011	AF18NES.jpg
169.09	0.514	Blank	Blank	48.266	n/a	2	5	16	n/a	96	n/a	1	n/a	n/a	n/a	n/a	198.509	n/a
169.621	0.497	neutral	Picture	47.752	n/a	2	5	17	n/a	97	5	1	n/a	n/a	n/a	n/a	199.039	BF07NES.jpg
170.118	0.514	Blank	Blank	47.238	n/a	2	5	17	n/a	97	n/a	1	n/a	n/a	n/a	n/a	199.536	n/a
170.649	0.497	neutral	Picture	46.724	n/a	2	5	18	n/a	98	25	1	n/a	n/a	n/a	n/a	200.067	BM06NES.jpg
171.146	0.514	Blank	Blank	46.21	n/a	2	5	18	n/a	98	n/a	1	n/a	n/a	n/a	n/a	200.564	n/a
171.677	0.497	neutral	Picture	45.697	n/a	2	5	19	n/a	99	39	1	n/a	n/a	n/a	n/a	201.095	AM28NES.jpg
172.174	0.514	Blank	Blank	45.183	n/a	2	5	19	n/a	99	n/a	1	n/a	n/a	n/a	n/a	201.592	n/a
172.705	0.497	neutral	Picture	44.669	n/a	2	5	20	n/a	100	33	1	n/a	n/a	n/a	n/a	202.123	AM21NES.jpg
173.202	0.514	Blank	Blank	44.155	n/a	2	5	20	n/a	100	n/a	1	n/a	n/a	n/a	n/a	202.62	n/a
173.732	10.014	ITI	Fixation+	34.125	n/a	2	n/a	n/a	n/a	n/a	n/a	n/a	n/a	n/a	n/a	n/a	203.151	n/a
183.763	0.497	happy	Picture	33.611	n/a	2	6	1	n/a	101	74	2	n/a	n/a	n/a	n/a	213.181	AM22HAS.jpg
184.26	0.514	Blank	Blank	33.097	n/a	2	6	1	n/a	101	n/a	2	n/a	n/a	n/a	n/a	213.678	n/a
184.79	0.497	happy	Picture	32.583	n/a	2	6	2	n/a	102	76	2	n/a	n/a	n/a	n/a	214.209	BM24HAS.jpg
185.288	0.514	Blank	Blank	32.069	n/a	2	6	2	n/a	102	n/a	2	n/a	n/a	n/a	n/a	214.706	n/a
185.818	0.497	happy	Picture	31.555	n/a	2	6	3	n/a	103	80	2	n/a	n/a	n/a	n/a	215.237	BM35HAS.jpg
186.316	0.514	Blank	Blank	31.041	n/a	2	6	3	n/a	103	n/a	2	n/a	n/a	n/a	n/a	215.734	n/a
186.846	0.497	happy	Picture	30.527	n/a	2	6	4	n/a	104	75	2	n/a	n/a	n/a	n/a	216.264	AM23HAS.jpg
187.344	0.514	Blank	Blank	30.013	n/a	2	6	4	n/a	104	n/a	2	n/a	n/a	n/a	n/a	216.762	n/a
187.874	0.497	happy	Picture	29.499	n/a	2	6	5	n/a	105	49	2	n/a	n/a	n/a	n/a	217.292	AF17HAS.jpg
188.372	0.514	Blank	Blank	28.985	n/a	2	6	5	n/a	105	n/a	2	n/a	n/a	n/a	n/a	217.79	n/a
188.902	0.497	happy	Picture	28.471	n/a	2	6	6	n/a	106	43	2	n/a	n/a	n/a	n/a	218.32	BF04HAS.jpg
189.399	0.514	Blank	Blank	27.957	n/a	2	6	6	n/a	106	n/a	2	n/a	n/a	n/a	n/a	218.817	n/a
189.93	0.497	happy	Picture	27.443	n/a	2	6	7	n/a	107	70	2	n/a	n/a	n/a	n/a	219.348	BM11HAS.jpg
190.427	0.514	Blank	Blank	26.929	n/a	2	6	7	n/a	107	n/a	2	n/a	n/a	n/a	n/a	219.845	n/a
190.958	0.497	happy	Picture	26.415	n/a	2	6	8	n/a	108	66	2	n/a	n/a	n/a	n/a	220.376	BM07HAS.jpg
191.455	0.514	Blank	Blank	25.901	n/a	2	6	8	n/a	108	n/a	2	n/a	n/a	n/a	n/a	220.873	n/a
191.986	0.497	happy	Picture	25.388	n/a	2	6	9	n/a	109	48	2	n/a	n/a	n/a	n/a	221.404	AF14HAS.jpg
192.483	0.514	Blank	Blank	24.874	n/a	2	6	9	n/a	109	n/a	2	n/a	n/a	n/a	n/a	221.901	n/a
193.014	0.497	happy	Picture	24.36	n/a	2	6	10	n/a	110	58	2	n/a	n/a	n/a	n/a	222.432	BF29HAS.jpg
193.511	0.514	Blank	Blank	23.846	n/a	2	6	10	n/a	110	n/a	2	n/a	n/a	n/a	n/a	222.929	n/a
194.041	0.497	happy	Picture	23.332	n/a	2	6	11	n/a	111	63	2	n/a	n/a	n/a	n/a	223.46	AM04HAS.jpg
194.539	0.514	Blank	Blank	22.818	n/a	2	6	11	n/a	111	n/a	2	n/a	n/a	n/a	n/a	223.957	n/a
195.069	0.497	happy	Picture	22.304	n/a	2	6	12	n/a	112	72	2	n/a	n/a	n/a	n/a	224.488	AM14HAS.jpg
195.567	0.514	Blank	Blank	21.79	n/a	2	6	12	n/a	112	n/a	2	n/a	n/a	n/a	n/a	224.985	n/a
196.097	0.497	happy	Picture	21.276	n/a	2	6	13	n/a	113	55	2	n/a	n/a	n/a	n/a	225.515	AF25HAS.jpg
196.595	0.514	Blank	Blank	20.762	n/a	2	6	13	n/a	113	n/a	2	n/a	n/a	n/a	n/a	226.013	n/a
197.125	0.497	happy	Picture	20.248	n/a	2	6	14	n/a	114	42	2	n/a	n/a	n/a	n/a	226.543	AF03HAS.jpg
197.623	0.514	Blank	Blank	19.734	n/a	2	6	14	n/a	114	n/a	2	n/a	n/a	n/a	n/a	227.041	n/a
198.153	0.497	happy	Picture	19.22	n/a	2	6	15	n/a	115	60	2	n/a	n/a	n/a	n/a	227.571	AF32HAS.jpg
198.65	0.514	Blank	Blank	18.706	n/a	2	6	15	n/a	115	n/a	2	n/a	n/a	n/a	n/a	228.069	n/a
199.181	0.497	happy	Picture	18.192	n/a	2	6	16	n/a	116	67	2	n/a	n/a	n/a	n/a	228.599	BM08HAS.jpg
199.678	0.514	Blank	Blank	17.678	n/a	2	6	16	n/a	116	n/a	2	n/a	n/a	n/a	n/a	229.096	n/a
200.209	0.497	happy	Picture	17.165	n/a	2	6	17	n/a	117	51	2	n/a	n/a	n/a	n/a	229.627	AF20HAS.jpg
200.706	0.514	Blank	Blank	16.65	n/a	2	6	17	n/a	117	n/a	2	n/a	n/a	n/a	n/a	230.124	n/a
201.237	0.497	happy	Picture	16.137	n/a	2	6	18	n/a	118	71	2	n/a	n/a	n/a	n/a	230.655	BM12HAS.jpg
201.734	0.514	Blank	Blank	15.623	n/a	2	6	18	n/a	118	n/a	2	n/a	n/a	n/a	n/a	231.152	n/a
202.264	0.497	happy	Picture	15.109	n/a	2	6	19	n/a	119	69	2	n/a	n/a	n/a	n/a	231.683	AM10HAS.jpg
202.762	0.514	Blank	Blank	14.595	n/a	2	6	19	n/a	119	n/a	2	n/a	n/a	n/a	n/a	232.18	n/a
203.292	0.497	happy	Picture	14.081	n/a	2	6	20	n/a	120	46	2	n/a	n/a	n/a	n/a	232.71	AF09HAS.jpg
203.79	0.514	Blank	Blank	13.567	n/a	2	6	20	n/a	120	n/a	2	n/a	n/a	n/a	n/a	233.208	n/a
204.32	10.014	ITI	Fixation+	3.537	n/a	2	n/a	n/a	n/a	n/a	n/a	n/a	n/a	n/a	n/a	n/a	233.738	n/a
217.871	n/a	ConfirmRating	Rate	n/a	3.531	2	n/a	n/a	0	n/a	n/a	n/a	2	Happy	26	49	247.289	n/a
223.329	n/a	ConfirmRating	Rate	n/a	5.438	2	n/a	n/a	1	n/a	n/a	n/a	3	Happy	50	50	252.748	n/a
223.353	15.004	Rest	Picture	n/a	n/a	n/a	n/a	n/a	n/a	n/a	n/a	n/a	0	n/a	0	0	252.771	n/a
238.373	10.014	ITI	Fixation+	94.389	n/a	3	n/a	n/a	n/a	n/a	n/a	n/a	n/a	n/a	n/a	n/a	267.791	n/a
248.403	0.497	angry	Picture	93.875	n/a	3	7	1	n/a	1	108	3	n/a	n/a	n/a	n/a	277.821	AM09ANS.jpg
248.901	0.514	Blank	Blank	93.361	n/a	3	7	1	n/a	1	n/a	3	n/a	n/a	n/a	n/a	278.319	n/a
249.431	0.497	angry	Picture	92.847	n/a	3	7	2	n/a	2	99	3	n/a	n/a	n/a	n/a	278.849	AF31ANS.jpg
249.928	0.514	Blank	Blank	92.333	n/a	3	7	2	n/a	2	n/a	3	n/a	n/a	n/a	n/a	279.346	n/a
250.459	0.497	angry	Picture	91.819	n/a	3	7	3	n/a	3	98	3	n/a	n/a	n/a	n/a	279.877	BF29ANS.jpg
250.956	0.514	Blank	Blank	91.305	n/a	3	7	3	n/a	3	n/a	3	n/a	n/a	n/a	n/a	280.374	n/a
251.487	0.497	angry	Picture	90.791	n/a	3	7	4	n/a	4	107	3	n/a	n/a	n/a	n/a	280.905	BM08ANS.jpg
251.984	0.514	Blank	Blank	90.277	n/a	3	7	4	n/a	4	n/a	3	n/a	n/a	n/a	n/a	281.402	n/a
252.515	0.497	angry	Picture	89.763	n/a	3	7	5	n/a	5	104	3	n/a	n/a	n/a	n/a	281.933	BM05ANS.jpg
253.012	0.514	Blank	Blank	89.249	n/a	3	7	5	n/a	5	n/a	3	n/a	n/a	n/a	n/a	282.43	n/a
253.543	0.497	angry	Picture	88.735	n/a	3	7	6	n/a	6	101	3	n/a	n/a	n/a	n/a	282.961	AM01ANS.jpg
254.04	0.514	Blank	Blank	88.221	n/a	3	7	6	n/a	6	n/a	3	n/a	n/a	n/a	n/a	283.458	n/a
254.571	0.497	angry	Picture	87.707	n/a	3	7	7	n/a	7	103	3	n/a	n/a	n/a	n/a	283.989	AM04ANS.jpg
255.068	0.514	Blank	Blank	87.193	n/a	3	7	7	n/a	7	n/a	3	n/a	n/a	n/a	n/a	284.486	n/a
255.598	0.497	angry	Picture	86.68	n/a	3	7	8	n/a	8	111	3	n/a	n/a	n/a	n/a	285.017	BM12ANS.jpg
256.096	0.514	Blank	Blank	86.166	n/a	3	7	8	n/a	8	n/a	3	n/a	n/a	n/a	n/a	285.514	n/a
256.626	0.497	angry	Picture	85.652	n/a	3	7	9	n/a	9	110	3	n/a	n/a	n/a	n/a	286.044	AM11ANS.jpg
257.124	0.514	Blank	Blank	85.138	n/a	3	7	9	n/a	9	n/a	3	n/a	n/a	n/a	n/a	286.542	n/a
257.654	0.497	angry	Picture	84.624	n/a	3	7	10	n/a	10	85	3	n/a	n/a	n/a	n/a	287.072	BF07ANS.jpg
258.151	0.514	Blank	Blank	84.11	n/a	3	7	10	n/a	10	n/a	3	n/a	n/a	n/a	n/a	287.57	n/a
258.682	0.497	angry	Picture	83.596	n/a	3	7	11	n/a	11	87	3	n/a	n/a	n/a	n/a	288.1	BF11ANS.jpg
259.179	0.514	Blank	Blank	83.082	n/a	3	7	11	n/a	11	n/a	3	n/a	n/a	n/a	n/a	288.598	n/a
259.71	0.497	angry	Picture	82.568	n/a	3	7	12	n/a	12	91	3	n/a	n/a	n/a	n/a	289.128	AF20ANS.jpg
260.207	0.514	Blank	Blank	82.054	n/a	3	7	12	n/a	12	n/a	3	n/a	n/a	n/a	n/a	289.625	n/a
260.738	0.497	angry	Picture	81.54	n/a	3	7	13	n/a	13	115	3	n/a	n/a	n/a	n/a	290.156	AM23ANS.jpg
261.235	0.514	Blank	Blank	81.026	n/a	3	7	13	n/a	13	n/a	3	n/a	n/a	n/a	n/a	290.653	n/a
261.766	0.497	angry	Picture	80.512	n/a	3	7	14	n/a	14	97	3	n/a	n/a	n/a	n/a	291.184	BF28ANS.jpg
262.263	0.514	Blank	Blank	79.998	n/a	3	7	14	n/a	14	n/a	3	n/a	n/a	n/a	n/a	291.681	n/a
262.793	0.497	angry	Picture	79.484	n/a	3	7	15	n/a	15	82	3	n/a	n/a	n/a	n/a	292.212	AF03ANS.jpg
263.291	0.514	Blank	Blank	78.97	n/a	3	7	15	n/a	15	n/a	3	n/a	n/a	n/a	n/a	292.709	n/a
263.821	0.497	angry	Picture	78.456	n/a	3	7	16	n/a	16	96	3	n/a	n/a	n/a	n/a	293.24	AF26ANS.jpg
264.319	0.514	Blank	Blank	77.943	n/a	3	7	16	n/a	16	n/a	3	n/a	n/a	n/a	n/a	293.737	n/a
264.849	0.497	angry	Picture	77.428	n/a	3	7	17	n/a	17	109	3	n/a	n/a	n/a	n/a	294.267	AM10ANS.jpg
265.347	0.514	Blank	Blank	76.915	n/a	3	7	17	n/a	17	n/a	3	n/a	n/a	n/a	n/a	294.765	n/a
265.877	0.497	angry	Picture	76.401	n/a	3	7	18	n/a	18	114	3	n/a	n/a	n/a	n/a	295.295	AM22ANS.jpg
266.375	0.514	Blank	Blank	75.887	n/a	3	7	18	n/a	18	n/a	3	n/a	n/a	n/a	n/a	295.793	n/a
266.905	0.497	angry	Picture	75.373	n/a	3	7	19	n/a	19	120	3	n/a	n/a	n/a	n/a	296.323	AM35ANS.jpg
267.402	0.514	Blank	Blank	74.859	n/a	3	7	19	n/a	19	n/a	3	n/a	n/a	n/a	n/a	296.82	n/a
267.933	0.497	angry	Picture	74.345	n/a	3	7	20	n/a	20	81	3	n/a	n/a	n/a	n/a	297.351	AF01ANS.jpg
268.43	0.514	Blank	Blank	73.831	n/a	3	7	20	n/a	20	n/a	3	n/a	n/a	n/a	n/a	297.848	n/a
268.961	10.014	ITI	Fixation+	63.801	n/a	3	n/a	n/a	n/a	n/a	n/a	n/a	n/a	n/a	n/a	n/a	298.379	n/a
278.991	0.497	neutral	Picture	63.287	n/a	3	8	1	n/a	21	28	1	n/a	n/a	n/a	n/a	308.409	AM09NES.jpg
279.488	0.514	Blank	Blank	62.773	n/a	3	8	1	n/a	21	n/a	1	n/a	n/a	n/a	n/a	308.906	n/a
280.019	0.497	neutral	Picture	62.259	n/a	3	8	2	n/a	22	27	1	n/a	n/a	n/a	n/a	309.437	BM08NES.jpg
280.516	0.514	Blank	Blank	61.745	n/a	3	8	2	n/a	22	n/a	1	n/a	n/a	n/a	n/a	309.934	n/a
281.047	0.497	neutral	Picture	61.231	n/a	3	8	3	n/a	23	16	1	n/a	n/a	n/a	n/a	310.465	AF26NES.jpg
281.544	0.514	Blank	Blank	60.717	n/a	3	8	3	n/a	23	n/a	1	n/a	n/a	n/a	n/a	310.962	n/a
282.075	0.497	neutral	Picture	60.203	n/a	3	8	4	n/a	24	3	1	n/a	n/a	n/a	n/a	311.493	BF04NES.jpg
282.572	0.514	Blank	Blank	59.689	n/a	3	8	4	n/a	24	n/a	1	n/a	n/a	n/a	n/a	311.99	n/a
283.103	0.497	neutral	Picture	59.175	n/a	3	8	5	n/a	25	32	1	n/a	n/a	n/a	n/a	312.521	AM14NES.jpg
283.6	0.514	Blank	Blank	58.661	n/a	3	8	5	n/a	25	n/a	1	n/a	n/a	n/a	n/a	313.018	n/a
284.13	0.497	neutral	Picture	58.147	n/a	3	8	6	n/a	26	37	1	n/a	n/a	n/a	n/a	313.548	BM25NES.jpg
284.628	0.514	Blank	Blank	57.634	n/a	3	8	6	n/a	26	n/a	1	n/a	n/a	n/a	n/a	314.046	n/a
285.158	0.497	neutral	Picture	57.12	n/a	3	8	7	n/a	27	15	1	n/a	n/a	n/a	n/a	314.576	AF25NES.jpg
285.656	0.514	Blank	Blank	56.606	n/a	3	8	7	n/a	27	n/a	1	n/a	n/a	n/a	n/a	315.074	n/a
286.186	0.497	neutral	Picture	56.092	n/a	3	8	8	n/a	28	23	1	n/a	n/a	n/a	n/a	315.604	AM04NES.jpg
286.684	0.514	Blank	Blank	55.578	n/a	3	8	8	n/a	28	n/a	1	n/a	n/a	n/a	n/a	316.102	n/a
287.214	0.497	neutral	Picture	55.064	n/a	3	8	9	n/a	29	34	1	n/a	n/a	n/a	n/a	316.632	AM22NES.jpg
287.711	0.514	Blank	Blank	54.55	n/a	3	8	9	n/a	29	n/a	1	n/a	n/a	n/a	n/a	317.13	n/a
288.242	0.497	neutral	Picture	54.036	n/a	3	8	10	n/a	30	24	1	n/a	n/a	n/a	n/a	317.66	BM05NES.jpg
288.739	0.514	Blank	Blank	53.522	n/a	3	8	10	n/a	30	n/a	1	n/a	n/a	n/a	n/a	318.157	n/a
289.27	0.497	neutral	Picture	53.008	n/a	3	8	11	n/a	31	12	1	n/a	n/a	n/a	n/a	318.688	AF21NES.jpg
289.767	0.514	Blank	Blank	52.494	n/a	3	8	11	n/a	31	n/a	1	n/a	n/a	n/a	n/a	319.185	n/a
290.298	0.497	neutral	Picture	51.98	n/a	3	8	12	n/a	32	6	1	n/a	n/a	n/a	n/a	319.716	AF09NES.jpg
290.795	0.514	Blank	Blank	51.466	n/a	3	8	12	n/a	32	n/a	1	n/a	n/a	n/a	n/a	320.213	n/a
291.326	0.497	neutral	Picture	50.952	n/a	3	8	13	n/a	33	17	1	n/a	n/a	n/a	n/a	320.744	BF28NES.jpg
291.823	0.514	Blank	Blank	50.438	n/a	3	8	13	n/a	33	n/a	1	n/a	n/a	n/a	n/a	321.241	n/a
292.353	0.497	neutral	Picture	49.924	n/a	3	8	14	n/a	34	2	1	n/a	n/a	n/a	n/a	321.772	AF03NES.jpg
292.851	0.514	Blank	Blank	49.41	n/a	3	8	14	n/a	34	n/a	1	n/a	n/a	n/a	n/a	322.269	n/a
293.381	0.497	neutral	Picture	48.897	n/a	3	8	15	n/a	35	9	1	n/a	n/a	n/a	n/a	322.799	AF17NES.jpg
293.879	0.514	Blank	Blank	48.383	n/a	3	8	15	n/a	35	n/a	1	n/a	n/a	n/a	n/a	323.297	n/a
294.409	0.497	neutral	Picture	47.869	n/a	3	8	16	n/a	36	25	1	n/a	n/a	n/a	n/a	323.827	BM06NES.jpg
294.907	0.514	Blank	Blank	47.355	n/a	3	8	16	n/a	36	n/a	1	n/a	n/a	n/a	n/a	324.325	n/a
295.437	0.497	neutral	Picture	46.841	n/a	3	8	17	n/a	37	8	1	n/a	n/a	n/a	n/a	324.855	AF14NES.jpg
295.935	0.514	Blank	Blank	46.327	n/a	3	8	17	n/a	37	n/a	1	n/a	n/a	n/a	n/a	325.353	n/a
296.465	0.497	neutral	Picture	45.813	n/a	3	8	18	n/a	38	19	1	n/a	n/a	n/a	n/a	325.883	AF31NES.jpg
296.962	0.514	Blank	Blank	45.299	n/a	3	8	18	n/a	38	n/a	1	n/a	n/a	n/a	n/a	326.38	n/a
297.493	0.497	neutral	Picture	44.785	n/a	3	8	19	n/a	39	14	1	n/a	n/a	n/a	n/a	326.911	AF23NES.jpg
297.99	0.514	Blank	Blank	44.271	n/a	3	8	19	n/a	39	n/a	1	n/a	n/a	n/a	n/a	327.408	n/a
298.521	0.497	neutral	Picture	43.757	n/a	3	8	20	n/a	40	4	1	n/a	n/a	n/a	n/a	327.939	AF05NES.jpg
299.018	0.514	Blank	Blank	43.243	n/a	3	8	20	n/a	40	n/a	1	n/a	n/a	n/a	n/a	328.436	n/a
299.549	10.014	ITI	Fixation+	33.213	n/a	3	n/a	n/a	n/a	n/a	n/a	n/a	n/a	n/a	n/a	n/a	328.967	n/a
309.579	0.497	angry	Picture	32.699	n/a	3	9	1	n/a	41	84	3	n/a	n/a	n/a	n/a	338.997	AF05ANS.jpg
310.076	0.514	Blank	Blank	32.185	n/a	3	9	1	n/a	41	n/a	3	n/a	n/a	n/a	n/a	339.494	n/a
310.607	0.497	angry	Picture	31.671	n/a	3	9	2	n/a	42	92	3	n/a	n/a	n/a	n/a	340.025	AF21ANS.jpg
311.104	0.514	Blank	Blank	31.157	n/a	3	9	2	n/a	42	n/a	3	n/a	n/a	n/a	n/a	340.522	n/a
311.635	0.497	angry	Picture	30.643	n/a	3	9	3	n/a	43	86	3	n/a	n/a	n/a	n/a	341.053	AF09ANS.jpg
312.132	0.514	Blank	Blank	30.129	n/a	3	9	3	n/a	43	n/a	3	n/a	n/a	n/a	n/a	341.55	n/a
312.662	0.497	angry	Picture	29.615	n/a	3	9	4	n/a	44	93	3	n/a	n/a	n/a	n/a	342.08	BF22ANS.jpg
313.16	0.514	Blank	Blank	29.102	n/a	3	9	4	n/a	44	n/a	3	n/a	n/a	n/a	n/a	342.578	n/a
313.69	0.497	angry	Picture	28.587	n/a	3	9	5	n/a	45	88	3	n/a	n/a	n/a	n/a	343.108	AF14ANS.jpg
314.188	0.514	Blank	Blank	28.074	n/a	3	9	5	n/a	45	n/a	3	n/a	n/a	n/a	n/a	343.606	n/a
314.718	0.497	angry	Picture	27.56	n/a	3	9	6	n/a	46	113	3	n/a	n/a	n/a	n/a	344.136	AM21ANS.jpg
315.216	0.514	Blank	Blank	27.046	n/a	3	9	6	n/a	46	n/a	3	n/a	n/a	n/a	n/a	344.634	n/a
315.746	0.497	angry	Picture	26.532	n/a	3	9	7	n/a	47	95	3	n/a	n/a	n/a	n/a	345.164	AF25ANS.jpg
316.243	0.514	Blank	Blank	26.018	n/a	3	9	7	n/a	47	n/a	3	n/a	n/a	n/a	n/a	345.661	n/a
316.774	0.497	angry	Picture	25.504	n/a	3	9	8	n/a	48	102	3	n/a	n/a	n/a	n/a	346.192	BM03ANS.jpg
317.271	0.514	Blank	Blank	24.99	n/a	3	9	8	n/a	48	n/a	3	n/a	n/a	n/a	n/a	346.689	n/a
317.802	0.497	angry	Picture	24.476	n/a	3	9	9	n/a	49	112	3	n/a	n/a	n/a	n/a	347.22	AM14ANS.jpg
318.299	0.514	Blank	Blank	23.962	n/a	3	9	9	n/a	49	n/a	3	n/a	n/a	n/a	n/a	347.717	n/a
318.83	0.497	angry	Picture	23.448	n/a	3	9	10	n/a	50	83	3	n/a	n/a	n/a	n/a	348.248	BF04ANS.jpg
319.327	0.514	Blank	Blank	22.934	n/a	3	9	10	n/a	50	n/a	3	n/a	n/a	n/a	n/a	348.745	n/a
319.858	0.497	angry	Picture	22.42	n/a	3	9	11	n/a	51	90	3	n/a	n/a	n/a	n/a	349.276	AF18ANS.jpg
320.355	0.514	Blank	Blank	21.906	n/a	3	9	11	n/a	51	n/a	3	n/a	n/a	n/a	n/a	349.773	n/a
320.886	0.497	angry	Picture	21.392	n/a	3	9	12	n/a	52	117	3	n/a	n/a	n/a	n/a	350.304	BM25ANS.jpg
321.383	0.514	Blank	Blank	20.878	n/a	3	9	12	n/a	52	n/a	3	n/a	n/a	n/a	n/a	350.801	n/a
321.913	0.497	angry	Picture	20.365	n/a	3	9	13	n/a	53	94	3	n/a	n/a	n/a	n/a	351.332	AF23ANS.jpg
322.411	0.514	Blank	Blank	19.851	n/a	3	9	13	n/a	53	n/a	3	n/a	n/a	n/a	n/a	351.829	n/a
322.941	0.497	angry	Picture	19.337	n/a	3	9	14	n/a	54	106	3	n/a	n/a	n/a	n/a	352.359	AM07ANS.jpg
323.439	0.514	Blank	Blank	18.823	n/a	3	9	14	n/a	54	n/a	3	n/a	n/a	n/a	n/a	352.857	n/a
323.969	0.497	angry	Picture	18.309	n/a	3	9	15	n/a	55	105	3	n/a	n/a	n/a	n/a	353.387	BM06ANS.jpg
324.466	0.514	Blank	Blank	17.795	n/a	3	9	15	n/a	55	n/a	3	n/a	n/a	n/a	n/a	353.885	n/a
324.997	0.497	angry	Picture	17.281	n/a	3	9	16	n/a	56	116	3	n/a	n/a	n/a	n/a	354.415	BM24ANS.jpg
325.494	0.514	Blank	Blank	16.767	n/a	3	9	16	n/a	56	n/a	3	n/a	n/a	n/a	n/a	354.913	n/a
326.025	0.497	angry	Picture	16.253	n/a	3	9	17	n/a	57	89	3	n/a	n/a	n/a	n/a	355.443	AF17ANS.jpg
326.522	0.514	Blank	Blank	15.739	n/a	3	9	17	n/a	57	n/a	3	n/a	n/a	n/a	n/a	355.94	n/a
327.053	0.497	angry	Picture	15.225	n/a	3	9	18	n/a	58	118	3	n/a	n/a	n/a	n/a	356.471	BM26ANS.jpg
327.55	0.514	Blank	Blank	14.711	n/a	3	9	18	n/a	58	n/a	3	n/a	n/a	n/a	n/a	356.968	n/a
328.081	0.497	angry	Picture	14.197	n/a	3	9	19	n/a	59	100	3	n/a	n/a	n/a	n/a	357.499	AF32ANS.jpg
328.578	0.514	Blank	Blank	13.683	n/a	3	9	19	n/a	59	n/a	3	n/a	n/a	n/a	n/a	357.996	n/a
329.108	0.497	angry	Picture	13.169	n/a	3	9	20	n/a	60	119	3	n/a	n/a	n/a	n/a	358.527	BM28ANS.jpg
329.606	0.514	Blank	Blank	12.655	n/a	3	9	20	n/a	60	n/a	3	n/a	n/a	n/a	n/a	359.024	n/a
330.136	10.014	ITI	Fixation+	2.625	n/a	3	n/a	n/a	n/a	n/a	n/a	n/a	n/a	n/a	n/a	n/a	359.555	n/a
342.775	n/a	ConfirmRating	Rate	n/a	2.62	3	n/a	n/a	0	n/a	n/a	n/a	2	Angry	50	50	372.193	n/a
344.683	n/a	ConfirmRating	Rate	n/a	1.89	3	n/a	n/a	1	n/a	n/a	n/a	3	Angry	50	50	374.101	n/a
344.709	10.014	ITI	Fixation+	95.043	n/a	4	n/a	n/a	n/a	n/a	n/a	n/a	n/a	n/a	n/a	n/a	374.127	n/a
354.739	0.497	happy	Picture	94.529	n/a	4	10	1	n/a	61	79	2	n/a	n/a	n/a	n/a	384.157	BM28HAS.jpg
355.237	0.514	Blank	Blank	94.015	n/a	4	10	1	n/a	61	n/a	2	n/a	n/a	n/a	n/a	384.655	n/a
355.767	0.497	happy	Picture	93.501	n/a	4	10	2	n/a	62	61	2	n/a	n/a	n/a	n/a	385.185	AM01HAS.jpg
356.264	0.514	Blank	Blank	92.987	n/a	4	10	2	n/a	62	n/a	2	n/a	n/a	n/a	n/a	385.683	n/a
356.795	0.497	happy	Picture	92.473	n/a	4	10	3	n/a	63	57	2	n/a	n/a	n/a	n/a	386.213	BF28HAS.jpg
357.292	0.514	Blank	Blank	91.959	n/a	4	10	3	n/a	63	n/a	2	n/a	n/a	n/a	n/a	386.711	n/a
357.823	0.497	happy	Picture	91.445	n/a	4	10	4	n/a	64	77	2	n/a	n/a	n/a	n/a	387.241	BM25HAS.jpg
358.32	0.514	Blank	Blank	90.931	n/a	4	10	4	n/a	64	n/a	2	n/a	n/a	n/a	n/a	387.738	n/a
358.851	0.497	happy	Picture	90.417	n/a	4	10	5	n/a	65	47	2	n/a	n/a	n/a	n/a	388.269	BF11HAS.jpg
359.348	0.514	Blank	Blank	89.903	n/a	4	10	5	n/a	65	n/a	2	n/a	n/a	n/a	n/a	388.766	n/a
359.879	0.497	happy	Picture	89.389	n/a	4	10	6	n/a	66	50	2	n/a	n/a	n/a	n/a	389.297	AF18HAS.jpg
360.376	0.514	Blank	Blank	88.875	n/a	4	10	6	n/a	66	n/a	2	n/a	n/a	n/a	n/a	389.794	n/a
360.907	0.497	happy	Picture	88.361	n/a	4	10	7	n/a	67	78	2	n/a	n/a	n/a	n/a	390.325	BM26HAS.jpg
361.404	0.514	Blank	Blank	87.847	n/a	4	10	7	n/a	67	n/a	2	n/a	n/a	n/a	n/a	390.822	n/a
361.935	0.497	happy	Picture	87.334	n/a	4	10	8	n/a	68	45	2	n/a	n/a	n/a	n/a	391.353	BF07HAS.jpg
362.432	0.514	Blank	Blank	86.82	n/a	4	10	8	n/a	68	n/a	2	n/a	n/a	n/a	n/a	391.85	n/a
362.962	0.497	happy	Picture	86.306	n/a	4	10	9	n/a	69	56	2	n/a	n/a	n/a	n/a	392.38	AF26HAS.jpg
363.46	0.514	Blank	Blank	85.792	n/a	4	10	9	n/a	69	n/a	2	n/a	n/a	n/a	n/a	392.878	n/a
363.99	0.497	happy	Picture	85.278	n/a	4	10	10	n/a	70	65	2	n/a	n/a	n/a	n/a	393.408	BM06HAS.jpg
364.488	0.514	Blank	Blank	84.764	n/a	4	10	10	n/a	70	n/a	2	n/a	n/a	n/a	n/a	393.906	n/a
365.018	0.497	happy	Picture	84.25	n/a	4	10	11	n/a	71	73	2	n/a	n/a	n/a	n/a	394.436	AM21HAS.jpg
365.516	0.514	Blank	Blank	83.736	n/a	4	10	11	n/a	71	n/a	2	n/a	n/a	n/a	n/a	394.934	n/a
366.046	0.497	happy	Picture	83.222	n/a	4	10	12	n/a	72	41	2	n/a	n/a	n/a	n/a	395.464	AF01HAS.jpg
366.543	0.514	Blank	Blank	82.708	n/a	4	10	12	n/a	72	n/a	2	n/a	n/a	n/a	n/a	395.961	n/a
367.074	0.497	happy	Picture	82.194	n/a	4	10	13	n/a	73	59	2	n/a	n/a	n/a	n/a	396.492	AF31HAS.jpg
367.571	0.514	Blank	Blank	81.68	n/a	4	10	13	n/a	73	n/a	2	n/a	n/a	n/a	n/a	396.989	n/a
368.102	0.497	happy	Picture	81.166	n/a	4	10	14	n/a	74	64	2	n/a	n/a	n/a	n/a	397.52	BM05HAS.jpg
368.599	0.514	Blank	Blank	80.652	n/a	4	10	14	n/a	74	n/a	2	n/a	n/a	n/a	n/a	398.017	n/a
369.13	0.497	happy	Picture	80.138	n/a	4	10	15	n/a	75	68	2	n/a	n/a	n/a	n/a	398.548	AM09HAS.jpg
369.627	0.514	Blank	Blank	79.624	n/a	4	10	15	n/a	75	n/a	2	n/a	n/a	n/a	n/a	399.045	n/a
370.158	0.497	happy	Picture	79.11	n/a	4	10	16	n/a	76	54	2	n/a	n/a	n/a	n/a	399.576	AF23HAS.jpg
370.655	0.514	Blank	Blank	78.597	n/a	4	10	16	n/a	76	n/a	2	n/a	n/a	n/a	n/a	400.073	n/a
371.185	0.497	happy	Picture	78.082	n/a	4	10	17	n/a	77	53	2	n/a	n/a	n/a	n/a	400.603	BF22HAS.jpg
371.683	0.514	Blank	Blank	77.569	n/a	4	10	17	n/a	77	n/a	2	n/a	n/a	n/a	n/a	401.101	n/a
372.213	0.497	happy	Picture	77.055	n/a	4	10	18	n/a	78	44	2	n/a	n/a	n/a	n/a	401.631	AF05HAS.jpg
372.711	0.514	Blank	Blank	76.541	n/a	4	10	18	n/a	78	n/a	2	n/a	n/a	n/a	n/a	402.129	n/a
373.241	0.497	happy	Picture	76.027	n/a	4	10	19	n/a	79	52	2	n/a	n/a	n/a	n/a	402.659	AF21HAS.jpg
373.739	0.514	Blank	Blank	75.513	n/a	4	10	19	n/a	79	n/a	2	n/a	n/a	n/a	n/a	403.157	n/a
374.269	0.497	happy	Picture	74.999	n/a	4	10	20	n/a	80	62	2	n/a	n/a	n/a	n/a	403.687	BM03HAS.jpg
374.766	0.514	Blank	Blank	74.485	n/a	4	10	20	n/a	80	n/a	2	n/a	n/a	n/a	n/a	404.185	n/a
375.297	10.014	ITI	Fixation+	64.455	n/a	4	n/a	n/a	n/a	n/a	n/a	n/a	n/a	n/a	n/a	n/a	404.715	n/a
385.327	0.497	neutral	Picture	63.941	n/a	4	11	1	n/a	81	23	1	n/a	n/a	n/a	n/a	414.745	AM04NES.jpg
385.824	0.514	Blank	Blank	63.427	n/a	4	11	1	n/a	81	n/a	1	n/a	n/a	n/a	n/a	415.243	n/a
386.355	0.497	neutral	Picture	62.913	n/a	4	11	2	n/a	82	29	1	n/a	n/a	n/a	n/a	415.773	AM10NES.jpg
386.852	0.514	Blank	Blank	62.399	n/a	4	11	2	n/a	82	n/a	1	n/a	n/a	n/a	n/a	416.27	n/a
387.383	0.497	neutral	Picture	61.885	n/a	4	11	3	n/a	83	24	1	n/a	n/a	n/a	n/a	416.801	BM05NES.jpg
387.88	0.514	Blank	Blank	61.371	n/a	4	11	3	n/a	83	n/a	1	n/a	n/a	n/a	n/a	417.298	n/a
388.411	0.497	neutral	Picture	60.857	n/a	4	11	4	n/a	84	12	1	n/a	n/a	n/a	n/a	417.829	AF21NES.jpg
388.908	0.514	Blank	Blank	60.343	n/a	4	11	4	n/a	84	n/a	1	n/a	n/a	n/a	n/a	418.326	n/a
389.439	0.497	neutral	Picture	59.829	n/a	4	11	5	n/a	85	13	1	n/a	n/a	n/a	n/a	418.857	BF22NES.jpg
389.936	0.514	Blank	Blank	59.315	n/a	4	11	5	n/a	85	n/a	1	n/a	n/a	n/a	n/a	419.354	n/a
390.466	0.497	neutral	Picture	58.802	n/a	4	11	6	n/a	86	17	1	n/a	n/a	n/a	n/a	419.885	BF28NES.jpg
390.964	0.514	Blank	Blank	58.288	n/a	4	11	6	n/a	86	n/a	1	n/a	n/a	n/a	n/a	420.382	n/a
391.494	0.497	neutral	Picture	57.774	n/a	4	11	7	n/a	87	4	1	n/a	n/a	n/a	n/a	420.913	AF05NES.jpg
391.992	0.514	Blank	Blank	57.26	n/a	4	11	7	n/a	87	n/a	1	n/a	n/a	n/a	n/a	421.41	n/a
392.522	0.497	neutral	Picture	56.746	n/a	4	11	8	n/a	88	11	1	n/a	n/a	n/a	n/a	421.94	AF20NES.jpg
393.02	0.514	Blank	Blank	56.232	n/a	4	11	8	n/a	88	n/a	1	n/a	n/a	n/a	n/a	422.438	n/a
393.55	0.497	neutral	Picture	55.718	n/a	4	11	9	n/a	89	22	1	n/a	n/a	n/a	n/a	422.968	BM03NES.jpg
394.048	0.514	Blank	Blank	55.204	n/a	4	11	9	n/a	89	n/a	1	n/a	n/a	n/a	n/a	423.466	n/a
394.578	0.497	neutral	Picture	54.69	n/a	4	11	10	n/a	90	15	1	n/a	n/a	n/a	n/a	423.996	AF25NES.jpg
395.075	0.514	Blank	Blank	54.176	n/a	4	11	10	n/a	90	n/a	1	n/a	n/a	n/a	n/a	424.493	n/a
395.606	0.497	neutral	Picture	53.662	n/a	4	11	11	n/a	91	19	1	n/a	n/a	n/a	n/a	425.024	AF31NES.jpg
396.103	0.514	Blank	Blank	53.148	n/a	4	11	11	n/a	91	n/a	1	n/a	n/a	n/a	n/a	425.521	n/a
396.634	0.497	neutral	Picture	52.634	n/a	4	11	12	n/a	92	9	1	n/a	n/a	n/a	n/a	426.052	AF17NES.jpg
397.131	0.514	Blank	Blank	52.12	n/a	4	11	12	n/a	92	n/a	1	n/a	n/a	n/a	n/a	426.549	n/a
397.662	0.497	neutral	Picture	51.606	n/a	4	11	13	n/a	93	14	1	n/a	n/a	n/a	n/a	427.08	AF23NES.jpg
398.159	0.514	Blank	Blank	51.092	n/a	4	11	13	n/a	93	n/a	1	n/a	n/a	n/a	n/a	427.577	n/a
398.69	0.497	neutral	Picture	50.578	n/a	4	11	14	n/a	94	36	1	n/a	n/a	n/a	n/a	428.108	BM24NES.jpg
399.187	0.514	Blank	Blank	50.065	n/a	4	11	14	n/a	94	n/a	1	n/a	n/a	n/a	n/a	428.605	n/a
399.717	0.497	neutral	Picture	49.55	n/a	4	11	15	n/a	95	34	1	n/a	n/a	n/a	n/a	429.135	AM22NES.jpg
400.215	0.514	Blank	Blank	49.037	n/a	4	11	15	n/a	95	n/a	1	n/a	n/a	n/a	n/a	429.633	n/a
400.745	0.497	neutral	Picture	48.523	n/a	4	11	16	n/a	96	10	1	n/a	n/a	n/a	n/a	430.163	AF18NES.jpg
401.243	0.514	Blank	Blank	48.009	n/a	4	11	16	n/a	96	n/a	1	n/a	n/a	n/a	n/a	430.661	n/a
401.773	0.497	neutral	Picture	47.495	n/a	4	11	17	n/a	97	5	1	n/a	n/a	n/a	n/a	431.191	BF07NES.jpg
402.271	0.514	Blank	Blank	46.981	n/a	4	11	17	n/a	97	n/a	1	n/a	n/a	n/a	n/a	431.689	n/a
402.801	0.497	neutral	Picture	46.467	n/a	4	11	18	n/a	98	25	1	n/a	n/a	n/a	n/a	432.219	BM06NES.jpg
403.298	0.514	Blank	Blank	45.953	n/a	4	11	18	n/a	98	n/a	1	n/a	n/a	n/a	n/a	432.716	n/a
403.829	0.497	neutral	Picture	45.439	n/a	4	11	19	n/a	99	39	1	n/a	n/a	n/a	n/a	433.247	AM28NES.jpg
404.326	0.514	Blank	Blank	44.925	n/a	4	11	19	n/a	99	n/a	1	n/a	n/a	n/a	n/a	433.744	n/a
404.857	0.497	neutral	Picture	44.411	n/a	4	11	20	n/a	100	33	1	n/a	n/a	n/a	n/a	434.275	AM21NES.jpg
405.354	0.514	Blank	Blank	43.897	n/a	4	11	20	n/a	100	n/a	1	n/a	n/a	n/a	n/a	434.772	n/a
405.885	10.014	ITI	Fixation+	33.867	n/a	4	n/a	n/a	n/a	n/a	n/a	n/a	n/a	n/a	n/a	n/a	435.303	n/a
415.915	0.497	happy	Picture	33.353	n/a	4	12	1	n/a	101	74	2	n/a	n/a	n/a	n/a	445.333	AM22HAS.jpg
416.412	0.514	Blank	Blank	32.839	n/a	4	12	1	n/a	101	n/a	2	n/a	n/a	n/a	n/a	445.83	n/a
416.943	0.497	happy	Picture	32.325	n/a	4	12	2	n/a	102	76	2	n/a	n/a	n/a	n/a	446.361	BM24HAS.jpg
417.44	0.514	Blank	Blank	31.811	n/a	4	12	2	n/a	102	n/a	2	n/a	n/a	n/a	n/a	446.858	n/a
417.971	0.497	happy	Picture	31.297	n/a	4	12	3	n/a	103	80	2	n/a	n/a	n/a	n/a	447.389	BM35HAS.jpg
418.468	0.514	Blank	Blank	30.783	n/a	4	12	3	n/a	103	n/a	2	n/a	n/a	n/a	n/a	447.886	n/a
418.999	0.497	happy	Picture	30.269	n/a	4	12	4	n/a	104	75	2	n/a	n/a	n/a	n/a	448.417	AM23HAS.jpg
419.496	0.514	Blank	Blank	29.756	n/a	4	12	4	n/a	104	n/a	2	n/a	n/a	n/a	n/a	448.914	n/a
420.026	0.497	happy	Picture	29.242	n/a	4	12	5	n/a	105	49	2	n/a	n/a	n/a	n/a	449.445	AF17HAS.jpg
420.524	0.514	Blank	Blank	28.728	n/a	4	12	5	n/a	105	n/a	2	n/a	n/a	n/a	n/a	449.942	n/a
421.054	0.497	happy	Picture	28.214	n/a	4	12	6	n/a	106	43	2	n/a	n/a	n/a	n/a	450.472	BF04HAS.jpg
421.552	0.514	Blank	Blank	27.7	n/a	4	12	6	n/a	106	n/a	2	n/a	n/a	n/a	n/a	450.97	n/a
422.082	0.497	happy	Picture	27.186	n/a	4	12	7	n/a	107	70	2	n/a	n/a	n/a	n/a	451.5	BM11HAS.jpg
422.579	0.514	Blank	Blank	26.672	n/a	4	12	7	n/a	107	n/a	2	n/a	n/a	n/a	n/a	451.998	n/a
423.11	0.497	happy	Picture	26.158	n/a	4	12	8	n/a	108	66	2	n/a	n/a	n/a	n/a	452.528	BM07HAS.jpg
423.607	0.514	Blank	Blank	25.644	n/a	4	12	8	n/a	108	n/a	2	n/a	n/a	n/a	n/a	453.026	n/a
424.138	0.497	happy	Picture	25.13	n/a	4	12	9	n/a	109	48	2	n/a	n/a	n/a	n/a	453.556	AF14HAS.jpg
424.635	0.514	Blank	Blank	24.616	n/a	4	12	9	n/a	109	n/a	2	n/a	n/a	n/a	n/a	454.053	n/a
425.166	0.497	happy	Picture	24.102	n/a	4	12	10	n/a	110	58	2	n/a	n/a	n/a	n/a	454.584	BF29HAS.jpg
425.663	0.514	Blank	Blank	23.588	n/a	4	12	10	n/a	110	n/a	2	n/a	n/a	n/a	n/a	455.081	n/a
426.194	0.497	happy	Picture	23.074	n/a	4	12	11	n/a	111	63	2	n/a	n/a	n/a	n/a	455.612	AM04HAS.jpg
426.691	0.514	Blank	Blank	22.56	n/a	4	12	11	n/a	111	n/a	2	n/a	n/a	n/a	n/a	456.109	n/a
427.222	0.497	happy	Picture	22.046	n/a	4	12	12	n/a	112	72	2	n/a	n/a	n/a	n/a	456.64	AM14HAS.jpg
427.719	0.514	Blank	Blank	21.532	n/a	4	12	12	n/a	112	n/a	2	n/a	n/a	n/a	n/a	457.137	n/a
428.249	0.497	happy	Picture	21.018	n/a	4	12	13	n/a	113	55	2	n/a	n/a	n/a	n/a	457.668	AF25HAS.jpg
428.747	0.514	Blank	Blank	20.505	n/a	4	12	13	n/a	113	n/a	2	n/a	n/a	n/a	n/a	458.165	n/a
429.277	0.497	happy	Picture	19.991	n/a	4	12	14	n/a	114	42	2	n/a	n/a	n/a	n/a	458.695	AF03HAS.jpg
429.775	0.514	Blank	Blank	19.477	n/a	4	12	14	n/a	114	n/a	2	n/a	n/a	n/a	n/a	459.193	n/a
430.305	0.497	happy	Picture	18.963	n/a	4	12	15	n/a	115	60	2	n/a	n/a	n/a	n/a	459.723	AF32HAS.jpg
430.803	0.514	Blank	Blank	18.449	n/a	4	12	15	n/a	115	n/a	2	n/a	n/a	n/a	n/a	460.221	n/a
431.333	0.497	happy	Picture	17.935	n/a	4	12	16	n/a	116	67	2	n/a	n/a	n/a	n/a	460.751	BM08HAS.jpg
431.83	0.514	Blank	Blank	17.421	n/a	4	12	16	n/a	116	n/a	2	n/a	n/a	n/a	n/a	461.248	n/a
432.361	0.497	happy	Picture	16.907	n/a	4	12	17	n/a	117	51	2	n/a	n/a	n/a	n/a	461.779	AF20HAS.jpg
432.858	0.514	Blank	Blank	16.393	n/a	4	12	17	n/a	117	n/a	2	n/a	n/a	n/a	n/a	462.276	n/a
433.389	0.497	happy	Picture	15.879	n/a	4	12	18	n/a	118	71	2	n/a	n/a	n/a	n/a	462.807	BM12HAS.jpg
433.886	0.514	Blank	Blank	15.365	n/a	4	12	18	n/a	118	n/a	2	n/a	n/a	n/a	n/a	463.304	n/a
434.417	0.497	happy	Picture	14.851	n/a	4	12	19	n/a	119	69	2	n/a	n/a	n/a	n/a	463.835	AM10HAS.jpg
434.914	0.514	Blank	Blank	14.337	n/a	4	12	19	n/a	119	n/a	2	n/a	n/a	n/a	n/a	464.332	n/a
435.445	0.497	happy	Picture	13.823	n/a	4	12	20	n/a	120	46	2	n/a	n/a	n/a	n/a	464.863	AF09HAS.jpg
435.942	0.514	Blank	Blank	13.309	n/a	4	12	20	n/a	120	n/a	2	n/a	n/a	n/a	n/a	465.36	n/a
436.473	10.014	ITI	Fixation+	3.279	n/a	4	n/a	n/a	n/a	n/a	n/a	n/a	n/a	n/a	n/a	n/a	465.891	n/a
449.765	n/a	ConfirmRating	Rate	n/a	3.266	4	n/a	n/a	0	n/a	n/a	n/a	2	Happy	30	48	479.183	n/a
451.59	n/a	ConfirmRating	Rate	n/a	1.807	4	n/a	n/a	1	n/a	n/a	n/a	3	Happy	50	50	481.008	n/a
