onset	duration	trial_type	event_type	trial_number	condition	picture_number	time_until_response	response_time	unpleasantness_rating	onset_uncorrected
0.012	5.67	ITI	Fixation+	0	No_Pain	n/a	8.499	n/a	n/a	30.351
5.698	3.498	Pic2	Picture	0	No_Pain	24	4.984	n/a	n/a	36.037
9.196	2.006	Blank	Blank	0	No_Pain	n/a	2.978	n/a	n/a	39.535
14.18	n/a	ConfirmRating	Rate	0	No_Pain	24	n/a	2.461	6	44.519
14.203	5.703	ITI	Fixation+	1	No_Pain	n/a	8.779	n/a	n/a	44.542
19.923	3.498	Pic2	Picture	1	No_Pain	25	5.264	n/a	n/a	50.262
23.421	2.006	Blank	Blank	1	No_Pain	n/a	3.258	n/a	n/a	53.76
28.685	n/a	ConfirmRating	Rate	1	No_Pain	25	n/a	2.742	2	59.024
28.71	5.62	ITI	Fixation+	2	Pain	n/a	10.092	n/a	n/a	59.049
34.347	3.498	Pic2	Picture	2	Pain	19	6.577	n/a	n/a	64.686
37.845	2.006	Blank	Blank	2	Pain	n/a	4.571	n/a	n/a	68.184
44.422	n/a	ConfirmRating	Rate	2	Pain	19	n/a	4.055	17	74.761
44.443	4.095	ITI	Fixation+	3	No_Pain	n/a	6.994	n/a	n/a	74.782
48.555	3.498	Pic2	Picture	3	No_Pain	37	3.479	n/a	n/a	78.894
52.053	2.006	Blank	Blank	3	No_Pain	n/a	1.473	n/a	n/a	82.392
55.532	n/a	ConfirmRating	Rate	3	No_Pain	37	n/a	0.956	0	85.871
55.551	4.476	ITI	Fixation+	4	Pain	n/a	8.335	n/a	n/a	85.89
60.044	3.498	Pic2	Picture	4	Pain	2	4.82	n/a	n/a	90.383
63.542	2.006	Blank	Blank	4	Pain	n/a	2.814	n/a	n/a	93.881
68.362	n/a	ConfirmRating	Rate	4	Pain	2	n/a	2.297	12	98.701
68.383	4.277	ITI	Fixation+	5	No_Pain	n/a	7.033	n/a	n/a	98.722
72.677	3.498	Pic2	Picture	5	No_Pain	26	3.518	n/a	n/a	103.016
76.175	2.006	Blank	Blank	5	No_Pain	n/a	1.512	n/a	n/a	106.514
79.693	n/a	ConfirmRating	Rate	5	No_Pain	26	n/a	0.995	0	110.032
79.723	5.024	ITI	Fixation+	6	Pain	n/a	8.455	n/a	n/a	110.062
84.763	3.498	Pic2	Picture	6	Pain	12	4.941	n/a	n/a	115.102
88.261	2.006	Blank	Blank	6	Pain	n/a	2.935	n/a	n/a	118.6
93.202	n/a	ConfirmRating	Rate	6	Pain	12	n/a	2.418	12	123.541
93.218	4.907	ITI	Fixation+	7	Pain	n/a	8.632	n/a	n/a	123.557
98.142	3.498	Pic2	Picture	7	Pain	3	5.117	n/a	n/a	128.481
101.64	2.006	Blank	Blank	7	Pain	n/a	3.111	n/a	n/a	131.979
106.758	n/a	ConfirmRating	Rate	7	Pain	3	n/a	2.595	17	137.097
106.78	4.924	ITI	Fixation+	8	No_Pain	n/a	7.751	n/a	n/a	137.119
111.72	3.498	Pic2	Picture	8	No_Pain	30	4.236	n/a	n/a	142.059
115.219	2.006	Blank	Blank	8	No_Pain	n/a	2.23	n/a	n/a	145.557
119.455	n/a	ConfirmRating	Rate	8	No_Pain	30	n/a	1.713	0	149.793
119.479	4.559	ITI	Fixation+	9	Pain	n/a	10.662	n/a	n/a	149.818
124.055	3.498	Pic2	Picture	9	Pain	4	7.147	n/a	n/a	154.394
127.553	2.006	Blank	Blank	9	Pain	n/a	5.141	n/a	n/a	157.892
134.7	n/a	ConfirmRating	Rate	9	Pain	4	n/a	4.625	19	165.039
134.732	5.786	ITI	Fixation+	10	No_Pain	n/a	6.819	n/a	n/a	165.071
140.534	3.498	Pic2	Picture	10	No_Pain	28	3.304	n/a	n/a	170.873
144.033	2.006	Blank	Blank	10	No_Pain	n/a	1.298	n/a	n/a	174.371
147.336	n/a	ConfirmRating	Rate	10	No_Pain	28	n/a	0.781	0	177.675
147.365	5.388	ITI	Fixation+	11	Pain	n/a	10.772	n/a	n/a	177.704
152.77	3.498	Pic2	Picture	11	Pain	13	7.258	n/a	n/a	183.109
156.268	2.006	Blank	Blank	11	Pain	n/a	5.252	n/a	n/a	186.607
163.525	n/a	ConfirmRating	Rate	11	Pain	13	n/a	4.735	12	193.864
163.546	4.808	ITI	Fixation+	12	No_Pain	n/a	7.39	n/a	n/a	193.885
168.37	3.498	Pic2	Picture	12	No_Pain	32	3.876	n/a	n/a	198.709
171.869	2.006	Blank	Blank	12	No_Pain	n/a	1.87	n/a	n/a	202.207
175.744	n/a	ConfirmRating	Rate	12	No_Pain	32	n/a	1.353	0	206.083
175.765	4.476	ITI	Fixation+	13	Pain	n/a	9.614	n/a	n/a	206.103
180.257	3.498	Pic2	Picture	13	Pain	5	6.1	n/a	n/a	210.596
183.756	2.006	Blank	Blank	13	Pain	n/a	4.093	n/a	n/a	214.095
189.855	n/a	ConfirmRating	Rate	13	Pain	5	n/a	3.577	4	220.194
189.873	4.99	ITI	Fixation+	14	No_Pain	n/a	7.568	n/a	n/a	220.212
194.88	3.498	Pic2	Picture	14	No_Pain	21	4.053	n/a	n/a	225.219
198.378	2.006	Blank	Blank	14	No_Pain	n/a	2.047	n/a	n/a	228.717
202.431	n/a	ConfirmRating	Rate	14	No_Pain	21	n/a	1.531	0	232.77
202.457	5.852	ITI	Fixation+	15	No_Pain	n/a	6.057	n/a	n/a	232.796
208.326	3.498	Pic2	Picture	15	No_Pain	38	2.542	n/a	n/a	238.664
211.824	2.006	Blank	Blank	15	No_Pain	n/a	0.536	n/a	n/a	242.163
214.366	n/a	ConfirmRating	Rate	15	No_Pain	38	n/a	0.019	90	244.705
214.393	5.786	ITI	Fixation+	16	Pain	n/a	8.087	n/a	n/a	244.732
220.196	3.498	Pic2	Picture	16	Pain	16	4.573	n/a	n/a	250.535
223.694	2.006	Blank	Blank	16	Pain	n/a	2.567	n/a	n/a	254.033
228.267	n/a	ConfirmRating	Rate	16	Pain	16	n/a	2.05	17	258.606
228.287	4.874	ITI	Fixation+	17	No_Pain	n/a	6.603	n/a	n/a	258.625
233.177	3.498	Pic2	Picture	17	No_Pain	22	3.088	n/a	n/a	263.516
236.675	2.006	Blank	Blank	17	No_Pain	n/a	1.082	n/a	n/a	267.014
239.764	n/a	ConfirmRating	Rate	17	No_Pain	22	n/a	0.565	0	270.103
239.792	5.156	ITI	Fixation+	18	Pain	n/a	8.36	n/a	n/a	270.131
244.965	3.498	Pic2	Picture	18	Pain	8	4.846	n/a	n/a	275.304
248.463	2.006	Blank	Blank	18	Pain	n/a	2.84	n/a	n/a	278.802
253.309	n/a	ConfirmRating	Rate	18	Pain	8	n/a	2.323	13	283.648
253.337	5.206	ITI	Fixation+	19	Pain	n/a	6.616	n/a	n/a	283.676
258.56	3.498	Pic2	Picture	19	Pain	1	3.101	n/a	n/a	288.899
262.058	2.006	Blank	Blank	19	Pain	n/a	1.095	n/a	n/a	292.397
265.159	n/a	ConfirmRating	Rate	19	Pain	1	n/a	0.578	10	295.498
265.191	15.004	Rest	n/a	19	n/a	n/a	-15.036	n/a	n/a	295.53
280.212	4.758	ITI	Fixation+	20	No_Pain	n/a	6.727	n/a	n/a	310.55
284.986	3.498	Pic2	Picture	20	No_Pain	23	3.212	n/a	n/a	315.325
288.484	2.006	Blank	Blank	20	No_Pain	n/a	1.206	n/a	n/a	318.823
291.696	n/a	ConfirmRating	Rate	20	No_Pain	23	n/a	0.689	0	322.035
291.717	4.277	ITI	Fixation+	21	Pain	n/a	7.709	n/a	n/a	322.056
296.011	3.498	Pic2	Picture	21	Pain	10	4.194	n/a	n/a	326.35
299.51	2.006	Blank	Blank	21	Pain	n/a	2.188	n/a	n/a	329.848
303.703	n/a	ConfirmRating	Rate	21	Pain	10	n/a	1.671	4	334.042
303.72	5.04	ITI	Fixation+	22	No_Pain	n/a	7.485	n/a	n/a	334.059
308.777	3.498	Pic2	Picture	22	No_Pain	36	3.97	n/a	n/a	339.116
312.275	2.006	Blank	Blank	22	No_Pain	n/a	1.964	n/a	n/a	342.614
316.245	n/a	ConfirmRating	Rate	22	No_Pain	36	n/a	1.448	0	346.584
316.271	5.786	ITI	Fixation+	23	Pain	n/a	8.827	n/a	n/a	346.61
322.073	3.498	Pic2	Picture	23	Pain	11	5.313	n/a	n/a	352.412
325.571	2.006	Blank	Blank	23	Pain	n/a	3.307	n/a	n/a	355.91
330.884	n/a	ConfirmRating	Rate	23	Pain	11	n/a	2.79	13	361.223
330.91	5.454	ITI	Fixation+	24	Pain	n/a	7.049	n/a	n/a	361.249
336.381	3.498	Pic2	Picture	24	Pain	17	3.534	n/a	n/a	366.72
339.879	2.006	Blank	Blank	24	Pain	n/a	1.528	n/a	n/a	370.218
343.413	n/a	ConfirmRating	Rate	24	Pain	17	n/a	1.012	3	373.752
343.443	5.338	ITI	Fixation+	25	No_Pain	n/a	8.645	n/a	n/a	373.782
348.798	3.498	Pic2	Picture	25	No_Pain	31	5.13	n/a	n/a	379.137
352.297	2.006	Blank	Blank	25	No_Pain	n/a	3.124	n/a	n/a	382.636
357.427	n/a	ConfirmRating	Rate	25	No_Pain	31	n/a	2.607	0	387.766
357.453	4.228	ITI	Fixation+	26	Pain	n/a	7.474	n/a	n/a	387.792
361.697	3.498	Pic2	Picture	26	Pain	18	3.959	n/a	n/a	392.036
365.195	2.006	Blank	Blank	26	Pain	n/a	1.953	n/a	n/a	395.534
369.154	n/a	ConfirmRating	Rate	26	Pain	18	n/a	1.436	4	399.493
369.174	5.322	ITI	Fixation+	27	No_Pain	n/a	7.38	n/a	n/a	399.513
374.512	3.498	Pic2	Picture	27	No_Pain	33	3.865	n/a	n/a	404.851
378.01	2.006	Blank	Blank	27	No_Pain	n/a	1.859	n/a	n/a	408.349
381.876	n/a	ConfirmRating	Rate	27	No_Pain	33	n/a	1.342	0	412.215
381.907	5.637	ITI	Fixation+	28	No_Pain	n/a	6.911	n/a	n/a	412.245
387.56	3.498	Pic2	Picture	28	No_Pain	40	3.397	n/a	n/a	417.899
391.058	2.006	Blank	Blank	28	No_Pain	n/a	1.391	n/a	n/a	421.397
394.455	n/a	ConfirmRating	Rate	28	No_Pain	40	n/a	0.874	0	424.794
394.473	4.775	ITI	Fixation+	29	Pain	n/a	8.456	n/a	n/a	424.812
399.265	3.498	Pic2	Picture	29	Pain	20	4.941	n/a	n/a	429.604
402.763	2.006	Blank	Blank	29	Pain	n/a	2.935	n/a	n/a	433.102
407.704	n/a	ConfirmRating	Rate	29	Pain	20	n/a	2.418	6	438.043
407.736	4.99	ITI	Fixation+	30	No_Pain	n/a	8.01	n/a	n/a	438.075
412.743	3.498	Pic2	Picture	30	No_Pain	27	4.495	n/a	n/a	443.082
416.241	2.006	Blank	Blank	30	No_Pain	n/a	2.489	n/a	n/a	446.58
420.737	n/a	ConfirmRating	Rate	30	No_Pain	27	n/a	1.972	0	451.075
420.767	4.427	ITI	Fixation+	31	Pain	n/a	9.534	n/a	n/a	451.106
425.211	3.498	Pic2	Picture	31	Pain	14	6.02	n/a	n/a	455.55
428.709	2.006	Blank	Blank	31	Pain	n/a	4.014	n/a	n/a	459.048
434.728	n/a	ConfirmRating	Rate	31	Pain	14	n/a	3.497	6	465.067
434.76	5.372	ITI	Fixation+	32	Pain	n/a	7.352	n/a	n/a	465.099
440.148	3.498	Pic2	Picture	32	Pain	9	3.837	n/a	n/a	470.487
443.646	2.006	Blank	Blank	32	Pain	n/a	1.831	n/a	n/a	473.985
447.483	n/a	ConfirmRating	Rate	32	Pain	9	n/a	1.315	13	477.822
447.509	4.99	ITI	Fixation+	33	No_Pain	n/a	8.667	n/a	n/a	477.848
452.516	3.498	Pic2	Picture	33	No_Pain	39	5.152	n/a	n/a	482.855
456.014	2.006	Blank	Blank	33	No_Pain	n/a	3.146	n/a	n/a	486.353
461.166	n/a	ConfirmRating	Rate	33	No_Pain	39	n/a	2.63	0	491.505
461.187	4.941	ITI	Fixation+	34	No_Pain	n/a	7.4	n/a	n/a	491.526
466.144	3.498	Pic2	Picture	34	No_Pain	29	3.885	n/a	n/a	496.483
469.642	2.006	Blank	Blank	34	No_Pain	n/a	1.879	n/a	n/a	499.981
473.527	n/a	ConfirmRating	Rate	34	No_Pain	29	n/a	1.363	0	503.866
473.555	5.255	ITI	Fixation+	35	Pain	n/a	8.594	n/a	n/a	503.894
478.827	3.498	Pic2	Picture	35	Pain	6	5.079	n/a	n/a	509.166
482.325	2.006	Blank	Blank	35	Pain	n/a	3.073	n/a	n/a	512.664
487.404	n/a	ConfirmRating	Rate	35	Pain	6	n/a	2.557	6	517.743
487.431	4.377	ITI	Fixation+	36	No_Pain	n/a	7.461	n/a	n/a	517.77
491.825	3.498	Pic2	Picture	36	No_Pain	35	3.946	n/a	n/a	522.163
495.323	2.006	Blank	Blank	36	No_Pain	n/a	1.94	n/a	n/a	525.662
499.269	n/a	ConfirmRating	Rate	36	No_Pain	35	n/a	1.424	0	529.608
499.302	5.637	ITI	Fixation+	37	No_Pain	n/a	7.97	n/a	n/a	529.641
504.955	3.498	Pic2	Picture	37	No_Pain	34	4.455	n/a	n/a	535.294
508.453	2.006	Blank	Blank	37	No_Pain	n/a	2.449	n/a	n/a	538.792
512.908	n/a	ConfirmRating	Rate	37	No_Pain	34	n/a	1.932	0	543.247
512.93	5.189	ITI	Fixation+	38	Pain	n/a	8.414	n/a	n/a	543.269
518.135	3.498	Pic2	Picture	38	Pain	15	4.899	n/a	n/a	548.474
521.634	2.006	Blank	Blank	38	Pain	n/a	2.893	n/a	n/a	551.972
526.533	n/a	ConfirmRating	Rate	38	Pain	15	n/a	2.376	4	556.872
526.557	4.891	ITI	Fixation+	39	Pain	n/a	8.475	n/a	n/a	556.896
531.465	3.498	Pic2	Picture	39	Pain	7	4.96	n/a	n/a	561.804
534.963	2.006	Blank	Blank	39	Pain	n/a	2.954	n/a	n/a	565.302
539.923	n/a	ConfirmRating	Rate	39	Pain	7	n/a	2.437	4	570.262
