onset	duration	trial_type	event_type	time_until_response	response_time	trial_number	block_num_within_trial	image_seq_num_within_block	question_seq_num_within_block	image_seq_num	picture_number	condition	question_type	block_type	rating	rating_computed	onset_uncorrected	KDEV_imagefile
0.009	10.014	ITI	Fixation+	94.066	n/a	1	n/a	n/a	n/a	n/a	n/a	n/a	n/a	n/a	n/a	n/a	29.339	n/a
10.04	0.497	happy	Picture	93.552	n/a	1	1	1	n/a	1	108	3	n/a	n/a	n/a	n/a	39.37	AM09ANS.jpg
10.537	0.514	Blank	Blank	93.038	n/a	1	1	1	n/a	1	n/a	3	n/a	n/a	n/a	n/a	39.867	n/a
11.067	0.497	happy	Picture	92.524	n/a	1	1	2	n/a	2	99	3	n/a	n/a	n/a	n/a	40.397	AF31ANS.jpg
11.565	0.514	Blank	Blank	92.01	n/a	1	1	2	n/a	2	n/a	3	n/a	n/a	n/a	n/a	40.895	n/a
12.095	0.497	happy	Picture	91.496	n/a	1	1	3	n/a	3	98	3	n/a	n/a	n/a	n/a	41.425	BF29ANS.jpg
12.593	0.514	Blank	Blank	90.982	n/a	1	1	3	n/a	3	n/a	3	n/a	n/a	n/a	n/a	41.923	n/a
13.123	0.497	happy	Picture	90.468	n/a	1	1	4	n/a	4	107	3	n/a	n/a	n/a	n/a	42.453	BM08ANS.jpg
13.621	0.514	Blank	Blank	89.955	n/a	1	1	4	n/a	4	n/a	3	n/a	n/a	n/a	n/a	42.951	n/a
14.151	0.497	happy	Picture	89.441	n/a	1	1	5	n/a	5	104	3	n/a	n/a	n/a	n/a	43.481	BM05ANS.jpg
14.648	0.514	Blank	Blank	88.927	n/a	1	1	5	n/a	5	n/a	3	n/a	n/a	n/a	n/a	43.978	n/a
15.179	0.497	happy	Picture	88.413	n/a	1	1	6	n/a	6	101	3	n/a	n/a	n/a	n/a	44.509	AM01ANS.jpg
15.676	0.514	Blank	Blank	87.899	n/a	1	1	6	n/a	6	n/a	3	n/a	n/a	n/a	n/a	45.006	n/a
16.207	0.497	happy	Picture	87.385	n/a	1	1	7	n/a	7	103	3	n/a	n/a	n/a	n/a	45.537	AM04ANS.jpg
16.704	0.514	Blank	Blank	86.871	n/a	1	1	7	n/a	7	n/a	3	n/a	n/a	n/a	n/a	46.034	n/a
17.235	0.497	happy	Picture	86.357	n/a	1	1	8	n/a	8	111	3	n/a	n/a	n/a	n/a	46.565	BM12ANS.jpg
17.732	0.514	Blank	Blank	85.843	n/a	1	1	8	n/a	8	n/a	3	n/a	n/a	n/a	n/a	47.062	n/a
18.263	0.497	happy	Picture	85.329	n/a	1	1	9	n/a	9	110	3	n/a	n/a	n/a	n/a	47.593	AM11ANS.jpg
18.76	0.514	Blank	Blank	84.815	n/a	1	1	9	n/a	9	n/a	3	n/a	n/a	n/a	n/a	48.09	n/a
19.291	0.497	happy	Picture	84.301	n/a	1	1	10	n/a	10	85	3	n/a	n/a	n/a	n/a	48.621	BF07ANS.jpg
19.788	0.514	Blank	Blank	83.787	n/a	1	1	10	n/a	10	n/a	3	n/a	n/a	n/a	n/a	49.118	n/a
20.319	0.497	happy	Picture	83.273	n/a	1	1	11	n/a	11	87	3	n/a	n/a	n/a	n/a	49.648	BF11ANS.jpg
20.816	0.514	Blank	Blank	82.759	n/a	1	1	11	n/a	11	n/a	3	n/a	n/a	n/a	n/a	50.146	n/a
21.346	0.497	happy	Picture	82.245	n/a	1	1	12	n/a	12	91	3	n/a	n/a	n/a	n/a	50.676	AF20ANS.jpg
21.844	0.514	Blank	Blank	81.731	n/a	1	1	12	n/a	12	n/a	3	n/a	n/a	n/a	n/a	51.174	n/a
22.374	0.497	happy	Picture	81.217	n/a	1	1	13	n/a	13	115	3	n/a	n/a	n/a	n/a	51.704	AM23ANS.jpg
22.872	0.514	Blank	Blank	80.703	n/a	1	1	13	n/a	13	n/a	3	n/a	n/a	n/a	n/a	52.202	n/a
23.402	0.497	happy	Picture	80.19	n/a	1	1	14	n/a	14	97	3	n/a	n/a	n/a	n/a	52.732	BF28ANS.jpg
23.9	0.514	Blank	Blank	79.676	n/a	1	1	14	n/a	14	n/a	3	n/a	n/a	n/a	n/a	53.23	n/a
24.43	0.497	happy	Picture	79.162	n/a	1	1	15	n/a	15	82	3	n/a	n/a	n/a	n/a	53.76	AF03ANS.jpg
24.927	0.514	Blank	Blank	78.648	n/a	1	1	15	n/a	15	n/a	3	n/a	n/a	n/a	n/a	54.257	n/a
25.458	0.497	happy	Picture	78.134	n/a	1	1	16	n/a	16	96	3	n/a	n/a	n/a	n/a	54.788	AF26ANS.jpg
25.955	0.514	Blank	Blank	77.62	n/a	1	1	16	n/a	16	n/a	3	n/a	n/a	n/a	n/a	55.285	n/a
26.486	0.497	happy	Picture	77.106	n/a	1	1	17	n/a	17	109	3	n/a	n/a	n/a	n/a	55.816	AM10ANS.jpg
26.983	0.514	Blank	Blank	76.592	n/a	1	1	17	n/a	17	n/a	3	n/a	n/a	n/a	n/a	56.313	n/a
27.514	0.497	happy	Picture	76.078	n/a	1	1	18	n/a	18	114	3	n/a	n/a	n/a	n/a	56.844	AM22ANS.jpg
28.011	0.514	Blank	Blank	75.564	n/a	1	1	18	n/a	18	n/a	3	n/a	n/a	n/a	n/a	57.341	n/a
28.542	0.497	happy	Picture	75.05	n/a	1	1	19	n/a	19	120	3	n/a	n/a	n/a	n/a	57.872	AM35ANS.jpg
29.039	0.514	Blank	Blank	74.536	n/a	1	1	19	n/a	19	n/a	3	n/a	n/a	n/a	n/a	58.369	n/a
29.57	0.497	happy	Picture	74.022	n/a	1	1	20	n/a	20	81	3	n/a	n/a	n/a	n/a	58.9	AF01ANS.jpg
30.067	0.514	Blank	Blank	73.508	n/a	1	1	20	n/a	20	n/a	3	n/a	n/a	n/a	n/a	59.397	n/a
30.597	10.014	ITI	Fixation+	63.478	n/a	1	n/a	n/a	n/a	n/a	n/a	n/a	n/a	n/a	n/a	n/a	59.927	n/a
40.628	0.497	neutral	Picture	62.964	n/a	1	2	1	n/a	21	28	1	n/a	n/a	n/a	n/a	69.958	AM09NES.jpg
41.125	0.514	Blank	Blank	62.45	n/a	1	2	1	n/a	21	n/a	1	n/a	n/a	n/a	n/a	70.455	n/a
41.656	0.497	neutral	Picture	61.936	n/a	1	2	2	n/a	22	27	1	n/a	n/a	n/a	n/a	70.986	BM08NES.jpg
42.153	0.514	Blank	Blank	61.422	n/a	1	2	2	n/a	22	n/a	1	n/a	n/a	n/a	n/a	71.483	n/a
42.683	0.497	neutral	Picture	60.908	n/a	1	2	3	n/a	23	16	1	n/a	n/a	n/a	n/a	72.013	AF26NES.jpg
43.181	0.514	Blank	Blank	60.394	n/a	1	2	3	n/a	23	n/a	1	n/a	n/a	n/a	n/a	72.511	n/a
43.711	0.497	neutral	Picture	59.88	n/a	1	2	4	n/a	24	3	1	n/a	n/a	n/a	n/a	73.041	BF04NES.jpg
44.209	0.514	Blank	Blank	59.366	n/a	1	2	4	n/a	24	n/a	1	n/a	n/a	n/a	n/a	73.539	n/a
44.739	0.497	neutral	Picture	58.853	n/a	1	2	5	n/a	25	32	1	n/a	n/a	n/a	n/a	74.069	AM14NES.jpg
45.237	0.514	Blank	Blank	58.339	n/a	1	2	5	n/a	25	n/a	1	n/a	n/a	n/a	n/a	74.567	n/a
45.767	0.497	neutral	Picture	57.825	n/a	1	2	6	n/a	26	37	1	n/a	n/a	n/a	n/a	75.097	BM25NES.jpg
46.264	0.514	Blank	Blank	57.311	n/a	1	2	6	n/a	26	n/a	1	n/a	n/a	n/a	n/a	75.594	n/a
46.795	0.497	neutral	Picture	56.797	n/a	1	2	7	n/a	27	15	1	n/a	n/a	n/a	n/a	76.125	AF25NES.jpg
47.292	0.514	Blank	Blank	56.283	n/a	1	2	7	n/a	27	n/a	1	n/a	n/a	n/a	n/a	76.622	n/a
47.823	0.497	neutral	Picture	55.769	n/a	1	2	8	n/a	28	23	1	n/a	n/a	n/a	n/a	77.153	AM04NES.jpg
48.32	0.514	Blank	Blank	55.255	n/a	1	2	8	n/a	28	n/a	1	n/a	n/a	n/a	n/a	77.65	n/a
48.851	0.497	neutral	Picture	54.741	n/a	1	2	9	n/a	29	34	1	n/a	n/a	n/a	n/a	78.181	AM22NES.jpg
49.348	0.514	Blank	Blank	54.227	n/a	1	2	9	n/a	29	n/a	1	n/a	n/a	n/a	n/a	78.678	n/a
49.879	0.497	neutral	Picture	53.713	n/a	1	2	10	n/a	30	24	1	n/a	n/a	n/a	n/a	79.209	BM05NES.jpg
50.376	0.514	Blank	Blank	53.199	n/a	1	2	10	n/a	30	n/a	1	n/a	n/a	n/a	n/a	79.706	n/a
50.907	0.497	neutral	Picture	52.685	n/a	1	2	11	n/a	31	12	1	n/a	n/a	n/a	n/a	80.237	AF21NES.jpg
51.404	0.514	Blank	Blank	52.171	n/a	1	2	11	n/a	31	n/a	1	n/a	n/a	n/a	n/a	80.734	n/a
51.934	0.497	neutral	Picture	51.657	n/a	1	2	12	n/a	32	6	1	n/a	n/a	n/a	n/a	81.264	AF09NES.jpg
52.432	0.514	Blank	Blank	51.143	n/a	1	2	12	n/a	32	n/a	1	n/a	n/a	n/a	n/a	81.762	n/a
52.962	0.497	neutral	Picture	50.629	n/a	1	2	13	n/a	33	17	1	n/a	n/a	n/a	n/a	82.292	BF28NES.jpg
53.46	0.514	Blank	Blank	50.115	n/a	1	2	13	n/a	33	n/a	1	n/a	n/a	n/a	n/a	82.79	n/a
53.99	0.497	neutral	Picture	49.601	n/a	1	2	14	n/a	34	2	1	n/a	n/a	n/a	n/a	83.32	AF03NES.jpg
54.488	0.514	Blank	Blank	49.088	n/a	1	2	14	n/a	34	n/a	1	n/a	n/a	n/a	n/a	83.818	n/a
55.018	0.497	neutral	Picture	48.574	n/a	1	2	15	n/a	35	9	1	n/a	n/a	n/a	n/a	84.348	AF17NES.jpg
55.516	0.514	Blank	Blank	48.06	n/a	1	2	15	n/a	35	n/a	1	n/a	n/a	n/a	n/a	84.846	n/a
56.046	0.497	neutral	Picture	47.546	n/a	1	2	16	n/a	36	25	1	n/a	n/a	n/a	n/a	85.376	BM06NES.jpg
56.543	0.514	Blank	Blank	47.032	n/a	1	2	16	n/a	36	n/a	1	n/a	n/a	n/a	n/a	85.873	n/a
57.074	0.497	neutral	Picture	46.518	n/a	1	2	17	n/a	37	8	1	n/a	n/a	n/a	n/a	86.404	AF14NES.jpg
57.571	0.514	Blank	Blank	46.004	n/a	1	2	17	n/a	37	n/a	1	n/a	n/a	n/a	n/a	86.901	n/a
58.102	0.497	neutral	Picture	45.49	n/a	1	2	18	n/a	38	19	1	n/a	n/a	n/a	n/a	87.432	AF31NES.jpg
58.599	0.514	Blank	Blank	44.976	n/a	1	2	18	n/a	38	n/a	1	n/a	n/a	n/a	n/a	87.929	n/a
59.13	0.497	neutral	Picture	44.462	n/a	1	2	19	n/a	39	14	1	n/a	n/a	n/a	n/a	88.46	AF23NES.jpg
59.627	0.514	Blank	Blank	43.948	n/a	1	2	19	n/a	39	n/a	1	n/a	n/a	n/a	n/a	88.957	n/a
60.157	0.497	neutral	Picture	43.434	n/a	1	2	20	n/a	40	4	1	n/a	n/a	n/a	n/a	89.487	AF05NES.jpg
60.655	0.514	Blank	Blank	42.92	n/a	1	2	20	n/a	40	n/a	1	n/a	n/a	n/a	n/a	89.985	n/a
61.185	10.014	ITI	Fixation+	32.89	n/a	1	n/a	n/a	n/a	n/a	n/a	n/a	n/a	n/a	n/a	n/a	90.515	n/a
71.216	0.497	happy	Picture	32.376	n/a	1	3	1	n/a	41	84	3	n/a	n/a	n/a	n/a	100.546	AF05ANS.jpg
71.713	0.514	Blank	Blank	31.862	n/a	1	3	1	n/a	41	n/a	3	n/a	n/a	n/a	n/a	101.043	n/a
72.244	0.497	happy	Picture	31.348	n/a	1	3	2	n/a	42	92	3	n/a	n/a	n/a	n/a	101.574	AF21ANS.jpg
72.741	0.514	Blank	Blank	30.834	n/a	1	3	2	n/a	42	n/a	3	n/a	n/a	n/a	n/a	102.071	n/a
73.271	0.497	happy	Picture	30.32	n/a	1	3	3	n/a	43	86	3	n/a	n/a	n/a	n/a	102.601	AF09ANS.jpg
73.769	0.514	Blank	Blank	29.806	n/a	1	3	3	n/a	43	n/a	3	n/a	n/a	n/a	n/a	103.099	n/a
74.299	0.497	happy	Picture	29.292	n/a	1	3	4	n/a	44	93	3	n/a	n/a	n/a	n/a	103.629	BF22ANS.jpg
74.797	0.514	Blank	Blank	28.778	n/a	1	3	4	n/a	44	n/a	3	n/a	n/a	n/a	n/a	104.127	n/a
75.327	0.497	happy	Picture	28.264	n/a	1	3	5	n/a	45	88	3	n/a	n/a	n/a	n/a	104.657	AF14ANS.jpg
75.825	0.514	Blank	Blank	27.751	n/a	1	3	5	n/a	45	n/a	3	n/a	n/a	n/a	n/a	105.155	n/a
76.355	0.497	happy	Picture	27.237	n/a	1	3	6	n/a	46	113	3	n/a	n/a	n/a	n/a	105.685	AM21ANS.jpg
76.853	0.514	Blank	Blank	26.723	n/a	1	3	6	n/a	46	n/a	3	n/a	n/a	n/a	n/a	106.183	n/a
77.383	0.497	happy	Picture	26.209	n/a	1	3	7	n/a	47	95	3	n/a	n/a	n/a	n/a	106.713	AF25ANS.jpg
77.88	0.514	Blank	Blank	25.695	n/a	1	3	7	n/a	47	n/a	3	n/a	n/a	n/a	n/a	107.21	n/a
78.411	0.497	happy	Picture	25.181	n/a	1	3	8	n/a	48	102	3	n/a	n/a	n/a	n/a	107.741	BM03ANS.jpg
78.908	0.514	Blank	Blank	24.667	n/a	1	3	8	n/a	48	n/a	3	n/a	n/a	n/a	n/a	108.238	n/a
79.439	0.497	happy	Picture	24.153	n/a	1	3	9	n/a	49	112	3	n/a	n/a	n/a	n/a	108.769	AM14ANS.jpg
79.936	0.514	Blank	Blank	23.639	n/a	1	3	9	n/a	49	n/a	3	n/a	n/a	n/a	n/a	109.266	n/a
80.467	0.497	happy	Picture	23.125	n/a	1	3	10	n/a	50	83	3	n/a	n/a	n/a	n/a	109.797	BF04ANS.jpg
80.964	0.514	Blank	Blank	22.611	n/a	1	3	10	n/a	50	n/a	3	n/a	n/a	n/a	n/a	110.294	n/a
81.495	0.497	happy	Picture	22.097	n/a	1	3	11	n/a	51	90	3	n/a	n/a	n/a	n/a	110.825	AF18ANS.jpg
81.992	0.514	Blank	Blank	21.583	n/a	1	3	11	n/a	51	n/a	3	n/a	n/a	n/a	n/a	111.322	n/a
82.523	0.497	happy	Picture	21.069	n/a	1	3	12	n/a	52	117	3	n/a	n/a	n/a	n/a	111.853	BM25ANS.jpg
83.02	0.514	Blank	Blank	20.555	n/a	1	3	12	n/a	52	n/a	3	n/a	n/a	n/a	n/a	112.35	n/a
83.55	0.497	happy	Picture	20.041	n/a	1	3	13	n/a	53	94	3	n/a	n/a	n/a	n/a	112.88	AF23ANS.jpg
84.048	0.514	Blank	Blank	19.527	n/a	1	3	13	n/a	53	n/a	3	n/a	n/a	n/a	n/a	113.378	n/a
84.578	0.497	happy	Picture	19.013	n/a	1	3	14	n/a	54	106	3	n/a	n/a	n/a	n/a	113.908	AM07ANS.jpg
85.076	0.514	Blank	Blank	18.499	n/a	1	3	14	n/a	54	n/a	3	n/a	n/a	n/a	n/a	114.406	n/a
85.606	0.497	happy	Picture	17.986	n/a	1	3	15	n/a	55	105	3	n/a	n/a	n/a	n/a	114.936	BM06ANS.jpg
86.103	0.514	Blank	Blank	17.472	n/a	1	3	15	n/a	55	n/a	3	n/a	n/a	n/a	n/a	115.433	n/a
86.634	0.497	happy	Picture	16.958	n/a	1	3	16	n/a	56	116	3	n/a	n/a	n/a	n/a	115.964	BM24ANS.jpg
87.131	0.514	Blank	Blank	16.444	n/a	1	3	16	n/a	56	n/a	3	n/a	n/a	n/a	n/a	116.461	n/a
87.662	0.497	happy	Picture	15.93	n/a	1	3	17	n/a	57	89	3	n/a	n/a	n/a	n/a	116.992	AF17ANS.jpg
88.159	0.514	Blank	Blank	15.416	n/a	1	3	17	n/a	57	n/a	3	n/a	n/a	n/a	n/a	117.489	n/a
88.69	0.497	happy	Picture	14.902	n/a	1	3	18	n/a	58	118	3	n/a	n/a	n/a	n/a	118.02	BM26ANS.jpg
89.187	0.514	Blank	Blank	14.388	n/a	1	3	18	n/a	58	n/a	3	n/a	n/a	n/a	n/a	118.517	n/a
89.718	0.497	happy	Picture	13.874	n/a	1	3	19	n/a	59	100	3	n/a	n/a	n/a	n/a	119.048	AF32ANS.jpg
90.215	0.514	Blank	Blank	13.36	n/a	1	3	19	n/a	59	n/a	3	n/a	n/a	n/a	n/a	119.545	n/a
90.746	0.497	happy	Picture	12.846	n/a	1	3	20	n/a	60	119	3	n/a	n/a	n/a	n/a	120.076	BM28ANS.jpg
91.243	0.514	Blank	Blank	12.332	n/a	1	3	20	n/a	60	n/a	3	n/a	n/a	n/a	n/a	120.573	n/a
91.773	10.014	ITI	Fixation+	2.302	n/a	1	n/a	n/a	n/a	n/a	n/a	n/a	n/a	n/a	n/a	n/a	121.103	n/a
104.089	n/a	ConfirmRating	Rate	n/a	2.271	1	n/a	n/a	0	n/a	n/a	n/a	2	Happy	66	51	133.419	n/a
107.55	n/a	ConfirmRating	Rate	n/a	3.448	1	n/a	n/a	1	n/a	n/a	n/a	3	Happy	0	45	136.88	n/a
107.573	10.014	ITI	Fixation+	93.427	n/a	2	n/a	n/a	n/a	n/a	n/a	n/a	n/a	n/a	n/a	n/a	136.903	n/a
117.603	0.497	angry	Picture	92.913	n/a	2	4	1	n/a	61	79	2	n/a	n/a	n/a	n/a	146.933	BM28HAS.jpg
118.101	0.514	Blank	Blank	92.399	n/a	2	4	1	n/a	61	n/a	2	n/a	n/a	n/a	n/a	147.431	n/a
118.631	0.497	angry	Picture	91.885	n/a	2	4	2	n/a	62	61	2	n/a	n/a	n/a	n/a	147.961	AM01HAS.jpg
119.129	0.514	Blank	Blank	91.371	n/a	2	4	2	n/a	62	n/a	2	n/a	n/a	n/a	n/a	148.459	n/a
119.659	0.497	angry	Picture	90.857	n/a	2	4	3	n/a	63	57	2	n/a	n/a	n/a	n/a	148.989	BF28HAS.jpg
120.157	0.514	Blank	Blank	90.343	n/a	2	4	3	n/a	63	n/a	2	n/a	n/a	n/a	n/a	149.487	n/a
120.687	0.497	angry	Picture	89.829	n/a	2	4	4	n/a	64	77	2	n/a	n/a	n/a	n/a	150.017	BM25HAS.jpg
121.184	0.514	Blank	Blank	89.315	n/a	2	4	4	n/a	64	n/a	2	n/a	n/a	n/a	n/a	150.514	n/a
121.715	0.497	angry	Picture	88.801	n/a	2	4	5	n/a	65	47	2	n/a	n/a	n/a	n/a	151.045	BF11HAS.jpg
122.212	0.514	Blank	Blank	88.287	n/a	2	4	5	n/a	65	n/a	2	n/a	n/a	n/a	n/a	151.542	n/a
122.743	0.497	angry	Picture	87.773	n/a	2	4	6	n/a	66	50	2	n/a	n/a	n/a	n/a	152.073	AF18HAS.jpg
123.24	0.514	Blank	Blank	87.259	n/a	2	4	6	n/a	66	n/a	2	n/a	n/a	n/a	n/a	152.57	n/a
123.771	0.497	angry	Picture	86.745	n/a	2	4	7	n/a	67	78	2	n/a	n/a	n/a	n/a	153.101	BM26HAS.jpg
124.268	0.514	Blank	Blank	86.231	n/a	2	4	7	n/a	67	n/a	2	n/a	n/a	n/a	n/a	153.598	n/a
124.799	0.497	angry	Picture	85.717	n/a	2	4	8	n/a	68	45	2	n/a	n/a	n/a	n/a	154.129	BF07HAS.jpg
125.296	0.514	Blank	Blank	85.203	n/a	2	4	8	n/a	68	n/a	2	n/a	n/a	n/a	n/a	154.626	n/a
125.826	0.497	angry	Picture	84.689	n/a	2	4	9	n/a	69	56	2	n/a	n/a	n/a	n/a	155.156	AF26HAS.jpg
126.324	0.513	Blank	Blank	84.176	n/a	2	4	9	n/a	69	n/a	2	n/a	n/a	n/a	n/a	155.654	n/a
126.854	0.497	angry	Picture	83.662	n/a	2	4	10	n/a	70	65	2	n/a	n/a	n/a	n/a	156.184	BM06HAS.jpg
127.352	0.514	Blank	Blank	83.148	n/a	2	4	10	n/a	70	n/a	2	n/a	n/a	n/a	n/a	156.682	n/a
127.882	0.497	angry	Picture	82.634	n/a	2	4	11	n/a	71	73	2	n/a	n/a	n/a	n/a	157.212	AM21HAS.jpg
128.38	0.514	Blank	Blank	82.12	n/a	2	4	11	n/a	71	n/a	2	n/a	n/a	n/a	n/a	157.71	n/a
128.91	0.497	angry	Picture	81.606	n/a	2	4	12	n/a	72	41	2	n/a	n/a	n/a	n/a	158.24	AF01HAS.jpg
129.408	0.514	Blank	Blank	81.092	n/a	2	4	12	n/a	72	n/a	2	n/a	n/a	n/a	n/a	158.738	n/a
129.938	0.497	angry	Picture	80.578	n/a	2	4	13	n/a	73	59	2	n/a	n/a	n/a	n/a	159.268	AF31HAS.jpg
130.435	0.514	Blank	Blank	80.064	n/a	2	4	13	n/a	73	n/a	2	n/a	n/a	n/a	n/a	159.766	n/a
130.966	0.497	angry	Picture	79.55	n/a	2	4	14	n/a	74	64	2	n/a	n/a	n/a	n/a	160.296	BM05HAS.jpg
131.463	0.514	Blank	Blank	79.036	n/a	2	4	14	n/a	74	n/a	2	n/a	n/a	n/a	n/a	160.793	n/a
131.994	0.497	angry	Picture	78.522	n/a	2	4	15	n/a	75	68	2	n/a	n/a	n/a	n/a	161.324	AM09HAS.jpg
132.491	0.514	Blank	Blank	78.008	n/a	2	4	15	n/a	75	n/a	2	n/a	n/a	n/a	n/a	161.821	n/a
133.022	0.497	angry	Picture	77.494	n/a	2	4	16	n/a	76	54	2	n/a	n/a	n/a	n/a	162.352	AF23HAS.jpg
133.519	0.514	Blank	Blank	76.98	n/a	2	4	16	n/a	76	n/a	2	n/a	n/a	n/a	n/a	162.849	n/a
134.05	0.497	angry	Picture	76.466	n/a	2	4	17	n/a	77	53	2	n/a	n/a	n/a	n/a	163.38	BF22HAS.jpg
134.547	0.514	Blank	Blank	75.952	n/a	2	4	17	n/a	77	n/a	2	n/a	n/a	n/a	n/a	163.877	n/a
135.078	0.497	angry	Picture	75.438	n/a	2	4	18	n/a	78	44	2	n/a	n/a	n/a	n/a	164.408	AF05HAS.jpg
135.575	0.514	Blank	Blank	74.924	n/a	2	4	18	n/a	78	n/a	2	n/a	n/a	n/a	n/a	164.905	n/a
136.106	0.497	angry	Picture	74.411	n/a	2	4	19	n/a	79	52	2	n/a	n/a	n/a	n/a	165.435	AF21HAS.jpg
136.603	0.514	Blank	Blank	73.897	n/a	2	4	19	n/a	79	n/a	2	n/a	n/a	n/a	n/a	165.933	n/a
137.133	0.497	angry	Picture	73.383	n/a	2	4	20	n/a	80	62	2	n/a	n/a	n/a	n/a	166.463	BM03HAS.jpg
137.631	0.514	Blank	Blank	72.869	n/a	2	4	20	n/a	80	n/a	2	n/a	n/a	n/a	n/a	166.961	n/a
138.161	10.014	ITI	Fixation+	62.838	n/a	2	n/a	n/a	n/a	n/a	n/a	n/a	n/a	n/a	n/a	n/a	167.491	n/a
148.192	0.497	neutral	Picture	62.325	n/a	2	5	1	n/a	81	23	1	n/a	n/a	n/a	n/a	177.522	AM04NES.jpg
148.689	0.514	Blank	Blank	61.811	n/a	2	5	1	n/a	81	n/a	1	n/a	n/a	n/a	n/a	178.019	n/a
149.219	0.497	neutral	Picture	61.297	n/a	2	5	2	n/a	82	29	1	n/a	n/a	n/a	n/a	178.549	AM10NES.jpg
149.717	0.514	Blank	Blank	60.783	n/a	2	5	2	n/a	82	n/a	1	n/a	n/a	n/a	n/a	179.047	n/a
150.247	0.497	neutral	Picture	60.269	n/a	2	5	3	n/a	83	24	1	n/a	n/a	n/a	n/a	179.577	BM05NES.jpg
150.745	0.514	Blank	Blank	59.755	n/a	2	5	3	n/a	83	n/a	1	n/a	n/a	n/a	n/a	180.075	n/a
151.275	0.497	neutral	Picture	59.241	n/a	2	5	4	n/a	84	12	1	n/a	n/a	n/a	n/a	180.605	AF21NES.jpg
151.772	0.514	Blank	Blank	58.727	n/a	2	5	4	n/a	84	n/a	1	n/a	n/a	n/a	n/a	181.102	n/a
152.303	0.497	neutral	Picture	58.213	n/a	2	5	5	n/a	85	13	1	n/a	n/a	n/a	n/a	181.633	BF22NES.jpg
152.8	0.514	Blank	Blank	57.699	n/a	2	5	5	n/a	85	n/a	1	n/a	n/a	n/a	n/a	182.13	n/a
153.331	0.497	neutral	Picture	57.185	n/a	2	5	6	n/a	86	17	1	n/a	n/a	n/a	n/a	182.661	BF28NES.jpg
153.828	0.514	Blank	Blank	56.671	n/a	2	5	6	n/a	86	n/a	1	n/a	n/a	n/a	n/a	183.158	n/a
154.359	0.497	neutral	Picture	56.157	n/a	2	5	7	n/a	87	4	1	n/a	n/a	n/a	n/a	183.689	AF05NES.jpg
154.856	0.514	Blank	Blank	55.643	n/a	2	5	7	n/a	87	n/a	1	n/a	n/a	n/a	n/a	184.186	n/a
155.387	0.497	neutral	Picture	55.129	n/a	2	5	8	n/a	88	11	1	n/a	n/a	n/a	n/a	184.717	AF20NES.jpg
155.884	0.514	Blank	Blank	54.615	n/a	2	5	8	n/a	88	n/a	1	n/a	n/a	n/a	n/a	185.214	n/a
156.415	0.497	neutral	Picture	54.101	n/a	2	5	9	n/a	89	22	1	n/a	n/a	n/a	n/a	185.745	BM03NES.jpg
156.912	0.514	Blank	Blank	53.588	n/a	2	5	9	n/a	89	n/a	1	n/a	n/a	n/a	n/a	186.242	n/a
157.442	0.497	neutral	Picture	53.073	n/a	2	5	10	n/a	90	15	1	n/a	n/a	n/a	n/a	186.773	AF25NES.jpg
157.94	0.514	Blank	Blank	52.56	n/a	2	5	10	n/a	90	n/a	1	n/a	n/a	n/a	n/a	187.27	n/a
158.47	0.497	neutral	Picture	52.046	n/a	2	5	11	n/a	91	19	1	n/a	n/a	n/a	n/a	187.8	AF31NES.jpg
158.968	0.514	Blank	Blank	51.532	n/a	2	5	11	n/a	91	n/a	1	n/a	n/a	n/a	n/a	188.298	n/a
159.498	0.497	neutral	Picture	51.018	n/a	2	5	12	n/a	92	9	1	n/a	n/a	n/a	n/a	188.828	AF17NES.jpg
159.996	0.514	Blank	Blank	50.504	n/a	2	5	12	n/a	92	n/a	1	n/a	n/a	n/a	n/a	189.326	n/a
160.526	0.497	neutral	Picture	49.99	n/a	2	5	13	n/a	93	14	1	n/a	n/a	n/a	n/a	189.856	AF23NES.jpg
161.024	0.514	Blank	Blank	49.476	n/a	2	5	13	n/a	93	n/a	1	n/a	n/a	n/a	n/a	190.353	n/a
161.554	0.497	neutral	Picture	48.962	n/a	2	5	14	n/a	94	36	1	n/a	n/a	n/a	n/a	190.884	BM24NES.jpg
162.051	0.514	Blank	Blank	48.448	n/a	2	5	14	n/a	94	n/a	1	n/a	n/a	n/a	n/a	191.381	n/a
162.582	0.497	neutral	Picture	47.934	n/a	2	5	15	n/a	95	34	1	n/a	n/a	n/a	n/a	191.912	AM22NES.jpg
163.079	0.514	Blank	Blank	47.42	n/a	2	5	15	n/a	95	n/a	1	n/a	n/a	n/a	n/a	192.409	n/a
163.61	0.497	neutral	Picture	46.906	n/a	2	5	16	n/a	96	10	1	n/a	n/a	n/a	n/a	192.94	AF18NES.jpg
164.107	0.514	Blank	Blank	46.392	n/a	2	5	16	n/a	96	n/a	1	n/a	n/a	n/a	n/a	193.437	n/a
164.638	0.497	neutral	Picture	45.878	n/a	2	5	17	n/a	97	5	1	n/a	n/a	n/a	n/a	193.968	BF07NES.jpg
165.135	0.514	Blank	Blank	45.364	n/a	2	5	17	n/a	97	n/a	1	n/a	n/a	n/a	n/a	194.465	n/a
165.666	0.497	neutral	Picture	44.85	n/a	2	5	18	n/a	98	25	1	n/a	n/a	n/a	n/a	194.996	BM06NES.jpg
166.163	0.514	Blank	Blank	44.336	n/a	2	5	18	n/a	98	n/a	1	n/a	n/a	n/a	n/a	195.493	n/a
166.694	0.497	neutral	Picture	43.822	n/a	2	5	19	n/a	99	39	1	n/a	n/a	n/a	n/a	196.024	AM28NES.jpg
167.191	0.514	Blank	Blank	43.309	n/a	2	5	19	n/a	99	n/a	1	n/a	n/a	n/a	n/a	196.521	n/a
167.721	0.497	neutral	Picture	42.795	n/a	2	5	20	n/a	100	33	1	n/a	n/a	n/a	n/a	197.051	AM21NES.jpg
168.219	0.514	Blank	Blank	42.281	n/a	2	5	20	n/a	100	n/a	1	n/a	n/a	n/a	n/a	197.549	n/a
168.749	10.014	ITI	Fixation+	32.25	n/a	2	n/a	n/a	n/a	n/a	n/a	n/a	n/a	n/a	n/a	n/a	198.079	n/a
178.779	0.497	angry	Picture	31.737	n/a	2	6	1	n/a	101	74	2	n/a	n/a	n/a	n/a	208.109	AM22HAS.jpg
179.277	0.514	Blank	Blank	31.223	n/a	2	6	1	n/a	101	n/a	2	n/a	n/a	n/a	n/a	208.607	n/a
179.807	0.497	angry	Picture	30.709	n/a	2	6	2	n/a	102	76	2	n/a	n/a	n/a	n/a	209.137	BM24HAS.jpg
180.305	0.514	Blank	Blank	30.195	n/a	2	6	2	n/a	102	n/a	2	n/a	n/a	n/a	n/a	209.635	n/a
180.835	0.498	angry	Picture	29.681	n/a	2	6	3	n/a	103	80	2	n/a	n/a	n/a	n/a	210.165	BM35HAS.jpg
181.333	0.514	Blank	Blank	29.167	n/a	2	6	3	n/a	103	n/a	2	n/a	n/a	n/a	n/a	210.663	n/a
181.863	0.497	angry	Picture	28.653	n/a	2	6	4	n/a	104	75	2	n/a	n/a	n/a	n/a	211.193	AM23HAS.jpg
182.361	0.514	Blank	Blank	28.139	n/a	2	6	4	n/a	104	n/a	2	n/a	n/a	n/a	n/a	211.691	n/a
182.891	0.497	angry	Picture	27.625	n/a	2	6	5	n/a	105	49	2	n/a	n/a	n/a	n/a	212.221	AF17HAS.jpg
183.389	0.514	Blank	Blank	27.111	n/a	2	6	5	n/a	105	n/a	2	n/a	n/a	n/a	n/a	212.719	n/a
183.919	0.497	angry	Picture	26.597	n/a	2	6	6	n/a	106	43	2	n/a	n/a	n/a	n/a	213.249	BF04HAS.jpg
184.416	0.514	Blank	Blank	26.083	n/a	2	6	6	n/a	106	n/a	2	n/a	n/a	n/a	n/a	213.746	n/a
184.947	0.497	angry	Picture	25.569	n/a	2	6	7	n/a	107	70	2	n/a	n/a	n/a	n/a	214.277	BM11HAS.jpg
185.444	0.514	Blank	Blank	25.055	n/a	2	6	7	n/a	107	n/a	2	n/a	n/a	n/a	n/a	214.774	n/a
185.975	0.497	angry	Picture	24.541	n/a	2	6	8	n/a	108	66	2	n/a	n/a	n/a	n/a	215.305	BM07HAS.jpg
186.472	0.514	Blank	Blank	24.027	n/a	2	6	8	n/a	108	n/a	2	n/a	n/a	n/a	n/a	215.802	n/a
187.003	0.497	angry	Picture	23.513	n/a	2	6	9	n/a	109	48	2	n/a	n/a	n/a	n/a	216.333	AF14HAS.jpg
187.5	0.514	Blank	Blank	22.999	n/a	2	6	9	n/a	109	n/a	2	n/a	n/a	n/a	n/a	216.83	n/a
188.031	0.497	angry	Picture	22.485	n/a	2	6	10	n/a	110	58	2	n/a	n/a	n/a	n/a	217.361	BF29HAS.jpg
188.528	0.514	Blank	Blank	21.971	n/a	2	6	10	n/a	110	n/a	2	n/a	n/a	n/a	n/a	217.858	n/a
189.058	0.497	angry	Picture	21.458	n/a	2	6	11	n/a	111	63	2	n/a	n/a	n/a	n/a	218.388	AM04HAS.jpg
189.556	0.514	Blank	Blank	20.944	n/a	2	6	11	n/a	111	n/a	2	n/a	n/a	n/a	n/a	218.886	n/a
190.086	0.497	angry	Picture	20.43	n/a	2	6	12	n/a	112	72	2	n/a	n/a	n/a	n/a	219.416	AM14HAS.jpg
190.584	0.514	Blank	Blank	19.916	n/a	2	6	12	n/a	112	n/a	2	n/a	n/a	n/a	n/a	219.914	n/a
191.114	0.497	angry	Picture	19.402	n/a	2	6	13	n/a	113	55	2	n/a	n/a	n/a	n/a	220.444	AF25HAS.jpg
191.612	0.514	Blank	Blank	18.888	n/a	2	6	13	n/a	113	n/a	2	n/a	n/a	n/a	n/a	220.942	n/a
192.142	0.497	angry	Picture	18.374	n/a	2	6	14	n/a	114	42	2	n/a	n/a	n/a	n/a	221.472	AF03HAS.jpg
192.639	0.514	Blank	Blank	17.86	n/a	2	6	14	n/a	114	n/a	2	n/a	n/a	n/a	n/a	221.97	n/a
193.17	0.497	angry	Picture	17.346	n/a	2	6	15	n/a	115	60	2	n/a	n/a	n/a	n/a	222.5	AF32HAS.jpg
193.667	0.514	Blank	Blank	16.832	n/a	2	6	15	n/a	115	n/a	2	n/a	n/a	n/a	n/a	222.997	n/a
194.198	0.497	angry	Picture	16.318	n/a	2	6	16	n/a	116	67	2	n/a	n/a	n/a	n/a	223.528	BM08HAS.jpg
194.695	0.514	Blank	Blank	15.804	n/a	2	6	16	n/a	116	n/a	2	n/a	n/a	n/a	n/a	224.025	n/a
195.226	0.497	angry	Picture	15.29	n/a	2	6	17	n/a	117	51	2	n/a	n/a	n/a	n/a	224.556	AF20HAS.jpg
195.723	0.514	Blank	Blank	14.776	n/a	2	6	17	n/a	117	n/a	2	n/a	n/a	n/a	n/a	225.053	n/a
196.254	0.497	angry	Picture	14.262	n/a	2	6	18	n/a	118	71	2	n/a	n/a	n/a	n/a	225.584	BM12HAS.jpg
196.751	0.514	Blank	Blank	13.748	n/a	2	6	18	n/a	118	n/a	2	n/a	n/a	n/a	n/a	226.081	n/a
197.282	0.497	angry	Picture	13.234	n/a	2	6	19	n/a	119	69	2	n/a	n/a	n/a	n/a	226.612	AM10HAS.jpg
197.779	0.514	Blank	Blank	12.72	n/a	2	6	19	n/a	119	n/a	2	n/a	n/a	n/a	n/a	227.109	n/a
198.309	0.497	angry	Picture	12.207	n/a	2	6	20	n/a	120	46	2	n/a	n/a	n/a	n/a	227.639	AF09HAS.jpg
198.807	0.514	Blank	Blank	11.693	n/a	2	6	20	n/a	120	n/a	2	n/a	n/a	n/a	n/a	228.137	n/a
199.337	10.014	ITI	Fixation+	1.662	n/a	2	n/a	n/a	n/a	n/a	n/a	n/a	n/a	n/a	n/a	n/a	228.667	n/a
211.013	n/a	ConfirmRating	Rate	n/a	1.658	2	n/a	n/a	0	n/a	n/a	n/a	2	Angry	62	51	240.343	n/a
213.214	n/a	ConfirmRating	Rate	n/a	2.188	2	n/a	n/a	1	n/a	n/a	n/a	3	Angry	0	45	242.544	n/a
213.247	15.004	Rest	Picture	n/a	n/a	n/a	n/a	n/a	n/a	n/a	n/a	n/a	0	n/a	0	0	242.577	n/a
228.268	10.014	ITI	Fixation+	93.732	n/a	3	n/a	n/a	n/a	n/a	n/a	n/a	n/a	n/a	n/a	n/a	257.598	n/a
238.298	0.497	happy	Picture	93.219	n/a	3	7	1	n/a	1	108	3	n/a	n/a	n/a	n/a	267.628	AM09ANS.jpg
238.795	0.514	Blank	Blank	92.704	n/a	3	7	1	n/a	1	n/a	3	n/a	n/a	n/a	n/a	268.125	n/a
239.326	0.497	happy	Picture	92.191	n/a	3	7	2	n/a	2	99	3	n/a	n/a	n/a	n/a	268.656	AF31ANS.jpg
239.823	0.514	Blank	Blank	91.677	n/a	3	7	2	n/a	2	n/a	3	n/a	n/a	n/a	n/a	269.153	n/a
240.354	0.497	happy	Picture	91.163	n/a	3	7	3	n/a	3	98	3	n/a	n/a	n/a	n/a	269.684	BF29ANS.jpg
240.851	0.514	Blank	Blank	90.649	n/a	3	7	3	n/a	3	n/a	3	n/a	n/a	n/a	n/a	270.181	n/a
241.381	0.497	happy	Picture	90.135	n/a	3	7	4	n/a	4	107	3	n/a	n/a	n/a	n/a	270.711	BM08ANS.jpg
241.879	0.514	Blank	Blank	89.621	n/a	3	7	4	n/a	4	n/a	3	n/a	n/a	n/a	n/a	271.209	n/a
242.409	0.497	happy	Picture	89.107	n/a	3	7	5	n/a	5	104	3	n/a	n/a	n/a	n/a	271.739	BM05ANS.jpg
242.907	0.514	Blank	Blank	88.593	n/a	3	7	5	n/a	5	n/a	3	n/a	n/a	n/a	n/a	272.237	n/a
243.437	0.497	happy	Picture	88.079	n/a	3	7	6	n/a	6	101	3	n/a	n/a	n/a	n/a	272.767	AM01ANS.jpg
243.935	0.514	Blank	Blank	87.565	n/a	3	7	6	n/a	6	n/a	3	n/a	n/a	n/a	n/a	273.265	n/a
244.465	0.497	happy	Picture	87.051	n/a	3	7	7	n/a	7	103	3	n/a	n/a	n/a	n/a	273.795	AM04ANS.jpg
244.963	0.514	Blank	Blank	86.537	n/a	3	7	7	n/a	7	n/a	3	n/a	n/a	n/a	n/a	274.293	n/a
245.493	0.497	happy	Picture	86.023	n/a	3	7	8	n/a	8	111	3	n/a	n/a	n/a	n/a	274.823	BM12ANS.jpg
245.99	0.514	Blank	Blank	85.509	n/a	3	7	8	n/a	8	n/a	3	n/a	n/a	n/a	n/a	275.32	n/a
246.521	0.497	happy	Picture	84.995	n/a	3	7	9	n/a	9	110	3	n/a	n/a	n/a	n/a	275.851	AM11ANS.jpg
247.018	0.514	Blank	Blank	84.481	n/a	3	7	9	n/a	9	n/a	3	n/a	n/a	n/a	n/a	276.348	n/a
247.549	0.497	happy	Picture	83.967	n/a	3	7	10	n/a	10	85	3	n/a	n/a	n/a	n/a	276.879	BF07ANS.jpg
248.046	0.514	Blank	Blank	83.453	n/a	3	7	10	n/a	10	n/a	3	n/a	n/a	n/a	n/a	277.376	n/a
248.577	0.497	happy	Picture	82.94	n/a	3	7	11	n/a	11	87	3	n/a	n/a	n/a	n/a	277.907	BF11ANS.jpg
249.074	0.514	Blank	Blank	82.426	n/a	3	7	11	n/a	11	n/a	3	n/a	n/a	n/a	n/a	278.404	n/a
249.605	0.497	happy	Picture	81.912	n/a	3	7	12	n/a	12	91	3	n/a	n/a	n/a	n/a	278.935	AF20ANS.jpg
250.102	0.514	Blank	Blank	81.398	n/a	3	7	12	n/a	12	n/a	3	n/a	n/a	n/a	n/a	279.432	n/a
250.632	0.497	happy	Picture	80.884	n/a	3	7	13	n/a	13	115	3	n/a	n/a	n/a	n/a	279.962	AM23ANS.jpg
251.13	0.514	Blank	Blank	80.37	n/a	3	7	13	n/a	13	n/a	3	n/a	n/a	n/a	n/a	280.46	n/a
251.66	0.497	happy	Picture	79.856	n/a	3	7	14	n/a	14	97	3	n/a	n/a	n/a	n/a	280.99	BF28ANS.jpg
252.158	0.514	Blank	Blank	79.342	n/a	3	7	14	n/a	14	n/a	3	n/a	n/a	n/a	n/a	281.488	n/a
252.688	0.497	happy	Picture	78.828	n/a	3	7	15	n/a	15	82	3	n/a	n/a	n/a	n/a	282.018	AF03ANS.jpg
253.186	0.514	Blank	Blank	78.314	n/a	3	7	15	n/a	15	n/a	3	n/a	n/a	n/a	n/a	282.516	n/a
253.716	0.497	happy	Picture	77.8	n/a	3	7	16	n/a	16	96	3	n/a	n/a	n/a	n/a	283.046	AF26ANS.jpg
254.214	0.514	Blank	Blank	77.286	n/a	3	7	16	n/a	16	n/a	3	n/a	n/a	n/a	n/a	283.543	n/a
254.744	0.497	happy	Picture	76.772	n/a	3	7	17	n/a	17	109	3	n/a	n/a	n/a	n/a	284.074	AM10ANS.jpg
255.241	0.514	Blank	Blank	76.258	n/a	3	7	17	n/a	17	n/a	3	n/a	n/a	n/a	n/a	284.571	n/a
255.772	0.497	happy	Picture	75.744	n/a	3	7	18	n/a	18	114	3	n/a	n/a	n/a	n/a	285.102	AM22ANS.jpg
256.269	0.514	Blank	Blank	75.23	n/a	3	7	18	n/a	18	n/a	3	n/a	n/a	n/a	n/a	285.599	n/a
256.8	0.497	happy	Picture	74.716	n/a	3	7	19	n/a	19	120	3	n/a	n/a	n/a	n/a	286.13	AM35ANS.jpg
257.297	0.514	Blank	Blank	74.202	n/a	3	7	19	n/a	19	n/a	3	n/a	n/a	n/a	n/a	286.627	n/a
257.828	0.497	happy	Picture	73.688	n/a	3	7	20	n/a	20	81	3	n/a	n/a	n/a	n/a	287.158	AF01ANS.jpg
258.325	0.514	Blank	Blank	73.175	n/a	3	7	20	n/a	20	n/a	3	n/a	n/a	n/a	n/a	287.655	n/a
258.856	10.014	ITI	Fixation+	63.144	n/a	3	n/a	n/a	n/a	n/a	n/a	n/a	n/a	n/a	n/a	n/a	288.186	n/a
268.886	0.497	neutral	Picture	62.63	n/a	3	8	1	n/a	21	28	1	n/a	n/a	n/a	n/a	298.216	AM09NES.jpg
269.383	0.514	Blank	Blank	62.117	n/a	3	8	1	n/a	21	n/a	1	n/a	n/a	n/a	n/a	298.713	n/a
269.914	0.497	neutral	Picture	61.602	n/a	3	8	2	n/a	22	27	1	n/a	n/a	n/a	n/a	299.244	BM08NES.jpg
270.411	0.514	Blank	Blank	61.089	n/a	3	8	2	n/a	22	n/a	1	n/a	n/a	n/a	n/a	299.741	n/a
270.942	0.497	neutral	Picture	60.575	n/a	3	8	3	n/a	23	16	1	n/a	n/a	n/a	n/a	300.272	AF26NES.jpg
271.439	0.514	Blank	Blank	60.061	n/a	3	8	3	n/a	23	n/a	1	n/a	n/a	n/a	n/a	300.769	n/a
271.97	0.497	neutral	Picture	59.547	n/a	3	8	4	n/a	24	3	1	n/a	n/a	n/a	n/a	301.3	BF04NES.jpg
272.467	0.514	Blank	Blank	59.033	n/a	3	8	4	n/a	24	n/a	1	n/a	n/a	n/a	n/a	301.797	n/a
272.997	0.497	neutral	Picture	58.519	n/a	3	8	5	n/a	25	32	1	n/a	n/a	n/a	n/a	302.327	AM14NES.jpg
273.495	0.514	Blank	Blank	58.005	n/a	3	8	5	n/a	25	n/a	1	n/a	n/a	n/a	n/a	302.825	n/a
274.025	0.497	neutral	Picture	57.491	n/a	3	8	6	n/a	26	37	1	n/a	n/a	n/a	n/a	303.355	BM25NES.jpg
274.523	0.514	Blank	Blank	56.977	n/a	3	8	6	n/a	26	n/a	1	n/a	n/a	n/a	n/a	303.853	n/a
275.053	0.497	neutral	Picture	56.463	n/a	3	8	7	n/a	27	15	1	n/a	n/a	n/a	n/a	304.383	AF25NES.jpg
275.55	0.514	Blank	Blank	55.949	n/a	3	8	7	n/a	27	n/a	1	n/a	n/a	n/a	n/a	304.88	n/a
276.081	0.497	neutral	Picture	55.435	n/a	3	8	8	n/a	28	23	1	n/a	n/a	n/a	n/a	305.411	AM04NES.jpg
276.578	0.514	Blank	Blank	54.921	n/a	3	8	8	n/a	28	n/a	1	n/a	n/a	n/a	n/a	305.908	n/a
277.109	0.497	neutral	Picture	54.407	n/a	3	8	9	n/a	29	34	1	n/a	n/a	n/a	n/a	306.439	AM22NES.jpg
277.606	0.514	Blank	Blank	53.893	n/a	3	8	9	n/a	29	n/a	1	n/a	n/a	n/a	n/a	306.936	n/a
278.137	0.497	neutral	Picture	53.379	n/a	3	8	10	n/a	30	24	1	n/a	n/a	n/a	n/a	307.467	BM05NES.jpg
278.634	0.514	Blank	Blank	52.865	n/a	3	8	10	n/a	30	n/a	1	n/a	n/a	n/a	n/a	307.964	n/a
279.165	0.497	neutral	Picture	52.351	n/a	3	8	11	n/a	31	12	1	n/a	n/a	n/a	n/a	308.495	AF21NES.jpg
279.662	0.514	Blank	Blank	51.837	n/a	3	8	11	n/a	31	n/a	1	n/a	n/a	n/a	n/a	308.992	n/a
280.193	0.497	neutral	Picture	51.324	n/a	3	8	12	n/a	32	6	1	n/a	n/a	n/a	n/a	309.523	AF09NES.jpg
280.69	0.514	Blank	Blank	50.81	n/a	3	8	12	n/a	32	n/a	1	n/a	n/a	n/a	n/a	310.02	n/a
281.221	0.497	neutral	Picture	50.296	n/a	3	8	13	n/a	33	17	1	n/a	n/a	n/a	n/a	310.55	BF28NES.jpg
281.718	0.514	Blank	Blank	49.782	n/a	3	8	13	n/a	33	n/a	1	n/a	n/a	n/a	n/a	311.048	n/a
282.248	0.497	neutral	Picture	49.268	n/a	3	8	14	n/a	34	2	1	n/a	n/a	n/a	n/a	311.578	AF03NES.jpg
282.746	0.514	Blank	Blank	48.754	n/a	3	8	14	n/a	34	n/a	1	n/a	n/a	n/a	n/a	312.076	n/a
283.276	0.497	neutral	Picture	48.24	n/a	3	8	15	n/a	35	9	1	n/a	n/a	n/a	n/a	312.606	AF17NES.jpg
283.774	0.514	Blank	Blank	47.726	n/a	3	8	15	n/a	35	n/a	1	n/a	n/a	n/a	n/a	313.104	n/a
284.304	0.497	neutral	Picture	47.212	n/a	3	8	16	n/a	36	25	1	n/a	n/a	n/a	n/a	313.634	BM06NES.jpg
284.802	0.514	Blank	Blank	46.698	n/a	3	8	16	n/a	36	n/a	1	n/a	n/a	n/a	n/a	314.132	n/a
285.332	0.497	neutral	Picture	46.184	n/a	3	8	17	n/a	37	8	1	n/a	n/a	n/a	n/a	314.662	AF14NES.jpg
285.829	0.514	Blank	Blank	45.67	n/a	3	8	17	n/a	37	n/a	1	n/a	n/a	n/a	n/a	315.159	n/a
286.36	0.497	neutral	Picture	45.156	n/a	3	8	18	n/a	38	19	1	n/a	n/a	n/a	n/a	315.69	AF31NES.jpg
286.857	0.514	Blank	Blank	44.642	n/a	3	8	18	n/a	38	n/a	1	n/a	n/a	n/a	n/a	316.187	n/a
287.388	0.497	neutral	Picture	44.128	n/a	3	8	19	n/a	39	14	1	n/a	n/a	n/a	n/a	316.718	AF23NES.jpg
287.885	0.514	Blank	Blank	43.614	n/a	3	8	19	n/a	39	n/a	1	n/a	n/a	n/a	n/a	317.215	n/a
288.416	0.497	neutral	Picture	43.101	n/a	3	8	20	n/a	40	4	1	n/a	n/a	n/a	n/a	317.746	AF05NES.jpg
288.913	0.514	Blank	Blank	42.586	n/a	3	8	20	n/a	40	n/a	1	n/a	n/a	n/a	n/a	318.243	n/a
289.444	10.014	ITI	Fixation+	32.556	n/a	3	n/a	n/a	n/a	n/a	n/a	n/a	n/a	n/a	n/a	n/a	318.774	n/a
299.474	0.497	happy	Picture	32.042	n/a	3	9	1	n/a	41	84	3	n/a	n/a	n/a	n/a	328.804	AF05ANS.jpg
299.971	0.514	Blank	Blank	31.528	n/a	3	9	1	n/a	41	n/a	3	n/a	n/a	n/a	n/a	329.301	n/a
300.502	0.497	happy	Picture	31.014	n/a	3	9	2	n/a	42	92	3	n/a	n/a	n/a	n/a	329.832	AF21ANS.jpg
300.999	0.514	Blank	Blank	30.5	n/a	3	9	2	n/a	42	n/a	3	n/a	n/a	n/a	n/a	330.329	n/a
301.53	0.497	happy	Picture	29.987	n/a	3	9	3	n/a	43	86	3	n/a	n/a	n/a	n/a	330.86	AF09ANS.jpg
302.027	0.514	Blank	Blank	29.473	n/a	3	9	3	n/a	43	n/a	3	n/a	n/a	n/a	n/a	331.357	n/a
302.558	0.497	happy	Picture	28.959	n/a	3	9	4	n/a	44	93	3	n/a	n/a	n/a	n/a	331.888	BF22ANS.jpg
303.055	0.514	Blank	Blank	28.445	n/a	3	9	4	n/a	44	n/a	3	n/a	n/a	n/a	n/a	332.385	n/a
303.586	0.497	happy	Picture	27.931	n/a	3	9	5	n/a	45	88	3	n/a	n/a	n/a	n/a	332.916	AF14ANS.jpg
304.083	0.514	Blank	Blank	27.417	n/a	3	9	5	n/a	45	n/a	3	n/a	n/a	n/a	n/a	333.413	n/a
304.613	0.497	happy	Picture	26.903	n/a	3	9	6	n/a	46	113	3	n/a	n/a	n/a	n/a	333.943	AM21ANS.jpg
305.111	0.514	Blank	Blank	26.389	n/a	3	9	6	n/a	46	n/a	3	n/a	n/a	n/a	n/a	334.441	n/a
305.641	0.497	happy	Picture	25.875	n/a	3	9	7	n/a	47	95	3	n/a	n/a	n/a	n/a	334.971	AF25ANS.jpg
306.139	0.514	Blank	Blank	25.361	n/a	3	9	7	n/a	47	n/a	3	n/a	n/a	n/a	n/a	335.469	n/a
306.669	0.497	happy	Picture	24.847	n/a	3	9	8	n/a	48	102	3	n/a	n/a	n/a	n/a	335.999	BM03ANS.jpg
307.167	0.514	Blank	Blank	24.333	n/a	3	9	8	n/a	48	n/a	3	n/a	n/a	n/a	n/a	336.497	n/a
307.697	0.497	happy	Picture	23.819	n/a	3	9	9	n/a	49	112	3	n/a	n/a	n/a	n/a	337.027	AM14ANS.jpg
308.194	0.514	Blank	Blank	23.305	n/a	3	9	9	n/a	49	n/a	3	n/a	n/a	n/a	n/a	337.524	n/a
308.725	0.497	happy	Picture	22.791	n/a	3	9	10	n/a	50	83	3	n/a	n/a	n/a	n/a	338.055	BF04ANS.jpg
309.222	0.514	Blank	Blank	22.277	n/a	3	9	10	n/a	50	n/a	3	n/a	n/a	n/a	n/a	338.552	n/a
309.753	0.497	happy	Picture	21.763	n/a	3	9	11	n/a	51	90	3	n/a	n/a	n/a	n/a	339.083	AF18ANS.jpg
310.25	0.514	Blank	Blank	21.25	n/a	3	9	11	n/a	51	n/a	3	n/a	n/a	n/a	n/a	339.58	n/a
310.781	0.497	happy	Picture	20.735	n/a	3	9	12	n/a	52	117	3	n/a	n/a	n/a	n/a	340.111	BM25ANS.jpg
311.278	0.514	Blank	Blank	20.222	n/a	3	9	12	n/a	52	n/a	3	n/a	n/a	n/a	n/a	340.608	n/a
311.809	0.497	happy	Picture	19.708	n/a	3	9	13	n/a	53	94	3	n/a	n/a	n/a	n/a	341.139	AF23ANS.jpg
312.306	0.514	Blank	Blank	19.194	n/a	3	9	13	n/a	53	n/a	3	n/a	n/a	n/a	n/a	341.636	n/a
312.837	0.497	happy	Picture	18.68	n/a	3	9	14	n/a	54	106	3	n/a	n/a	n/a	n/a	342.166	AM07ANS.jpg
313.334	0.514	Blank	Blank	18.166	n/a	3	9	14	n/a	54	n/a	3	n/a	n/a	n/a	n/a	342.664	n/a
313.864	0.497	happy	Picture	17.652	n/a	3	9	15	n/a	55	105	3	n/a	n/a	n/a	n/a	343.194	BM06ANS.jpg
314.362	0.514	Blank	Blank	17.138	n/a	3	9	15	n/a	55	n/a	3	n/a	n/a	n/a	n/a	343.692	n/a
314.892	0.497	happy	Picture	16.624	n/a	3	9	16	n/a	56	116	3	n/a	n/a	n/a	n/a	344.222	BM24ANS.jpg
315.39	0.514	Blank	Blank	16.11	n/a	3	9	16	n/a	56	n/a	3	n/a	n/a	n/a	n/a	344.72	n/a
315.92	0.497	happy	Picture	15.596	n/a	3	9	17	n/a	57	89	3	n/a	n/a	n/a	n/a	345.25	AF17ANS.jpg
316.418	0.514	Blank	Blank	15.082	n/a	3	9	17	n/a	57	n/a	3	n/a	n/a	n/a	n/a	345.748	n/a
316.948	0.497	happy	Picture	14.568	n/a	3	9	18	n/a	58	118	3	n/a	n/a	n/a	n/a	346.278	BM26ANS.jpg
317.445	0.514	Blank	Blank	14.054	n/a	3	9	18	n/a	58	n/a	3	n/a	n/a	n/a	n/a	346.775	n/a
317.976	0.497	happy	Picture	13.54	n/a	3	9	19	n/a	59	100	3	n/a	n/a	n/a	n/a	347.306	AF32ANS.jpg
318.473	0.514	Blank	Blank	13.026	n/a	3	9	19	n/a	59	n/a	3	n/a	n/a	n/a	n/a	347.803	n/a
319.004	0.497	happy	Picture	12.512	n/a	3	9	20	n/a	60	119	3	n/a	n/a	n/a	n/a	348.334	BM28ANS.jpg
319.501	0.514	Blank	Blank	11.998	n/a	3	9	20	n/a	60	n/a	3	n/a	n/a	n/a	n/a	348.831	n/a
320.032	10.014	ITI	Fixation+	1.968	n/a	3	n/a	n/a	n/a	n/a	n/a	n/a	n/a	n/a	n/a	n/a	349.362	n/a
332.014	n/a	ConfirmRating	Rate	n/a	1.956	3	n/a	n/a	0	n/a	n/a	n/a	2	Happy	60	51	361.344	n/a
334.245	n/a	ConfirmRating	Rate	n/a	2.222	3	n/a	n/a	1	n/a	n/a	n/a	3	Happy	0	43	363.575	n/a
334.273	10.014	ITI	Fixation+	93.756	n/a	4	n/a	n/a	n/a	n/a	n/a	n/a	n/a	n/a	n/a	n/a	363.603	n/a
344.303	0.497	angry	Picture	93.242	n/a	4	10	1	n/a	61	79	2	n/a	n/a	n/a	n/a	373.633	BM28HAS.jpg
344.801	0.514	Blank	Blank	92.728	n/a	4	10	1	n/a	61	n/a	2	n/a	n/a	n/a	n/a	374.131	n/a
345.331	0.497	angry	Picture	92.214	n/a	4	10	2	n/a	62	61	2	n/a	n/a	n/a	n/a	374.661	AM01HAS.jpg
345.829	0.514	Blank	Blank	91.701	n/a	4	10	2	n/a	62	n/a	2	n/a	n/a	n/a	n/a	375.159	n/a
346.359	0.497	angry	Picture	91.187	n/a	4	10	3	n/a	63	57	2	n/a	n/a	n/a	n/a	375.689	BF28HAS.jpg
346.856	0.514	Blank	Blank	90.673	n/a	4	10	3	n/a	63	n/a	2	n/a	n/a	n/a	n/a	376.186	n/a
347.387	0.497	angry	Picture	90.159	n/a	4	10	4	n/a	64	77	2	n/a	n/a	n/a	n/a	376.717	BM25HAS.jpg
347.884	0.514	Blank	Blank	89.645	n/a	4	10	4	n/a	64	n/a	2	n/a	n/a	n/a	n/a	377.214	n/a
348.415	0.497	angry	Picture	89.131	n/a	4	10	5	n/a	65	47	2	n/a	n/a	n/a	n/a	377.745	BF11HAS.jpg
348.912	0.514	Blank	Blank	88.617	n/a	4	10	5	n/a	65	n/a	2	n/a	n/a	n/a	n/a	378.242	n/a
349.443	0.497	angry	Picture	88.103	n/a	4	10	6	n/a	66	50	2	n/a	n/a	n/a	n/a	378.773	AF18HAS.jpg
349.94	0.514	Blank	Blank	87.589	n/a	4	10	6	n/a	66	n/a	2	n/a	n/a	n/a	n/a	379.27	n/a
350.471	0.497	angry	Picture	87.075	n/a	4	10	7	n/a	67	78	2	n/a	n/a	n/a	n/a	379.801	BM26HAS.jpg
350.968	0.514	Blank	Blank	86.561	n/a	4	10	7	n/a	67	n/a	2	n/a	n/a	n/a	n/a	380.298	n/a
351.498	0.497	angry	Picture	86.047	n/a	4	10	8	n/a	68	45	2	n/a	n/a	n/a	n/a	380.828	BF07HAS.jpg
351.996	0.514	Blank	Blank	85.533	n/a	4	10	8	n/a	68	n/a	2	n/a	n/a	n/a	n/a	381.326	n/a
352.526	0.497	angry	Picture	85.019	n/a	4	10	9	n/a	69	56	2	n/a	n/a	n/a	n/a	381.856	AF26HAS.jpg
353.024	0.514	Blank	Blank	84.505	n/a	4	10	9	n/a	69	n/a	2	n/a	n/a	n/a	n/a	382.354	n/a
353.554	0.497	angry	Picture	83.991	n/a	4	10	10	n/a	70	65	2	n/a	n/a	n/a	n/a	382.884	BM06HAS.jpg
354.052	0.514	Blank	Blank	83.477	n/a	4	10	10	n/a	70	n/a	2	n/a	n/a	n/a	n/a	383.382	n/a
354.582	0.497	angry	Picture	82.963	n/a	4	10	11	n/a	71	73	2	n/a	n/a	n/a	n/a	383.912	AM21HAS.jpg
355.079	0.514	Blank	Blank	82.45	n/a	4	10	11	n/a	71	n/a	2	n/a	n/a	n/a	n/a	384.409	n/a
355.61	0.497	angry	Picture	81.936	n/a	4	10	12	n/a	72	41	2	n/a	n/a	n/a	n/a	384.94	AF01HAS.jpg
356.107	0.514	Blank	Blank	81.422	n/a	4	10	12	n/a	72	n/a	2	n/a	n/a	n/a	n/a	385.437	n/a
356.638	0.497	angry	Picture	80.908	n/a	4	10	13	n/a	73	59	2	n/a	n/a	n/a	n/a	385.968	AF31HAS.jpg
357.135	0.514	Blank	Blank	80.394	n/a	4	10	13	n/a	73	n/a	2	n/a	n/a	n/a	n/a	386.465	n/a
357.666	0.497	angry	Picture	79.88	n/a	4	10	14	n/a	74	64	2	n/a	n/a	n/a	n/a	386.996	BM05HAS.jpg
358.163	0.514	Blank	Blank	79.366	n/a	4	10	14	n/a	74	n/a	2	n/a	n/a	n/a	n/a	387.493	n/a
358.694	0.497	angry	Picture	78.852	n/a	4	10	15	n/a	75	68	2	n/a	n/a	n/a	n/a	388.024	AM09HAS.jpg
359.191	0.514	Blank	Blank	78.338	n/a	4	10	15	n/a	75	n/a	2	n/a	n/a	n/a	n/a	388.521	n/a
359.722	0.497	angry	Picture	77.824	n/a	4	10	16	n/a	76	54	2	n/a	n/a	n/a	n/a	389.052	AF23HAS.jpg
360.219	0.514	Blank	Blank	77.31	n/a	4	10	16	n/a	76	n/a	2	n/a	n/a	n/a	n/a	389.549	n/a
360.75	0.497	angry	Picture	76.796	n/a	4	10	17	n/a	77	53	2	n/a	n/a	n/a	n/a	390.079	BF22HAS.jpg
361.247	0.514	Blank	Blank	76.282	n/a	4	10	17	n/a	77	n/a	2	n/a	n/a	n/a	n/a	390.577	n/a
361.777	0.497	angry	Picture	75.768	n/a	4	10	18	n/a	78	44	2	n/a	n/a	n/a	n/a	391.107	AF05HAS.jpg
362.275	0.514	Blank	Blank	75.254	n/a	4	10	18	n/a	78	n/a	2	n/a	n/a	n/a	n/a	391.605	n/a
362.805	0.497	angry	Picture	74.74	n/a	4	10	19	n/a	79	52	2	n/a	n/a	n/a	n/a	392.135	AF21HAS.jpg
363.303	0.514	Blank	Blank	74.226	n/a	4	10	19	n/a	79	n/a	2	n/a	n/a	n/a	n/a	392.633	n/a
363.833	0.497	angry	Picture	73.712	n/a	4	10	20	n/a	80	62	2	n/a	n/a	n/a	n/a	393.163	BM03HAS.jpg
364.331	0.514	Blank	Blank	73.198	n/a	4	10	20	n/a	80	n/a	2	n/a	n/a	n/a	n/a	393.661	n/a
364.861	10.014	ITI	Fixation+	63.168	n/a	4	n/a	n/a	n/a	n/a	n/a	n/a	n/a	n/a	n/a	n/a	394.191	n/a
374.891	0.497	neutral	Picture	62.654	n/a	4	11	1	n/a	81	23	1	n/a	n/a	n/a	n/a	404.221	AM04NES.jpg
375.389	0.514	Blank	Blank	62.14	n/a	4	11	1	n/a	81	n/a	1	n/a	n/a	n/a	n/a	404.719	n/a
375.919	0.497	neutral	Picture	61.627	n/a	4	11	2	n/a	82	29	1	n/a	n/a	n/a	n/a	405.249	AM10NES.jpg
376.417	0.514	Blank	Blank	61.112	n/a	4	11	2	n/a	82	n/a	1	n/a	n/a	n/a	n/a	405.747	n/a
376.947	0.497	neutral	Picture	60.599	n/a	4	11	3	n/a	83	24	1	n/a	n/a	n/a	n/a	406.277	BM05NES.jpg
377.444	0.514	Blank	Blank	60.085	n/a	4	11	3	n/a	83	n/a	1	n/a	n/a	n/a	n/a	406.774	n/a
377.975	0.497	neutral	Picture	59.571	n/a	4	11	4	n/a	84	12	1	n/a	n/a	n/a	n/a	407.305	AF21NES.jpg
378.472	0.514	Blank	Blank	59.057	n/a	4	11	4	n/a	84	n/a	1	n/a	n/a	n/a	n/a	407.802	n/a
379.003	0.497	neutral	Picture	58.543	n/a	4	11	5	n/a	85	13	1	n/a	n/a	n/a	n/a	408.333	BF22NES.jpg
379.5	0.514	Blank	Blank	58.029	n/a	4	11	5	n/a	85	n/a	1	n/a	n/a	n/a	n/a	408.83	n/a
380.031	0.497	neutral	Picture	57.515	n/a	4	11	6	n/a	86	17	1	n/a	n/a	n/a	n/a	409.361	BF28NES.jpg
380.528	0.514	Blank	Blank	57.001	n/a	4	11	6	n/a	86	n/a	1	n/a	n/a	n/a	n/a	409.858	n/a
381.059	0.497	neutral	Picture	56.487	n/a	4	11	7	n/a	87	4	1	n/a	n/a	n/a	n/a	410.389	AF05NES.jpg
381.556	0.514	Blank	Blank	55.973	n/a	4	11	7	n/a	87	n/a	1	n/a	n/a	n/a	n/a	410.886	n/a
382.087	0.497	neutral	Picture	55.459	n/a	4	11	8	n/a	88	11	1	n/a	n/a	n/a	n/a	411.416	AF20NES.jpg
382.584	0.514	Blank	Blank	54.945	n/a	4	11	8	n/a	88	n/a	1	n/a	n/a	n/a	n/a	411.914	n/a
383.114	0.497	neutral	Picture	54.431	n/a	4	11	9	n/a	89	22	1	n/a	n/a	n/a	n/a	412.444	BM03NES.jpg
383.612	0.514	Blank	Blank	53.917	n/a	4	11	9	n/a	89	n/a	1	n/a	n/a	n/a	n/a	412.942	n/a
384.142	0.497	neutral	Picture	53.403	n/a	4	11	10	n/a	90	15	1	n/a	n/a	n/a	n/a	413.472	AF25NES.jpg
384.64	0.514	Blank	Blank	52.889	n/a	4	11	10	n/a	90	n/a	1	n/a	n/a	n/a	n/a	413.97	n/a
385.17	0.497	neutral	Picture	52.375	n/a	4	11	11	n/a	91	19	1	n/a	n/a	n/a	n/a	414.5	AF31NES.jpg
385.668	0.514	Blank	Blank	51.862	n/a	4	11	11	n/a	91	n/a	1	n/a	n/a	n/a	n/a	414.998	n/a
386.198	0.497	neutral	Picture	51.347	n/a	4	11	12	n/a	92	9	1	n/a	n/a	n/a	n/a	415.528	AF17NES.jpg
386.696	0.514	Blank	Blank	50.834	n/a	4	11	12	n/a	92	n/a	1	n/a	n/a	n/a	n/a	416.026	n/a
387.226	0.497	neutral	Picture	50.32	n/a	4	11	13	n/a	93	14	1	n/a	n/a	n/a	n/a	416.556	AF23NES.jpg
387.723	0.514	Blank	Blank	49.806	n/a	4	11	13	n/a	93	n/a	1	n/a	n/a	n/a	n/a	417.053	n/a
388.254	0.497	neutral	Picture	49.292	n/a	4	11	14	n/a	94	36	1	n/a	n/a	n/a	n/a	417.584	BM24NES.jpg
388.751	0.514	Blank	Blank	48.778	n/a	4	11	14	n/a	94	n/a	1	n/a	n/a	n/a	n/a	418.081	n/a
389.282	0.497	neutral	Picture	48.264	n/a	4	11	15	n/a	95	34	1	n/a	n/a	n/a	n/a	418.612	AM22NES.jpg
389.779	0.514	Blank	Blank	47.75	n/a	4	11	15	n/a	95	n/a	1	n/a	n/a	n/a	n/a	419.109	n/a
390.31	0.497	neutral	Picture	47.236	n/a	4	11	16	n/a	96	10	1	n/a	n/a	n/a	n/a	419.64	AF18NES.jpg
390.807	0.514	Blank	Blank	46.722	n/a	4	11	16	n/a	96	n/a	1	n/a	n/a	n/a	n/a	420.137	n/a
391.338	0.497	neutral	Picture	46.208	n/a	4	11	17	n/a	97	5	1	n/a	n/a	n/a	n/a	420.668	BF07NES.jpg
391.835	0.514	Blank	Blank	45.694	n/a	4	11	17	n/a	97	n/a	1	n/a	n/a	n/a	n/a	421.165	n/a
392.365	0.497	neutral	Picture	45.18	n/a	4	11	18	n/a	98	25	1	n/a	n/a	n/a	n/a	421.695	BM06NES.jpg
392.863	0.514	Blank	Blank	44.666	n/a	4	11	18	n/a	98	n/a	1	n/a	n/a	n/a	n/a	422.193	n/a
393.393	0.497	neutral	Picture	44.152	n/a	4	11	19	n/a	99	39	1	n/a	n/a	n/a	n/a	422.723	AM28NES.jpg
393.891	0.514	Blank	Blank	43.638	n/a	4	11	19	n/a	99	n/a	1	n/a	n/a	n/a	n/a	423.221	n/a
394.421	0.497	neutral	Picture	43.124	n/a	4	11	20	n/a	100	33	1	n/a	n/a	n/a	n/a	423.751	AM21NES.jpg
394.919	0.514	Blank	Blank	42.611	n/a	4	11	20	n/a	100	n/a	1	n/a	n/a	n/a	n/a	424.249	n/a
395.449	10.014	ITI	Fixation+	32.58	n/a	4	n/a	n/a	n/a	n/a	n/a	n/a	n/a	n/a	n/a	n/a	424.779	n/a
405.479	0.497	angry	Picture	32.066	n/a	4	12	1	n/a	101	74	2	n/a	n/a	n/a	n/a	434.809	AM22HAS.jpg
405.977	0.514	Blank	Blank	31.552	n/a	4	12	1	n/a	101	n/a	2	n/a	n/a	n/a	n/a	435.307	n/a
406.507	0.497	angry	Picture	31.038	n/a	4	12	2	n/a	102	76	2	n/a	n/a	n/a	n/a	435.837	BM24HAS.jpg
407.005	0.514	Blank	Blank	30.524	n/a	4	12	2	n/a	102	n/a	2	n/a	n/a	n/a	n/a	436.335	n/a
407.535	0.497	angry	Picture	30.01	n/a	4	12	3	n/a	103	80	2	n/a	n/a	n/a	n/a	436.865	BM35HAS.jpg
408.033	0.514	Blank	Blank	29.497	n/a	4	12	3	n/a	103	n/a	2	n/a	n/a	n/a	n/a	437.363	n/a
408.563	0.497	angry	Picture	28.983	n/a	4	12	4	n/a	104	75	2	n/a	n/a	n/a	n/a	437.893	AM23HAS.jpg
409.06	0.514	Blank	Blank	28.469	n/a	4	12	4	n/a	104	n/a	2	n/a	n/a	n/a	n/a	438.39	n/a
409.591	0.497	angry	Picture	27.955	n/a	4	12	5	n/a	105	49	2	n/a	n/a	n/a	n/a	438.921	AF17HAS.jpg
410.088	0.514	Blank	Blank	27.441	n/a	4	12	5	n/a	105	n/a	2	n/a	n/a	n/a	n/a	439.418	n/a
410.619	0.497	angry	Picture	26.927	n/a	4	12	6	n/a	106	43	2	n/a	n/a	n/a	n/a	439.949	BF04HAS.jpg
411.116	0.514	Blank	Blank	26.413	n/a	4	12	6	n/a	106	n/a	2	n/a	n/a	n/a	n/a	440.446	n/a
411.647	0.497	angry	Picture	25.899	n/a	4	12	7	n/a	107	70	2	n/a	n/a	n/a	n/a	440.977	BM11HAS.jpg
412.144	0.514	Blank	Blank	25.385	n/a	4	12	7	n/a	107	n/a	2	n/a	n/a	n/a	n/a	441.474	n/a
412.675	0.497	angry	Picture	24.871	n/a	4	12	8	n/a	108	66	2	n/a	n/a	n/a	n/a	442.005	BM07HAS.jpg
413.172	0.514	Blank	Blank	24.357	n/a	4	12	8	n/a	108	n/a	2	n/a	n/a	n/a	n/a	442.502	n/a
413.703	0.497	angry	Picture	23.843	n/a	4	12	9	n/a	109	48	2	n/a	n/a	n/a	n/a	443.033	AF14HAS.jpg
414.2	0.514	Blank	Blank	23.329	n/a	4	12	9	n/a	109	n/a	2	n/a	n/a	n/a	n/a	443.53	n/a
414.73	0.497	angry	Picture	22.815	n/a	4	12	10	n/a	110	58	2	n/a	n/a	n/a	n/a	444.06	BF29HAS.jpg
415.228	0.514	Blank	Blank	22.301	n/a	4	12	10	n/a	110	n/a	2	n/a	n/a	n/a	n/a	444.558	n/a
415.758	0.497	angry	Picture	21.787	n/a	4	12	11	n/a	111	63	2	n/a	n/a	n/a	n/a	445.088	AM04HAS.jpg
416.256	0.514	Blank	Blank	21.273	n/a	4	12	11	n/a	111	n/a	2	n/a	n/a	n/a	n/a	445.586	n/a
416.786	0.497	angry	Picture	20.759	n/a	4	12	12	n/a	112	72	2	n/a	n/a	n/a	n/a	446.116	AM14HAS.jpg
417.284	0.514	Blank	Blank	20.245	n/a	4	12	12	n/a	112	n/a	2	n/a	n/a	n/a	n/a	446.613	n/a
417.814	0.497	angry	Picture	19.732	n/a	4	12	13	n/a	113	55	2	n/a	n/a	n/a	n/a	447.144	AF25HAS.jpg
418.311	0.514	Blank	Blank	19.218	n/a	4	12	13	n/a	113	n/a	2	n/a	n/a	n/a	n/a	447.641	n/a
418.842	0.497	angry	Picture	18.704	n/a	4	12	14	n/a	114	42	2	n/a	n/a	n/a	n/a	448.172	AF03HAS.jpg
419.339	0.514	Blank	Blank	18.19	n/a	4	12	14	n/a	114	n/a	2	n/a	n/a	n/a	n/a	448.669	n/a
419.87	0.497	angry	Picture	17.676	n/a	4	12	15	n/a	115	60	2	n/a	n/a	n/a	n/a	449.2	AF32HAS.jpg
420.367	0.514	Blank	Blank	17.162	n/a	4	12	15	n/a	115	n/a	2	n/a	n/a	n/a	n/a	449.697	n/a
420.898	0.497	angry	Picture	16.648	n/a	4	12	16	n/a	116	67	2	n/a	n/a	n/a	n/a	450.228	BM08HAS.jpg
421.395	0.514	Blank	Blank	16.134	n/a	4	12	16	n/a	116	n/a	2	n/a	n/a	n/a	n/a	450.725	n/a
421.926	0.497	angry	Picture	15.62	n/a	4	12	17	n/a	117	51	2	n/a	n/a	n/a	n/a	451.256	AF20HAS.jpg
422.423	0.514	Blank	Blank	15.106	n/a	4	12	17	n/a	117	n/a	2	n/a	n/a	n/a	n/a	451.753	n/a
422.954	0.497	angry	Picture	14.592	n/a	4	12	18	n/a	118	71	2	n/a	n/a	n/a	n/a	452.284	BM12HAS.jpg
423.451	0.514	Blank	Blank	14.078	n/a	4	12	18	n/a	118	n/a	2	n/a	n/a	n/a	n/a	452.781	n/a
423.981	0.497	angry	Picture	13.564	n/a	4	12	19	n/a	119	69	2	n/a	n/a	n/a	n/a	453.311	AM10HAS.jpg
424.479	0.514	Blank	Blank	13.05	n/a	4	12	19	n/a	119	n/a	2	n/a	n/a	n/a	n/a	453.809	n/a
425.009	0.497	angry	Picture	12.536	n/a	4	12	20	n/a	120	46	2	n/a	n/a	n/a	n/a	454.339	AF09HAS.jpg
425.507	0.514	Blank	Blank	12.022	n/a	4	12	20	n/a	120	n/a	2	n/a	n/a	n/a	n/a	454.837	n/a
426.037	10.014	ITI	Fixation+	1.992	n/a	4	n/a	n/a	n/a	n/a	n/a	n/a	n/a	n/a	n/a	n/a	455.367	n/a
438.043	n/a	ConfirmRating	Rate	n/a	1.989	4	n/a	n/a	0	n/a	n/a	n/a	2	Angry	60	51	467.373	n/a
440.679	n/a	ConfirmRating	Rate	n/a	2.619	4	n/a	n/a	1	n/a	n/a	n/a	3	Angry	0	43	470.009	n/a
