onset	duration	trial_type	event_type	time_until_response	response_time	trial_number	block_num_within_trial	image_seq_num_within_block	question_seq_num_within_block	image_seq_num	picture_number	condition	question_type	block_type	rating	rating_computed	onset_uncorrected	KDEV_imagefile
0.007	10.014	ITI	Fixation+	96.09	n/a	1	n/a	n/a	n/a	n/a	n/a	n/a	n/a	n/a	n/a	n/a	31.611	n/a
10.037	0.497	happy	Picture	95.576	n/a	1	1	1	n/a	1	108	3	n/a	n/a	n/a	n/a	41.641	AM09ANS.jpg
10.535	0.514	Blank	Blank	95.062	n/a	1	1	1	n/a	1	n/a	3	n/a	n/a	n/a	n/a	42.138	n/a
11.065	0.497	happy	Picture	94.548	n/a	1	1	2	n/a	2	99	3	n/a	n/a	n/a	n/a	42.669	AF31ANS.jpg
11.563	0.514	Blank	Blank	94.034	n/a	1	1	2	n/a	2	n/a	3	n/a	n/a	n/a	n/a	43.166	n/a
12.093	0.497	happy	Picture	93.52	n/a	1	1	3	n/a	3	98	3	n/a	n/a	n/a	n/a	43.697	BF29ANS.jpg
12.59	0.514	Blank	Blank	93.006	n/a	1	1	3	n/a	3	n/a	3	n/a	n/a	n/a	n/a	44.194	n/a
13.121	0.497	happy	Picture	92.492	n/a	1	1	4	n/a	4	107	3	n/a	n/a	n/a	n/a	44.724	BM08ANS.jpg
13.618	0.514	Blank	Blank	91.978	n/a	1	1	4	n/a	4	n/a	3	n/a	n/a	n/a	n/a	45.222	n/a
14.149	0.497	happy	Picture	91.464	n/a	1	1	5	n/a	5	104	3	n/a	n/a	n/a	n/a	45.752	BM05ANS.jpg
14.646	0.514	Blank	Blank	90.95	n/a	1	1	5	n/a	5	n/a	3	n/a	n/a	n/a	n/a	46.25	n/a
15.177	0.497	happy	Picture	90.436	n/a	1	1	6	n/a	6	101	3	n/a	n/a	n/a	n/a	46.78	AM01ANS.jpg
15.674	0.514	Blank	Blank	89.922	n/a	1	1	6	n/a	6	n/a	3	n/a	n/a	n/a	n/a	47.278	n/a
16.205	0.497	happy	Picture	89.409	n/a	1	1	7	n/a	7	103	3	n/a	n/a	n/a	n/a	47.808	AM04ANS.jpg
16.702	0.514	Blank	Blank	88.894	n/a	1	1	7	n/a	7	n/a	3	n/a	n/a	n/a	n/a	48.306	n/a
17.232	0.497	happy	Picture	88.381	n/a	1	1	8	n/a	8	111	3	n/a	n/a	n/a	n/a	48.836	BM12ANS.jpg
17.73	0.514	Blank	Blank	87.867	n/a	1	1	8	n/a	8	n/a	3	n/a	n/a	n/a	n/a	49.333	n/a
18.26	0.497	happy	Picture	87.353	n/a	1	1	9	n/a	9	110	3	n/a	n/a	n/a	n/a	49.864	AM11ANS.jpg
18.758	0.514	Blank	Blank	86.839	n/a	1	1	9	n/a	9	n/a	3	n/a	n/a	n/a	n/a	50.361	n/a
19.288	0.497	happy	Picture	86.325	n/a	1	1	10	n/a	10	85	3	n/a	n/a	n/a	n/a	50.892	BF07ANS.jpg
19.786	0.514	Blank	Blank	85.811	n/a	1	1	10	n/a	10	n/a	3	n/a	n/a	n/a	n/a	51.389	n/a
20.316	0.497	happy	Picture	85.297	n/a	1	1	11	n/a	11	87	3	n/a	n/a	n/a	n/a	51.92	BF11ANS.jpg
20.813	0.514	Blank	Blank	84.783	n/a	1	1	11	n/a	11	n/a	3	n/a	n/a	n/a	n/a	52.417	n/a
21.344	0.497	happy	Picture	84.269	n/a	1	1	12	n/a	12	91	3	n/a	n/a	n/a	n/a	52.948	AF20ANS.jpg
21.841	0.514	Blank	Blank	83.755	n/a	1	1	12	n/a	12	n/a	3	n/a	n/a	n/a	n/a	53.445	n/a
22.372	0.497	happy	Picture	83.241	n/a	1	1	13	n/a	13	115	3	n/a	n/a	n/a	n/a	53.975	AM23ANS.jpg
22.869	0.514	Blank	Blank	82.727	n/a	1	1	13	n/a	13	n/a	3	n/a	n/a	n/a	n/a	54.473	n/a
23.4	0.497	happy	Picture	82.213	n/a	1	1	14	n/a	14	97	3	n/a	n/a	n/a	n/a	55.003	BF28ANS.jpg
23.897	0.514	Blank	Blank	81.699	n/a	1	1	14	n/a	14	n/a	3	n/a	n/a	n/a	n/a	55.501	n/a
24.428	0.497	happy	Picture	81.185	n/a	1	1	15	n/a	15	82	3	n/a	n/a	n/a	n/a	56.031	AF03ANS.jpg
24.925	0.514	Blank	Blank	80.671	n/a	1	1	15	n/a	15	n/a	3	n/a	n/a	n/a	n/a	56.529	n/a
25.456	0.497	happy	Picture	80.157	n/a	1	1	16	n/a	16	96	3	n/a	n/a	n/a	n/a	57.059	AF26ANS.jpg
25.953	0.514	Blank	Blank	79.644	n/a	1	1	16	n/a	16	n/a	3	n/a	n/a	n/a	n/a	57.556	n/a
26.483	0.497	happy	Picture	79.13	n/a	1	1	17	n/a	17	109	3	n/a	n/a	n/a	n/a	58.087	AM10ANS.jpg
26.981	0.514	Blank	Blank	78.616	n/a	1	1	17	n/a	17	n/a	3	n/a	n/a	n/a	n/a	58.584	n/a
27.511	0.497	happy	Picture	78.102	n/a	1	1	18	n/a	18	114	3	n/a	n/a	n/a	n/a	59.115	AM22ANS.jpg
28.009	0.514	Blank	Blank	77.588	n/a	1	1	18	n/a	18	n/a	3	n/a	n/a	n/a	n/a	59.612	n/a
28.539	0.497	happy	Picture	77.074	n/a	1	1	19	n/a	19	120	3	n/a	n/a	n/a	n/a	60.143	AM35ANS.jpg
29.037	0.514	Blank	Blank	76.56	n/a	1	1	19	n/a	19	n/a	3	n/a	n/a	n/a	n/a	60.64	n/a
29.567	0.497	happy	Picture	76.046	n/a	1	1	20	n/a	20	81	3	n/a	n/a	n/a	n/a	61.171	AF01ANS.jpg
30.065	0.514	Blank	Blank	75.532	n/a	1	1	20	n/a	20	n/a	3	n/a	n/a	n/a	n/a	61.668	n/a
30.595	10.014	ITI	Fixation+	65.502	n/a	1	n/a	n/a	n/a	n/a	n/a	n/a	n/a	n/a	n/a	n/a	62.199	n/a
40.625	0.497	neutral	Picture	64.988	n/a	1	2	1	n/a	21	28	1	n/a	n/a	n/a	n/a	72.229	AM09NES.jpg
41.123	0.514	Blank	Blank	64.474	n/a	1	2	1	n/a	21	n/a	1	n/a	n/a	n/a	n/a	72.726	n/a
41.653	0.497	neutral	Picture	63.96	n/a	1	2	2	n/a	22	27	1	n/a	n/a	n/a	n/a	73.257	BM08NES.jpg
42.15	0.514	Blank	Blank	63.446	n/a	1	2	2	n/a	22	n/a	1	n/a	n/a	n/a	n/a	73.754	n/a
42.681	0.497	neutral	Picture	62.932	n/a	1	2	3	n/a	23	16	1	n/a	n/a	n/a	n/a	74.285	AF26NES.jpg
43.178	0.514	Blank	Blank	62.418	n/a	1	2	3	n/a	23	n/a	1	n/a	n/a	n/a	n/a	74.782	n/a
43.709	0.497	neutral	Picture	61.904	n/a	1	2	4	n/a	24	3	1	n/a	n/a	n/a	n/a	75.313	BF04NES.jpg
44.206	0.514	Blank	Blank	61.39	n/a	1	2	4	n/a	24	n/a	1	n/a	n/a	n/a	n/a	75.81	n/a
44.737	0.497	neutral	Picture	60.876	n/a	1	2	5	n/a	25	32	1	n/a	n/a	n/a	n/a	76.34	AM14NES.jpg
45.234	0.514	Blank	Blank	60.362	n/a	1	2	5	n/a	25	n/a	1	n/a	n/a	n/a	n/a	76.838	n/a
45.765	0.497	neutral	Picture	59.848	n/a	1	2	6	n/a	26	37	1	n/a	n/a	n/a	n/a	77.368	BM25NES.jpg
46.262	0.514	Blank	Blank	59.334	n/a	1	2	6	n/a	26	n/a	1	n/a	n/a	n/a	n/a	77.866	n/a
46.793	0.497	neutral	Picture	58.821	n/a	1	2	7	n/a	27	15	1	n/a	n/a	n/a	n/a	78.396	AF25NES.jpg
47.29	0.514	Blank	Blank	58.306	n/a	1	2	7	n/a	27	n/a	1	n/a	n/a	n/a	n/a	78.894	n/a
47.82	0.497	neutral	Picture	57.793	n/a	1	2	8	n/a	28	23	1	n/a	n/a	n/a	n/a	79.424	AM04NES.jpg
48.318	0.514	Blank	Blank	57.279	n/a	1	2	8	n/a	28	n/a	1	n/a	n/a	n/a	n/a	79.921	n/a
48.848	0.497	neutral	Picture	56.765	n/a	1	2	9	n/a	29	34	1	n/a	n/a	n/a	n/a	80.452	AM22NES.jpg
49.346	0.514	Blank	Blank	56.251	n/a	1	2	9	n/a	29	n/a	1	n/a	n/a	n/a	n/a	80.949	n/a
49.876	0.497	neutral	Picture	55.737	n/a	1	2	10	n/a	30	24	1	n/a	n/a	n/a	n/a	81.48	BM05NES.jpg
50.374	0.514	Blank	Blank	55.223	n/a	1	2	10	n/a	30	n/a	1	n/a	n/a	n/a	n/a	81.977	n/a
50.904	0.497	neutral	Picture	54.709	n/a	1	2	11	n/a	31	12	1	n/a	n/a	n/a	n/a	82.508	AF21NES.jpg
51.401	0.514	Blank	Blank	54.195	n/a	1	2	11	n/a	31	n/a	1	n/a	n/a	n/a	n/a	83.005	n/a
51.932	0.497	neutral	Picture	53.681	n/a	1	2	12	n/a	32	6	1	n/a	n/a	n/a	n/a	83.536	AF09NES.jpg
52.429	0.514	Blank	Blank	53.167	n/a	1	2	12	n/a	32	n/a	1	n/a	n/a	n/a	n/a	84.033	n/a
52.96	0.497	neutral	Picture	52.653	n/a	1	2	13	n/a	33	17	1	n/a	n/a	n/a	n/a	84.564	BF28NES.jpg
53.457	0.514	Blank	Blank	52.139	n/a	1	2	13	n/a	33	n/a	1	n/a	n/a	n/a	n/a	85.061	n/a
53.988	0.497	neutral	Picture	51.625	n/a	1	2	14	n/a	34	2	1	n/a	n/a	n/a	n/a	85.591	AF03NES.jpg
54.485	0.514	Blank	Blank	51.111	n/a	1	2	14	n/a	34	n/a	1	n/a	n/a	n/a	n/a	86.089	n/a
55.016	0.497	neutral	Picture	50.597	n/a	1	2	15	n/a	35	9	1	n/a	n/a	n/a	n/a	86.619	AF17NES.jpg
55.513	0.514	Blank	Blank	50.083	n/a	1	2	15	n/a	35	n/a	1	n/a	n/a	n/a	n/a	87.117	n/a
56.044	0.497	neutral	Picture	49.569	n/a	1	2	16	n/a	36	25	1	n/a	n/a	n/a	n/a	87.647	BM06NES.jpg
56.541	0.514	Blank	Blank	49.056	n/a	1	2	16	n/a	36	n/a	1	n/a	n/a	n/a	n/a	88.144	n/a
57.072	0.497	neutral	Picture	48.542	n/a	1	2	17	n/a	37	8	1	n/a	n/a	n/a	n/a	88.675	AF14NES.jpg
57.569	0.514	Blank	Blank	48.028	n/a	1	2	17	n/a	37	n/a	1	n/a	n/a	n/a	n/a	89.172	n/a
58.099	0.497	neutral	Picture	47.514	n/a	1	2	18	n/a	38	19	1	n/a	n/a	n/a	n/a	89.703	AF31NES.jpg
58.597	0.514	Blank	Blank	47.0	n/a	1	2	18	n/a	38	n/a	1	n/a	n/a	n/a	n/a	90.2	n/a
59.127	0.497	neutral	Picture	46.486	n/a	1	2	19	n/a	39	14	1	n/a	n/a	n/a	n/a	90.731	AF23NES.jpg
59.625	0.514	Blank	Blank	45.972	n/a	1	2	19	n/a	39	n/a	1	n/a	n/a	n/a	n/a	91.228	n/a
60.155	0.497	neutral	Picture	45.458	n/a	1	2	20	n/a	40	4	1	n/a	n/a	n/a	n/a	91.759	AF05NES.jpg
60.653	0.514	Blank	Blank	44.944	n/a	1	2	20	n/a	40	n/a	1	n/a	n/a	n/a	n/a	92.256	n/a
61.183	10.014	ITI	Fixation+	34.914	n/a	1	n/a	n/a	n/a	n/a	n/a	n/a	n/a	n/a	n/a	n/a	92.787	n/a
71.213	0.497	happy	Picture	34.4	n/a	1	3	1	n/a	41	84	3	n/a	n/a	n/a	n/a	102.817	AF05ANS.jpg
71.711	0.514	Blank	Blank	33.886	n/a	1	3	1	n/a	41	n/a	3	n/a	n/a	n/a	n/a	103.314	n/a
72.241	0.497	happy	Picture	33.372	n/a	1	3	2	n/a	42	92	3	n/a	n/a	n/a	n/a	103.845	AF21ANS.jpg
72.739	0.514	Blank	Blank	32.858	n/a	1	3	2	n/a	42	n/a	3	n/a	n/a	n/a	n/a	104.342	n/a
73.269	0.497	happy	Picture	32.344	n/a	1	3	3	n/a	43	86	3	n/a	n/a	n/a	n/a	104.873	AF09ANS.jpg
73.766	0.514	Blank	Blank	31.83	n/a	1	3	3	n/a	43	n/a	3	n/a	n/a	n/a	n/a	105.37	n/a
74.297	0.497	happy	Picture	31.316	n/a	1	3	4	n/a	44	93	3	n/a	n/a	n/a	n/a	105.9	BF22ANS.jpg
74.794	0.514	Blank	Blank	30.802	n/a	1	3	4	n/a	44	n/a	3	n/a	n/a	n/a	n/a	106.398	n/a
75.325	0.497	happy	Picture	30.288	n/a	1	3	5	n/a	45	88	3	n/a	n/a	n/a	n/a	106.928	AF14ANS.jpg
75.822	0.514	Blank	Blank	29.774	n/a	1	3	5	n/a	45	n/a	3	n/a	n/a	n/a	n/a	107.426	n/a
76.353	0.497	happy	Picture	29.26	n/a	1	3	6	n/a	46	113	3	n/a	n/a	n/a	n/a	107.956	AM21ANS.jpg
76.85	0.514	Blank	Blank	28.746	n/a	1	3	6	n/a	46	n/a	3	n/a	n/a	n/a	n/a	108.454	n/a
77.381	0.497	happy	Picture	28.233	n/a	1	3	7	n/a	47	95	3	n/a	n/a	n/a	n/a	108.984	AF25ANS.jpg
77.878	0.514	Blank	Blank	27.719	n/a	1	3	7	n/a	47	n/a	3	n/a	n/a	n/a	n/a	109.481	n/a
78.409	0.497	happy	Picture	27.205	n/a	1	3	8	n/a	48	102	3	n/a	n/a	n/a	n/a	110.012	BM03ANS.jpg
78.906	0.514	Blank	Blank	26.691	n/a	1	3	8	n/a	48	n/a	3	n/a	n/a	n/a	n/a	110.509	n/a
79.436	0.497	happy	Picture	26.177	n/a	1	3	9	n/a	49	112	3	n/a	n/a	n/a	n/a	111.04	AM14ANS.jpg
79.934	0.514	Blank	Blank	25.663	n/a	1	3	9	n/a	49	n/a	3	n/a	n/a	n/a	n/a	111.537	n/a
80.464	0.497	happy	Picture	25.149	n/a	1	3	10	n/a	50	83	3	n/a	n/a	n/a	n/a	112.068	BF04ANS.jpg
80.962	0.514	Blank	Blank	24.635	n/a	1	3	10	n/a	50	n/a	3	n/a	n/a	n/a	n/a	112.565	n/a
81.492	0.497	happy	Picture	24.121	n/a	1	3	11	n/a	51	90	3	n/a	n/a	n/a	n/a	113.096	AF18ANS.jpg
81.99	0.514	Blank	Blank	23.607	n/a	1	3	11	n/a	51	n/a	3	n/a	n/a	n/a	n/a	113.593	n/a
82.52	0.497	happy	Picture	23.093	n/a	1	3	12	n/a	52	117	3	n/a	n/a	n/a	n/a	114.124	BM25ANS.jpg
83.017	0.514	Blank	Blank	22.579	n/a	1	3	12	n/a	52	n/a	3	n/a	n/a	n/a	n/a	114.621	n/a
83.548	0.497	happy	Picture	22.065	n/a	1	3	13	n/a	53	94	3	n/a	n/a	n/a	n/a	115.151	AF23ANS.jpg
84.045	0.514	Blank	Blank	21.551	n/a	1	3	13	n/a	53	n/a	3	n/a	n/a	n/a	n/a	115.649	n/a
84.576	0.497	happy	Picture	21.037	n/a	1	3	14	n/a	54	106	3	n/a	n/a	n/a	n/a	116.179	AM07ANS.jpg
85.073	0.514	Blank	Blank	20.523	n/a	1	3	14	n/a	54	n/a	3	n/a	n/a	n/a	n/a	116.677	n/a
85.604	0.497	happy	Picture	20.009	n/a	1	3	15	n/a	55	105	3	n/a	n/a	n/a	n/a	117.207	BM06ANS.jpg
86.101	0.514	Blank	Blank	19.495	n/a	1	3	15	n/a	55	n/a	3	n/a	n/a	n/a	n/a	117.705	n/a
86.632	0.497	happy	Picture	18.981	n/a	1	3	16	n/a	56	116	3	n/a	n/a	n/a	n/a	118.235	BM24ANS.jpg
87.129	0.514	Blank	Blank	18.467	n/a	1	3	16	n/a	56	n/a	3	n/a	n/a	n/a	n/a	118.733	n/a
87.659	0.497	happy	Picture	17.954	n/a	1	3	17	n/a	57	89	3	n/a	n/a	n/a	n/a	119.263	AF17ANS.jpg
88.157	0.514	Blank	Blank	17.44	n/a	1	3	17	n/a	57	n/a	3	n/a	n/a	n/a	n/a	119.76	n/a
88.687	0.497	happy	Picture	16.926	n/a	1	3	18	n/a	58	118	3	n/a	n/a	n/a	n/a	120.291	BM26ANS.jpg
89.185	0.514	Blank	Blank	16.412	n/a	1	3	18	n/a	58	n/a	3	n/a	n/a	n/a	n/a	120.788	n/a
89.715	0.497	happy	Picture	15.898	n/a	1	3	19	n/a	59	100	3	n/a	n/a	n/a	n/a	121.319	AF32ANS.jpg
90.213	0.514	Blank	Blank	15.384	n/a	1	3	19	n/a	59	n/a	3	n/a	n/a	n/a	n/a	121.816	n/a
90.743	0.497	happy	Picture	14.87	n/a	1	3	20	n/a	60	119	3	n/a	n/a	n/a	n/a	122.347	BM28ANS.jpg
91.24	0.514	Blank	Blank	14.356	n/a	1	3	20	n/a	60	n/a	3	n/a	n/a	n/a	n/a	122.844	n/a
91.771	10.014	ITI	Fixation+	4.326	n/a	1	n/a	n/a	n/a	n/a	n/a	n/a	n/a	n/a	n/a	n/a	123.375	n/a
106.11	n/a	ConfirmRating	Rate	n/a	4.311	1	n/a	n/a	0	n/a	n/a	n/a	2	Happy	68	51	137.714	n/a
108.142	n/a	ConfirmRating	Rate	n/a	2.022	1	n/a	n/a	1	n/a	n/a	n/a	3	Happy	3	49	139.746	n/a
108.167	10.014	ITI	Fixation+	94.145	n/a	2	n/a	n/a	n/a	n/a	n/a	n/a	n/a	n/a	n/a	n/a	139.771	n/a
118.198	0.497	angry	Picture	93.631	n/a	2	4	1	n/a	61	79	2	n/a	n/a	n/a	n/a	149.801	BM28HAS.jpg
118.695	0.514	Blank	Blank	93.117	n/a	2	4	1	n/a	61	n/a	2	n/a	n/a	n/a	n/a	150.299	n/a
119.226	0.497	angry	Picture	92.603	n/a	2	4	2	n/a	62	61	2	n/a	n/a	n/a	n/a	150.829	AM01HAS.jpg
119.723	0.514	Blank	Blank	92.089	n/a	2	4	2	n/a	62	n/a	2	n/a	n/a	n/a	n/a	151.327	n/a
120.254	0.497	angry	Picture	91.575	n/a	2	4	3	n/a	63	57	2	n/a	n/a	n/a	n/a	151.857	BF28HAS.jpg
120.751	0.514	Blank	Blank	91.061	n/a	2	4	3	n/a	63	n/a	2	n/a	n/a	n/a	n/a	152.355	n/a
121.281	0.497	angry	Picture	90.548	n/a	2	4	4	n/a	64	77	2	n/a	n/a	n/a	n/a	152.885	BM25HAS.jpg
121.779	0.514	Blank	Blank	90.034	n/a	2	4	4	n/a	64	n/a	2	n/a	n/a	n/a	n/a	153.382	n/a
122.309	0.497	angry	Picture	89.52	n/a	2	4	5	n/a	65	47	2	n/a	n/a	n/a	n/a	153.913	BF11HAS.jpg
122.807	0.514	Blank	Blank	89.006	n/a	2	4	5	n/a	65	n/a	2	n/a	n/a	n/a	n/a	154.41	n/a
123.337	0.497	angry	Picture	88.492	n/a	2	4	6	n/a	66	50	2	n/a	n/a	n/a	n/a	154.941	AF18HAS.jpg
123.835	0.514	Blank	Blank	87.978	n/a	2	4	6	n/a	66	n/a	2	n/a	n/a	n/a	n/a	155.438	n/a
124.365	0.497	angry	Picture	87.464	n/a	2	4	7	n/a	67	78	2	n/a	n/a	n/a	n/a	155.969	BM26HAS.jpg
124.863	0.514	Blank	Blank	86.95	n/a	2	4	7	n/a	67	n/a	2	n/a	n/a	n/a	n/a	156.466	n/a
125.393	0.497	angry	Picture	86.436	n/a	2	4	8	n/a	68	45	2	n/a	n/a	n/a	n/a	156.997	BF07HAS.jpg
125.89	0.514	Blank	Blank	85.922	n/a	2	4	8	n/a	68	n/a	2	n/a	n/a	n/a	n/a	157.494	n/a
126.421	0.497	angry	Picture	85.408	n/a	2	4	9	n/a	69	56	2	n/a	n/a	n/a	n/a	158.024	AF26HAS.jpg
126.918	0.514	Blank	Blank	84.894	n/a	2	4	9	n/a	69	n/a	2	n/a	n/a	n/a	n/a	158.522	n/a
127.449	0.497	angry	Picture	84.38	n/a	2	4	10	n/a	70	65	2	n/a	n/a	n/a	n/a	159.052	BM06HAS.jpg
127.946	0.514	Blank	Blank	83.866	n/a	2	4	10	n/a	70	n/a	2	n/a	n/a	n/a	n/a	159.55	n/a
128.477	0.497	angry	Picture	83.352	n/a	2	4	11	n/a	71	73	2	n/a	n/a	n/a	n/a	160.08	AM21HAS.jpg
128.974	0.514	Blank	Blank	82.838	n/a	2	4	11	n/a	71	n/a	2	n/a	n/a	n/a	n/a	160.578	n/a
129.505	0.497	angry	Picture	82.324	n/a	2	4	12	n/a	72	41	2	n/a	n/a	n/a	n/a	161.108	AF01HAS.jpg
130.002	0.514	Blank	Blank	81.81	n/a	2	4	12	n/a	72	n/a	2	n/a	n/a	n/a	n/a	161.606	n/a
130.532	0.497	angry	Picture	81.297	n/a	2	4	13	n/a	73	59	2	n/a	n/a	n/a	n/a	162.136	AF31HAS.jpg
131.03	0.514	Blank	Blank	80.782	n/a	2	4	13	n/a	73	n/a	2	n/a	n/a	n/a	n/a	162.633	n/a
131.56	0.497	angry	Picture	80.269	n/a	2	4	14	n/a	74	64	2	n/a	n/a	n/a	n/a	163.164	BM05HAS.jpg
132.058	0.514	Blank	Blank	79.755	n/a	2	4	14	n/a	74	n/a	2	n/a	n/a	n/a	n/a	163.661	n/a
132.588	0.497	angry	Picture	79.241	n/a	2	4	15	n/a	75	68	2	n/a	n/a	n/a	n/a	164.192	AM09HAS.jpg
133.086	0.514	Blank	Blank	78.727	n/a	2	4	15	n/a	75	n/a	2	n/a	n/a	n/a	n/a	164.689	n/a
133.616	0.497	angry	Picture	78.213	n/a	2	4	16	n/a	76	54	2	n/a	n/a	n/a	n/a	165.22	AF23HAS.jpg
134.113	0.514	Blank	Blank	77.699	n/a	2	4	16	n/a	76	n/a	2	n/a	n/a	n/a	n/a	165.717	n/a
134.644	0.497	angry	Picture	77.185	n/a	2	4	17	n/a	77	53	2	n/a	n/a	n/a	n/a	166.248	BF22HAS.jpg
135.141	0.514	Blank	Blank	76.671	n/a	2	4	17	n/a	77	n/a	2	n/a	n/a	n/a	n/a	166.745	n/a
135.672	0.497	angry	Picture	76.157	n/a	2	4	18	n/a	78	44	2	n/a	n/a	n/a	n/a	167.275	AF05HAS.jpg
136.169	0.514	Blank	Blank	75.643	n/a	2	4	18	n/a	78	n/a	2	n/a	n/a	n/a	n/a	167.773	n/a
136.7	0.497	angry	Picture	75.129	n/a	2	4	19	n/a	79	52	2	n/a	n/a	n/a	n/a	168.303	AF21HAS.jpg
137.197	0.514	Blank	Blank	74.615	n/a	2	4	19	n/a	79	n/a	2	n/a	n/a	n/a	n/a	168.801	n/a
137.728	0.497	angry	Picture	74.101	n/a	2	4	20	n/a	80	62	2	n/a	n/a	n/a	n/a	169.331	BM03HAS.jpg
138.225	0.514	Blank	Blank	73.587	n/a	2	4	20	n/a	80	n/a	2	n/a	n/a	n/a	n/a	169.829	n/a
138.756	10.014	ITI	Fixation+	63.557	n/a	2	n/a	n/a	n/a	n/a	n/a	n/a	n/a	n/a	n/a	n/a	170.359	n/a
148.786	0.497	neutral	Picture	63.043	n/a	2	5	1	n/a	81	23	1	n/a	n/a	n/a	n/a	180.389	AM04NES.jpg
149.283	0.514	Blank	Blank	62.529	n/a	2	5	1	n/a	81	n/a	1	n/a	n/a	n/a	n/a	180.887	n/a
149.814	0.497	neutral	Picture	62.015	n/a	2	5	2	n/a	82	29	1	n/a	n/a	n/a	n/a	181.417	AM10NES.jpg
150.311	0.514	Blank	Blank	61.501	n/a	2	5	2	n/a	82	n/a	1	n/a	n/a	n/a	n/a	181.915	n/a
150.842	0.497	neutral	Picture	60.987	n/a	2	5	3	n/a	83	24	1	n/a	n/a	n/a	n/a	182.445	BM05NES.jpg
151.339	0.514	Blank	Blank	60.473	n/a	2	5	3	n/a	83	n/a	1	n/a	n/a	n/a	n/a	182.942	n/a
151.869	0.497	neutral	Picture	59.96	n/a	2	5	4	n/a	84	12	1	n/a	n/a	n/a	n/a	183.473	AF21NES.jpg
152.367	0.514	Blank	Blank	59.445	n/a	2	5	4	n/a	84	n/a	1	n/a	n/a	n/a	n/a	183.97	n/a
152.897	0.497	neutral	Picture	58.932	n/a	2	5	5	n/a	85	13	1	n/a	n/a	n/a	n/a	184.501	BF22NES.jpg
153.395	0.514	Blank	Blank	58.418	n/a	2	5	5	n/a	85	n/a	1	n/a	n/a	n/a	n/a	184.998	n/a
153.925	0.497	neutral	Picture	57.904	n/a	2	5	6	n/a	86	17	1	n/a	n/a	n/a	n/a	185.529	BF28NES.jpg
154.423	0.514	Blank	Blank	57.39	n/a	2	5	6	n/a	86	n/a	1	n/a	n/a	n/a	n/a	186.026	n/a
154.953	0.497	neutral	Picture	56.876	n/a	2	5	7	n/a	87	4	1	n/a	n/a	n/a	n/a	186.557	AF05NES.jpg
155.451	0.514	Blank	Blank	56.362	n/a	2	5	7	n/a	87	n/a	1	n/a	n/a	n/a	n/a	187.054	n/a
155.981	0.497	neutral	Picture	55.848	n/a	2	5	8	n/a	88	11	1	n/a	n/a	n/a	n/a	187.585	AF20NES.jpg
156.478	0.514	Blank	Blank	55.334	n/a	2	5	8	n/a	88	n/a	1	n/a	n/a	n/a	n/a	188.082	n/a
157.009	0.497	neutral	Picture	54.82	n/a	2	5	9	n/a	89	22	1	n/a	n/a	n/a	n/a	188.613	BM03NES.jpg
157.506	0.514	Blank	Blank	54.306	n/a	2	5	9	n/a	89	n/a	1	n/a	n/a	n/a	n/a	189.11	n/a
158.037	0.497	neutral	Picture	53.792	n/a	2	5	10	n/a	90	15	1	n/a	n/a	n/a	n/a	189.64	AF25NES.jpg
158.534	0.514	Blank	Blank	53.278	n/a	2	5	10	n/a	90	n/a	1	n/a	n/a	n/a	n/a	190.138	n/a
159.065	0.497	neutral	Picture	52.764	n/a	2	5	11	n/a	91	19	1	n/a	n/a	n/a	n/a	190.668	AF31NES.jpg
159.562	0.514	Blank	Blank	52.25	n/a	2	5	11	n/a	91	n/a	1	n/a	n/a	n/a	n/a	191.166	n/a
160.093	0.497	neutral	Picture	51.736	n/a	2	5	12	n/a	92	9	1	n/a	n/a	n/a	n/a	191.696	AF17NES.jpg
160.59	0.514	Blank	Blank	51.222	n/a	2	5	12	n/a	92	n/a	1	n/a	n/a	n/a	n/a	192.194	n/a
161.12	0.497	neutral	Picture	50.709	n/a	2	5	13	n/a	93	14	1	n/a	n/a	n/a	n/a	192.724	AF23NES.jpg
161.618	0.514	Blank	Blank	50.195	n/a	2	5	13	n/a	93	n/a	1	n/a	n/a	n/a	n/a	193.221	n/a
162.148	0.497	neutral	Picture	49.681	n/a	2	5	14	n/a	94	36	1	n/a	n/a	n/a	n/a	193.752	BM24NES.jpg
162.646	0.514	Blank	Blank	49.167	n/a	2	5	14	n/a	94	n/a	1	n/a	n/a	n/a	n/a	194.249	n/a
163.176	0.497	neutral	Picture	48.653	n/a	2	5	15	n/a	95	34	1	n/a	n/a	n/a	n/a	194.78	AM22NES.jpg
163.674	0.514	Blank	Blank	48.139	n/a	2	5	15	n/a	95	n/a	1	n/a	n/a	n/a	n/a	195.277	n/a
164.204	0.497	neutral	Picture	47.625	n/a	2	5	16	n/a	96	10	1	n/a	n/a	n/a	n/a	195.808	AF18NES.jpg
164.702	0.514	Blank	Blank	47.111	n/a	2	5	16	n/a	96	n/a	1	n/a	n/a	n/a	n/a	196.305	n/a
165.232	0.497	neutral	Picture	46.597	n/a	2	5	17	n/a	97	5	1	n/a	n/a	n/a	n/a	196.836	BF07NES.jpg
165.729	0.514	Blank	Blank	46.083	n/a	2	5	17	n/a	97	n/a	1	n/a	n/a	n/a	n/a	197.333	n/a
166.26	0.497	neutral	Picture	45.569	n/a	2	5	18	n/a	98	25	1	n/a	n/a	n/a	n/a	197.863	BM06NES.jpg
166.757	0.514	Blank	Blank	45.055	n/a	2	5	18	n/a	98	n/a	1	n/a	n/a	n/a	n/a	198.361	n/a
167.288	0.497	neutral	Picture	44.541	n/a	2	5	19	n/a	99	39	1	n/a	n/a	n/a	n/a	198.891	AM28NES.jpg
167.785	0.514	Blank	Blank	44.027	n/a	2	5	19	n/a	99	n/a	1	n/a	n/a	n/a	n/a	199.389	n/a
168.316	0.497	neutral	Picture	43.513	n/a	2	5	20	n/a	100	33	1	n/a	n/a	n/a	n/a	199.919	AM21NES.jpg
168.813	0.514	Blank	Blank	42.999	n/a	2	5	20	n/a	100	n/a	1	n/a	n/a	n/a	n/a	200.417	n/a
169.344	10.014	ITI	Fixation+	32.969	n/a	2	n/a	n/a	n/a	n/a	n/a	n/a	n/a	n/a	n/a	n/a	200.947	n/a
179.374	0.497	angry	Picture	32.455	n/a	2	6	1	n/a	101	74	2	n/a	n/a	n/a	n/a	210.977	AM22HAS.jpg
179.871	0.514	Blank	Blank	31.941	n/a	2	6	1	n/a	101	n/a	2	n/a	n/a	n/a	n/a	211.475	n/a
180.402	0.497	angry	Picture	31.427	n/a	2	6	2	n/a	102	76	2	n/a	n/a	n/a	n/a	212.005	BM24HAS.jpg
180.899	0.514	Blank	Blank	30.913	n/a	2	6	2	n/a	102	n/a	2	n/a	n/a	n/a	n/a	212.503	n/a
181.43	0.497	angry	Picture	30.399	n/a	2	6	3	n/a	103	80	2	n/a	n/a	n/a	n/a	213.033	BM35HAS.jpg
181.927	0.514	Blank	Blank	29.885	n/a	2	6	3	n/a	103	n/a	2	n/a	n/a	n/a	n/a	213.531	n/a
182.458	0.497	angry	Picture	29.371	n/a	2	6	4	n/a	104	75	2	n/a	n/a	n/a	n/a	214.061	AM23HAS.jpg
182.955	0.514	Blank	Blank	28.857	n/a	2	6	4	n/a	104	n/a	2	n/a	n/a	n/a	n/a	214.558	n/a
183.485	0.497	angry	Picture	28.344	n/a	2	6	5	n/a	105	49	2	n/a	n/a	n/a	n/a	215.089	AF17HAS.jpg
183.983	0.514	Blank	Blank	27.83	n/a	2	6	5	n/a	105	n/a	2	n/a	n/a	n/a	n/a	215.586	n/a
184.513	0.497	angry	Picture	27.316	n/a	2	6	6	n/a	106	43	2	n/a	n/a	n/a	n/a	216.117	BF04HAS.jpg
185.011	0.514	Blank	Blank	26.802	n/a	2	6	6	n/a	106	n/a	2	n/a	n/a	n/a	n/a	216.614	n/a
185.541	0.497	angry	Picture	26.288	n/a	2	6	7	n/a	107	70	2	n/a	n/a	n/a	n/a	217.145	BM11HAS.jpg
186.038	0.514	Blank	Blank	25.774	n/a	2	6	7	n/a	107	n/a	2	n/a	n/a	n/a	n/a	217.642	n/a
186.569	0.497	angry	Picture	25.26	n/a	2	6	8	n/a	108	66	2	n/a	n/a	n/a	n/a	218.173	BM07HAS.jpg
187.066	0.514	Blank	Blank	24.746	n/a	2	6	8	n/a	108	n/a	2	n/a	n/a	n/a	n/a	218.67	n/a
187.597	0.497	angry	Picture	24.232	n/a	2	6	9	n/a	109	48	2	n/a	n/a	n/a	n/a	219.201	AF14HAS.jpg
188.094	0.514	Blank	Blank	23.718	n/a	2	6	9	n/a	109	n/a	2	n/a	n/a	n/a	n/a	219.698	n/a
188.625	0.497	angry	Picture	23.204	n/a	2	6	10	n/a	110	58	2	n/a	n/a	n/a	n/a	220.228	BF29HAS.jpg
189.122	0.514	Blank	Blank	22.69	n/a	2	6	10	n/a	110	n/a	2	n/a	n/a	n/a	n/a	220.726	n/a
189.653	0.497	angry	Picture	22.176	n/a	2	6	11	n/a	111	63	2	n/a	n/a	n/a	n/a	221.256	AM04HAS.jpg
190.15	0.514	Blank	Blank	21.662	n/a	2	6	11	n/a	111	n/a	2	n/a	n/a	n/a	n/a	221.754	n/a
190.681	0.497	angry	Picture	21.148	n/a	2	6	12	n/a	112	72	2	n/a	n/a	n/a	n/a	222.284	AM14HAS.jpg
191.178	0.514	Blank	Blank	20.634	n/a	2	6	12	n/a	112	n/a	2	n/a	n/a	n/a	n/a	222.782	n/a
191.708	0.497	angry	Picture	20.12	n/a	2	6	13	n/a	113	55	2	n/a	n/a	n/a	n/a	223.312	AF25HAS.jpg
192.206	0.514	Blank	Blank	19.606	n/a	2	6	13	n/a	113	n/a	2	n/a	n/a	n/a	n/a	223.81	n/a
192.736	0.497	angry	Picture	19.093	n/a	2	6	14	n/a	114	42	2	n/a	n/a	n/a	n/a	224.34	AF03HAS.jpg
193.234	0.514	Blank	Blank	18.579	n/a	2	6	14	n/a	114	n/a	2	n/a	n/a	n/a	n/a	224.837	n/a
193.764	0.497	angry	Picture	18.065	n/a	2	6	15	n/a	115	60	2	n/a	n/a	n/a	n/a	225.368	AF32HAS.jpg
194.262	0.514	Blank	Blank	17.551	n/a	2	6	15	n/a	115	n/a	2	n/a	n/a	n/a	n/a	225.865	n/a
194.792	0.497	angry	Picture	17.037	n/a	2	6	16	n/a	116	67	2	n/a	n/a	n/a	n/a	226.396	BM08HAS.jpg
195.29	0.514	Blank	Blank	16.523	n/a	2	6	16	n/a	116	n/a	2	n/a	n/a	n/a	n/a	226.893	n/a
195.82	0.497	angry	Picture	16.009	n/a	2	6	17	n/a	117	51	2	n/a	n/a	n/a	n/a	227.424	AF20HAS.jpg
196.317	0.514	Blank	Blank	15.495	n/a	2	6	17	n/a	117	n/a	2	n/a	n/a	n/a	n/a	227.921	n/a
196.848	0.497	angry	Picture	14.981	n/a	2	6	18	n/a	118	71	2	n/a	n/a	n/a	n/a	228.452	BM12HAS.jpg
197.345	0.514	Blank	Blank	14.467	n/a	2	6	18	n/a	118	n/a	2	n/a	n/a	n/a	n/a	228.949	n/a
197.876	0.497	angry	Picture	13.953	n/a	2	6	19	n/a	119	69	2	n/a	n/a	n/a	n/a	229.479	AM10HAS.jpg
198.373	0.514	Blank	Blank	13.439	n/a	2	6	19	n/a	119	n/a	2	n/a	n/a	n/a	n/a	229.977	n/a
198.904	0.497	angry	Picture	12.925	n/a	2	6	20	n/a	120	46	2	n/a	n/a	n/a	n/a	230.507	AF09HAS.jpg
199.401	0.514	Blank	Blank	12.411	n/a	2	6	20	n/a	120	n/a	2	n/a	n/a	n/a	n/a	231.005	n/a
199.932	10.014	ITI	Fixation+	2.381	n/a	2	n/a	n/a	n/a	n/a	n/a	n/a	n/a	n/a	n/a	n/a	231.535	n/a
212.326	n/a	ConfirmRating	Rate	n/a	2.371	2	n/a	n/a	0	n/a	n/a	n/a	2	Angry	66	51	243.93	n/a
214.167	n/a	ConfirmRating	Rate	n/a	1.824	2	n/a	n/a	1	n/a	n/a	n/a	3	Angry	5	49	245.771	n/a
214.189	15.004	Rest	Picture	n/a	n/a	n/a	n/a	n/a	n/a	n/a	n/a	n/a	0	n/a	0	0	245.793	n/a
229.21	10.014	ITI	Fixation+	102.72	n/a	3	n/a	n/a	n/a	n/a	n/a	n/a	n/a	n/a	n/a	n/a	260.813	n/a
239.24	0.497	happy	Picture	102.206	n/a	3	7	1	n/a	1	108	3	n/a	n/a	n/a	n/a	270.844	AM09ANS.jpg
239.737	0.514	Blank	Blank	101.693	n/a	3	7	1	n/a	1	n/a	3	n/a	n/a	n/a	n/a	271.341	n/a
240.268	0.497	happy	Picture	101.179	n/a	3	7	2	n/a	2	99	3	n/a	n/a	n/a	n/a	271.872	AF31ANS.jpg
240.765	0.514	Blank	Blank	100.665	n/a	3	7	2	n/a	2	n/a	3	n/a	n/a	n/a	n/a	272.369	n/a
241.296	0.497	happy	Picture	100.151	n/a	3	7	3	n/a	3	98	3	n/a	n/a	n/a	n/a	272.899	BF29ANS.jpg
241.793	0.514	Blank	Blank	99.637	n/a	3	7	3	n/a	3	n/a	3	n/a	n/a	n/a	n/a	273.397	n/a
242.324	0.497	happy	Picture	99.123	n/a	3	7	4	n/a	4	107	3	n/a	n/a	n/a	n/a	273.927	BM08ANS.jpg
242.821	0.514	Blank	Blank	98.609	n/a	3	7	4	n/a	4	n/a	3	n/a	n/a	n/a	n/a	274.425	n/a
243.352	0.497	happy	Picture	98.095	n/a	3	7	5	n/a	5	104	3	n/a	n/a	n/a	n/a	274.955	BM05ANS.jpg
243.849	0.514	Blank	Blank	97.581	n/a	3	7	5	n/a	5	n/a	3	n/a	n/a	n/a	n/a	275.453	n/a
244.38	0.497	happy	Picture	97.067	n/a	3	7	6	n/a	6	101	3	n/a	n/a	n/a	n/a	275.983	AM01ANS.jpg
244.877	0.514	Blank	Blank	96.553	n/a	3	7	6	n/a	6	n/a	3	n/a	n/a	n/a	n/a	276.481	n/a
245.407	0.497	happy	Picture	96.039	n/a	3	7	7	n/a	7	103	3	n/a	n/a	n/a	n/a	277.011	AM04ANS.jpg
245.905	0.514	Blank	Blank	95.525	n/a	3	7	7	n/a	7	n/a	3	n/a	n/a	n/a	n/a	277.508	n/a
246.435	0.497	happy	Picture	95.011	n/a	3	7	8	n/a	8	111	3	n/a	n/a	n/a	n/a	278.039	BM12ANS.jpg
246.933	0.514	Blank	Blank	94.497	n/a	3	7	8	n/a	8	n/a	3	n/a	n/a	n/a	n/a	278.536	n/a
247.463	0.497	happy	Picture	93.983	n/a	3	7	9	n/a	9	110	3	n/a	n/a	n/a	n/a	279.067	AM11ANS.jpg
247.961	0.514	Blank	Blank	93.469	n/a	3	7	9	n/a	9	n/a	3	n/a	n/a	n/a	n/a	279.564	n/a
248.491	0.497	happy	Picture	92.955	n/a	3	7	10	n/a	10	85	3	n/a	n/a	n/a	n/a	280.095	BF07ANS.jpg
248.989	0.514	Blank	Blank	92.442	n/a	3	7	10	n/a	10	n/a	3	n/a	n/a	n/a	n/a	280.592	n/a
249.519	0.497	happy	Picture	91.928	n/a	3	7	11	n/a	11	87	3	n/a	n/a	n/a	n/a	281.123	BF11ANS.jpg
250.016	0.514	Blank	Blank	91.414	n/a	3	7	11	n/a	11	n/a	3	n/a	n/a	n/a	n/a	281.62	n/a
250.547	0.497	happy	Picture	90.9	n/a	3	7	12	n/a	12	91	3	n/a	n/a	n/a	n/a	282.151	AF20ANS.jpg
251.044	0.514	Blank	Blank	90.386	n/a	3	7	12	n/a	12	n/a	3	n/a	n/a	n/a	n/a	282.648	n/a
251.575	0.497	happy	Picture	89.872	n/a	3	7	13	n/a	13	115	3	n/a	n/a	n/a	n/a	283.178	AM23ANS.jpg
252.072	0.514	Blank	Blank	89.358	n/a	3	7	13	n/a	13	n/a	3	n/a	n/a	n/a	n/a	283.676	n/a
252.603	0.497	happy	Picture	88.844	n/a	3	7	14	n/a	14	97	3	n/a	n/a	n/a	n/a	284.206	BF28ANS.jpg
253.1	0.514	Blank	Blank	88.33	n/a	3	7	14	n/a	14	n/a	3	n/a	n/a	n/a	n/a	284.704	n/a
253.631	0.497	happy	Picture	87.816	n/a	3	7	15	n/a	15	82	3	n/a	n/a	n/a	n/a	285.234	AF03ANS.jpg
254.128	0.514	Blank	Blank	87.302	n/a	3	7	15	n/a	15	n/a	3	n/a	n/a	n/a	n/a	285.732	n/a
254.658	0.497	happy	Picture	86.788	n/a	3	7	16	n/a	16	96	3	n/a	n/a	n/a	n/a	286.262	AF26ANS.jpg
255.156	0.514	Blank	Blank	86.274	n/a	3	7	16	n/a	16	n/a	3	n/a	n/a	n/a	n/a	286.759	n/a
255.686	0.497	happy	Picture	85.76	n/a	3	7	17	n/a	17	109	3	n/a	n/a	n/a	n/a	287.29	AM10ANS.jpg
256.184	0.514	Blank	Blank	85.246	n/a	3	7	17	n/a	17	n/a	3	n/a	n/a	n/a	n/a	287.787	n/a
256.714	0.497	happy	Picture	84.732	n/a	3	7	18	n/a	18	114	3	n/a	n/a	n/a	n/a	288.318	AM22ANS.jpg
257.212	0.514	Blank	Blank	84.218	n/a	3	7	18	n/a	18	n/a	3	n/a	n/a	n/a	n/a	288.815	n/a
257.742	0.497	happy	Picture	83.704	n/a	3	7	19	n/a	19	120	3	n/a	n/a	n/a	n/a	289.346	AM35ANS.jpg
258.24	0.514	Blank	Blank	83.19	n/a	3	7	19	n/a	19	n/a	3	n/a	n/a	n/a	n/a	289.843	n/a
258.77	0.497	happy	Picture	82.677	n/a	3	7	20	n/a	20	81	3	n/a	n/a	n/a	n/a	290.374	AF01ANS.jpg
259.267	0.514	Blank	Blank	82.163	n/a	3	7	20	n/a	20	n/a	3	n/a	n/a	n/a	n/a	290.871	n/a
259.798	10.014	ITI	Fixation+	72.132	n/a	3	n/a	n/a	n/a	n/a	n/a	n/a	n/a	n/a	n/a	n/a	291.401	n/a
269.828	0.497	neutral	Picture	71.618	n/a	3	8	1	n/a	21	28	1	n/a	n/a	n/a	n/a	301.432	AM09NES.jpg
270.326	0.514	Blank	Blank	71.104	n/a	3	8	1	n/a	21	n/a	1	n/a	n/a	n/a	n/a	301.929	n/a
270.856	0.497	neutral	Picture	70.591	n/a	3	8	2	n/a	22	27	1	n/a	n/a	n/a	n/a	302.46	BM08NES.jpg
271.353	0.514	Blank	Blank	70.077	n/a	3	8	2	n/a	22	n/a	1	n/a	n/a	n/a	n/a	302.957	n/a
271.884	0.497	neutral	Picture	69.563	n/a	3	8	3	n/a	23	16	1	n/a	n/a	n/a	n/a	303.488	AF26NES.jpg
272.381	0.514	Blank	Blank	69.049	n/a	3	8	3	n/a	23	n/a	1	n/a	n/a	n/a	n/a	303.985	n/a
272.912	0.497	neutral	Picture	68.535	n/a	3	8	4	n/a	24	3	1	n/a	n/a	n/a	n/a	304.515	BF04NES.jpg
273.409	0.514	Blank	Blank	68.021	n/a	3	8	4	n/a	24	n/a	1	n/a	n/a	n/a	n/a	305.013	n/a
273.94	0.497	neutral	Picture	67.507	n/a	3	8	5	n/a	25	32	1	n/a	n/a	n/a	n/a	305.543	AM14NES.jpg
274.437	0.514	Blank	Blank	66.993	n/a	3	8	5	n/a	25	n/a	1	n/a	n/a	n/a	n/a	306.041	n/a
274.968	0.497	neutral	Picture	66.479	n/a	3	8	6	n/a	26	37	1	n/a	n/a	n/a	n/a	306.571	BM25NES.jpg
275.465	0.514	Blank	Blank	65.965	n/a	3	8	6	n/a	26	n/a	1	n/a	n/a	n/a	n/a	307.069	n/a
275.995	0.497	neutral	Picture	65.451	n/a	3	8	7	n/a	27	15	1	n/a	n/a	n/a	n/a	307.599	AF25NES.jpg
276.493	0.514	Blank	Blank	64.937	n/a	3	8	7	n/a	27	n/a	1	n/a	n/a	n/a	n/a	308.096	n/a
277.023	0.497	neutral	Picture	64.423	n/a	3	8	8	n/a	28	23	1	n/a	n/a	n/a	n/a	308.627	AM04NES.jpg
277.521	0.514	Blank	Blank	63.909	n/a	3	8	8	n/a	28	n/a	1	n/a	n/a	n/a	n/a	309.124	n/a
278.051	0.497	neutral	Picture	63.395	n/a	3	8	9	n/a	29	34	1	n/a	n/a	n/a	n/a	309.655	AM22NES.jpg
278.549	0.514	Blank	Blank	62.881	n/a	3	8	9	n/a	29	n/a	1	n/a	n/a	n/a	n/a	310.152	n/a
279.079	0.497	neutral	Picture	62.367	n/a	3	8	10	n/a	30	24	1	n/a	n/a	n/a	n/a	310.683	BM05NES.jpg
279.577	0.514	Blank	Blank	61.853	n/a	3	8	10	n/a	30	n/a	1	n/a	n/a	n/a	n/a	311.18	n/a
280.107	0.497	neutral	Picture	61.34	n/a	3	8	11	n/a	31	12	1	n/a	n/a	n/a	n/a	311.711	AF21NES.jpg
280.604	0.514	Blank	Blank	60.826	n/a	3	8	11	n/a	31	n/a	1	n/a	n/a	n/a	n/a	312.208	n/a
281.135	0.497	neutral	Picture	60.312	n/a	3	8	12	n/a	32	6	1	n/a	n/a	n/a	n/a	312.738	AF09NES.jpg
281.632	0.514	Blank	Blank	59.798	n/a	3	8	12	n/a	32	n/a	1	n/a	n/a	n/a	n/a	313.236	n/a
282.163	0.497	neutral	Picture	59.284	n/a	3	8	13	n/a	33	17	1	n/a	n/a	n/a	n/a	313.766	BF28NES.jpg
282.66	0.514	Blank	Blank	58.77	n/a	3	8	13	n/a	33	n/a	1	n/a	n/a	n/a	n/a	314.264	n/a
283.191	0.497	neutral	Picture	58.256	n/a	3	8	14	n/a	34	2	1	n/a	n/a	n/a	n/a	314.794	AF03NES.jpg
283.688	0.514	Blank	Blank	57.742	n/a	3	8	14	n/a	34	n/a	1	n/a	n/a	n/a	n/a	315.292	n/a
284.219	0.497	neutral	Picture	57.228	n/a	3	8	15	n/a	35	9	1	n/a	n/a	n/a	n/a	315.822	AF17NES.jpg
284.716	0.514	Blank	Blank	56.714	n/a	3	8	15	n/a	35	n/a	1	n/a	n/a	n/a	n/a	316.32	n/a
285.246	0.497	neutral	Picture	56.2	n/a	3	8	16	n/a	36	25	1	n/a	n/a	n/a	n/a	316.85	BM06NES.jpg
285.744	0.514	Blank	Blank	55.686	n/a	3	8	16	n/a	36	n/a	1	n/a	n/a	n/a	n/a	317.348	n/a
286.274	0.497	neutral	Picture	55.172	n/a	3	8	17	n/a	37	8	1	n/a	n/a	n/a	n/a	317.878	AF14NES.jpg
286.772	0.514	Blank	Blank	54.658	n/a	3	8	17	n/a	37	n/a	1	n/a	n/a	n/a	n/a	318.375	n/a
287.302	0.497	neutral	Picture	54.144	n/a	3	8	18	n/a	38	19	1	n/a	n/a	n/a	n/a	318.906	AF31NES.jpg
287.8	0.514	Blank	Blank	53.63	n/a	3	8	18	n/a	38	n/a	1	n/a	n/a	n/a	n/a	319.403	n/a
288.33	0.497	neutral	Picture	53.116	n/a	3	8	19	n/a	39	14	1	n/a	n/a	n/a	n/a	319.934	AF23NES.jpg
288.827	0.514	Blank	Blank	52.602	n/a	3	8	19	n/a	39	n/a	1	n/a	n/a	n/a	n/a	320.431	n/a
289.358	0.497	neutral	Picture	52.089	n/a	3	8	20	n/a	40	4	1	n/a	n/a	n/a	n/a	320.962	AF05NES.jpg
289.855	0.514	Blank	Blank	51.575	n/a	3	8	20	n/a	40	n/a	1	n/a	n/a	n/a	n/a	321.459	n/a
290.386	10.014	ITI	Fixation+	41.544	n/a	3	n/a	n/a	n/a	n/a	n/a	n/a	n/a	n/a	n/a	n/a	321.99	n/a
300.416	0.497	happy	Picture	41.03	n/a	3	9	1	n/a	41	84	3	n/a	n/a	n/a	n/a	332.02	AF05ANS.jpg
300.913	0.514	Blank	Blank	40.516	n/a	3	9	1	n/a	41	n/a	3	n/a	n/a	n/a	n/a	332.517	n/a
301.444	0.497	happy	Picture	40.003	n/a	3	9	2	n/a	42	92	3	n/a	n/a	n/a	n/a	333.048	AF21ANS.jpg
301.941	0.514	Blank	Blank	39.489	n/a	3	9	2	n/a	42	n/a	3	n/a	n/a	n/a	n/a	333.545	n/a
302.472	0.497	happy	Picture	38.975	n/a	3	9	3	n/a	43	86	3	n/a	n/a	n/a	n/a	334.075	AF09ANS.jpg
302.969	0.514	Blank	Blank	38.461	n/a	3	9	3	n/a	43	n/a	3	n/a	n/a	n/a	n/a	334.573	n/a
303.5	0.497	happy	Picture	37.947	n/a	3	9	4	n/a	44	93	3	n/a	n/a	n/a	n/a	335.103	BF22ANS.jpg
303.997	0.514	Blank	Blank	37.433	n/a	3	9	4	n/a	44	n/a	3	n/a	n/a	n/a	n/a	335.601	n/a
304.528	0.497	happy	Picture	36.919	n/a	3	9	5	n/a	45	88	3	n/a	n/a	n/a	n/a	336.131	AF14ANS.jpg
305.025	0.514	Blank	Blank	36.405	n/a	3	9	5	n/a	45	n/a	3	n/a	n/a	n/a	n/a	336.629	n/a
305.556	0.497	happy	Picture	35.891	n/a	3	9	6	n/a	46	113	3	n/a	n/a	n/a	n/a	337.159	AM21ANS.jpg
306.053	0.514	Blank	Blank	35.377	n/a	3	9	6	n/a	46	n/a	3	n/a	n/a	n/a	n/a	337.657	n/a
306.583	0.497	happy	Picture	34.863	n/a	3	9	7	n/a	47	95	3	n/a	n/a	n/a	n/a	338.187	AF25ANS.jpg
307.081	0.514	Blank	Blank	34.349	n/a	3	9	7	n/a	47	n/a	3	n/a	n/a	n/a	n/a	338.685	n/a
307.611	0.497	happy	Picture	33.835	n/a	3	9	8	n/a	48	102	3	n/a	n/a	n/a	n/a	339.215	BM03ANS.jpg
308.109	0.514	Blank	Blank	33.321	n/a	3	9	8	n/a	48	n/a	3	n/a	n/a	n/a	n/a	339.712	n/a
308.639	0.497	happy	Picture	32.807	n/a	3	9	9	n/a	49	112	3	n/a	n/a	n/a	n/a	340.243	AM14ANS.jpg
309.137	0.514	Blank	Blank	32.293	n/a	3	9	9	n/a	49	n/a	3	n/a	n/a	n/a	n/a	340.74	n/a
309.667	0.497	happy	Picture	31.779	n/a	3	9	10	n/a	50	83	3	n/a	n/a	n/a	n/a	341.271	BF04ANS.jpg
310.164	0.514	Blank	Blank	31.265	n/a	3	9	10	n/a	50	n/a	3	n/a	n/a	n/a	n/a	341.768	n/a
310.695	0.497	happy	Picture	30.752	n/a	3	9	11	n/a	51	90	3	n/a	n/a	n/a	n/a	342.299	AF18ANS.jpg
311.192	0.514	Blank	Blank	30.238	n/a	3	9	11	n/a	51	n/a	3	n/a	n/a	n/a	n/a	342.796	n/a
311.723	0.497	happy	Picture	29.724	n/a	3	9	12	n/a	52	117	3	n/a	n/a	n/a	n/a	343.327	BM25ANS.jpg
312.22	0.514	Blank	Blank	29.21	n/a	3	9	12	n/a	52	n/a	3	n/a	n/a	n/a	n/a	343.824	n/a
312.751	0.497	happy	Picture	28.696	n/a	3	9	13	n/a	53	94	3	n/a	n/a	n/a	n/a	344.354	AF23ANS.jpg
313.248	0.514	Blank	Blank	28.182	n/a	3	9	13	n/a	53	n/a	3	n/a	n/a	n/a	n/a	344.852	n/a
313.779	0.497	happy	Picture	27.668	n/a	3	9	14	n/a	54	106	3	n/a	n/a	n/a	n/a	345.382	AM07ANS.jpg
314.276	0.514	Blank	Blank	27.154	n/a	3	9	14	n/a	54	n/a	3	n/a	n/a	n/a	n/a	345.88	n/a
314.807	0.497	happy	Picture	26.64	n/a	3	9	15	n/a	55	105	3	n/a	n/a	n/a	n/a	346.41	BM06ANS.jpg
315.304	0.514	Blank	Blank	26.126	n/a	3	9	15	n/a	55	n/a	3	n/a	n/a	n/a	n/a	346.908	n/a
315.835	0.497	happy	Picture	25.612	n/a	3	9	16	n/a	56	116	3	n/a	n/a	n/a	n/a	347.438	BM24ANS.jpg
316.332	0.514	Blank	Blank	25.098	n/a	3	9	16	n/a	56	n/a	3	n/a	n/a	n/a	n/a	347.935	n/a
316.862	0.497	happy	Picture	24.584	n/a	3	9	17	n/a	57	89	3	n/a	n/a	n/a	n/a	348.466	AF17ANS.jpg
317.36	0.514	Blank	Blank	24.07	n/a	3	9	17	n/a	57	n/a	3	n/a	n/a	n/a	n/a	348.963	n/a
317.89	0.497	happy	Picture	23.556	n/a	3	9	18	n/a	58	118	3	n/a	n/a	n/a	n/a	349.494	BM26ANS.jpg
318.388	0.514	Blank	Blank	23.042	n/a	3	9	18	n/a	58	n/a	3	n/a	n/a	n/a	n/a	349.991	n/a
318.918	0.497	happy	Picture	22.528	n/a	3	9	19	n/a	59	100	3	n/a	n/a	n/a	n/a	350.522	AF32ANS.jpg
319.416	0.514	Blank	Blank	22.014	n/a	3	9	19	n/a	59	n/a	3	n/a	n/a	n/a	n/a	351.019	n/a
319.946	0.497	happy	Picture	21.501	n/a	3	9	20	n/a	60	119	3	n/a	n/a	n/a	n/a	351.55	BM28ANS.jpg
320.443	0.514	Blank	Blank	20.987	n/a	3	9	20	n/a	60	n/a	3	n/a	n/a	n/a	n/a	352.047	n/a
320.974	10.014	ITI	Fixation+	10.956	n/a	3	n/a	n/a	n/a	n/a	n/a	n/a	n/a	n/a	n/a	n/a	352.578	n/a
341.944	n/a	ConfirmRating	Rate	n/a	10.942	3	n/a	n/a	0	n/a	n/a	n/a	2	Happy	63	52	373.548	n/a
344.207	n/a	ConfirmRating	Rate	n/a	2.255	3	n/a	n/a	1	n/a	n/a	n/a	3	Happy	8	48	375.81	n/a
344.234	10.014	ITI	Fixation+	94.818	n/a	4	n/a	n/a	n/a	n/a	n/a	n/a	n/a	n/a	n/a	n/a	375.838	n/a
354.264	0.497	angry	Picture	94.304	n/a	4	10	1	n/a	61	79	2	n/a	n/a	n/a	n/a	385.868	BM28HAS.jpg
354.762	0.514	Blank	Blank	93.79	n/a	4	10	1	n/a	61	n/a	2	n/a	n/a	n/a	n/a	386.365	n/a
355.292	0.497	angry	Picture	93.276	n/a	4	10	2	n/a	62	61	2	n/a	n/a	n/a	n/a	386.896	AM01HAS.jpg
355.79	0.514	Blank	Blank	92.762	n/a	4	10	2	n/a	62	n/a	2	n/a	n/a	n/a	n/a	387.393	n/a
356.32	0.497	angry	Picture	92.248	n/a	4	10	3	n/a	63	57	2	n/a	n/a	n/a	n/a	387.924	BF28HAS.jpg
356.817	0.514	Blank	Blank	91.734	n/a	4	10	3	n/a	63	n/a	2	n/a	n/a	n/a	n/a	388.421	n/a
357.348	0.497	angry	Picture	91.22	n/a	4	10	4	n/a	64	77	2	n/a	n/a	n/a	n/a	388.952	BM25HAS.jpg
357.845	0.514	Blank	Blank	90.706	n/a	4	10	4	n/a	64	n/a	2	n/a	n/a	n/a	n/a	389.449	n/a
358.376	0.497	angry	Picture	90.192	n/a	4	10	5	n/a	65	47	2	n/a	n/a	n/a	n/a	389.979	BF11HAS.jpg
358.873	0.514	Blank	Blank	89.679	n/a	4	10	5	n/a	65	n/a	2	n/a	n/a	n/a	n/a	390.477	n/a
359.404	0.497	angry	Picture	89.165	n/a	4	10	6	n/a	66	50	2	n/a	n/a	n/a	n/a	391.007	AF18HAS.jpg
359.901	0.514	Blank	Blank	88.651	n/a	4	10	6	n/a	66	n/a	2	n/a	n/a	n/a	n/a	391.505	n/a
360.432	0.497	angry	Picture	88.137	n/a	4	10	7	n/a	67	78	2	n/a	n/a	n/a	n/a	392.035	BM26HAS.jpg
360.929	0.514	Blank	Blank	87.623	n/a	4	10	7	n/a	67	n/a	2	n/a	n/a	n/a	n/a	392.533	n/a
361.46	0.497	angry	Picture	87.109	n/a	4	10	8	n/a	68	45	2	n/a	n/a	n/a	n/a	393.063	BF07HAS.jpg
361.957	0.514	Blank	Blank	86.595	n/a	4	10	8	n/a	68	n/a	2	n/a	n/a	n/a	n/a	393.56	n/a
362.487	0.497	angry	Picture	86.081	n/a	4	10	9	n/a	69	56	2	n/a	n/a	n/a	n/a	394.091	AF26HAS.jpg
362.985	0.514	Blank	Blank	85.567	n/a	4	10	9	n/a	69	n/a	2	n/a	n/a	n/a	n/a	394.588	n/a
363.515	0.497	angry	Picture	85.053	n/a	4	10	10	n/a	70	65	2	n/a	n/a	n/a	n/a	395.119	BM06HAS.jpg
364.013	0.514	Blank	Blank	84.539	n/a	4	10	10	n/a	70	n/a	2	n/a	n/a	n/a	n/a	395.616	n/a
364.543	0.497	angry	Picture	84.025	n/a	4	10	11	n/a	71	73	2	n/a	n/a	n/a	n/a	396.147	AM21HAS.jpg
365.041	0.514	Blank	Blank	83.511	n/a	4	10	11	n/a	71	n/a	2	n/a	n/a	n/a	n/a	396.644	n/a
365.571	0.497	angry	Picture	82.997	n/a	4	10	12	n/a	72	41	2	n/a	n/a	n/a	n/a	397.175	AF01HAS.jpg
366.068	0.514	Blank	Blank	82.483	n/a	4	10	12	n/a	72	n/a	2	n/a	n/a	n/a	n/a	397.672	n/a
366.599	0.497	angry	Picture	81.969	n/a	4	10	13	n/a	73	59	2	n/a	n/a	n/a	n/a	398.203	AF31HAS.jpg
367.096	0.514	Blank	Blank	81.455	n/a	4	10	13	n/a	73	n/a	2	n/a	n/a	n/a	n/a	398.7	n/a
367.627	0.497	angry	Picture	80.941	n/a	4	10	14	n/a	74	64	2	n/a	n/a	n/a	n/a	399.231	BM05HAS.jpg
368.124	0.514	Blank	Blank	80.428	n/a	4	10	14	n/a	74	n/a	2	n/a	n/a	n/a	n/a	399.728	n/a
368.655	0.497	angry	Picture	79.914	n/a	4	10	15	n/a	75	68	2	n/a	n/a	n/a	n/a	400.258	AM09HAS.jpg
369.152	0.514	Blank	Blank	79.4	n/a	4	10	15	n/a	75	n/a	2	n/a	n/a	n/a	n/a	400.756	n/a
369.683	0.497	angry	Picture	78.886	n/a	4	10	16	n/a	76	54	2	n/a	n/a	n/a	n/a	401.286	AF23HAS.jpg
370.18	0.514	Blank	Blank	78.372	n/a	4	10	16	n/a	76	n/a	2	n/a	n/a	n/a	n/a	401.784	n/a
370.711	0.497	angry	Picture	77.858	n/a	4	10	17	n/a	77	53	2	n/a	n/a	n/a	n/a	402.314	BF22HAS.jpg
371.208	0.514	Blank	Blank	77.344	n/a	4	10	17	n/a	77	n/a	2	n/a	n/a	n/a	n/a	402.812	n/a
371.739	0.497	angry	Picture	76.83	n/a	4	10	18	n/a	78	44	2	n/a	n/a	n/a	n/a	403.342	AF05HAS.jpg
372.236	0.514	Blank	Blank	76.316	n/a	4	10	18	n/a	78	n/a	2	n/a	n/a	n/a	n/a	403.839	n/a
372.766	0.497	angry	Picture	75.802	n/a	4	10	19	n/a	79	52	2	n/a	n/a	n/a	n/a	404.37	AF21HAS.jpg
373.264	0.514	Blank	Blank	75.288	n/a	4	10	19	n/a	79	n/a	2	n/a	n/a	n/a	n/a	404.867	n/a
373.794	0.497	angry	Picture	74.774	n/a	4	10	20	n/a	80	62	2	n/a	n/a	n/a	n/a	405.398	BM03HAS.jpg
374.292	0.514	Blank	Blank	74.26	n/a	4	10	20	n/a	80	n/a	2	n/a	n/a	n/a	n/a	405.895	n/a
374.822	10.014	ITI	Fixation+	64.23	n/a	4	n/a	n/a	n/a	n/a	n/a	n/a	n/a	n/a	n/a	n/a	406.426	n/a
384.852	0.497	neutral	Picture	63.716	n/a	4	11	1	n/a	81	23	1	n/a	n/a	n/a	n/a	416.456	AM04NES.jpg
385.35	0.514	Blank	Blank	63.202	n/a	4	11	1	n/a	81	n/a	1	n/a	n/a	n/a	n/a	416.953	n/a
385.88	0.497	neutral	Picture	62.688	n/a	4	11	2	n/a	82	29	1	n/a	n/a	n/a	n/a	417.484	AM10NES.jpg
386.378	0.514	Blank	Blank	62.174	n/a	4	11	2	n/a	82	n/a	1	n/a	n/a	n/a	n/a	417.981	n/a
386.908	0.497	neutral	Picture	61.66	n/a	4	11	3	n/a	83	24	1	n/a	n/a	n/a	n/a	418.512	BM05NES.jpg
387.405	0.514	Blank	Blank	61.146	n/a	4	11	3	n/a	83	n/a	1	n/a	n/a	n/a	n/a	419.009	n/a
387.936	0.497	neutral	Picture	60.632	n/a	4	11	4	n/a	84	12	1	n/a	n/a	n/a	n/a	419.54	AF21NES.jpg
388.433	0.514	Blank	Blank	60.118	n/a	4	11	4	n/a	84	n/a	1	n/a	n/a	n/a	n/a	420.037	n/a
388.964	0.497	neutral	Picture	59.604	n/a	4	11	5	n/a	85	13	1	n/a	n/a	n/a	n/a	420.567	BF22NES.jpg
389.461	0.514	Blank	Blank	59.091	n/a	4	11	5	n/a	85	n/a	1	n/a	n/a	n/a	n/a	421.065	n/a
389.992	0.497	neutral	Picture	58.577	n/a	4	11	6	n/a	86	17	1	n/a	n/a	n/a	n/a	421.595	BF28NES.jpg
390.489	0.514	Blank	Blank	58.063	n/a	4	11	6	n/a	86	n/a	1	n/a	n/a	n/a	n/a	422.093	n/a
391.02	0.497	neutral	Picture	57.549	n/a	4	11	7	n/a	87	4	1	n/a	n/a	n/a	n/a	422.623	AF05NES.jpg
391.517	0.514	Blank	Blank	57.035	n/a	4	11	7	n/a	87	n/a	1	n/a	n/a	n/a	n/a	423.121	n/a
392.048	0.497	neutral	Picture	56.521	n/a	4	11	8	n/a	88	11	1	n/a	n/a	n/a	n/a	423.651	AF20NES.jpg
392.545	0.514	Blank	Blank	56.007	n/a	4	11	8	n/a	88	n/a	1	n/a	n/a	n/a	n/a	424.149	n/a
393.076	0.497	neutral	Picture	55.493	n/a	4	11	9	n/a	89	22	1	n/a	n/a	n/a	n/a	424.679	BM03NES.jpg
393.573	0.514	Blank	Blank	54.979	n/a	4	11	9	n/a	89	n/a	1	n/a	n/a	n/a	n/a	425.176	n/a
394.103	0.497	neutral	Picture	54.465	n/a	4	11	10	n/a	90	15	1	n/a	n/a	n/a	n/a	425.707	AF25NES.jpg
394.601	0.514	Blank	Blank	53.951	n/a	4	11	10	n/a	90	n/a	1	n/a	n/a	n/a	n/a	426.204	n/a
395.131	0.497	neutral	Picture	53.437	n/a	4	11	11	n/a	91	19	1	n/a	n/a	n/a	n/a	426.735	AF31NES.jpg
395.629	0.514	Blank	Blank	52.923	n/a	4	11	11	n/a	91	n/a	1	n/a	n/a	n/a	n/a	427.232	n/a
396.159	0.497	neutral	Picture	52.409	n/a	4	11	12	n/a	92	9	1	n/a	n/a	n/a	n/a	427.763	AF17NES.jpg
396.657	0.514	Blank	Blank	51.895	n/a	4	11	12	n/a	92	n/a	1	n/a	n/a	n/a	n/a	428.26	n/a
397.187	0.497	neutral	Picture	51.381	n/a	4	11	13	n/a	93	14	1	n/a	n/a	n/a	n/a	428.791	AF23NES.jpg
397.684	0.514	Blank	Blank	50.867	n/a	4	11	13	n/a	93	n/a	1	n/a	n/a	n/a	n/a	429.288	n/a
398.215	0.497	neutral	Picture	50.353	n/a	4	11	14	n/a	94	36	1	n/a	n/a	n/a	n/a	429.818	BM24NES.jpg
398.712	0.514	Blank	Blank	49.839	n/a	4	11	14	n/a	94	n/a	1	n/a	n/a	n/a	n/a	430.316	n/a
399.243	0.497	neutral	Picture	49.326	n/a	4	11	15	n/a	95	34	1	n/a	n/a	n/a	n/a	430.846	AM22NES.jpg
399.74	0.514	Blank	Blank	48.812	n/a	4	11	15	n/a	95	n/a	1	n/a	n/a	n/a	n/a	431.344	n/a
400.271	0.497	neutral	Picture	48.298	n/a	4	11	16	n/a	96	10	1	n/a	n/a	n/a	n/a	431.874	AF18NES.jpg
400.768	0.514	Blank	Blank	47.784	n/a	4	11	16	n/a	96	n/a	1	n/a	n/a	n/a	n/a	432.372	n/a
401.299	0.497	neutral	Picture	47.27	n/a	4	11	17	n/a	97	5	1	n/a	n/a	n/a	n/a	432.902	BF07NES.jpg
401.796	0.514	Blank	Blank	46.756	n/a	4	11	17	n/a	97	n/a	1	n/a	n/a	n/a	n/a	433.4	n/a
402.327	0.497	neutral	Picture	46.242	n/a	4	11	18	n/a	98	25	1	n/a	n/a	n/a	n/a	433.93	BM06NES.jpg
402.824	0.514	Blank	Blank	45.728	n/a	4	11	18	n/a	98	n/a	1	n/a	n/a	n/a	n/a	434.428	n/a
403.354	0.497	neutral	Picture	45.214	n/a	4	11	19	n/a	99	39	1	n/a	n/a	n/a	n/a	434.958	AM28NES.jpg
403.852	0.514	Blank	Blank	44.7	n/a	4	11	19	n/a	99	n/a	1	n/a	n/a	n/a	n/a	435.455	n/a
404.382	0.497	neutral	Picture	44.186	n/a	4	11	20	n/a	100	33	1	n/a	n/a	n/a	n/a	435.986	AM21NES.jpg
404.88	0.514	Blank	Blank	43.672	n/a	4	11	20	n/a	100	n/a	1	n/a	n/a	n/a	n/a	436.483	n/a
405.41	10.014	ITI	Fixation+	33.642	n/a	4	n/a	n/a	n/a	n/a	n/a	n/a	n/a	n/a	n/a	n/a	437.014	n/a
415.44	0.497	angry	Picture	33.128	n/a	4	12	1	n/a	101	74	2	n/a	n/a	n/a	n/a	447.044	AM22HAS.jpg
415.938	0.514	Blank	Blank	32.614	n/a	4	12	1	n/a	101	n/a	2	n/a	n/a	n/a	n/a	447.541	n/a
416.468	0.497	angry	Picture	32.1	n/a	4	12	2	n/a	102	76	2	n/a	n/a	n/a	n/a	448.072	BM24HAS.jpg
416.966	0.514	Blank	Blank	31.586	n/a	4	12	2	n/a	102	n/a	2	n/a	n/a	n/a	n/a	448.569	n/a
417.496	0.497	angry	Picture	31.072	n/a	4	12	3	n/a	103	80	2	n/a	n/a	n/a	n/a	449.1	BM35HAS.jpg
417.994	0.514	Blank	Blank	30.558	n/a	4	12	3	n/a	103	n/a	2	n/a	n/a	n/a	n/a	449.597	n/a
418.524	0.497	angry	Picture	30.044	n/a	4	12	4	n/a	104	75	2	n/a	n/a	n/a	n/a	450.128	AM23HAS.jpg
419.021	0.514	Blank	Blank	29.53	n/a	4	12	4	n/a	104	n/a	2	n/a	n/a	n/a	n/a	450.625	n/a
419.552	0.497	angry	Picture	29.016	n/a	4	12	5	n/a	105	49	2	n/a	n/a	n/a	n/a	451.156	AF17HAS.jpg
420.049	0.514	Blank	Blank	28.502	n/a	4	12	5	n/a	105	n/a	2	n/a	n/a	n/a	n/a	451.653	n/a
420.58	0.497	angry	Picture	27.989	n/a	4	12	6	n/a	106	43	2	n/a	n/a	n/a	n/a	452.183	BF04HAS.jpg
421.077	0.514	Blank	Blank	27.475	n/a	4	12	6	n/a	106	n/a	2	n/a	n/a	n/a	n/a	452.681	n/a
421.608	0.497	angry	Picture	26.961	n/a	4	12	7	n/a	107	70	2	n/a	n/a	n/a	n/a	453.211	BM11HAS.jpg
422.105	0.514	Blank	Blank	26.447	n/a	4	12	7	n/a	107	n/a	2	n/a	n/a	n/a	n/a	453.709	n/a
422.636	0.497	angry	Picture	25.933	n/a	4	12	8	n/a	108	66	2	n/a	n/a	n/a	n/a	454.239	BM07HAS.jpg
423.133	0.514	Blank	Blank	25.419	n/a	4	12	8	n/a	108	n/a	2	n/a	n/a	n/a	n/a	454.737	n/a
423.663	0.497	angry	Picture	24.905	n/a	4	12	9	n/a	109	48	2	n/a	n/a	n/a	n/a	455.267	AF14HAS.jpg
424.161	0.514	Blank	Blank	24.391	n/a	4	12	9	n/a	109	n/a	2	n/a	n/a	n/a	n/a	455.764	n/a
424.691	0.497	angry	Picture	23.877	n/a	4	12	10	n/a	110	58	2	n/a	n/a	n/a	n/a	456.295	BF29HAS.jpg
425.189	0.514	Blank	Blank	23.363	n/a	4	12	10	n/a	110	n/a	2	n/a	n/a	n/a	n/a	456.792	n/a
425.719	0.497	angry	Picture	22.849	n/a	4	12	11	n/a	111	63	2	n/a	n/a	n/a	n/a	457.323	AM04HAS.jpg
426.217	0.514	Blank	Blank	22.335	n/a	4	12	11	n/a	111	n/a	2	n/a	n/a	n/a	n/a	457.82	n/a
426.747	0.497	angry	Picture	21.821	n/a	4	12	12	n/a	112	72	2	n/a	n/a	n/a	n/a	458.351	AM14HAS.jpg
427.245	0.514	Blank	Blank	21.307	n/a	4	12	12	n/a	112	n/a	2	n/a	n/a	n/a	n/a	458.848	n/a
427.775	0.497	angry	Picture	20.793	n/a	4	12	13	n/a	113	55	2	n/a	n/a	n/a	n/a	459.379	AF25HAS.jpg
428.272	0.514	Blank	Blank	20.279	n/a	4	12	13	n/a	113	n/a	2	n/a	n/a	n/a	n/a	459.876	n/a
428.803	0.497	angry	Picture	19.765	n/a	4	12	14	n/a	114	42	2	n/a	n/a	n/a	n/a	460.407	AF03HAS.jpg
429.3	0.514	Blank	Blank	19.251	n/a	4	12	14	n/a	114	n/a	2	n/a	n/a	n/a	n/a	460.904	n/a
429.831	0.497	angry	Picture	18.738	n/a	4	12	15	n/a	115	60	2	n/a	n/a	n/a	n/a	461.435	AF32HAS.jpg
430.328	0.514	Blank	Blank	18.224	n/a	4	12	15	n/a	115	n/a	2	n/a	n/a	n/a	n/a	461.932	n/a
430.859	0.497	angry	Picture	17.71	n/a	4	12	16	n/a	116	67	2	n/a	n/a	n/a	n/a	462.462	BM08HAS.jpg
431.356	0.514	Blank	Blank	17.196	n/a	4	12	16	n/a	116	n/a	2	n/a	n/a	n/a	n/a	462.96	n/a
431.887	0.497	angry	Picture	16.682	n/a	4	12	17	n/a	117	51	2	n/a	n/a	n/a	n/a	463.49	AF20HAS.jpg
432.384	0.514	Blank	Blank	16.168	n/a	4	12	17	n/a	117	n/a	2	n/a	n/a	n/a	n/a	463.988	n/a
432.914	0.497	angry	Picture	15.654	n/a	4	12	18	n/a	118	71	2	n/a	n/a	n/a	n/a	464.518	BM12HAS.jpg
433.412	0.514	Blank	Blank	15.14	n/a	4	12	18	n/a	118	n/a	2	n/a	n/a	n/a	n/a	465.015	n/a
433.942	0.497	angry	Picture	14.626	n/a	4	12	19	n/a	119	69	2	n/a	n/a	n/a	n/a	465.546	AM10HAS.jpg
434.44	0.514	Blank	Blank	14.112	n/a	4	12	19	n/a	119	n/a	2	n/a	n/a	n/a	n/a	466.043	n/a
434.97	0.497	angry	Picture	13.598	n/a	4	12	20	n/a	120	46	2	n/a	n/a	n/a	n/a	466.574	AF09HAS.jpg
435.468	0.514	Blank	Blank	13.084	n/a	4	12	20	n/a	120	n/a	2	n/a	n/a	n/a	n/a	467.071	n/a
435.998	10.014	ITI	Fixation+	3.054	n/a	4	n/a	n/a	n/a	n/a	n/a	n/a	n/a	n/a	n/a	n/a	467.602	n/a
449.066	n/a	ConfirmRating	Rate	n/a	3.05	4	n/a	n/a	0	n/a	n/a	n/a	2	Angry	61	51	480.669	n/a
451.409	n/a	ConfirmRating	Rate	n/a	2.321	4	n/a	n/a	1	n/a	n/a	n/a	3	Angry	5	49	483.012	n/a
