onset	duration	trial_type	event_type	time_until_response	response_time	trial_number	block_num_within_trial	image_seq_num_within_block	question_seq_num_within_block	image_seq_num	picture_number	condition	question_type	block_type	rating	rating_computed	onset_uncorrected	KDEV_imagefile
0.004	10.014	ITI	Fixation+	95.954	n/a	1	n/a	n/a	n/a	n/a	n/a	n/a	n/a	n/a	n/a	n/a	32.058	n/a
10.034	0.497	happy	Picture	95.44	n/a	1	1	1	n/a	1	46	2	n/a	n/a	n/a	n/a	42.088	AF09HAS.jpg
10.531	0.514	Blank	Blank	94.926	n/a	1	1	1	n/a	1	n/a	2	n/a	n/a	n/a	n/a	42.586	n/a
11.062	0.497	happy	Picture	94.412	n/a	1	1	2	n/a	2	69	2	n/a	n/a	n/a	n/a	43.116	AM10HAS.jpg
11.559	0.514	Blank	Blank	93.898	n/a	1	1	2	n/a	2	n/a	2	n/a	n/a	n/a	n/a	43.614	n/a
12.09	0.497	happy	Picture	93.384	n/a	1	1	3	n/a	3	71	2	n/a	n/a	n/a	n/a	44.144	BM12HAS.jpg
12.587	0.514	Blank	Blank	92.87	n/a	1	1	3	n/a	3	n/a	2	n/a	n/a	n/a	n/a	44.641	n/a
13.117	0.497	happy	Picture	92.356	n/a	1	1	4	n/a	4	51	2	n/a	n/a	n/a	n/a	45.172	AF20HAS.jpg
13.615	0.514	Blank	Blank	91.842	n/a	1	1	4	n/a	4	n/a	2	n/a	n/a	n/a	n/a	45.669	n/a
14.145	0.497	happy	Picture	91.328	n/a	1	1	5	n/a	5	67	2	n/a	n/a	n/a	n/a	46.2	BM08HAS.jpg
14.643	0.514	Blank	Blank	90.814	n/a	1	1	5	n/a	5	n/a	2	n/a	n/a	n/a	n/a	46.697	n/a
15.173	0.497	happy	Picture	90.3	n/a	1	1	6	n/a	6	60	2	n/a	n/a	n/a	n/a	47.228	AF32HAS.jpg
15.671	0.514	Blank	Blank	89.786	n/a	1	1	6	n/a	6	n/a	2	n/a	n/a	n/a	n/a	47.725	n/a
16.201	0.497	happy	Picture	89.273	n/a	1	1	7	n/a	7	42	2	n/a	n/a	n/a	n/a	48.256	AF03HAS.jpg
16.698	0.514	Blank	Blank	88.759	n/a	1	1	7	n/a	7	n/a	2	n/a	n/a	n/a	n/a	48.753	n/a
17.229	0.497	happy	Picture	88.245	n/a	1	1	8	n/a	8	55	2	n/a	n/a	n/a	n/a	49.283	AF25HAS.jpg
17.726	0.514	Blank	Blank	87.731	n/a	1	1	8	n/a	8	n/a	2	n/a	n/a	n/a	n/a	49.781	n/a
18.257	0.497	happy	Picture	87.217	n/a	1	1	9	n/a	9	72	2	n/a	n/a	n/a	n/a	50.311	AM14HAS.jpg
18.754	0.514	Blank	Blank	86.703	n/a	1	1	9	n/a	9	n/a	2	n/a	n/a	n/a	n/a	50.809	n/a
19.285	0.497	happy	Picture	86.189	n/a	1	1	10	n/a	10	63	2	n/a	n/a	n/a	n/a	51.339	AM04HAS.jpg
19.782	0.514	Blank	Blank	85.675	n/a	1	1	10	n/a	10	n/a	2	n/a	n/a	n/a	n/a	51.837	n/a
20.313	0.497	happy	Picture	85.161	n/a	1	1	11	n/a	11	58	2	n/a	n/a	n/a	n/a	52.367	BF29HAS.jpg
20.81	0.514	Blank	Blank	84.647	n/a	1	1	11	n/a	11	n/a	2	n/a	n/a	n/a	n/a	52.864	n/a
21.341	0.497	happy	Picture	84.133	n/a	1	1	12	n/a	12	48	2	n/a	n/a	n/a	n/a	53.395	AF14HAS.jpg
21.838	0.514	Blank	Blank	83.619	n/a	1	1	12	n/a	12	n/a	2	n/a	n/a	n/a	n/a	53.892	n/a
22.368	0.497	happy	Picture	83.105	n/a	1	1	13	n/a	13	66	2	n/a	n/a	n/a	n/a	54.423	BM07HAS.jpg
22.866	0.514	Blank	Blank	82.591	n/a	1	1	13	n/a	13	n/a	2	n/a	n/a	n/a	n/a	54.92	n/a
23.396	0.497	happy	Picture	82.077	n/a	1	1	14	n/a	14	70	2	n/a	n/a	n/a	n/a	55.451	BM11HAS.jpg
23.894	0.514	Blank	Blank	81.563	n/a	1	1	14	n/a	14	n/a	2	n/a	n/a	n/a	n/a	55.948	n/a
24.424	0.497	happy	Picture	81.049	n/a	1	1	15	n/a	15	43	2	n/a	n/a	n/a	n/a	56.479	BF04HAS.jpg
24.922	0.514	Blank	Blank	80.535	n/a	1	1	15	n/a	15	n/a	2	n/a	n/a	n/a	n/a	56.976	n/a
25.452	0.497	happy	Picture	80.022	n/a	1	1	16	n/a	16	49	2	n/a	n/a	n/a	n/a	57.507	AF17HAS.jpg
25.95	0.514	Blank	Blank	79.508	n/a	1	1	16	n/a	16	n/a	2	n/a	n/a	n/a	n/a	58.004	n/a
26.48	0.497	happy	Picture	78.994	n/a	1	1	17	n/a	17	75	2	n/a	n/a	n/a	n/a	58.534	AM23HAS.jpg
26.977	0.514	Blank	Blank	78.48	n/a	1	1	17	n/a	17	n/a	2	n/a	n/a	n/a	n/a	59.032	n/a
27.508	0.497	happy	Picture	77.966	n/a	1	1	18	n/a	18	80	2	n/a	n/a	n/a	n/a	59.562	BM35HAS.jpg
28.005	0.514	Blank	Blank	77.452	n/a	1	1	18	n/a	18	n/a	2	n/a	n/a	n/a	n/a	60.06	n/a
28.536	0.497	happy	Picture	76.938	n/a	1	1	19	n/a	19	76	2	n/a	n/a	n/a	n/a	60.59	BM24HAS.jpg
29.033	0.514	Blank	Blank	76.424	n/a	1	1	19	n/a	19	n/a	2	n/a	n/a	n/a	n/a	61.088	n/a
29.564	0.497	happy	Picture	75.91	n/a	1	1	20	n/a	20	74	2	n/a	n/a	n/a	n/a	61.618	AM22HAS.jpg
30.061	0.514	Blank	Blank	75.396	n/a	1	1	20	n/a	20	n/a	2	n/a	n/a	n/a	n/a	62.115	n/a
30.592	10.014	ITI	Fixation+	65.366	n/a	1	n/a	n/a	n/a	n/a	n/a	n/a	n/a	n/a	n/a	n/a	62.646	n/a
40.622	0.497	neutral	Picture	64.852	n/a	1	2	1	n/a	21	33	1	n/a	n/a	n/a	n/a	72.676	AM21NES.jpg
41.119	0.514	Blank	Blank	64.338	n/a	1	2	1	n/a	21	n/a	1	n/a	n/a	n/a	n/a	73.174	n/a
41.65	0.497	neutral	Picture	63.824	n/a	1	2	2	n/a	22	39	1	n/a	n/a	n/a	n/a	73.704	AM28NES.jpg
42.147	0.514	Blank	Blank	63.31	n/a	1	2	2	n/a	22	n/a	1	n/a	n/a	n/a	n/a	74.201	n/a
42.677	0.497	neutral	Picture	62.796	n/a	1	2	3	n/a	23	25	1	n/a	n/a	n/a	n/a	74.732	BM06NES.jpg
43.175	0.514	Blank	Blank	62.282	n/a	1	2	3	n/a	23	n/a	1	n/a	n/a	n/a	n/a	75.229	n/a
43.705	0.497	neutral	Picture	61.768	n/a	1	2	4	n/a	24	5	1	n/a	n/a	n/a	n/a	75.76	BF07NES.jpg
44.203	0.514	Blank	Blank	61.254	n/a	1	2	4	n/a	24	n/a	1	n/a	n/a	n/a	n/a	76.257	n/a
44.733	0.497	neutral	Picture	60.74	n/a	1	2	5	n/a	25	10	1	n/a	n/a	n/a	n/a	76.788	AF18NES.jpg
45.231	0.514	Blank	Blank	60.226	n/a	1	2	5	n/a	25	n/a	1	n/a	n/a	n/a	n/a	77.285	n/a
45.761	0.497	neutral	Picture	59.712	n/a	1	2	6	n/a	26	34	1	n/a	n/a	n/a	n/a	77.816	AM22NES.jpg
46.259	0.514	Blank	Blank	59.199	n/a	1	2	6	n/a	26	n/a	1	n/a	n/a	n/a	n/a	78.313	n/a
46.789	0.497	neutral	Picture	58.685	n/a	1	2	7	n/a	27	36	1	n/a	n/a	n/a	n/a	78.844	BM24NES.jpg
47.287	0.514	Blank	Blank	58.171	n/a	1	2	7	n/a	27	n/a	1	n/a	n/a	n/a	n/a	79.341	n/a
47.817	0.497	neutral	Picture	57.657	n/a	1	2	8	n/a	28	14	1	n/a	n/a	n/a	n/a	79.871	AF23NES.jpg
48.314	0.514	Blank	Blank	57.143	n/a	1	2	8	n/a	28	n/a	1	n/a	n/a	n/a	n/a	80.369	n/a
48.845	0.497	neutral	Picture	56.629	n/a	1	2	9	n/a	29	9	1	n/a	n/a	n/a	n/a	80.899	AF17NES.jpg
49.342	0.514	Blank	Blank	56.115	n/a	1	2	9	n/a	29	n/a	1	n/a	n/a	n/a	n/a	81.397	n/a
49.873	0.497	neutral	Picture	55.601	n/a	1	2	10	n/a	30	19	1	n/a	n/a	n/a	n/a	81.927	AF31NES.jpg
50.37	0.514	Blank	Blank	55.087	n/a	1	2	10	n/a	30	n/a	1	n/a	n/a	n/a	n/a	82.424	n/a
50.901	0.497	neutral	Picture	54.573	n/a	1	2	11	n/a	31	15	1	n/a	n/a	n/a	n/a	82.955	AF25NES.jpg
51.398	0.514	Blank	Blank	54.059	n/a	1	2	11	n/a	31	n/a	1	n/a	n/a	n/a	n/a	83.452	n/a
51.928	0.497	neutral	Picture	53.545	n/a	1	2	12	n/a	32	22	1	n/a	n/a	n/a	n/a	83.983	BM03NES.jpg
52.426	0.514	Blank	Blank	53.031	n/a	1	2	12	n/a	32	n/a	1	n/a	n/a	n/a	n/a	84.48	n/a
52.956	0.497	neutral	Picture	52.517	n/a	1	2	13	n/a	33	11	1	n/a	n/a	n/a	n/a	85.011	AF20NES.jpg
53.454	0.514	Blank	Blank	52.003	n/a	1	2	13	n/a	33	n/a	1	n/a	n/a	n/a	n/a	85.508	n/a
53.984	0.497	neutral	Picture	51.489	n/a	1	2	14	n/a	34	4	1	n/a	n/a	n/a	n/a	86.039	AF05NES.jpg
54.482	0.514	Blank	Blank	50.975	n/a	1	2	14	n/a	34	n/a	1	n/a	n/a	n/a	n/a	86.536	n/a
55.012	0.497	neutral	Picture	50.462	n/a	1	2	15	n/a	35	17	1	n/a	n/a	n/a	n/a	87.067	BF28NES.jpg
55.51	0.514	Blank	Blank	49.948	n/a	1	2	15	n/a	35	n/a	1	n/a	n/a	n/a	n/a	87.564	n/a
56.04	0.497	neutral	Picture	49.434	n/a	1	2	16	n/a	36	13	1	n/a	n/a	n/a	n/a	88.094	BF22NES.jpg
56.537	0.514	Blank	Blank	48.92	n/a	1	2	16	n/a	36	n/a	1	n/a	n/a	n/a	n/a	88.592	n/a
57.068	0.497	neutral	Picture	48.406	n/a	1	2	17	n/a	37	12	1	n/a	n/a	n/a	n/a	89.122	AF21NES.jpg
57.565	0.514	Blank	Blank	47.892	n/a	1	2	17	n/a	37	n/a	1	n/a	n/a	n/a	n/a	89.62	n/a
58.096	0.497	neutral	Picture	47.378	n/a	1	2	18	n/a	38	24	1	n/a	n/a	n/a	n/a	90.15	BM05NES.jpg
58.593	0.514	Blank	Blank	46.864	n/a	1	2	18	n/a	38	n/a	1	n/a	n/a	n/a	n/a	90.648	n/a
59.124	0.497	neutral	Picture	46.35	n/a	1	2	19	n/a	39	29	1	n/a	n/a	n/a	n/a	91.178	AM10NES.jpg
59.621	0.514	Blank	Blank	45.836	n/a	1	2	19	n/a	39	n/a	1	n/a	n/a	n/a	n/a	91.675	n/a
60.152	0.497	neutral	Picture	45.322	n/a	1	2	20	n/a	40	23	1	n/a	n/a	n/a	n/a	92.206	AM04NES.jpg
60.649	0.514	Blank	Blank	44.808	n/a	1	2	20	n/a	40	n/a	1	n/a	n/a	n/a	n/a	92.703	n/a
61.18	10.014	ITI	Fixation+	34.778	n/a	1	n/a	n/a	n/a	n/a	n/a	n/a	n/a	n/a	n/a	n/a	93.234	n/a
71.21	0.497	happy	Picture	34.264	n/a	1	3	1	n/a	41	62	2	n/a	n/a	n/a	n/a	103.264	BM03HAS.jpg
71.707	0.514	Blank	Blank	33.75	n/a	1	3	1	n/a	41	n/a	2	n/a	n/a	n/a	n/a	103.761	n/a
72.238	0.497	happy	Picture	33.236	n/a	1	3	2	n/a	42	52	2	n/a	n/a	n/a	n/a	104.292	AF21HAS.jpg
72.735	0.514	Blank	Blank	32.722	n/a	1	3	2	n/a	42	n/a	2	n/a	n/a	n/a	n/a	104.789	n/a
73.265	0.497	happy	Picture	32.208	n/a	1	3	3	n/a	43	44	2	n/a	n/a	n/a	n/a	105.32	AF05HAS.jpg
73.763	0.514	Blank	Blank	31.694	n/a	1	3	3	n/a	43	n/a	2	n/a	n/a	n/a	n/a	105.817	n/a
74.293	0.497	happy	Picture	31.18	n/a	1	3	4	n/a	44	53	2	n/a	n/a	n/a	n/a	106.348	BF22HAS.jpg
74.791	0.514	Blank	Blank	30.666	n/a	1	3	4	n/a	44	n/a	2	n/a	n/a	n/a	n/a	106.845	n/a
75.321	0.497	happy	Picture	30.152	n/a	1	3	5	n/a	45	54	2	n/a	n/a	n/a	n/a	107.376	AF23HAS.jpg
75.819	0.514	Blank	Blank	29.639	n/a	1	3	5	n/a	45	n/a	2	n/a	n/a	n/a	n/a	107.873	n/a
76.349	0.497	happy	Picture	29.125	n/a	1	3	6	n/a	46	68	2	n/a	n/a	n/a	n/a	108.403	AM09HAS.jpg
76.846	0.514	Blank	Blank	28.611	n/a	1	3	6	n/a	46	n/a	2	n/a	n/a	n/a	n/a	108.901	n/a
77.377	0.497	happy	Picture	28.097	n/a	1	3	7	n/a	47	64	2	n/a	n/a	n/a	n/a	109.431	BM05HAS.jpg
77.874	0.514	Blank	Blank	27.583	n/a	1	3	7	n/a	47	n/a	2	n/a	n/a	n/a	n/a	109.929	n/a
78.405	0.497	happy	Picture	27.069	n/a	1	3	8	n/a	48	59	2	n/a	n/a	n/a	n/a	110.459	AF31HAS.jpg
78.902	0.514	Blank	Blank	26.555	n/a	1	3	8	n/a	48	n/a	2	n/a	n/a	n/a	n/a	110.957	n/a
79.433	0.497	happy	Picture	26.041	n/a	1	3	9	n/a	49	41	2	n/a	n/a	n/a	n/a	111.487	AF01HAS.jpg
79.93	0.514	Blank	Blank	25.527	n/a	1	3	9	n/a	49	n/a	2	n/a	n/a	n/a	n/a	111.984	n/a
80.461	0.497	happy	Picture	25.013	n/a	1	3	10	n/a	50	73	2	n/a	n/a	n/a	n/a	112.515	AM21HAS.jpg
80.958	0.514	Blank	Blank	24.499	n/a	1	3	10	n/a	50	n/a	2	n/a	n/a	n/a	n/a	113.012	n/a
81.489	0.497	happy	Picture	23.985	n/a	1	3	11	n/a	51	65	2	n/a	n/a	n/a	n/a	113.543	BM06HAS.jpg
81.986	0.514	Blank	Blank	23.471	n/a	1	3	11	n/a	51	n/a	2	n/a	n/a	n/a	n/a	114.04	n/a
82.516	0.497	happy	Picture	22.957	n/a	1	3	12	n/a	52	56	2	n/a	n/a	n/a	n/a	114.571	AF26HAS.jpg
83.014	0.514	Blank	Blank	22.443	n/a	1	3	12	n/a	52	n/a	2	n/a	n/a	n/a	n/a	115.068	n/a
83.544	0.497	happy	Picture	21.929	n/a	1	3	13	n/a	53	45	2	n/a	n/a	n/a	n/a	115.599	BF07HAS.jpg
84.042	0.514	Blank	Blank	21.415	n/a	1	3	13	n/a	53	n/a	2	n/a	n/a	n/a	n/a	116.096	n/a
84.572	0.497	happy	Picture	20.901	n/a	1	3	14	n/a	54	78	2	n/a	n/a	n/a	n/a	116.627	BM26HAS.jpg
85.07	0.514	Blank	Blank	20.388	n/a	1	3	14	n/a	54	n/a	2	n/a	n/a	n/a	n/a	117.124	n/a
85.6	0.497	happy	Picture	19.874	n/a	1	3	15	n/a	55	50	2	n/a	n/a	n/a	n/a	117.654	AF18HAS.jpg
86.097	0.514	Blank	Blank	19.36	n/a	1	3	15	n/a	55	n/a	2	n/a	n/a	n/a	n/a	118.152	n/a
86.628	0.497	happy	Picture	18.846	n/a	1	3	16	n/a	56	47	2	n/a	n/a	n/a	n/a	118.682	BF11HAS.jpg
87.125	0.514	Blank	Blank	18.332	n/a	1	3	16	n/a	56	n/a	2	n/a	n/a	n/a	n/a	119.18	n/a
87.656	0.497	happy	Picture	17.818	n/a	1	3	17	n/a	57	77	2	n/a	n/a	n/a	n/a	119.71	BM25HAS.jpg
88.153	0.514	Blank	Blank	17.304	n/a	1	3	17	n/a	57	n/a	2	n/a	n/a	n/a	n/a	120.208	n/a
88.684	0.497	happy	Picture	16.79	n/a	1	3	18	n/a	58	57	2	n/a	n/a	n/a	n/a	120.738	BF28HAS.jpg
89.181	0.514	Blank	Blank	16.276	n/a	1	3	18	n/a	58	n/a	2	n/a	n/a	n/a	n/a	121.236	n/a
89.712	0.497	happy	Picture	15.762	n/a	1	3	19	n/a	59	61	2	n/a	n/a	n/a	n/a	121.766	AM01HAS.jpg
90.209	0.514	Blank	Blank	15.248	n/a	1	3	19	n/a	59	n/a	2	n/a	n/a	n/a	n/a	122.263	n/a
90.739	0.497	happy	Picture	14.734	n/a	1	3	20	n/a	60	79	2	n/a	n/a	n/a	n/a	122.794	BM28HAS.jpg
91.237	0.514	Blank	Blank	14.22	n/a	1	3	20	n/a	60	n/a	2	n/a	n/a	n/a	n/a	123.291	n/a
91.767	10.014	ITI	Fixation+	4.19	n/a	1	n/a	n/a	n/a	n/a	n/a	n/a	n/a	n/a	n/a	n/a	123.822	n/a
105.971	n/a	ConfirmRating	Rate	n/a	4.177	1	n/a	n/a	0	n/a	n/a	n/a	2	Happy	50	50	138.025	n/a
106.698	n/a	ConfirmRating	Rate	n/a	0.713	1	n/a	n/a	1	n/a	n/a	n/a	3	Happy	50	50	138.752	n/a
106.722	10.014	ITI	Fixation+	103.913	n/a	2	n/a	n/a	n/a	n/a	n/a	n/a	n/a	n/a	n/a	n/a	138.776	n/a
116.752	0.497	angry	Picture	103.399	n/a	2	4	1	n/a	61	119	3	n/a	n/a	n/a	n/a	148.806	BM28ANS.jpg
117.249	0.514	Blank	Blank	102.885	n/a	2	4	1	n/a	61	n/a	3	n/a	n/a	n/a	n/a	149.303	n/a
117.78	0.497	angry	Picture	102.371	n/a	2	4	2	n/a	62	100	3	n/a	n/a	n/a	n/a	149.834	AF32ANS.jpg
118.277	0.514	Blank	Blank	101.857	n/a	2	4	2	n/a	62	n/a	3	n/a	n/a	n/a	n/a	150.331	n/a
118.807	0.497	angry	Picture	101.344	n/a	2	4	3	n/a	63	118	3	n/a	n/a	n/a	n/a	150.862	BM26ANS.jpg
119.305	0.514	Blank	Blank	100.83	n/a	2	4	3	n/a	63	n/a	3	n/a	n/a	n/a	n/a	151.359	n/a
119.835	0.497	angry	Picture	100.316	n/a	2	4	4	n/a	64	89	3	n/a	n/a	n/a	n/a	151.89	AF17ANS.jpg
120.333	0.514	Blank	Blank	99.802	n/a	2	4	4	n/a	64	n/a	3	n/a	n/a	n/a	n/a	152.387	n/a
120.863	0.497	angry	Picture	99.288	n/a	2	4	5	n/a	65	116	3	n/a	n/a	n/a	n/a	152.918	BM24ANS.jpg
121.361	0.514	Blank	Blank	98.774	n/a	2	4	5	n/a	65	n/a	3	n/a	n/a	n/a	n/a	153.415	n/a
121.891	0.497	angry	Picture	98.26	n/a	2	4	6	n/a	66	105	3	n/a	n/a	n/a	n/a	153.946	BM06ANS.jpg
122.389	0.514	Blank	Blank	97.746	n/a	2	4	6	n/a	66	n/a	3	n/a	n/a	n/a	n/a	154.443	n/a
122.919	0.497	angry	Picture	97.232	n/a	2	4	7	n/a	67	106	3	n/a	n/a	n/a	n/a	154.973	AM07ANS.jpg
123.416	0.514	Blank	Blank	96.718	n/a	2	4	7	n/a	67	n/a	3	n/a	n/a	n/a	n/a	155.471	n/a
123.947	0.497	angry	Picture	96.204	n/a	2	4	8	n/a	68	94	3	n/a	n/a	n/a	n/a	156.001	AF23ANS.jpg
124.444	0.514	Blank	Blank	95.69	n/a	2	4	8	n/a	68	n/a	3	n/a	n/a	n/a	n/a	156.499	n/a
124.975	0.497	angry	Picture	95.176	n/a	2	4	9	n/a	69	117	3	n/a	n/a	n/a	n/a	157.029	BM25ANS.jpg
125.472	0.514	Blank	Blank	94.662	n/a	2	4	9	n/a	69	n/a	3	n/a	n/a	n/a	n/a	157.526	n/a
126.003	0.497	angry	Picture	94.148	n/a	2	4	10	n/a	70	90	3	n/a	n/a	n/a	n/a	158.057	AF18ANS.jpg
126.5	0.514	Blank	Blank	93.634	n/a	2	4	10	n/a	70	n/a	3	n/a	n/a	n/a	n/a	158.554	n/a
127.031	0.497	angry	Picture	93.12	n/a	2	4	11	n/a	71	83	3	n/a	n/a	n/a	n/a	159.085	BF04ANS.jpg
127.528	0.514	Blank	Blank	92.607	n/a	2	4	11	n/a	71	n/a	3	n/a	n/a	n/a	n/a	159.582	n/a
128.058	0.497	angry	Picture	92.093	n/a	2	4	12	n/a	72	112	3	n/a	n/a	n/a	n/a	160.113	AM14ANS.jpg
128.556	0.514	Blank	Blank	91.579	n/a	2	4	12	n/a	72	n/a	3	n/a	n/a	n/a	n/a	160.61	n/a
129.086	0.497	angry	Picture	91.065	n/a	2	4	13	n/a	73	102	3	n/a	n/a	n/a	n/a	161.141	BM03ANS.jpg
129.584	0.514	Blank	Blank	90.551	n/a	2	4	13	n/a	73	n/a	3	n/a	n/a	n/a	n/a	161.638	n/a
130.114	0.497	angry	Picture	90.037	n/a	2	4	14	n/a	74	95	3	n/a	n/a	n/a	n/a	162.169	AF25ANS.jpg
130.612	0.514	Blank	Blank	89.523	n/a	2	4	14	n/a	74	n/a	3	n/a	n/a	n/a	n/a	162.666	n/a
131.142	0.497	angry	Picture	89.009	n/a	2	4	15	n/a	75	113	3	n/a	n/a	n/a	n/a	163.196	AM21ANS.jpg
131.639	0.514	Blank	Blank	88.495	n/a	2	4	15	n/a	75	n/a	3	n/a	n/a	n/a	n/a	163.694	n/a
132.17	0.497	angry	Picture	87.981	n/a	2	4	16	n/a	76	88	3	n/a	n/a	n/a	n/a	164.224	AF14ANS.jpg
132.667	0.514	Blank	Blank	87.467	n/a	2	4	16	n/a	76	n/a	3	n/a	n/a	n/a	n/a	164.722	n/a
133.198	0.497	angry	Picture	86.953	n/a	2	4	17	n/a	77	93	3	n/a	n/a	n/a	n/a	165.252	BF22ANS.jpg
133.695	0.514	Blank	Blank	86.439	n/a	2	4	17	n/a	77	n/a	3	n/a	n/a	n/a	n/a	165.75	n/a
134.226	0.497	angry	Picture	85.925	n/a	2	4	18	n/a	78	86	3	n/a	n/a	n/a	n/a	166.28	AF09ANS.jpg
134.723	0.514	Blank	Blank	85.411	n/a	2	4	18	n/a	78	n/a	3	n/a	n/a	n/a	n/a	166.778	n/a
135.254	0.497	angry	Picture	84.897	n/a	2	4	19	n/a	79	92	3	n/a	n/a	n/a	n/a	167.308	AF21ANS.jpg
135.751	0.514	Blank	Blank	84.383	n/a	2	4	19	n/a	79	n/a	3	n/a	n/a	n/a	n/a	167.805	n/a
136.281	0.497	angry	Picture	83.869	n/a	2	4	20	n/a	80	84	3	n/a	n/a	n/a	n/a	168.336	AF05ANS.jpg
136.779	0.514	Blank	Blank	83.356	n/a	2	4	20	n/a	80	n/a	3	n/a	n/a	n/a	n/a	168.833	n/a
137.309	10.014	ITI	Fixation+	73.325	n/a	2	n/a	n/a	n/a	n/a	n/a	n/a	n/a	n/a	n/a	n/a	169.364	n/a
147.34	0.497	neutral	Picture	72.811	n/a	2	5	1	n/a	81	4	1	n/a	n/a	n/a	n/a	179.394	AF05NES.jpg
147.837	0.514	Blank	Blank	72.297	n/a	2	5	1	n/a	81	n/a	1	n/a	n/a	n/a	n/a	179.891	n/a
148.368	0.497	neutral	Picture	71.784	n/a	2	5	2	n/a	82	14	1	n/a	n/a	n/a	n/a	180.422	AF23NES.jpg
148.865	0.514	Blank	Blank	71.27	n/a	2	5	2	n/a	82	n/a	1	n/a	n/a	n/a	n/a	180.919	n/a
149.395	0.497	neutral	Picture	70.756	n/a	2	5	3	n/a	83	19	1	n/a	n/a	n/a	n/a	181.45	AF31NES.jpg
149.893	0.514	Blank	Blank	70.242	n/a	2	5	3	n/a	83	n/a	1	n/a	n/a	n/a	n/a	181.947	n/a
150.423	0.497	neutral	Picture	69.728	n/a	2	5	4	n/a	84	8	1	n/a	n/a	n/a	n/a	182.478	AF14NES.jpg
150.921	0.514	Blank	Blank	69.214	n/a	2	5	4	n/a	84	n/a	1	n/a	n/a	n/a	n/a	182.975	n/a
151.451	0.497	neutral	Picture	68.7	n/a	2	5	5	n/a	85	25	1	n/a	n/a	n/a	n/a	183.506	BM06NES.jpg
151.949	0.514	Blank	Blank	68.186	n/a	2	5	5	n/a	85	n/a	1	n/a	n/a	n/a	n/a	184.003	n/a
152.479	0.497	neutral	Picture	67.672	n/a	2	5	6	n/a	86	9	1	n/a	n/a	n/a	n/a	184.533	AF17NES.jpg
152.976	0.514	Blank	Blank	67.158	n/a	2	5	6	n/a	86	n/a	1	n/a	n/a	n/a	n/a	185.031	n/a
153.507	0.497	neutral	Picture	66.644	n/a	2	5	7	n/a	87	2	1	n/a	n/a	n/a	n/a	185.561	AF03NES.jpg
154.004	0.514	Blank	Blank	66.13	n/a	2	5	7	n/a	87	n/a	1	n/a	n/a	n/a	n/a	186.059	n/a
154.535	0.497	neutral	Picture	65.616	n/a	2	5	8	n/a	88	17	1	n/a	n/a	n/a	n/a	186.589	BF28NES.jpg
155.032	0.514	Blank	Blank	65.102	n/a	2	5	8	n/a	88	n/a	1	n/a	n/a	n/a	n/a	187.087	n/a
155.563	0.497	neutral	Picture	64.588	n/a	2	5	9	n/a	89	6	1	n/a	n/a	n/a	n/a	187.617	AF09NES.jpg
156.06	0.514	Blank	Blank	64.074	n/a	2	5	9	n/a	89	n/a	1	n/a	n/a	n/a	n/a	188.114	n/a
156.591	0.497	neutral	Picture	63.56	n/a	2	5	10	n/a	90	12	1	n/a	n/a	n/a	n/a	188.645	AF21NES.jpg
157.088	0.514	Blank	Blank	63.046	n/a	2	5	10	n/a	90	n/a	1	n/a	n/a	n/a	n/a	189.142	n/a
157.618	0.497	neutral	Picture	62.533	n/a	2	5	11	n/a	91	24	1	n/a	n/a	n/a	n/a	189.673	BM05NES.jpg
158.116	0.514	Blank	Blank	62.019	n/a	2	5	11	n/a	91	n/a	1	n/a	n/a	n/a	n/a	190.17	n/a
158.646	0.497	neutral	Picture	61.505	n/a	2	5	12	n/a	92	34	1	n/a	n/a	n/a	n/a	190.701	AM22NES.jpg
159.144	0.514	Blank	Blank	60.991	n/a	2	5	12	n/a	92	n/a	1	n/a	n/a	n/a	n/a	191.198	n/a
159.674	0.497	neutral	Picture	60.477	n/a	2	5	13	n/a	93	23	1	n/a	n/a	n/a	n/a	191.729	AM04NES.jpg
160.172	0.514	Blank	Blank	59.963	n/a	2	5	13	n/a	93	n/a	1	n/a	n/a	n/a	n/a	192.226	n/a
160.702	0.497	neutral	Picture	59.449	n/a	2	5	14	n/a	94	15	1	n/a	n/a	n/a	n/a	192.756	AF25NES.jpg
161.2	0.514	Blank	Blank	58.935	n/a	2	5	14	n/a	94	n/a	1	n/a	n/a	n/a	n/a	193.254	n/a
161.73	0.497	neutral	Picture	58.421	n/a	2	5	15	n/a	95	37	1	n/a	n/a	n/a	n/a	193.784	BM25NES.jpg
162.227	0.514	Blank	Blank	57.907	n/a	2	5	15	n/a	95	n/a	1	n/a	n/a	n/a	n/a	194.282	n/a
162.758	0.497	neutral	Picture	57.393	n/a	2	5	16	n/a	96	32	1	n/a	n/a	n/a	n/a	194.812	AM14NES.jpg
163.255	0.514	Blank	Blank	56.879	n/a	2	5	16	n/a	96	n/a	1	n/a	n/a	n/a	n/a	195.31	n/a
163.786	0.497	neutral	Picture	56.365	n/a	2	5	17	n/a	97	3	1	n/a	n/a	n/a	n/a	195.84	BF04NES.jpg
164.283	0.514	Blank	Blank	55.851	n/a	2	5	17	n/a	97	n/a	1	n/a	n/a	n/a	n/a	196.338	n/a
164.814	0.497	neutral	Picture	55.337	n/a	2	5	18	n/a	98	16	1	n/a	n/a	n/a	n/a	196.868	AF26NES.jpg
165.311	0.514	Blank	Blank	54.823	n/a	2	5	18	n/a	98	n/a	1	n/a	n/a	n/a	n/a	197.365	n/a
165.841	0.497	neutral	Picture	54.309	n/a	2	5	19	n/a	99	27	1	n/a	n/a	n/a	n/a	197.896	BM08NES.jpg
166.339	0.514	Blank	Blank	53.796	n/a	2	5	19	n/a	99	n/a	1	n/a	n/a	n/a	n/a	198.393	n/a
166.869	0.497	neutral	Picture	53.282	n/a	2	5	20	n/a	100	28	1	n/a	n/a	n/a	n/a	198.924	AM09NES.jpg
167.367	0.514	Blank	Blank	52.768	n/a	2	5	20	n/a	100	n/a	1	n/a	n/a	n/a	n/a	199.421	n/a
167.897	10.014	ITI	Fixation+	42.738	n/a	2	n/a	n/a	n/a	n/a	n/a	n/a	n/a	n/a	n/a	n/a	199.952	n/a
177.928	0.497	angry	Picture	42.224	n/a	2	6	1	n/a	101	81	3	n/a	n/a	n/a	n/a	209.982	AF01ANS.jpg
178.425	0.514	Blank	Blank	41.71	n/a	2	6	1	n/a	101	n/a	3	n/a	n/a	n/a	n/a	210.479	n/a
178.955	0.497	angry	Picture	41.196	n/a	2	6	2	n/a	102	120	3	n/a	n/a	n/a	n/a	211.01	AM35ANS.jpg
179.453	0.514	Blank	Blank	40.682	n/a	2	6	2	n/a	102	n/a	3	n/a	n/a	n/a	n/a	211.507	n/a
179.983	0.497	angry	Picture	40.168	n/a	2	6	3	n/a	103	114	3	n/a	n/a	n/a	n/a	212.038	AM22ANS.jpg
180.481	0.514	Blank	Blank	39.654	n/a	2	6	3	n/a	103	n/a	3	n/a	n/a	n/a	n/a	212.535	n/a
181.011	0.497	angry	Picture	39.14	n/a	2	6	4	n/a	104	109	3	n/a	n/a	n/a	n/a	213.065	AM10ANS.jpg
181.509	0.514	Blank	Blank	38.626	n/a	2	6	4	n/a	104	n/a	3	n/a	n/a	n/a	n/a	213.563	n/a
182.039	0.497	angry	Picture	38.112	n/a	2	6	5	n/a	105	96	3	n/a	n/a	n/a	n/a	214.093	AF26ANS.jpg
182.536	0.514	Blank	Blank	37.598	n/a	2	6	5	n/a	105	n/a	3	n/a	n/a	n/a	n/a	214.591	n/a
183.067	0.497	angry	Picture	37.084	n/a	2	6	6	n/a	106	82	3	n/a	n/a	n/a	n/a	215.121	AF03ANS.jpg
183.564	0.514	Blank	Blank	36.57	n/a	2	6	6	n/a	106	n/a	3	n/a	n/a	n/a	n/a	215.619	n/a
184.095	0.497	angry	Picture	36.056	n/a	2	6	7	n/a	107	97	3	n/a	n/a	n/a	n/a	216.149	BF28ANS.jpg
184.592	0.514	Blank	Blank	35.542	n/a	2	6	7	n/a	107	n/a	3	n/a	n/a	n/a	n/a	216.647	n/a
185.123	0.497	angry	Picture	35.028	n/a	2	6	8	n/a	108	115	3	n/a	n/a	n/a	n/a	217.177	AM23ANS.jpg
185.62	0.514	Blank	Blank	34.514	n/a	2	6	8	n/a	108	n/a	3	n/a	n/a	n/a	n/a	217.674	n/a
186.151	0.497	angry	Picture	34.0	n/a	2	6	9	n/a	109	91	3	n/a	n/a	n/a	n/a	218.205	AF20ANS.jpg
186.648	0.514	Blank	Blank	33.486	n/a	2	6	9	n/a	109	n/a	3	n/a	n/a	n/a	n/a	218.702	n/a
187.178	0.497	angry	Picture	32.973	n/a	2	6	10	n/a	110	87	3	n/a	n/a	n/a	n/a	219.233	BF11ANS.jpg
187.676	0.514	Blank	Blank	32.459	n/a	2	6	10	n/a	110	n/a	3	n/a	n/a	n/a	n/a	219.73	n/a
188.206	0.497	angry	Picture	31.945	n/a	2	6	11	n/a	111	85	3	n/a	n/a	n/a	n/a	220.261	BF07ANS.jpg
188.704	0.514	Blank	Blank	31.431	n/a	2	6	11	n/a	111	n/a	3	n/a	n/a	n/a	n/a	220.758	n/a
189.234	0.497	angry	Picture	30.917	n/a	2	6	12	n/a	112	110	3	n/a	n/a	n/a	n/a	221.289	AM11ANS.jpg
189.732	0.514	Blank	Blank	30.403	n/a	2	6	12	n/a	112	n/a	3	n/a	n/a	n/a	n/a	221.786	n/a
190.262	0.497	angry	Picture	29.889	n/a	2	6	13	n/a	113	111	3	n/a	n/a	n/a	n/a	222.316	BM12ANS.jpg
190.76	0.514	Blank	Blank	29.375	n/a	2	6	13	n/a	113	n/a	3	n/a	n/a	n/a	n/a	222.814	n/a
191.29	0.497	angry	Picture	28.861	n/a	2	6	14	n/a	114	103	3	n/a	n/a	n/a	n/a	223.344	AM04ANS.jpg
191.787	0.514	Blank	Blank	28.347	n/a	2	6	14	n/a	114	n/a	3	n/a	n/a	n/a	n/a	223.842	n/a
192.318	0.497	angry	Picture	27.833	n/a	2	6	15	n/a	115	101	3	n/a	n/a	n/a	n/a	224.372	AM01ANS.jpg
192.815	0.514	Blank	Blank	27.319	n/a	2	6	15	n/a	115	n/a	3	n/a	n/a	n/a	n/a	224.87	n/a
193.346	0.497	angry	Picture	26.805	n/a	2	6	16	n/a	116	104	3	n/a	n/a	n/a	n/a	225.4	BM05ANS.jpg
193.843	0.514	Blank	Blank	26.291	n/a	2	6	16	n/a	116	n/a	3	n/a	n/a	n/a	n/a	225.898	n/a
194.374	0.497	angry	Picture	25.777	n/a	2	6	17	n/a	117	107	3	n/a	n/a	n/a	n/a	226.428	BM08ANS.jpg
194.871	0.514	Blank	Blank	25.263	n/a	2	6	17	n/a	117	n/a	3	n/a	n/a	n/a	n/a	226.925	n/a
195.401	0.497	angry	Picture	24.749	n/a	2	6	18	n/a	118	98	3	n/a	n/a	n/a	n/a	227.456	BF29ANS.jpg
195.899	0.514	Blank	Blank	24.235	n/a	2	6	18	n/a	118	n/a	3	n/a	n/a	n/a	n/a	227.953	n/a
196.429	0.497	angry	Picture	23.722	n/a	2	6	19	n/a	119	99	3	n/a	n/a	n/a	n/a	228.484	AF31ANS.jpg
196.927	0.514	Blank	Blank	23.208	n/a	2	6	19	n/a	119	n/a	3	n/a	n/a	n/a	n/a	228.981	n/a
197.457	0.497	angry	Picture	22.694	n/a	2	6	20	n/a	120	108	3	n/a	n/a	n/a	n/a	229.512	AM09ANS.jpg
197.955	0.514	Blank	Blank	22.18	n/a	2	6	20	n/a	120	n/a	3	n/a	n/a	n/a	n/a	230.009	n/a
198.485	10.014	ITI	Fixation+	12.15	n/a	2	n/a	n/a	n/a	n/a	n/a	n/a	n/a	n/a	n/a	n/a	230.54	n/a
220.648	n/a	ConfirmRating	Rate	n/a	12.136	2	n/a	n/a	0	n/a	n/a	n/a	2	Angry	28	49	252.703	n/a
245.32	n/a	ConfirmRating	Rate	n/a	24.652	2	n/a	n/a	1	n/a	n/a	n/a	3	Angry	71	51	277.375	n/a
245.337	15.004	Rest	Picture	n/a	n/a	n/a	n/a	n/a	n/a	n/a	n/a	n/a	0	n/a	0	0	277.391	n/a
260.357	10.014	ITI	Fixation+	102.907	n/a	3	n/a	n/a	n/a	n/a	n/a	n/a	n/a	n/a	n/a	n/a	292.412	n/a
270.387	0.497	happy	Picture	102.393	n/a	3	7	1	n/a	1	46	2	n/a	n/a	n/a	n/a	302.442	AF09HAS.jpg
270.885	0.514	Blank	Blank	101.88	n/a	3	7	1	n/a	1	n/a	2	n/a	n/a	n/a	n/a	302.939	n/a
271.415	0.497	happy	Picture	101.365	n/a	3	7	2	n/a	2	69	2	n/a	n/a	n/a	n/a	303.47	AM10HAS.jpg
271.913	0.514	Blank	Blank	100.852	n/a	3	7	2	n/a	2	n/a	2	n/a	n/a	n/a	n/a	303.967	n/a
272.443	0.497	happy	Picture	100.338	n/a	3	7	3	n/a	3	71	2	n/a	n/a	n/a	n/a	304.498	BM12HAS.jpg
272.941	0.514	Blank	Blank	99.824	n/a	3	7	3	n/a	3	n/a	2	n/a	n/a	n/a	n/a	304.995	n/a
273.471	0.497	happy	Picture	99.31	n/a	3	7	4	n/a	4	51	2	n/a	n/a	n/a	n/a	305.526	AF20HAS.jpg
273.969	0.514	Blank	Blank	98.796	n/a	3	7	4	n/a	4	n/a	2	n/a	n/a	n/a	n/a	306.023	n/a
274.499	0.497	happy	Picture	98.282	n/a	3	7	5	n/a	5	67	2	n/a	n/a	n/a	n/a	306.553	BM08HAS.jpg
274.996	0.514	Blank	Blank	97.768	n/a	3	7	5	n/a	5	n/a	2	n/a	n/a	n/a	n/a	307.051	n/a
275.527	0.497	happy	Picture	97.254	n/a	3	7	6	n/a	6	60	2	n/a	n/a	n/a	n/a	307.581	AF32HAS.jpg
276.024	0.514	Blank	Blank	96.74	n/a	3	7	6	n/a	6	n/a	2	n/a	n/a	n/a	n/a	308.079	n/a
276.555	0.497	happy	Picture	96.226	n/a	3	7	7	n/a	7	42	2	n/a	n/a	n/a	n/a	308.609	AF03HAS.jpg
277.052	0.514	Blank	Blank	95.712	n/a	3	7	7	n/a	7	n/a	2	n/a	n/a	n/a	n/a	309.107	n/a
277.583	0.497	happy	Picture	95.198	n/a	3	7	8	n/a	8	55	2	n/a	n/a	n/a	n/a	309.637	AF25HAS.jpg
278.08	0.514	Blank	Blank	94.684	n/a	3	7	8	n/a	8	n/a	2	n/a	n/a	n/a	n/a	310.135	n/a
278.611	0.497	happy	Picture	94.17	n/a	3	7	9	n/a	9	72	2	n/a	n/a	n/a	n/a	310.665	AM14HAS.jpg
279.108	0.514	Blank	Blank	93.656	n/a	3	7	9	n/a	9	n/a	2	n/a	n/a	n/a	n/a	311.162	n/a
279.639	0.497	happy	Picture	93.142	n/a	3	7	10	n/a	10	63	2	n/a	n/a	n/a	n/a	311.693	AM04HAS.jpg
280.136	0.514	Blank	Blank	92.629	n/a	3	7	10	n/a	10	n/a	2	n/a	n/a	n/a	n/a	312.19	n/a
280.666	0.497	happy	Picture	92.115	n/a	3	7	11	n/a	11	58	2	n/a	n/a	n/a	n/a	312.721	BF29HAS.jpg
281.164	0.514	Blank	Blank	91.601	n/a	3	7	11	n/a	11	n/a	2	n/a	n/a	n/a	n/a	313.218	n/a
281.694	0.497	happy	Picture	91.087	n/a	3	7	12	n/a	12	48	2	n/a	n/a	n/a	n/a	313.749	AF14HAS.jpg
282.192	0.514	Blank	Blank	90.573	n/a	3	7	12	n/a	12	n/a	2	n/a	n/a	n/a	n/a	314.246	n/a
282.722	0.497	happy	Picture	90.059	n/a	3	7	13	n/a	13	66	2	n/a	n/a	n/a	n/a	314.776	BM07HAS.jpg
283.22	0.514	Blank	Blank	89.545	n/a	3	7	13	n/a	13	n/a	2	n/a	n/a	n/a	n/a	315.274	n/a
283.75	0.497	happy	Picture	89.031	n/a	3	7	14	n/a	14	70	2	n/a	n/a	n/a	n/a	315.804	BM11HAS.jpg
284.247	0.514	Blank	Blank	88.517	n/a	3	7	14	n/a	14	n/a	2	n/a	n/a	n/a	n/a	316.302	n/a
284.778	0.497	happy	Picture	88.003	n/a	3	7	15	n/a	15	43	2	n/a	n/a	n/a	n/a	316.832	BF04HAS.jpg
285.275	0.514	Blank	Blank	87.489	n/a	3	7	15	n/a	15	n/a	2	n/a	n/a	n/a	n/a	317.33	n/a
285.806	0.497	happy	Picture	86.975	n/a	3	7	16	n/a	16	49	2	n/a	n/a	n/a	n/a	317.86	AF17HAS.jpg
286.303	0.514	Blank	Blank	86.461	n/a	3	7	16	n/a	16	n/a	2	n/a	n/a	n/a	n/a	318.358	n/a
286.834	0.497	happy	Picture	85.947	n/a	3	7	17	n/a	17	75	2	n/a	n/a	n/a	n/a	318.888	AM23HAS.jpg
287.331	0.514	Blank	Blank	85.433	n/a	3	7	17	n/a	17	n/a	2	n/a	n/a	n/a	n/a	319.385	n/a
287.862	0.497	happy	Picture	84.919	n/a	3	7	18	n/a	18	80	2	n/a	n/a	n/a	n/a	319.916	BM35HAS.jpg
288.359	0.514	Blank	Blank	84.405	n/a	3	7	18	n/a	18	n/a	2	n/a	n/a	n/a	n/a	320.413	n/a
288.889	0.497	happy	Picture	83.892	n/a	3	7	19	n/a	19	76	2	n/a	n/a	n/a	n/a	320.944	BM24HAS.jpg
289.387	0.514	Blank	Blank	83.377	n/a	3	7	19	n/a	19	n/a	2	n/a	n/a	n/a	n/a	321.441	n/a
289.917	0.497	happy	Picture	82.864	n/a	3	7	20	n/a	20	74	2	n/a	n/a	n/a	n/a	321.972	AM22HAS.jpg
290.415	0.514	Blank	Blank	82.35	n/a	3	7	20	n/a	20	n/a	2	n/a	n/a	n/a	n/a	322.469	n/a
290.945	10.014	ITI	Fixation+	72.32	n/a	3	n/a	n/a	n/a	n/a	n/a	n/a	n/a	n/a	n/a	n/a	323.0	n/a
300.975	0.497	neutral	Picture	71.805	n/a	3	8	1	n/a	21	33	1	n/a	n/a	n/a	n/a	333.03	AM21NES.jpg
301.473	0.514	Blank	Blank	71.292	n/a	3	8	1	n/a	21	n/a	1	n/a	n/a	n/a	n/a	333.527	n/a
302.003	0.497	neutral	Picture	70.778	n/a	3	8	2	n/a	22	39	1	n/a	n/a	n/a	n/a	334.058	AM28NES.jpg
302.501	0.514	Blank	Blank	70.264	n/a	3	8	2	n/a	22	n/a	1	n/a	n/a	n/a	n/a	334.555	n/a
303.031	0.497	neutral	Picture	69.75	n/a	3	8	3	n/a	23	25	1	n/a	n/a	n/a	n/a	335.086	BM06NES.jpg
303.529	0.514	Blank	Blank	69.236	n/a	3	8	3	n/a	23	n/a	1	n/a	n/a	n/a	n/a	335.583	n/a
304.059	0.497	neutral	Picture	68.722	n/a	3	8	4	n/a	24	5	1	n/a	n/a	n/a	n/a	336.113	BF07NES.jpg
304.556	0.514	Blank	Blank	68.208	n/a	3	8	4	n/a	24	n/a	1	n/a	n/a	n/a	n/a	336.611	n/a
305.087	0.497	neutral	Picture	67.694	n/a	3	8	5	n/a	25	10	1	n/a	n/a	n/a	n/a	337.141	AF18NES.jpg
305.584	0.514	Blank	Blank	67.18	n/a	3	8	5	n/a	25	n/a	1	n/a	n/a	n/a	n/a	337.639	n/a
306.115	0.497	neutral	Picture	66.666	n/a	3	8	6	n/a	26	34	1	n/a	n/a	n/a	n/a	338.169	AM22NES.jpg
306.612	0.514	Blank	Blank	66.152	n/a	3	8	6	n/a	26	n/a	1	n/a	n/a	n/a	n/a	338.667	n/a
307.143	0.497	neutral	Picture	65.638	n/a	3	8	7	n/a	27	36	1	n/a	n/a	n/a	n/a	339.197	BM24NES.jpg
307.64	0.514	Blank	Blank	65.124	n/a	3	8	7	n/a	27	n/a	1	n/a	n/a	n/a	n/a	339.695	n/a
308.171	0.497	neutral	Picture	64.61	n/a	3	8	8	n/a	28	14	1	n/a	n/a	n/a	n/a	340.225	AF23NES.jpg
308.668	0.514	Blank	Blank	64.096	n/a	3	8	8	n/a	28	n/a	1	n/a	n/a	n/a	n/a	340.722	n/a
309.199	0.497	neutral	Picture	63.582	n/a	3	8	9	n/a	29	9	1	n/a	n/a	n/a	n/a	341.253	AF17NES.jpg
309.696	0.514	Blank	Blank	63.069	n/a	3	8	9	n/a	29	n/a	1	n/a	n/a	n/a	n/a	341.75	n/a
310.226	0.497	neutral	Picture	62.554	n/a	3	8	10	n/a	30	19	1	n/a	n/a	n/a	n/a	342.281	AF31NES.jpg
310.724	0.514	Blank	Blank	62.041	n/a	3	8	10	n/a	30	n/a	1	n/a	n/a	n/a	n/a	342.778	n/a
311.254	0.497	neutral	Picture	61.527	n/a	3	8	11	n/a	31	15	1	n/a	n/a	n/a	n/a	343.309	AF25NES.jpg
311.752	0.514	Blank	Blank	61.013	n/a	3	8	11	n/a	31	n/a	1	n/a	n/a	n/a	n/a	343.806	n/a
312.282	0.497	neutral	Picture	60.499	n/a	3	8	12	n/a	32	22	1	n/a	n/a	n/a	n/a	344.337	BM03NES.jpg
312.78	0.514	Blank	Blank	59.985	n/a	3	8	12	n/a	32	n/a	1	n/a	n/a	n/a	n/a	344.834	n/a
313.31	0.497	neutral	Picture	59.471	n/a	3	8	13	n/a	33	11	1	n/a	n/a	n/a	n/a	345.364	AF20NES.jpg
313.807	0.514	Blank	Blank	58.957	n/a	3	8	13	n/a	33	n/a	1	n/a	n/a	n/a	n/a	345.862	n/a
314.338	0.497	neutral	Picture	58.443	n/a	3	8	14	n/a	34	4	1	n/a	n/a	n/a	n/a	346.392	AF05NES.jpg
314.835	0.514	Blank	Blank	57.929	n/a	3	8	14	n/a	34	n/a	1	n/a	n/a	n/a	n/a	346.89	n/a
315.366	0.497	neutral	Picture	57.415	n/a	3	8	15	n/a	35	17	1	n/a	n/a	n/a	n/a	347.42	BF28NES.jpg
315.863	0.514	Blank	Blank	56.901	n/a	3	8	15	n/a	35	n/a	1	n/a	n/a	n/a	n/a	347.918	n/a
316.394	0.497	neutral	Picture	56.387	n/a	3	8	16	n/a	36	13	1	n/a	n/a	n/a	n/a	348.448	BF22NES.jpg
316.891	0.514	Blank	Blank	55.873	n/a	3	8	16	n/a	36	n/a	1	n/a	n/a	n/a	n/a	348.945	n/a
317.422	0.497	neutral	Picture	55.359	n/a	3	8	17	n/a	37	12	1	n/a	n/a	n/a	n/a	349.476	AF21NES.jpg
317.919	0.514	Blank	Blank	54.845	n/a	3	8	17	n/a	37	n/a	1	n/a	n/a	n/a	n/a	349.973	n/a
318.45	0.497	neutral	Picture	54.332	n/a	3	8	18	n/a	38	24	1	n/a	n/a	n/a	n/a	350.504	BM05NES.jpg
318.947	0.514	Blank	Blank	53.817	n/a	3	8	18	n/a	38	n/a	1	n/a	n/a	n/a	n/a	351.001	n/a
319.477	0.497	neutral	Picture	53.304	n/a	3	8	19	n/a	39	29	1	n/a	n/a	n/a	n/a	351.532	AM10NES.jpg
319.975	0.514	Blank	Blank	52.79	n/a	3	8	19	n/a	39	n/a	1	n/a	n/a	n/a	n/a	352.029	n/a
320.505	0.497	neutral	Picture	52.276	n/a	3	8	20	n/a	40	23	1	n/a	n/a	n/a	n/a	352.56	AM04NES.jpg
321.003	0.514	Blank	Blank	51.762	n/a	3	8	20	n/a	40	n/a	1	n/a	n/a	n/a	n/a	353.057	n/a
321.533	10.014	ITI	Fixation+	41.732	n/a	3	n/a	n/a	n/a	n/a	n/a	n/a	n/a	n/a	n/a	n/a	353.587	n/a
331.563	0.497	happy	Picture	41.218	n/a	3	9	1	n/a	41	62	2	n/a	n/a	n/a	n/a	363.618	BM03HAS.jpg
332.061	0.514	Blank	Blank	40.704	n/a	3	9	1	n/a	41	n/a	2	n/a	n/a	n/a	n/a	364.115	n/a
332.591	0.497	happy	Picture	40.19	n/a	3	9	2	n/a	42	52	2	n/a	n/a	n/a	n/a	364.646	AF21HAS.jpg
333.089	0.514	Blank	Blank	39.676	n/a	3	9	2	n/a	42	n/a	2	n/a	n/a	n/a	n/a	365.143	n/a
333.619	0.497	happy	Picture	39.162	n/a	3	9	3	n/a	43	44	2	n/a	n/a	n/a	n/a	365.673	AF05HAS.jpg
334.117	0.514	Blank	Blank	38.648	n/a	3	9	3	n/a	43	n/a	2	n/a	n/a	n/a	n/a	366.171	n/a
334.647	0.497	happy	Picture	38.134	n/a	3	9	4	n/a	44	53	2	n/a	n/a	n/a	n/a	366.701	BF22HAS.jpg
335.144	0.514	Blank	Blank	37.62	n/a	3	9	4	n/a	44	n/a	2	n/a	n/a	n/a	n/a	367.199	n/a
335.675	0.497	happy	Picture	37.106	n/a	3	9	5	n/a	45	54	2	n/a	n/a	n/a	n/a	367.729	AF23HAS.jpg
336.172	0.514	Blank	Blank	36.592	n/a	3	9	5	n/a	45	n/a	2	n/a	n/a	n/a	n/a	368.227	n/a
336.703	0.497	happy	Picture	36.078	n/a	3	9	6	n/a	46	68	2	n/a	n/a	n/a	n/a	368.757	AM09HAS.jpg
337.2	0.514	Blank	Blank	35.564	n/a	3	9	6	n/a	46	n/a	2	n/a	n/a	n/a	n/a	369.255	n/a
337.731	0.497	happy	Picture	35.05	n/a	3	9	7	n/a	47	64	2	n/a	n/a	n/a	n/a	369.785	BM05HAS.jpg
338.228	0.514	Blank	Blank	34.536	n/a	3	9	7	n/a	47	n/a	2	n/a	n/a	n/a	n/a	370.282	n/a
338.759	0.497	happy	Picture	34.022	n/a	3	9	8	n/a	48	59	2	n/a	n/a	n/a	n/a	370.813	AF31HAS.jpg
339.256	0.514	Blank	Blank	33.509	n/a	3	9	8	n/a	48	n/a	2	n/a	n/a	n/a	n/a	371.31	n/a
339.786	0.497	happy	Picture	32.994	n/a	3	9	9	n/a	49	41	2	n/a	n/a	n/a	n/a	371.841	AF01HAS.jpg
340.284	0.514	Blank	Blank	32.481	n/a	3	9	9	n/a	49	n/a	2	n/a	n/a	n/a	n/a	372.338	n/a
340.814	0.497	happy	Picture	31.967	n/a	3	9	10	n/a	50	73	2	n/a	n/a	n/a	n/a	372.869	AM21HAS.jpg
341.312	0.514	Blank	Blank	31.453	n/a	3	9	10	n/a	50	n/a	2	n/a	n/a	n/a	n/a	373.366	n/a
341.842	0.497	happy	Picture	30.939	n/a	3	9	11	n/a	51	65	2	n/a	n/a	n/a	n/a	373.897	BM06HAS.jpg
342.339	0.514	Blank	Blank	30.425	n/a	3	9	11	n/a	51	n/a	2	n/a	n/a	n/a	n/a	374.394	n/a
342.87	0.497	happy	Picture	29.911	n/a	3	9	12	n/a	52	56	2	n/a	n/a	n/a	n/a	374.925	AF26HAS.jpg
343.367	0.514	Blank	Blank	29.397	n/a	3	9	12	n/a	52	n/a	2	n/a	n/a	n/a	n/a	375.422	n/a
343.898	0.497	happy	Picture	28.883	n/a	3	9	13	n/a	53	45	2	n/a	n/a	n/a	n/a	375.952	BF07HAS.jpg
344.395	0.514	Blank	Blank	28.369	n/a	3	9	13	n/a	53	n/a	2	n/a	n/a	n/a	n/a	376.45	n/a
344.926	0.497	happy	Picture	27.855	n/a	3	9	14	n/a	54	78	2	n/a	n/a	n/a	n/a	376.98	BM26HAS.jpg
345.423	0.514	Blank	Blank	27.341	n/a	3	9	14	n/a	54	n/a	2	n/a	n/a	n/a	n/a	377.478	n/a
345.954	0.497	happy	Picture	26.827	n/a	3	9	15	n/a	55	50	2	n/a	n/a	n/a	n/a	378.008	AF18HAS.jpg
346.451	0.514	Blank	Blank	26.313	n/a	3	9	15	n/a	55	n/a	2	n/a	n/a	n/a	n/a	378.505	n/a
346.982	0.497	happy	Picture	25.799	n/a	3	9	16	n/a	56	47	2	n/a	n/a	n/a	n/a	379.036	BF11HAS.jpg
347.479	0.514	Blank	Blank	25.285	n/a	3	9	16	n/a	56	n/a	2	n/a	n/a	n/a	n/a	379.533	n/a
348.01	0.497	happy	Picture	24.771	n/a	3	9	17	n/a	57	77	2	n/a	n/a	n/a	n/a	380.064	BM25HAS.jpg
348.507	0.514	Blank	Blank	24.257	n/a	3	9	17	n/a	57	n/a	2	n/a	n/a	n/a	n/a	380.561	n/a
349.037	0.497	happy	Picture	23.743	n/a	3	9	18	n/a	58	57	2	n/a	n/a	n/a	n/a	381.092	BF28HAS.jpg
349.535	0.514	Blank	Blank	23.23	n/a	3	9	18	n/a	58	n/a	2	n/a	n/a	n/a	n/a	381.589	n/a
350.065	0.497	happy	Picture	22.716	n/a	3	9	19	n/a	59	61	2	n/a	n/a	n/a	n/a	382.12	AM01HAS.jpg
350.563	0.514	Blank	Blank	22.202	n/a	3	9	19	n/a	59	n/a	2	n/a	n/a	n/a	n/a	382.617	n/a
351.093	0.497	happy	Picture	21.688	n/a	3	9	20	n/a	60	79	2	n/a	n/a	n/a	n/a	383.148	BM28HAS.jpg
351.591	0.514	Blank	Blank	21.174	n/a	3	9	20	n/a	60	n/a	2	n/a	n/a	n/a	n/a	383.645	n/a
352.121	10.014	ITI	Fixation+	11.144	n/a	3	n/a	n/a	n/a	n/a	n/a	n/a	n/a	n/a	n/a	n/a	384.175	n/a
373.278	n/a	ConfirmRating	Rate	n/a	11.141	3	n/a	n/a	0	n/a	n/a	n/a	2	Happy	85	51	405.333	n/a
387.995	n/a	ConfirmRating	Rate	n/a	14.689	3	n/a	n/a	1	n/a	n/a	n/a	3	Happy	6	47	420.049	n/a
388.014	10.014	ITI	Fixation+	101.659	n/a	4	n/a	n/a	n/a	n/a	n/a	n/a	n/a	n/a	n/a	n/a	420.069	n/a
398.044	0.497	angry	Picture	101.145	n/a	4	10	1	n/a	61	119	3	n/a	n/a	n/a	n/a	430.099	BM28ANS.jpg
398.542	0.514	Blank	Blank	100.631	n/a	4	10	1	n/a	61	n/a	3	n/a	n/a	n/a	n/a	430.596	n/a
399.072	0.497	angry	Picture	100.117	n/a	4	10	2	n/a	62	100	3	n/a	n/a	n/a	n/a	431.127	AF32ANS.jpg
399.57	0.514	Blank	Blank	99.603	n/a	4	10	2	n/a	62	n/a	3	n/a	n/a	n/a	n/a	431.624	n/a
400.1	0.497	angry	Picture	99.089	n/a	4	10	3	n/a	63	118	3	n/a	n/a	n/a	n/a	432.154	BM26ANS.jpg
400.598	0.514	Blank	Blank	98.575	n/a	4	10	3	n/a	63	n/a	3	n/a	n/a	n/a	n/a	432.652	n/a
401.128	0.497	angry	Picture	98.061	n/a	4	10	4	n/a	64	89	3	n/a	n/a	n/a	n/a	433.182	AF17ANS.jpg
401.625	0.514	Blank	Blank	97.547	n/a	4	10	4	n/a	64	n/a	3	n/a	n/a	n/a	n/a	433.68	n/a
402.156	0.497	angry	Picture	97.033	n/a	4	10	5	n/a	65	116	3	n/a	n/a	n/a	n/a	434.21	BM24ANS.jpg
402.653	0.514	Blank	Blank	96.519	n/a	4	10	5	n/a	65	n/a	3	n/a	n/a	n/a	n/a	434.708	n/a
403.184	0.497	angry	Picture	96.005	n/a	4	10	6	n/a	66	105	3	n/a	n/a	n/a	n/a	435.238	BM06ANS.jpg
403.681	0.514	Blank	Blank	95.491	n/a	4	10	6	n/a	66	n/a	3	n/a	n/a	n/a	n/a	435.736	n/a
404.212	0.497	angry	Picture	94.977	n/a	4	10	7	n/a	67	106	3	n/a	n/a	n/a	n/a	436.266	AM07ANS.jpg
404.709	0.514	Blank	Blank	94.463	n/a	4	10	7	n/a	67	n/a	3	n/a	n/a	n/a	n/a	436.763	n/a
405.24	0.497	angry	Picture	93.95	n/a	4	10	8	n/a	68	94	3	n/a	n/a	n/a	n/a	437.294	AF23ANS.jpg
405.737	0.514	Blank	Blank	93.436	n/a	4	10	8	n/a	68	n/a	3	n/a	n/a	n/a	n/a	437.791	n/a
406.267	0.497	angry	Picture	92.922	n/a	4	10	9	n/a	69	117	3	n/a	n/a	n/a	n/a	438.322	BM25ANS.jpg
406.765	0.514	Blank	Blank	92.408	n/a	4	10	9	n/a	69	n/a	3	n/a	n/a	n/a	n/a	438.819	n/a
407.295	0.497	angry	Picture	91.894	n/a	4	10	10	n/a	70	90	3	n/a	n/a	n/a	n/a	439.35	AF18ANS.jpg
407.793	0.514	Blank	Blank	91.38	n/a	4	10	10	n/a	70	n/a	3	n/a	n/a	n/a	n/a	439.847	n/a
408.323	0.497	angry	Picture	90.866	n/a	4	10	11	n/a	71	83	3	n/a	n/a	n/a	n/a	440.378	BF04ANS.jpg
408.821	0.514	Blank	Blank	90.352	n/a	4	10	11	n/a	71	n/a	3	n/a	n/a	n/a	n/a	440.875	n/a
409.351	0.497	angry	Picture	89.838	n/a	4	10	12	n/a	72	112	3	n/a	n/a	n/a	n/a	441.406	AM14ANS.jpg
409.849	0.514	Blank	Blank	89.324	n/a	4	10	12	n/a	72	n/a	3	n/a	n/a	n/a	n/a	441.903	n/a
410.379	0.497	angry	Picture	88.81	n/a	4	10	13	n/a	73	102	3	n/a	n/a	n/a	n/a	442.433	BM03ANS.jpg
410.876	0.514	Blank	Blank	88.296	n/a	4	10	13	n/a	73	n/a	3	n/a	n/a	n/a	n/a	442.931	n/a
411.407	0.497	angry	Picture	87.782	n/a	4	10	14	n/a	74	95	3	n/a	n/a	n/a	n/a	443.461	AF25ANS.jpg
411.904	0.514	Blank	Blank	87.268	n/a	4	10	14	n/a	74	n/a	3	n/a	n/a	n/a	n/a	443.959	n/a
412.435	0.497	angry	Picture	86.754	n/a	4	10	15	n/a	75	113	3	n/a	n/a	n/a	n/a	444.489	AM21ANS.jpg
412.932	0.514	Blank	Blank	86.24	n/a	4	10	15	n/a	75	n/a	3	n/a	n/a	n/a	n/a	444.986	n/a
413.463	0.497	angry	Picture	85.726	n/a	4	10	16	n/a	76	88	3	n/a	n/a	n/a	n/a	445.517	AF14ANS.jpg
413.96	0.514	Blank	Blank	85.212	n/a	4	10	16	n/a	76	n/a	3	n/a	n/a	n/a	n/a	446.014	n/a
414.49	0.497	angry	Picture	84.699	n/a	4	10	17	n/a	77	93	3	n/a	n/a	n/a	n/a	446.545	BF22ANS.jpg
414.988	0.514	Blank	Blank	84.185	n/a	4	10	17	n/a	77	n/a	3	n/a	n/a	n/a	n/a	447.042	n/a
415.518	0.497	angry	Picture	83.671	n/a	4	10	18	n/a	78	86	3	n/a	n/a	n/a	n/a	447.573	AF09ANS.jpg
416.016	0.514	Blank	Blank	83.157	n/a	4	10	18	n/a	78	n/a	3	n/a	n/a	n/a	n/a	448.07	n/a
416.546	0.497	angry	Picture	82.643	n/a	4	10	19	n/a	79	92	3	n/a	n/a	n/a	n/a	448.601	AF21ANS.jpg
417.044	0.514	Blank	Blank	82.129	n/a	4	10	19	n/a	79	n/a	3	n/a	n/a	n/a	n/a	449.098	n/a
417.574	0.497	angry	Picture	81.615	n/a	4	10	20	n/a	80	84	3	n/a	n/a	n/a	n/a	449.629	AF05ANS.jpg
418.072	0.514	Blank	Blank	81.101	n/a	4	10	20	n/a	80	n/a	3	n/a	n/a	n/a	n/a	450.126	n/a
418.602	10.014	ITI	Fixation+	71.071	n/a	4	n/a	n/a	n/a	n/a	n/a	n/a	n/a	n/a	n/a	n/a	450.656	n/a
428.632	0.497	neutral	Picture	70.557	n/a	4	11	1	n/a	81	4	1	n/a	n/a	n/a	n/a	460.687	AF05NES.jpg
429.13	0.514	Blank	Blank	70.043	n/a	4	11	1	n/a	81	n/a	1	n/a	n/a	n/a	n/a	461.184	n/a
429.66	0.497	neutral	Picture	69.529	n/a	4	11	2	n/a	82	14	1	n/a	n/a	n/a	n/a	461.714	AF23NES.jpg
430.158	0.514	Blank	Blank	69.015	n/a	4	11	2	n/a	82	n/a	1	n/a	n/a	n/a	n/a	462.212	n/a
430.688	0.497	neutral	Picture	68.501	n/a	4	11	3	n/a	83	19	1	n/a	n/a	n/a	n/a	462.742	AF31NES.jpg
431.185	0.514	Blank	Blank	67.987	n/a	4	11	3	n/a	83	n/a	1	n/a	n/a	n/a	n/a	463.24	n/a
431.716	0.497	neutral	Picture	67.473	n/a	4	11	4	n/a	84	8	1	n/a	n/a	n/a	n/a	463.77	AF14NES.jpg
432.213	0.514	Blank	Blank	66.959	n/a	4	11	4	n/a	84	n/a	1	n/a	n/a	n/a	n/a	464.268	n/a
432.744	0.497	neutral	Picture	66.445	n/a	4	11	5	n/a	85	25	1	n/a	n/a	n/a	n/a	464.798	BM06NES.jpg
433.241	0.514	Blank	Blank	65.931	n/a	4	11	5	n/a	85	n/a	1	n/a	n/a	n/a	n/a	465.296	n/a
433.772	0.497	neutral	Picture	65.417	n/a	4	11	6	n/a	86	9	1	n/a	n/a	n/a	n/a	465.826	AF17NES.jpg
434.269	0.514	Blank	Blank	64.903	n/a	4	11	6	n/a	86	n/a	1	n/a	n/a	n/a	n/a	466.324	n/a
434.8	0.497	neutral	Picture	64.39	n/a	4	11	7	n/a	87	2	1	n/a	n/a	n/a	n/a	466.854	AF03NES.jpg
435.297	0.514	Blank	Blank	63.876	n/a	4	11	7	n/a	87	n/a	1	n/a	n/a	n/a	n/a	467.351	n/a
435.827	0.497	neutral	Picture	63.362	n/a	4	11	8	n/a	88	17	1	n/a	n/a	n/a	n/a	467.882	BF28NES.jpg
436.325	0.514	Blank	Blank	62.848	n/a	4	11	8	n/a	88	n/a	1	n/a	n/a	n/a	n/a	468.379	n/a
436.855	0.497	neutral	Picture	62.334	n/a	4	11	9	n/a	89	6	1	n/a	n/a	n/a	n/a	468.91	AF09NES.jpg
437.353	0.514	Blank	Blank	61.82	n/a	4	11	9	n/a	89	n/a	1	n/a	n/a	n/a	n/a	469.407	n/a
437.883	0.497	neutral	Picture	61.306	n/a	4	11	10	n/a	90	12	1	n/a	n/a	n/a	n/a	469.938	AF21NES.jpg
438.381	0.514	Blank	Blank	60.792	n/a	4	11	10	n/a	90	n/a	1	n/a	n/a	n/a	n/a	470.435	n/a
438.911	0.497	neutral	Picture	60.278	n/a	4	11	11	n/a	91	24	1	n/a	n/a	n/a	n/a	470.966	BM05NES.jpg
439.409	0.514	Blank	Blank	59.764	n/a	4	11	11	n/a	91	n/a	1	n/a	n/a	n/a	n/a	471.463	n/a
439.939	0.497	neutral	Picture	59.25	n/a	4	11	12	n/a	92	34	1	n/a	n/a	n/a	n/a	471.993	AM22NES.jpg
440.436	0.514	Blank	Blank	58.736	n/a	4	11	12	n/a	92	n/a	1	n/a	n/a	n/a	n/a	472.491	n/a
440.967	0.497	neutral	Picture	58.222	n/a	4	11	13	n/a	93	23	1	n/a	n/a	n/a	n/a	473.021	AM04NES.jpg
441.464	0.514	Blank	Blank	57.708	n/a	4	11	13	n/a	93	n/a	1	n/a	n/a	n/a	n/a	473.519	n/a
441.995	0.497	neutral	Picture	57.194	n/a	4	11	14	n/a	94	15	1	n/a	n/a	n/a	n/a	474.049	AF25NES.jpg
442.492	0.514	Blank	Blank	56.68	n/a	4	11	14	n/a	94	n/a	1	n/a	n/a	n/a	n/a	474.546	n/a
443.023	0.497	neutral	Picture	56.166	n/a	4	11	15	n/a	95	37	1	n/a	n/a	n/a	n/a	475.077	BM25NES.jpg
443.52	0.514	Blank	Blank	55.652	n/a	4	11	15	n/a	95	n/a	1	n/a	n/a	n/a	n/a	475.574	n/a
444.051	0.497	neutral	Picture	55.139	n/a	4	11	16	n/a	96	32	1	n/a	n/a	n/a	n/a	476.105	AM14NES.jpg
444.548	0.514	Blank	Blank	54.625	n/a	4	11	16	n/a	96	n/a	1	n/a	n/a	n/a	n/a	476.602	n/a
445.078	0.497	neutral	Picture	54.111	n/a	4	11	17	n/a	97	3	1	n/a	n/a	n/a	n/a	477.133	BF04NES.jpg
445.576	0.514	Blank	Blank	53.597	n/a	4	11	17	n/a	97	n/a	1	n/a	n/a	n/a	n/a	477.63	n/a
446.106	0.497	neutral	Picture	53.083	n/a	4	11	18	n/a	98	16	1	n/a	n/a	n/a	n/a	478.161	AF26NES.jpg
446.604	0.514	Blank	Blank	52.569	n/a	4	11	18	n/a	98	n/a	1	n/a	n/a	n/a	n/a	478.658	n/a
447.134	0.497	neutral	Picture	52.055	n/a	4	11	19	n/a	99	27	1	n/a	n/a	n/a	n/a	479.189	BM08NES.jpg
447.632	0.514	Blank	Blank	51.541	n/a	4	11	19	n/a	99	n/a	1	n/a	n/a	n/a	n/a	479.686	n/a
448.162	0.497	neutral	Picture	51.027	n/a	4	11	20	n/a	100	28	1	n/a	n/a	n/a	n/a	480.216	AM09NES.jpg
448.66	0.514	Blank	Blank	50.513	n/a	4	11	20	n/a	100	n/a	1	n/a	n/a	n/a	n/a	480.714	n/a
449.19	10.014	ITI	Fixation+	40.483	n/a	4	n/a	n/a	n/a	n/a	n/a	n/a	n/a	n/a	n/a	n/a	481.244	n/a
459.22	0.497	angry	Picture	39.969	n/a	4	12	1	n/a	101	81	3	n/a	n/a	n/a	n/a	491.275	AF01ANS.jpg
459.718	0.514	Blank	Blank	39.455	n/a	4	12	1	n/a	101	n/a	3	n/a	n/a	n/a	n/a	491.772	n/a
460.248	0.497	angry	Picture	38.941	n/a	4	12	2	n/a	102	120	3	n/a	n/a	n/a	n/a	492.303	AM35ANS.jpg
460.745	0.514	Blank	Blank	38.427	n/a	4	12	2	n/a	102	n/a	3	n/a	n/a	n/a	n/a	492.8	n/a
461.276	0.497	angry	Picture	37.913	n/a	4	12	3	n/a	103	114	3	n/a	n/a	n/a	n/a	493.33	AM22ANS.jpg
461.773	0.514	Blank	Blank	37.399	n/a	4	12	3	n/a	103	n/a	3	n/a	n/a	n/a	n/a	493.828	n/a
462.304	0.497	angry	Picture	36.885	n/a	4	12	4	n/a	104	109	3	n/a	n/a	n/a	n/a	494.358	AM10ANS.jpg
462.801	0.514	Blank	Blank	36.371	n/a	4	12	4	n/a	104	n/a	3	n/a	n/a	n/a	n/a	494.856	n/a
463.332	0.497	angry	Picture	35.857	n/a	4	12	5	n/a	105	96	3	n/a	n/a	n/a	n/a	495.386	AF26ANS.jpg
463.829	0.514	Blank	Blank	35.343	n/a	4	12	5	n/a	105	n/a	3	n/a	n/a	n/a	n/a	495.884	n/a
464.36	0.497	angry	Picture	34.829	n/a	4	12	6	n/a	106	82	3	n/a	n/a	n/a	n/a	496.414	AF03ANS.jpg
464.857	0.514	Blank	Blank	34.316	n/a	4	12	6	n/a	106	n/a	3	n/a	n/a	n/a	n/a	496.911	n/a
465.387	0.497	angry	Picture	33.802	n/a	4	12	7	n/a	107	97	3	n/a	n/a	n/a	n/a	497.442	BF28ANS.jpg
465.885	0.514	Blank	Blank	33.288	n/a	4	12	7	n/a	107	n/a	3	n/a	n/a	n/a	n/a	497.939	n/a
466.415	0.497	angry	Picture	32.774	n/a	4	12	8	n/a	108	115	3	n/a	n/a	n/a	n/a	498.47	AM23ANS.jpg
466.913	0.514	Blank	Blank	32.26	n/a	4	12	8	n/a	108	n/a	3	n/a	n/a	n/a	n/a	498.967	n/a
467.443	0.497	angry	Picture	31.746	n/a	4	12	9	n/a	109	91	3	n/a	n/a	n/a	n/a	499.498	AF20ANS.jpg
467.941	0.514	Blank	Blank	31.232	n/a	4	12	9	n/a	109	n/a	3	n/a	n/a	n/a	n/a	499.995	n/a
468.471	0.497	angry	Picture	30.718	n/a	4	12	10	n/a	110	87	3	n/a	n/a	n/a	n/a	500.526	BF11ANS.jpg
468.969	0.514	Blank	Blank	30.204	n/a	4	12	10	n/a	110	n/a	3	n/a	n/a	n/a	n/a	501.023	n/a
469.499	0.497	angry	Picture	29.69	n/a	4	12	11	n/a	111	85	3	n/a	n/a	n/a	n/a	501.553	BF07ANS.jpg
469.996	0.514	Blank	Blank	29.176	n/a	4	12	11	n/a	111	n/a	3	n/a	n/a	n/a	n/a	502.051	n/a
470.527	0.497	angry	Picture	28.662	n/a	4	12	12	n/a	112	110	3	n/a	n/a	n/a	n/a	502.581	AM11ANS.jpg
471.024	0.514	Blank	Blank	28.148	n/a	4	12	12	n/a	112	n/a	3	n/a	n/a	n/a	n/a	503.079	n/a
471.555	0.497	angry	Picture	27.634	n/a	4	12	13	n/a	113	111	3	n/a	n/a	n/a	n/a	503.609	BM12ANS.jpg
472.052	0.514	Blank	Blank	27.12	n/a	4	12	13	n/a	113	n/a	3	n/a	n/a	n/a	n/a	504.107	n/a
472.583	0.497	angry	Picture	26.606	n/a	4	12	14	n/a	114	103	3	n/a	n/a	n/a	n/a	504.637	AM04ANS.jpg
473.08	0.514	Blank	Blank	26.092	n/a	4	12	14	n/a	114	n/a	3	n/a	n/a	n/a	n/a	505.135	n/a
473.611	0.497	angry	Picture	25.579	n/a	4	12	15	n/a	115	101	3	n/a	n/a	n/a	n/a	505.665	AM01ANS.jpg
474.108	0.514	Blank	Blank	25.065	n/a	4	12	15	n/a	115	n/a	3	n/a	n/a	n/a	n/a	506.162	n/a
474.639	0.497	angry	Picture	24.551	n/a	4	12	16	n/a	116	104	3	n/a	n/a	n/a	n/a	506.693	BM05ANS.jpg
475.136	0.514	Blank	Blank	24.037	n/a	4	12	16	n/a	116	n/a	3	n/a	n/a	n/a	n/a	507.19	n/a
475.666	0.497	angry	Picture	23.523	n/a	4	12	17	n/a	117	107	3	n/a	n/a	n/a	n/a	507.721	BM08ANS.jpg
476.164	0.514	Blank	Blank	23.009	n/a	4	12	17	n/a	117	n/a	3	n/a	n/a	n/a	n/a	508.218	n/a
476.694	0.497	angry	Picture	22.495	n/a	4	12	18	n/a	118	98	3	n/a	n/a	n/a	n/a	508.749	BF29ANS.jpg
477.192	0.514	Blank	Blank	21.981	n/a	4	12	18	n/a	118	n/a	3	n/a	n/a	n/a	n/a	509.246	n/a
477.722	0.497	angry	Picture	21.467	n/a	4	12	19	n/a	119	99	3	n/a	n/a	n/a	n/a	509.776	AF31ANS.jpg
478.22	0.514	Blank	Blank	20.953	n/a	4	12	19	n/a	119	n/a	3	n/a	n/a	n/a	n/a	510.274	n/a
478.75	0.497	angry	Picture	20.439	n/a	4	12	20	n/a	120	108	3	n/a	n/a	n/a	n/a	510.804	AM09ANS.jpg
479.247	0.514	Blank	Blank	19.925	n/a	4	12	20	n/a	120	n/a	3	n/a	n/a	n/a	n/a	511.302	n/a
479.778	10.014	ITI	Fixation+	9.895	n/a	4	n/a	n/a	n/a	n/a	n/a	n/a	n/a	n/a	n/a	n/a	511.832	n/a
499.686	n/a	ConfirmRating	Rate	n/a	9.881	4	n/a	n/a	0	n/a	n/a	n/a	2	Angry	27	49	531.741	n/a
508.61	n/a	ConfirmRating	Rate	n/a	8.919	4	n/a	n/a	1	n/a	n/a	n/a	3	Angry	65	51	540.665	n/a
