onset	duration	trial_type	event_type	time_until_response	response_time	trial_number	block_num_within_trial	image_seq_num_within_block	question_seq_num_within_block	image_seq_num	picture_number	condition	question_type	block_type	rating	rating_computed	onset_uncorrected	KDEV_imagefile
0.014	10.014	ITI	Fixation+	101.916	n/a	1	n/a	n/a	n/a	n/a	n/a	n/a	n/a	n/a	n/a	n/a	29.256	n/a
10.044	0.497	angry	Picture	101.402	n/a	1	1	1	n/a	1	108	3	n/a	n/a	n/a	n/a	39.286	AM09ANS.jpg
10.542	0.514	Blank	Blank	100.888	n/a	1	1	1	n/a	1	n/a	3	n/a	n/a	n/a	n/a	39.784	n/a
11.072	0.497	angry	Picture	100.374	n/a	1	1	2	n/a	2	99	3	n/a	n/a	n/a	n/a	40.314	AF31ANS.jpg
11.57	0.514	Blank	Blank	99.86	n/a	1	1	2	n/a	2	n/a	3	n/a	n/a	n/a	n/a	40.812	n/a
12.1	0.497	angry	Picture	99.346	n/a	1	1	3	n/a	3	98	3	n/a	n/a	n/a	n/a	41.342	BF29ANS.jpg
12.597	0.514	Blank	Blank	98.832	n/a	1	1	3	n/a	3	n/a	3	n/a	n/a	n/a	n/a	41.839	n/a
13.128	0.497	angry	Picture	98.318	n/a	1	1	4	n/a	4	107	3	n/a	n/a	n/a	n/a	42.37	BM08ANS.jpg
13.625	0.514	Blank	Blank	97.804	n/a	1	1	4	n/a	4	n/a	3	n/a	n/a	n/a	n/a	42.867	n/a
14.156	0.497	angry	Picture	97.29	n/a	1	1	5	n/a	5	104	3	n/a	n/a	n/a	n/a	43.398	BM05ANS.jpg
14.653	0.514	Blank	Blank	96.777	n/a	1	1	5	n/a	5	n/a	3	n/a	n/a	n/a	n/a	43.895	n/a
15.184	0.497	angry	Picture	96.263	n/a	1	1	6	n/a	6	101	3	n/a	n/a	n/a	n/a	44.426	AM01ANS.jpg
15.681	0.514	Blank	Blank	95.749	n/a	1	1	6	n/a	6	n/a	3	n/a	n/a	n/a	n/a	44.923	n/a
16.212	0.497	angry	Picture	95.235	n/a	1	1	7	n/a	7	103	3	n/a	n/a	n/a	n/a	45.454	AM04ANS.jpg
16.709	0.514	Blank	Blank	94.721	n/a	1	1	7	n/a	7	n/a	3	n/a	n/a	n/a	n/a	45.951	n/a
17.24	0.497	angry	Picture	94.207	n/a	1	1	8	n/a	8	111	3	n/a	n/a	n/a	n/a	46.481	BM12ANS.jpg
17.737	0.514	Blank	Blank	93.693	n/a	1	1	8	n/a	8	n/a	3	n/a	n/a	n/a	n/a	46.979	n/a
18.267	0.497	angry	Picture	93.179	n/a	1	1	9	n/a	9	110	3	n/a	n/a	n/a	n/a	47.509	AM11ANS.jpg
18.765	0.514	Blank	Blank	92.665	n/a	1	1	9	n/a	9	n/a	3	n/a	n/a	n/a	n/a	48.007	n/a
19.295	0.497	angry	Picture	92.151	n/a	1	1	10	n/a	10	85	3	n/a	n/a	n/a	n/a	48.537	BF07ANS.jpg
19.793	0.514	Blank	Blank	91.637	n/a	1	1	10	n/a	10	n/a	3	n/a	n/a	n/a	n/a	49.035	n/a
20.323	0.497	angry	Picture	91.123	n/a	1	1	11	n/a	11	87	3	n/a	n/a	n/a	n/a	49.565	BF11ANS.jpg
20.821	0.514	Blank	Blank	90.609	n/a	1	1	11	n/a	11	n/a	3	n/a	n/a	n/a	n/a	50.063	n/a
21.351	0.497	angry	Picture	90.095	n/a	1	1	12	n/a	12	91	3	n/a	n/a	n/a	n/a	50.593	AF20ANS.jpg
21.849	0.514	Blank	Blank	89.581	n/a	1	1	12	n/a	12	n/a	3	n/a	n/a	n/a	n/a	51.09	n/a
22.379	0.497	angry	Picture	89.067	n/a	1	1	13	n/a	13	115	3	n/a	n/a	n/a	n/a	51.621	AM23ANS.jpg
22.876	0.514	Blank	Blank	88.553	n/a	1	1	13	n/a	13	n/a	3	n/a	n/a	n/a	n/a	52.118	n/a
23.407	0.497	angry	Picture	88.04	n/a	1	1	14	n/a	14	97	3	n/a	n/a	n/a	n/a	52.649	BF28ANS.jpg
23.904	0.514	Blank	Blank	87.526	n/a	1	1	14	n/a	14	n/a	3	n/a	n/a	n/a	n/a	53.146	n/a
24.435	0.497	angry	Picture	87.012	n/a	1	1	15	n/a	15	82	3	n/a	n/a	n/a	n/a	53.677	AF03ANS.jpg
24.932	0.514	Blank	Blank	86.498	n/a	1	1	15	n/a	15	n/a	3	n/a	n/a	n/a	n/a	54.174	n/a
25.463	0.497	angry	Picture	85.984	n/a	1	1	16	n/a	16	96	3	n/a	n/a	n/a	n/a	54.705	AF26ANS.jpg
25.96	0.514	Blank	Blank	85.47	n/a	1	1	16	n/a	16	n/a	3	n/a	n/a	n/a	n/a	55.202	n/a
26.49	0.497	angry	Picture	84.956	n/a	1	1	17	n/a	17	109	3	n/a	n/a	n/a	n/a	55.732	AM10ANS.jpg
26.988	0.514	Blank	Blank	84.442	n/a	1	1	17	n/a	17	n/a	3	n/a	n/a	n/a	n/a	56.23	n/a
27.518	0.497	angry	Picture	83.928	n/a	1	1	18	n/a	18	114	3	n/a	n/a	n/a	n/a	56.76	AM22ANS.jpg
28.016	0.514	Blank	Blank	83.414	n/a	1	1	18	n/a	18	n/a	3	n/a	n/a	n/a	n/a	57.258	n/a
28.546	0.497	angry	Picture	82.9	n/a	1	1	19	n/a	19	120	3	n/a	n/a	n/a	n/a	57.788	AM35ANS.jpg
29.044	0.514	Blank	Blank	82.386	n/a	1	1	19	n/a	19	n/a	3	n/a	n/a	n/a	n/a	58.285	n/a
29.574	0.497	angry	Picture	81.872	n/a	1	1	20	n/a	20	81	3	n/a	n/a	n/a	n/a	58.816	AF01ANS.jpg
30.072	0.514	Blank	Blank	81.358	n/a	1	1	20	n/a	20	n/a	3	n/a	n/a	n/a	n/a	59.313	n/a
30.602	10.014	ITI	Fixation+	71.328	n/a	1	n/a	n/a	n/a	n/a	n/a	n/a	n/a	n/a	n/a	n/a	59.844	n/a
40.632	0.497	neutral	Picture	70.814	n/a	1	2	1	n/a	21	28	1	n/a	n/a	n/a	n/a	69.874	AM09NES.jpg
41.13	0.514	Blank	Blank	70.3	n/a	1	2	1	n/a	21	n/a	1	n/a	n/a	n/a	n/a	70.371	n/a
41.66	0.497	neutral	Picture	69.786	n/a	1	2	2	n/a	22	27	1	n/a	n/a	n/a	n/a	70.902	BM08NES.jpg
42.157	0.514	Blank	Blank	69.272	n/a	1	2	2	n/a	22	n/a	1	n/a	n/a	n/a	n/a	71.399	n/a
42.688	0.497	neutral	Picture	68.758	n/a	1	2	3	n/a	23	16	1	n/a	n/a	n/a	n/a	71.93	AF26NES.jpg
43.185	0.514	Blank	Blank	68.244	n/a	1	2	3	n/a	23	n/a	1	n/a	n/a	n/a	n/a	72.427	n/a
43.716	0.497	neutral	Picture	67.731	n/a	1	2	4	n/a	24	3	1	n/a	n/a	n/a	n/a	72.958	BF04NES.jpg
44.213	0.514	Blank	Blank	67.217	n/a	1	2	4	n/a	24	n/a	1	n/a	n/a	n/a	n/a	73.455	n/a
44.744	0.497	neutral	Picture	66.703	n/a	1	2	5	n/a	25	32	1	n/a	n/a	n/a	n/a	73.986	AM14NES.jpg
45.241	0.514	Blank	Blank	66.189	n/a	1	2	5	n/a	25	n/a	1	n/a	n/a	n/a	n/a	74.483	n/a
45.772	0.497	neutral	Picture	65.675	n/a	1	2	6	n/a	26	37	1	n/a	n/a	n/a	n/a	75.013	BM25NES.jpg
46.269	0.514	Blank	Blank	65.161	n/a	1	2	6	n/a	26	n/a	1	n/a	n/a	n/a	n/a	75.511	n/a
46.799	0.497	neutral	Picture	64.647	n/a	1	2	7	n/a	27	15	1	n/a	n/a	n/a	n/a	76.041	AF25NES.jpg
47.297	0.514	Blank	Blank	64.133	n/a	1	2	7	n/a	27	n/a	1	n/a	n/a	n/a	n/a	76.539	n/a
47.827	0.497	neutral	Picture	63.619	n/a	1	2	8	n/a	28	23	1	n/a	n/a	n/a	n/a	77.069	AM04NES.jpg
48.325	0.514	Blank	Blank	63.105	n/a	1	2	8	n/a	28	n/a	1	n/a	n/a	n/a	n/a	77.567	n/a
48.855	0.497	neutral	Picture	62.591	n/a	1	2	9	n/a	29	34	1	n/a	n/a	n/a	n/a	78.097	AM22NES.jpg
49.353	0.514	Blank	Blank	62.077	n/a	1	2	9	n/a	29	n/a	1	n/a	n/a	n/a	n/a	78.594	n/a
49.883	0.497	neutral	Picture	61.563	n/a	1	2	10	n/a	30	24	1	n/a	n/a	n/a	n/a	79.125	BM05NES.jpg
50.38	0.514	Blank	Blank	61.049	n/a	1	2	10	n/a	30	n/a	1	n/a	n/a	n/a	n/a	79.622	n/a
50.911	0.497	neutral	Picture	60.535	n/a	1	2	11	n/a	31	12	1	n/a	n/a	n/a	n/a	80.153	AF21NES.jpg
51.408	0.514	Blank	Blank	60.021	n/a	1	2	11	n/a	31	n/a	1	n/a	n/a	n/a	n/a	80.65	n/a
51.939	0.497	neutral	Picture	59.507	n/a	1	2	12	n/a	32	6	1	n/a	n/a	n/a	n/a	81.181	AF09NES.jpg
52.436	0.514	Blank	Blank	58.994	n/a	1	2	12	n/a	32	n/a	1	n/a	n/a	n/a	n/a	81.678	n/a
52.967	0.497	neutral	Picture	58.48	n/a	1	2	13	n/a	33	17	1	n/a	n/a	n/a	n/a	82.209	BF28NES.jpg
53.464	0.514	Blank	Blank	57.966	n/a	1	2	13	n/a	33	n/a	1	n/a	n/a	n/a	n/a	82.706	n/a
53.995	0.497	neutral	Picture	57.452	n/a	1	2	14	n/a	34	2	1	n/a	n/a	n/a	n/a	83.237	AF03NES.jpg
54.492	0.514	Blank	Blank	56.938	n/a	1	2	14	n/a	34	n/a	1	n/a	n/a	n/a	n/a	83.734	n/a
55.022	0.497	neutral	Picture	56.424	n/a	1	2	15	n/a	35	9	1	n/a	n/a	n/a	n/a	84.264	AF17NES.jpg
55.52	0.514	Blank	Blank	55.91	n/a	1	2	15	n/a	35	n/a	1	n/a	n/a	n/a	n/a	84.762	n/a
56.05	0.497	neutral	Picture	55.396	n/a	1	2	16	n/a	36	25	1	n/a	n/a	n/a	n/a	85.292	BM06NES.jpg
56.548	0.514	Blank	Blank	54.882	n/a	1	2	16	n/a	36	n/a	1	n/a	n/a	n/a	n/a	85.79	n/a
57.078	0.497	neutral	Picture	54.368	n/a	1	2	17	n/a	37	8	1	n/a	n/a	n/a	n/a	86.32	AF14NES.jpg
57.576	0.514	Blank	Blank	53.854	n/a	1	2	17	n/a	37	n/a	1	n/a	n/a	n/a	n/a	86.818	n/a
58.106	0.497	neutral	Picture	53.34	n/a	1	2	18	n/a	38	19	1	n/a	n/a	n/a	n/a	87.348	AF31NES.jpg
58.603	0.514	Blank	Blank	52.826	n/a	1	2	18	n/a	38	n/a	1	n/a	n/a	n/a	n/a	87.845	n/a
59.134	0.497	neutral	Picture	52.312	n/a	1	2	19	n/a	39	14	1	n/a	n/a	n/a	n/a	88.376	AF23NES.jpg
59.631	0.514	Blank	Blank	51.798	n/a	1	2	19	n/a	39	n/a	1	n/a	n/a	n/a	n/a	88.873	n/a
60.162	0.497	neutral	Picture	51.285	n/a	1	2	20	n/a	40	4	1	n/a	n/a	n/a	n/a	89.404	AF05NES.jpg
60.659	0.514	Blank	Blank	50.77	n/a	1	2	20	n/a	40	n/a	1	n/a	n/a	n/a	n/a	89.901	n/a
61.19	10.014	ITI	Fixation+	40.74	n/a	1	n/a	n/a	n/a	n/a	n/a	n/a	n/a	n/a	n/a	n/a	90.432	n/a
71.22	0.497	angry	Picture	40.227	n/a	1	3	1	n/a	41	84	3	n/a	n/a	n/a	n/a	100.462	AF05ANS.jpg
71.717	0.514	Blank	Blank	39.713	n/a	1	3	1	n/a	41	n/a	3	n/a	n/a	n/a	n/a	100.959	n/a
72.248	0.497	angry	Picture	39.199	n/a	1	3	2	n/a	42	92	3	n/a	n/a	n/a	n/a	101.49	AF21ANS.jpg
72.745	0.514	Blank	Blank	38.685	n/a	1	3	2	n/a	42	n/a	3	n/a	n/a	n/a	n/a	101.987	n/a
73.276	0.497	angry	Picture	38.171	n/a	1	3	3	n/a	43	86	3	n/a	n/a	n/a	n/a	102.518	AF09ANS.jpg
73.773	0.514	Blank	Blank	37.657	n/a	1	3	3	n/a	43	n/a	3	n/a	n/a	n/a	n/a	103.015	n/a
74.304	0.497	angry	Picture	37.143	n/a	1	3	4	n/a	44	93	3	n/a	n/a	n/a	n/a	103.546	BF22ANS.jpg
74.801	0.514	Blank	Blank	36.629	n/a	1	3	4	n/a	44	n/a	3	n/a	n/a	n/a	n/a	104.043	n/a
75.332	0.497	angry	Picture	36.115	n/a	1	3	5	n/a	45	88	3	n/a	n/a	n/a	n/a	104.573	AF14ANS.jpg
75.829	0.514	Blank	Blank	35.601	n/a	1	3	5	n/a	45	n/a	3	n/a	n/a	n/a	n/a	105.071	n/a
76.359	0.497	angry	Picture	35.087	n/a	1	3	6	n/a	46	113	3	n/a	n/a	n/a	n/a	105.601	AM21ANS.jpg
76.857	0.514	Blank	Blank	34.573	n/a	1	3	6	n/a	46	n/a	3	n/a	n/a	n/a	n/a	106.099	n/a
77.387	0.497	angry	Picture	34.059	n/a	1	3	7	n/a	47	95	3	n/a	n/a	n/a	n/a	106.629	AF25ANS.jpg
77.885	0.514	Blank	Blank	33.545	n/a	1	3	7	n/a	47	n/a	3	n/a	n/a	n/a	n/a	107.126	n/a
78.415	0.497	angry	Picture	33.031	n/a	1	3	8	n/a	48	102	3	n/a	n/a	n/a	n/a	107.657	BM03ANS.jpg
78.912	0.514	Blank	Blank	32.517	n/a	1	3	8	n/a	48	n/a	3	n/a	n/a	n/a	n/a	108.154	n/a
79.443	0.497	angry	Picture	32.003	n/a	1	3	9	n/a	49	112	3	n/a	n/a	n/a	n/a	108.685	AM14ANS.jpg
79.94	0.514	Blank	Blank	31.489	n/a	1	3	9	n/a	49	n/a	3	n/a	n/a	n/a	n/a	109.182	n/a
80.471	0.497	angry	Picture	30.975	n/a	1	3	10	n/a	50	83	3	n/a	n/a	n/a	n/a	109.713	BF04ANS.jpg
80.968	0.514	Blank	Blank	30.462	n/a	1	3	10	n/a	50	n/a	3	n/a	n/a	n/a	n/a	110.21	n/a
81.499	0.497	angry	Picture	29.948	n/a	1	3	11	n/a	51	90	3	n/a	n/a	n/a	n/a	110.741	AF18ANS.jpg
81.996	0.514	Blank	Blank	29.434	n/a	1	3	11	n/a	51	n/a	3	n/a	n/a	n/a	n/a	111.238	n/a
82.527	0.497	angry	Picture	28.92	n/a	1	3	12	n/a	52	117	3	n/a	n/a	n/a	n/a	111.769	BM25ANS.jpg
83.024	0.514	Blank	Blank	28.406	n/a	1	3	12	n/a	52	n/a	3	n/a	n/a	n/a	n/a	112.266	n/a
83.555	0.497	angry	Picture	27.892	n/a	1	3	13	n/a	53	94	3	n/a	n/a	n/a	n/a	112.796	AF23ANS.jpg
84.052	0.514	Blank	Blank	27.378	n/a	1	3	13	n/a	53	n/a	3	n/a	n/a	n/a	n/a	113.294	n/a
84.582	0.497	angry	Picture	26.864	n/a	1	3	14	n/a	54	106	3	n/a	n/a	n/a	n/a	113.824	AM07ANS.jpg
85.08	0.514	Blank	Blank	26.35	n/a	1	3	14	n/a	54	n/a	3	n/a	n/a	n/a	n/a	114.322	n/a
85.61	0.497	angry	Picture	25.836	n/a	1	3	15	n/a	55	105	3	n/a	n/a	n/a	n/a	114.852	BM06ANS.jpg
86.108	0.514	Blank	Blank	25.322	n/a	1	3	15	n/a	55	n/a	3	n/a	n/a	n/a	n/a	115.35	n/a
86.638	0.497	angry	Picture	24.808	n/a	1	3	16	n/a	56	116	3	n/a	n/a	n/a	n/a	115.88	BM24ANS.jpg
87.136	0.514	Blank	Blank	24.294	n/a	1	3	16	n/a	56	n/a	3	n/a	n/a	n/a	n/a	116.377	n/a
87.666	0.497	angry	Picture	23.78	n/a	1	3	17	n/a	57	89	3	n/a	n/a	n/a	n/a	116.908	AF17ANS.jpg
88.163	0.514	Blank	Blank	23.266	n/a	1	3	17	n/a	57	n/a	3	n/a	n/a	n/a	n/a	117.405	n/a
88.694	0.497	angry	Picture	22.752	n/a	1	3	18	n/a	58	118	3	n/a	n/a	n/a	n/a	117.936	BM26ANS.jpg
89.191	0.514	Blank	Blank	22.239	n/a	1	3	18	n/a	58	n/a	3	n/a	n/a	n/a	n/a	118.433	n/a
89.722	0.497	angry	Picture	21.725	n/a	1	3	19	n/a	59	100	3	n/a	n/a	n/a	n/a	118.964	AF32ANS.jpg
90.219	0.514	Blank	Blank	21.211	n/a	1	3	19	n/a	59	n/a	3	n/a	n/a	n/a	n/a	119.461	n/a
90.75	0.497	angry	Picture	20.697	n/a	1	3	20	n/a	60	119	3	n/a	n/a	n/a	n/a	119.992	BM28ANS.jpg
91.247	0.514	Blank	Blank	20.183	n/a	1	3	20	n/a	60	n/a	3	n/a	n/a	n/a	n/a	120.489	n/a
91.778	10.014	ITI	Fixation+	10.153	n/a	1	n/a	n/a	n/a	n/a	n/a	n/a	n/a	n/a	n/a	n/a	121.019	n/a
111.944	n/a	ConfirmRating	Rate	n/a	10.129	1	n/a	n/a	0	n/a	n/a	n/a	2	Angry	71	51	141.186	n/a
121.313	n/a	ConfirmRating	Rate	n/a	9.35	1	n/a	n/a	1	n/a	n/a	n/a	3	Angry	69	51	150.554	n/a
121.337	10.014	ITI	Fixation+	96.643	n/a	2	n/a	n/a	n/a	n/a	n/a	n/a	n/a	n/a	n/a	n/a	150.579	n/a
131.368	0.497	happy	Picture	96.129	n/a	2	4	1	n/a	61	79	2	n/a	n/a	n/a	n/a	160.61	BM28HAS.jpg
131.865	0.514	Blank	Blank	95.615	n/a	2	4	1	n/a	61	n/a	2	n/a	n/a	n/a	n/a	161.107	n/a
132.396	0.497	happy	Picture	95.101	n/a	2	4	2	n/a	62	61	2	n/a	n/a	n/a	n/a	161.637	AM01HAS.jpg
132.893	0.514	Blank	Blank	94.587	n/a	2	4	2	n/a	62	n/a	2	n/a	n/a	n/a	n/a	162.135	n/a
133.423	0.497	happy	Picture	94.073	n/a	2	4	3	n/a	63	57	2	n/a	n/a	n/a	n/a	162.665	BF28HAS.jpg
133.921	0.514	Blank	Blank	93.559	n/a	2	4	3	n/a	63	n/a	2	n/a	n/a	n/a	n/a	163.163	n/a
134.451	0.497	happy	Picture	93.045	n/a	2	4	4	n/a	64	77	2	n/a	n/a	n/a	n/a	163.693	BM25HAS.jpg
134.949	0.514	Blank	Blank	92.531	n/a	2	4	4	n/a	64	n/a	2	n/a	n/a	n/a	n/a	164.191	n/a
135.479	0.497	happy	Picture	92.017	n/a	2	4	5	n/a	65	47	2	n/a	n/a	n/a	n/a	164.721	BF11HAS.jpg
135.977	0.514	Blank	Blank	91.503	n/a	2	4	5	n/a	65	n/a	2	n/a	n/a	n/a	n/a	165.219	n/a
136.507	0.497	happy	Picture	90.989	n/a	2	4	6	n/a	66	50	2	n/a	n/a	n/a	n/a	165.749	AF18HAS.jpg
137.005	0.514	Blank	Blank	90.475	n/a	2	4	6	n/a	66	n/a	2	n/a	n/a	n/a	n/a	166.246	n/a
137.535	0.497	happy	Picture	89.961	n/a	2	4	7	n/a	67	78	2	n/a	n/a	n/a	n/a	166.777	BM26HAS.jpg
138.032	0.514	Blank	Blank	89.447	n/a	2	4	7	n/a	67	n/a	2	n/a	n/a	n/a	n/a	167.274	n/a
138.563	0.497	happy	Picture	88.933	n/a	2	4	8	n/a	68	45	2	n/a	n/a	n/a	n/a	167.805	BF07HAS.jpg
139.06	0.514	Blank	Blank	88.419	n/a	2	4	8	n/a	68	n/a	2	n/a	n/a	n/a	n/a	168.302	n/a
139.591	0.497	happy	Picture	87.906	n/a	2	4	9	n/a	69	56	2	n/a	n/a	n/a	n/a	168.833	AF26HAS.jpg
140.088	0.514	Blank	Blank	87.392	n/a	2	4	9	n/a	69	n/a	2	n/a	n/a	n/a	n/a	169.33	n/a
140.619	0.497	happy	Picture	86.878	n/a	2	4	10	n/a	70	65	2	n/a	n/a	n/a	n/a	169.861	BM06HAS.jpg
141.116	0.514	Blank	Blank	86.364	n/a	2	4	10	n/a	70	n/a	2	n/a	n/a	n/a	n/a	170.358	n/a
141.647	0.497	happy	Picture	85.85	n/a	2	4	11	n/a	71	73	2	n/a	n/a	n/a	n/a	170.888	AM21HAS.jpg
142.144	0.514	Blank	Blank	85.336	n/a	2	4	11	n/a	71	n/a	2	n/a	n/a	n/a	n/a	171.386	n/a
142.674	0.497	happy	Picture	84.822	n/a	2	4	12	n/a	72	41	2	n/a	n/a	n/a	n/a	171.916	AF01HAS.jpg
143.172	0.514	Blank	Blank	84.308	n/a	2	4	12	n/a	72	n/a	2	n/a	n/a	n/a	n/a	172.414	n/a
143.702	0.497	happy	Picture	83.794	n/a	2	4	13	n/a	73	59	2	n/a	n/a	n/a	n/a	172.944	AF31HAS.jpg
144.2	0.514	Blank	Blank	83.28	n/a	2	4	13	n/a	73	n/a	2	n/a	n/a	n/a	n/a	173.441	n/a
144.73	0.497	happy	Picture	82.766	n/a	2	4	14	n/a	74	64	2	n/a	n/a	n/a	n/a	173.972	BM05HAS.jpg
145.228	0.514	Blank	Blank	82.252	n/a	2	4	14	n/a	74	n/a	2	n/a	n/a	n/a	n/a	174.469	n/a
145.758	0.497	happy	Picture	81.738	n/a	2	4	15	n/a	75	68	2	n/a	n/a	n/a	n/a	175.0	AM09HAS.jpg
146.255	0.514	Blank	Blank	81.224	n/a	2	4	15	n/a	75	n/a	2	n/a	n/a	n/a	n/a	175.497	n/a
146.786	0.497	happy	Picture	80.71	n/a	2	4	16	n/a	76	54	2	n/a	n/a	n/a	n/a	176.028	AF23HAS.jpg
147.283	0.514	Blank	Blank	80.196	n/a	2	4	16	n/a	76	n/a	2	n/a	n/a	n/a	n/a	176.525	n/a
147.814	0.497	happy	Picture	79.682	n/a	2	4	17	n/a	77	53	2	n/a	n/a	n/a	n/a	177.056	BF22HAS.jpg
148.311	0.514	Blank	Blank	79.169	n/a	2	4	17	n/a	77	n/a	2	n/a	n/a	n/a	n/a	177.553	n/a
148.842	0.497	happy	Picture	78.655	n/a	2	4	18	n/a	78	44	2	n/a	n/a	n/a	n/a	178.084	AF05HAS.jpg
149.339	0.514	Blank	Blank	78.141	n/a	2	4	18	n/a	78	n/a	2	n/a	n/a	n/a	n/a	178.581	n/a
149.87	0.497	happy	Picture	77.627	n/a	2	4	19	n/a	79	52	2	n/a	n/a	n/a	n/a	179.112	AF21HAS.jpg
150.367	0.514	Blank	Blank	77.113	n/a	2	4	19	n/a	79	n/a	2	n/a	n/a	n/a	n/a	179.609	n/a
150.897	0.497	happy	Picture	76.599	n/a	2	4	20	n/a	80	62	2	n/a	n/a	n/a	n/a	180.139	BM03HAS.jpg
151.395	0.514	Blank	Blank	76.085	n/a	2	4	20	n/a	80	n/a	2	n/a	n/a	n/a	n/a	180.637	n/a
151.925	10.014	ITI	Fixation+	66.055	n/a	2	n/a	n/a	n/a	n/a	n/a	n/a	n/a	n/a	n/a	n/a	181.167	n/a
161.955	0.497	neutral	Picture	65.541	n/a	2	5	1	n/a	81	23	1	n/a	n/a	n/a	n/a	191.197	AM04NES.jpg
162.453	0.514	Blank	Blank	65.027	n/a	2	5	1	n/a	81	n/a	1	n/a	n/a	n/a	n/a	191.695	n/a
162.983	0.497	neutral	Picture	64.513	n/a	2	5	2	n/a	82	29	1	n/a	n/a	n/a	n/a	192.225	AM10NES.jpg
163.481	0.514	Blank	Blank	63.999	n/a	2	5	2	n/a	82	n/a	1	n/a	n/a	n/a	n/a	192.723	n/a
164.011	0.497	neutral	Picture	63.485	n/a	2	5	3	n/a	83	24	1	n/a	n/a	n/a	n/a	193.253	BM05NES.jpg
164.509	0.514	Blank	Blank	62.971	n/a	2	5	3	n/a	83	n/a	1	n/a	n/a	n/a	n/a	193.75	n/a
165.039	0.497	neutral	Picture	62.457	n/a	2	5	4	n/a	84	12	1	n/a	n/a	n/a	n/a	194.281	AF21NES.jpg
165.536	0.514	Blank	Blank	61.943	n/a	2	5	4	n/a	84	n/a	1	n/a	n/a	n/a	n/a	194.778	n/a
166.067	0.497	neutral	Picture	61.429	n/a	2	5	5	n/a	85	13	1	n/a	n/a	n/a	n/a	195.309	BF22NES.jpg
166.564	0.514	Blank	Blank	60.915	n/a	2	5	5	n/a	85	n/a	1	n/a	n/a	n/a	n/a	195.806	n/a
167.095	0.497	neutral	Picture	60.401	n/a	2	5	6	n/a	86	17	1	n/a	n/a	n/a	n/a	196.337	BF28NES.jpg
167.592	0.514	Blank	Blank	59.887	n/a	2	5	6	n/a	86	n/a	1	n/a	n/a	n/a	n/a	196.834	n/a
168.123	0.497	neutral	Picture	59.374	n/a	2	5	7	n/a	87	4	1	n/a	n/a	n/a	n/a	197.365	AF05NES.jpg
168.62	0.514	Blank	Blank	58.86	n/a	2	5	7	n/a	87	n/a	1	n/a	n/a	n/a	n/a	197.862	n/a
169.151	0.497	neutral	Picture	58.346	n/a	2	5	8	n/a	88	11	1	n/a	n/a	n/a	n/a	198.393	AF20NES.jpg
169.648	0.514	Blank	Blank	57.832	n/a	2	5	8	n/a	88	n/a	1	n/a	n/a	n/a	n/a	198.89	n/a
170.178	0.497	neutral	Picture	57.318	n/a	2	5	9	n/a	89	22	1	n/a	n/a	n/a	n/a	199.42	BM03NES.jpg
170.676	0.514	Blank	Blank	56.804	n/a	2	5	9	n/a	89	n/a	1	n/a	n/a	n/a	n/a	199.918	n/a
171.206	0.497	neutral	Picture	56.29	n/a	2	5	10	n/a	90	15	1	n/a	n/a	n/a	n/a	200.448	AF25NES.jpg
171.704	0.514	Blank	Blank	55.776	n/a	2	5	10	n/a	90	n/a	1	n/a	n/a	n/a	n/a	200.946	n/a
172.234	0.497	neutral	Picture	55.262	n/a	2	5	11	n/a	91	19	1	n/a	n/a	n/a	n/a	201.476	AF31NES.jpg
172.732	0.514	Blank	Blank	54.748	n/a	2	5	11	n/a	91	n/a	1	n/a	n/a	n/a	n/a	201.974	n/a
173.262	0.497	neutral	Picture	54.234	n/a	2	5	12	n/a	92	9	1	n/a	n/a	n/a	n/a	202.504	AF17NES.jpg
173.76	0.514	Blank	Blank	53.72	n/a	2	5	12	n/a	92	n/a	1	n/a	n/a	n/a	n/a	203.001	n/a
174.29	0.497	neutral	Picture	53.206	n/a	2	5	13	n/a	93	14	1	n/a	n/a	n/a	n/a	203.532	AF23NES.jpg
174.787	0.514	Blank	Blank	52.692	n/a	2	5	13	n/a	93	n/a	1	n/a	n/a	n/a	n/a	204.029	n/a
175.318	0.497	neutral	Picture	52.178	n/a	2	5	14	n/a	94	36	1	n/a	n/a	n/a	n/a	204.56	BM24NES.jpg
175.815	0.514	Blank	Blank	51.664	n/a	2	5	14	n/a	94	n/a	1	n/a	n/a	n/a	n/a	205.057	n/a
176.346	0.497	neutral	Picture	51.15	n/a	2	5	15	n/a	95	34	1	n/a	n/a	n/a	n/a	205.588	AM22NES.jpg
176.843	0.514	Blank	Blank	50.637	n/a	2	5	15	n/a	95	n/a	1	n/a	n/a	n/a	n/a	206.085	n/a
177.374	0.497	neutral	Picture	50.123	n/a	2	5	16	n/a	96	10	1	n/a	n/a	n/a	n/a	206.616	AF18NES.jpg
177.871	0.514	Blank	Blank	49.609	n/a	2	5	16	n/a	96	n/a	1	n/a	n/a	n/a	n/a	207.113	n/a
178.402	0.497	neutral	Picture	49.095	n/a	2	5	17	n/a	97	5	1	n/a	n/a	n/a	n/a	207.643	BF07NES.jpg
178.899	0.514	Blank	Blank	48.581	n/a	2	5	17	n/a	97	n/a	1	n/a	n/a	n/a	n/a	208.141	n/a
179.43	0.497	neutral	Picture	48.067	n/a	2	5	18	n/a	98	25	1	n/a	n/a	n/a	n/a	208.671	BM06NES.jpg
179.927	0.514	Blank	Blank	47.553	n/a	2	5	18	n/a	98	n/a	1	n/a	n/a	n/a	n/a	209.169	n/a
180.457	0.497	neutral	Picture	47.039	n/a	2	5	19	n/a	99	39	1	n/a	n/a	n/a	n/a	209.699	AM28NES.jpg
180.955	0.514	Blank	Blank	46.525	n/a	2	5	19	n/a	99	n/a	1	n/a	n/a	n/a	n/a	210.197	n/a
181.485	0.497	neutral	Picture	46.011	n/a	2	5	20	n/a	100	33	1	n/a	n/a	n/a	n/a	210.727	AM21NES.jpg
181.983	0.514	Blank	Blank	45.497	n/a	2	5	20	n/a	100	n/a	1	n/a	n/a	n/a	n/a	211.225	n/a
182.513	10.014	ITI	Fixation+	35.467	n/a	2	n/a	n/a	n/a	n/a	n/a	n/a	n/a	n/a	n/a	n/a	211.755	n/a
192.543	0.497	happy	Picture	34.953	n/a	2	6	1	n/a	101	74	2	n/a	n/a	n/a	n/a	221.785	AM22HAS.jpg
193.041	0.514	Blank	Blank	34.439	n/a	2	6	1	n/a	101	n/a	2	n/a	n/a	n/a	n/a	222.282	n/a
193.571	0.497	happy	Picture	33.925	n/a	2	6	2	n/a	102	76	2	n/a	n/a	n/a	n/a	222.813	BM24HAS.jpg
194.068	0.514	Blank	Blank	33.411	n/a	2	6	2	n/a	102	n/a	2	n/a	n/a	n/a	n/a	223.31	n/a
194.599	0.497	happy	Picture	32.897	n/a	2	6	3	n/a	103	80	2	n/a	n/a	n/a	n/a	223.841	BM35HAS.jpg
195.096	0.514	Blank	Blank	32.383	n/a	2	6	3	n/a	103	n/a	2	n/a	n/a	n/a	n/a	224.338	n/a
195.627	0.497	happy	Picture	31.869	n/a	2	6	4	n/a	104	75	2	n/a	n/a	n/a	n/a	224.869	AM23HAS.jpg
196.124	0.514	Blank	Blank	31.355	n/a	2	6	4	n/a	104	n/a	2	n/a	n/a	n/a	n/a	225.366	n/a
196.655	0.497	happy	Picture	30.841	n/a	2	6	5	n/a	105	49	2	n/a	n/a	n/a	n/a	225.897	AF17HAS.jpg
197.152	0.514	Blank	Blank	30.328	n/a	2	6	5	n/a	105	n/a	2	n/a	n/a	n/a	n/a	226.394	n/a
197.683	0.497	happy	Picture	29.814	n/a	2	6	6	n/a	106	43	2	n/a	n/a	n/a	n/a	226.925	BF04HAS.jpg
198.18	0.514	Blank	Blank	29.3	n/a	2	6	6	n/a	106	n/a	2	n/a	n/a	n/a	n/a	227.422	n/a
198.711	0.497	happy	Picture	28.786	n/a	2	6	7	n/a	107	70	2	n/a	n/a	n/a	n/a	227.952	BM11HAS.jpg
199.208	0.514	Blank	Blank	28.272	n/a	2	6	7	n/a	107	n/a	2	n/a	n/a	n/a	n/a	228.45	n/a
199.738	0.497	happy	Picture	27.758	n/a	2	6	8	n/a	108	66	2	n/a	n/a	n/a	n/a	228.98	BM07HAS.jpg
200.236	0.514	Blank	Blank	27.244	n/a	2	6	8	n/a	108	n/a	2	n/a	n/a	n/a	n/a	229.478	n/a
200.766	0.497	happy	Picture	26.73	n/a	2	6	9	n/a	109	48	2	n/a	n/a	n/a	n/a	230.008	AF14HAS.jpg
201.264	0.514	Blank	Blank	26.216	n/a	2	6	9	n/a	109	n/a	2	n/a	n/a	n/a	n/a	230.506	n/a
201.794	0.497	happy	Picture	25.702	n/a	2	6	10	n/a	110	58	2	n/a	n/a	n/a	n/a	231.036	BF29HAS.jpg
202.292	0.514	Blank	Blank	25.188	n/a	2	6	10	n/a	110	n/a	2	n/a	n/a	n/a	n/a	231.534	n/a
202.822	0.497	happy	Picture	24.674	n/a	2	6	11	n/a	111	63	2	n/a	n/a	n/a	n/a	232.064	AM04HAS.jpg
203.32	0.514	Blank	Blank	24.16	n/a	2	6	11	n/a	111	n/a	2	n/a	n/a	n/a	n/a	232.561	n/a
203.85	0.497	happy	Picture	23.646	n/a	2	6	12	n/a	112	72	2	n/a	n/a	n/a	n/a	233.092	AM14HAS.jpg
204.347	0.514	Blank	Blank	23.132	n/a	2	6	12	n/a	112	n/a	2	n/a	n/a	n/a	n/a	233.589	n/a
204.878	0.497	happy	Picture	22.618	n/a	2	6	13	n/a	113	55	2	n/a	n/a	n/a	n/a	234.12	AF25HAS.jpg
205.375	0.514	Blank	Blank	22.104	n/a	2	6	13	n/a	113	n/a	2	n/a	n/a	n/a	n/a	234.617	n/a
205.906	0.497	happy	Picture	21.591	n/a	2	6	14	n/a	114	42	2	n/a	n/a	n/a	n/a	235.148	AF03HAS.jpg
206.403	0.514	Blank	Blank	21.077	n/a	2	6	14	n/a	114	n/a	2	n/a	n/a	n/a	n/a	235.645	n/a
206.934	0.497	happy	Picture	20.563	n/a	2	6	15	n/a	115	60	2	n/a	n/a	n/a	n/a	236.175	AF32HAS.jpg
207.431	0.514	Blank	Blank	20.049	n/a	2	6	15	n/a	115	n/a	2	n/a	n/a	n/a	n/a	236.673	n/a
207.962	0.497	happy	Picture	19.535	n/a	2	6	16	n/a	116	67	2	n/a	n/a	n/a	n/a	237.203	BM08HAS.jpg
208.459	0.514	Blank	Blank	19.021	n/a	2	6	16	n/a	116	n/a	2	n/a	n/a	n/a	n/a	237.701	n/a
208.989	0.497	happy	Picture	18.507	n/a	2	6	17	n/a	117	51	2	n/a	n/a	n/a	n/a	238.231	AF20HAS.jpg
209.487	0.514	Blank	Blank	17.993	n/a	2	6	17	n/a	117	n/a	2	n/a	n/a	n/a	n/a	238.729	n/a
210.017	0.497	happy	Picture	17.479	n/a	2	6	18	n/a	118	71	2	n/a	n/a	n/a	n/a	239.259	BM12HAS.jpg
210.515	0.514	Blank	Blank	16.965	n/a	2	6	18	n/a	118	n/a	2	n/a	n/a	n/a	n/a	239.756	n/a
211.045	0.497	happy	Picture	16.451	n/a	2	6	19	n/a	119	69	2	n/a	n/a	n/a	n/a	240.287	AM10HAS.jpg
211.543	0.514	Blank	Blank	15.937	n/a	2	6	19	n/a	119	n/a	2	n/a	n/a	n/a	n/a	240.784	n/a
212.073	0.497	happy	Picture	15.423	n/a	2	6	20	n/a	120	46	2	n/a	n/a	n/a	n/a	241.315	AF09HAS.jpg
212.57	0.514	Blank	Blank	14.909	n/a	2	6	20	n/a	120	n/a	2	n/a	n/a	n/a	n/a	241.812	n/a
213.101	10.014	ITI	Fixation+	4.879	n/a	2	n/a	n/a	n/a	n/a	n/a	n/a	n/a	n/a	n/a	n/a	242.343	n/a
227.994	n/a	ConfirmRating	Rate	n/a	4.874	2	n/a	n/a	0	n/a	n/a	n/a	2	Happy	78	51	257.236	n/a
231.556	n/a	ConfirmRating	Rate	n/a	3.548	2	n/a	n/a	1	n/a	n/a	n/a	3	Happy	77	51	260.798	n/a
231.586	15.004	Rest	Picture	n/a	n/a	n/a	n/a	n/a	n/a	n/a	n/a	n/a	0	n/a	0	0	260.828	n/a
246.607	10.014	ITI	Fixation+	97.97	n/a	3	n/a	n/a	n/a	n/a	n/a	n/a	n/a	n/a	n/a	n/a	275.849	n/a
256.637	0.497	angry	Picture	97.456	n/a	3	7	1	n/a	1	108	3	n/a	n/a	n/a	n/a	285.879	AM09ANS.jpg
257.134	0.514	Blank	Blank	96.942	n/a	3	7	1	n/a	1	n/a	3	n/a	n/a	n/a	n/a	286.376	n/a
257.665	0.497	angry	Picture	96.428	n/a	3	7	2	n/a	2	99	3	n/a	n/a	n/a	n/a	286.906	AF31ANS.jpg
258.162	0.514	Blank	Blank	95.914	n/a	3	7	2	n/a	2	n/a	3	n/a	n/a	n/a	n/a	287.404	n/a
258.692	0.497	angry	Picture	95.401	n/a	3	7	3	n/a	3	98	3	n/a	n/a	n/a	n/a	287.934	BF29ANS.jpg
259.19	0.514	Blank	Blank	94.887	n/a	3	7	3	n/a	3	n/a	3	n/a	n/a	n/a	n/a	288.432	n/a
259.72	0.497	angry	Picture	94.373	n/a	3	7	4	n/a	4	107	3	n/a	n/a	n/a	n/a	288.962	BM08ANS.jpg
260.218	0.514	Blank	Blank	93.859	n/a	3	7	4	n/a	4	n/a	3	n/a	n/a	n/a	n/a	289.46	n/a
260.748	0.497	angry	Picture	93.345	n/a	3	7	5	n/a	5	104	3	n/a	n/a	n/a	n/a	289.99	BM05ANS.jpg
261.246	0.514	Blank	Blank	92.831	n/a	3	7	5	n/a	5	n/a	3	n/a	n/a	n/a	n/a	290.488	n/a
261.776	0.497	angry	Picture	92.317	n/a	3	7	6	n/a	6	101	3	n/a	n/a	n/a	n/a	291.018	AM01ANS.jpg
262.274	0.514	Blank	Blank	91.803	n/a	3	7	6	n/a	6	n/a	3	n/a	n/a	n/a	n/a	291.515	n/a
262.804	0.497	angry	Picture	91.289	n/a	3	7	7	n/a	7	103	3	n/a	n/a	n/a	n/a	292.046	AM04ANS.jpg
263.301	0.514	Blank	Blank	90.775	n/a	3	7	7	n/a	7	n/a	3	n/a	n/a	n/a	n/a	292.543	n/a
263.832	0.497	angry	Picture	90.261	n/a	3	7	8	n/a	8	111	3	n/a	n/a	n/a	n/a	293.074	BM12ANS.jpg
264.329	0.514	Blank	Blank	89.747	n/a	3	7	8	n/a	8	n/a	3	n/a	n/a	n/a	n/a	293.571	n/a
264.86	0.497	angry	Picture	89.233	n/a	3	7	9	n/a	9	110	3	n/a	n/a	n/a	n/a	294.102	AM11ANS.jpg
265.357	0.514	Blank	Blank	88.719	n/a	3	7	9	n/a	9	n/a	3	n/a	n/a	n/a	n/a	294.599	n/a
265.888	0.497	angry	Picture	88.205	n/a	3	7	10	n/a	10	85	3	n/a	n/a	n/a	n/a	295.13	BF07ANS.jpg
266.385	0.514	Blank	Blank	87.691	n/a	3	7	10	n/a	10	n/a	3	n/a	n/a	n/a	n/a	295.627	n/a
266.916	0.497	angry	Picture	87.177	n/a	3	7	11	n/a	11	87	3	n/a	n/a	n/a	n/a	296.157	BF11ANS.jpg
267.413	0.514	Blank	Blank	86.663	n/a	3	7	11	n/a	11	n/a	3	n/a	n/a	n/a	n/a	296.655	n/a
267.943	0.497	angry	Picture	86.149	n/a	3	7	12	n/a	12	91	3	n/a	n/a	n/a	n/a	297.185	AF20ANS.jpg
268.441	0.514	Blank	Blank	85.636	n/a	3	7	12	n/a	12	n/a	3	n/a	n/a	n/a	n/a	297.683	n/a
268.971	0.497	angry	Picture	85.122	n/a	3	7	13	n/a	13	115	3	n/a	n/a	n/a	n/a	298.213	AM23ANS.jpg
269.469	0.514	Blank	Blank	84.608	n/a	3	7	13	n/a	13	n/a	3	n/a	n/a	n/a	n/a	298.711	n/a
269.999	0.497	angry	Picture	84.094	n/a	3	7	14	n/a	14	97	3	n/a	n/a	n/a	n/a	299.241	BF28ANS.jpg
270.497	0.514	Blank	Blank	83.58	n/a	3	7	14	n/a	14	n/a	3	n/a	n/a	n/a	n/a	299.738	n/a
271.027	0.497	angry	Picture	83.066	n/a	3	7	15	n/a	15	82	3	n/a	n/a	n/a	n/a	300.269	AF03ANS.jpg
271.524	0.514	Blank	Blank	82.552	n/a	3	7	15	n/a	15	n/a	3	n/a	n/a	n/a	n/a	300.766	n/a
272.055	0.497	angry	Picture	82.038	n/a	3	7	16	n/a	16	96	3	n/a	n/a	n/a	n/a	301.297	AF26ANS.jpg
272.552	0.514	Blank	Blank	81.524	n/a	3	7	16	n/a	16	n/a	3	n/a	n/a	n/a	n/a	301.794	n/a
273.083	0.497	angry	Picture	81.01	n/a	3	7	17	n/a	17	109	3	n/a	n/a	n/a	n/a	302.325	AM10ANS.jpg
273.58	0.514	Blank	Blank	80.496	n/a	3	7	17	n/a	17	n/a	3	n/a	n/a	n/a	n/a	302.822	n/a
274.111	0.497	angry	Picture	79.982	n/a	3	7	18	n/a	18	114	3	n/a	n/a	n/a	n/a	303.353	AM22ANS.jpg
274.608	0.514	Blank	Blank	79.468	n/a	3	7	18	n/a	18	n/a	3	n/a	n/a	n/a	n/a	303.85	n/a
275.139	0.497	angry	Picture	78.954	n/a	3	7	19	n/a	19	120	3	n/a	n/a	n/a	n/a	304.38	AM35ANS.jpg
275.636	0.514	Blank	Blank	78.44	n/a	3	7	19	n/a	19	n/a	3	n/a	n/a	n/a	n/a	304.878	n/a
276.166	0.497	angry	Picture	77.927	n/a	3	7	20	n/a	20	81	3	n/a	n/a	n/a	n/a	305.408	AF01ANS.jpg
276.664	0.514	Blank	Blank	77.412	n/a	3	7	20	n/a	20	n/a	3	n/a	n/a	n/a	n/a	305.906	n/a
277.194	10.014	ITI	Fixation+	67.382	n/a	3	n/a	n/a	n/a	n/a	n/a	n/a	n/a	n/a	n/a	n/a	306.436	n/a
287.225	0.497	neutral	Picture	66.868	n/a	3	8	1	n/a	21	28	1	n/a	n/a	n/a	n/a	316.466	AM09NES.jpg
287.722	0.514	Blank	Blank	66.355	n/a	3	8	1	n/a	21	n/a	1	n/a	n/a	n/a	n/a	316.964	n/a
288.252	0.497	neutral	Picture	65.84	n/a	3	8	2	n/a	22	27	1	n/a	n/a	n/a	n/a	317.494	BM08NES.jpg
288.75	0.514	Blank	Blank	65.327	n/a	3	8	2	n/a	22	n/a	1	n/a	n/a	n/a	n/a	317.992	n/a
289.28	0.497	neutral	Picture	64.813	n/a	3	8	3	n/a	23	16	1	n/a	n/a	n/a	n/a	318.522	AF26NES.jpg
289.778	0.514	Blank	Blank	64.299	n/a	3	8	3	n/a	23	n/a	1	n/a	n/a	n/a	n/a	319.019	n/a
290.308	0.497	neutral	Picture	63.785	n/a	3	8	4	n/a	24	3	1	n/a	n/a	n/a	n/a	319.55	BF04NES.jpg
290.805	0.514	Blank	Blank	63.271	n/a	3	8	4	n/a	24	n/a	1	n/a	n/a	n/a	n/a	320.047	n/a
291.336	0.497	neutral	Picture	62.757	n/a	3	8	5	n/a	25	32	1	n/a	n/a	n/a	n/a	320.578	AM14NES.jpg
291.833	0.514	Blank	Blank	62.243	n/a	3	8	5	n/a	25	n/a	1	n/a	n/a	n/a	n/a	321.075	n/a
292.364	0.497	neutral	Picture	61.729	n/a	3	8	6	n/a	26	37	1	n/a	n/a	n/a	n/a	321.606	BM25NES.jpg
292.861	0.514	Blank	Blank	61.215	n/a	3	8	6	n/a	26	n/a	1	n/a	n/a	n/a	n/a	322.103	n/a
293.392	0.497	neutral	Picture	60.701	n/a	3	8	7	n/a	27	15	1	n/a	n/a	n/a	n/a	322.634	AF25NES.jpg
293.889	0.514	Blank	Blank	60.187	n/a	3	8	7	n/a	27	n/a	1	n/a	n/a	n/a	n/a	323.131	n/a
294.42	0.497	neutral	Picture	59.673	n/a	3	8	8	n/a	28	23	1	n/a	n/a	n/a	n/a	323.662	AM04NES.jpg
294.917	0.514	Blank	Blank	59.159	n/a	3	8	8	n/a	28	n/a	1	n/a	n/a	n/a	n/a	324.159	n/a
295.448	0.497	neutral	Picture	58.645	n/a	3	8	9	n/a	29	34	1	n/a	n/a	n/a	n/a	324.69	AM22NES.jpg
295.945	0.514	Blank	Blank	58.131	n/a	3	8	9	n/a	29	n/a	1	n/a	n/a	n/a	n/a	325.187	n/a
296.476	0.497	neutral	Picture	57.618	n/a	3	8	10	n/a	30	24	1	n/a	n/a	n/a	n/a	325.717	BM05NES.jpg
296.973	0.514	Blank	Blank	57.103	n/a	3	8	10	n/a	30	n/a	1	n/a	n/a	n/a	n/a	326.215	n/a
297.503	0.497	neutral	Picture	56.59	n/a	3	8	11	n/a	31	12	1	n/a	n/a	n/a	n/a	326.745	AF21NES.jpg
298.001	0.514	Blank	Blank	56.076	n/a	3	8	11	n/a	31	n/a	1	n/a	n/a	n/a	n/a	327.243	n/a
298.531	0.497	neutral	Picture	55.562	n/a	3	8	12	n/a	32	6	1	n/a	n/a	n/a	n/a	327.773	AF09NES.jpg
299.029	0.514	Blank	Blank	55.048	n/a	3	8	12	n/a	32	n/a	1	n/a	n/a	n/a	n/a	328.271	n/a
299.559	0.497	neutral	Picture	54.534	n/a	3	8	13	n/a	33	17	1	n/a	n/a	n/a	n/a	328.801	BF28NES.jpg
300.057	0.514	Blank	Blank	54.02	n/a	3	8	13	n/a	33	n/a	1	n/a	n/a	n/a	n/a	329.298	n/a
300.587	0.497	neutral	Picture	53.506	n/a	3	8	14	n/a	34	2	1	n/a	n/a	n/a	n/a	329.829	AF03NES.jpg
301.084	0.514	Blank	Blank	52.992	n/a	3	8	14	n/a	34	n/a	1	n/a	n/a	n/a	n/a	330.326	n/a
301.615	0.497	neutral	Picture	52.478	n/a	3	8	15	n/a	35	9	1	n/a	n/a	n/a	n/a	330.857	AF17NES.jpg
302.112	0.514	Blank	Blank	51.964	n/a	3	8	15	n/a	35	n/a	1	n/a	n/a	n/a	n/a	331.354	n/a
302.643	0.497	neutral	Picture	51.45	n/a	3	8	16	n/a	36	25	1	n/a	n/a	n/a	n/a	331.885	BM06NES.jpg
303.14	0.514	Blank	Blank	50.936	n/a	3	8	16	n/a	36	n/a	1	n/a	n/a	n/a	n/a	332.382	n/a
303.671	0.497	neutral	Picture	50.422	n/a	3	8	17	n/a	37	8	1	n/a	n/a	n/a	n/a	332.913	AF14NES.jpg
304.168	0.514	Blank	Blank	49.908	n/a	3	8	17	n/a	37	n/a	1	n/a	n/a	n/a	n/a	333.41	n/a
304.699	0.497	neutral	Picture	49.394	n/a	3	8	18	n/a	38	19	1	n/a	n/a	n/a	n/a	333.94	AF31NES.jpg
305.196	0.514	Blank	Blank	48.881	n/a	3	8	18	n/a	38	n/a	1	n/a	n/a	n/a	n/a	334.438	n/a
305.726	0.497	neutral	Picture	48.366	n/a	3	8	19	n/a	39	14	1	n/a	n/a	n/a	n/a	334.968	AF23NES.jpg
306.224	0.514	Blank	Blank	47.853	n/a	3	8	19	n/a	39	n/a	1	n/a	n/a	n/a	n/a	335.466	n/a
306.754	0.497	neutral	Picture	47.339	n/a	3	8	20	n/a	40	4	1	n/a	n/a	n/a	n/a	335.996	AF05NES.jpg
307.252	0.514	Blank	Blank	46.825	n/a	3	8	20	n/a	40	n/a	1	n/a	n/a	n/a	n/a	336.493	n/a
307.782	10.014	ITI	Fixation+	36.795	n/a	3	n/a	n/a	n/a	n/a	n/a	n/a	n/a	n/a	n/a	n/a	337.024	n/a
317.812	0.497	angry	Picture	36.281	n/a	3	9	1	n/a	41	84	3	n/a	n/a	n/a	n/a	347.054	AF05ANS.jpg
318.31	0.514	Blank	Blank	35.767	n/a	3	9	1	n/a	41	n/a	3	n/a	n/a	n/a	n/a	347.552	n/a
318.84	0.497	angry	Picture	35.253	n/a	3	9	2	n/a	42	92	3	n/a	n/a	n/a	n/a	348.082	AF21ANS.jpg
319.338	0.514	Blank	Blank	34.739	n/a	3	9	2	n/a	42	n/a	3	n/a	n/a	n/a	n/a	348.579	n/a
319.868	0.497	angry	Picture	34.225	n/a	3	9	3	n/a	43	86	3	n/a	n/a	n/a	n/a	349.11	AF09ANS.jpg
320.365	0.514	Blank	Blank	33.711	n/a	3	9	3	n/a	43	n/a	3	n/a	n/a	n/a	n/a	349.607	n/a
320.896	0.497	angry	Picture	33.197	n/a	3	9	4	n/a	44	93	3	n/a	n/a	n/a	n/a	350.138	BF22ANS.jpg
321.393	0.514	Blank	Blank	32.683	n/a	3	9	4	n/a	44	n/a	3	n/a	n/a	n/a	n/a	350.635	n/a
321.924	0.497	angry	Picture	32.169	n/a	3	9	5	n/a	45	88	3	n/a	n/a	n/a	n/a	351.166	AF14ANS.jpg
322.421	0.514	Blank	Blank	31.655	n/a	3	9	5	n/a	45	n/a	3	n/a	n/a	n/a	n/a	351.663	n/a
322.952	0.497	angry	Picture	31.141	n/a	3	9	6	n/a	46	113	3	n/a	n/a	n/a	n/a	352.194	AM21ANS.jpg
323.449	0.514	Blank	Blank	30.627	n/a	3	9	6	n/a	46	n/a	3	n/a	n/a	n/a	n/a	352.691	n/a
323.98	0.497	angry	Picture	30.113	n/a	3	9	7	n/a	47	95	3	n/a	n/a	n/a	n/a	353.221	AF25ANS.jpg
324.477	0.514	Blank	Blank	29.599	n/a	3	9	7	n/a	47	n/a	3	n/a	n/a	n/a	n/a	353.719	n/a
325.007	0.497	angry	Picture	29.086	n/a	3	9	8	n/a	48	102	3	n/a	n/a	n/a	n/a	354.249	BM03ANS.jpg
325.505	0.514	Blank	Blank	28.572	n/a	3	9	8	n/a	48	n/a	3	n/a	n/a	n/a	n/a	354.747	n/a
326.035	0.497	angry	Picture	28.058	n/a	3	9	9	n/a	49	112	3	n/a	n/a	n/a	n/a	355.277	AM14ANS.jpg
326.533	0.514	Blank	Blank	27.544	n/a	3	9	9	n/a	49	n/a	3	n/a	n/a	n/a	n/a	355.775	n/a
327.063	0.497	angry	Picture	27.03	n/a	3	9	10	n/a	50	83	3	n/a	n/a	n/a	n/a	356.305	BF04ANS.jpg
327.561	0.514	Blank	Blank	26.516	n/a	3	9	10	n/a	50	n/a	3	n/a	n/a	n/a	n/a	356.803	n/a
328.091	0.497	angry	Picture	26.002	n/a	3	9	11	n/a	51	90	3	n/a	n/a	n/a	n/a	357.333	AF18ANS.jpg
328.589	0.514	Blank	Blank	25.488	n/a	3	9	11	n/a	51	n/a	3	n/a	n/a	n/a	n/a	357.83	n/a
329.119	0.497	angry	Picture	24.974	n/a	3	9	12	n/a	52	117	3	n/a	n/a	n/a	n/a	358.361	BM25ANS.jpg
329.616	0.514	Blank	Blank	24.46	n/a	3	9	12	n/a	52	n/a	3	n/a	n/a	n/a	n/a	358.858	n/a
330.147	0.497	angry	Picture	23.946	n/a	3	9	13	n/a	53	94	3	n/a	n/a	n/a	n/a	359.389	AF23ANS.jpg
330.644	0.514	Blank	Blank	23.432	n/a	3	9	13	n/a	53	n/a	3	n/a	n/a	n/a	n/a	359.886	n/a
331.175	0.497	angry	Picture	22.918	n/a	3	9	14	n/a	54	106	3	n/a	n/a	n/a	n/a	360.417	AM07ANS.jpg
331.672	0.514	Blank	Blank	22.404	n/a	3	9	14	n/a	54	n/a	3	n/a	n/a	n/a	n/a	360.914	n/a
332.203	0.497	angry	Picture	21.89	n/a	3	9	15	n/a	55	105	3	n/a	n/a	n/a	n/a	361.445	BM06ANS.jpg
332.7	0.514	Blank	Blank	21.376	n/a	3	9	15	n/a	55	n/a	3	n/a	n/a	n/a	n/a	361.942	n/a
333.231	0.497	angry	Picture	20.862	n/a	3	9	16	n/a	56	116	3	n/a	n/a	n/a	n/a	362.472	BM24ANS.jpg
333.728	0.514	Blank	Blank	20.349	n/a	3	9	16	n/a	56	n/a	3	n/a	n/a	n/a	n/a	362.97	n/a
334.258	0.497	angry	Picture	19.834	n/a	3	9	17	n/a	57	89	3	n/a	n/a	n/a	n/a	363.5	AF17ANS.jpg
334.756	0.514	Blank	Blank	19.321	n/a	3	9	17	n/a	57	n/a	3	n/a	n/a	n/a	n/a	363.998	n/a
335.286	0.497	angry	Picture	18.807	n/a	3	9	18	n/a	58	118	3	n/a	n/a	n/a	n/a	364.528	BM26ANS.jpg
335.784	0.514	Blank	Blank	18.293	n/a	3	9	18	n/a	58	n/a	3	n/a	n/a	n/a	n/a	365.026	n/a
336.314	0.497	angry	Picture	17.779	n/a	3	9	19	n/a	59	100	3	n/a	n/a	n/a	n/a	365.556	AF32ANS.jpg
336.812	0.514	Blank	Blank	17.265	n/a	3	9	19	n/a	59	n/a	3	n/a	n/a	n/a	n/a	366.053	n/a
337.342	0.497	angry	Picture	16.751	n/a	3	9	20	n/a	60	119	3	n/a	n/a	n/a	n/a	366.584	BM28ANS.jpg
337.839	0.514	Blank	Blank	16.237	n/a	3	9	20	n/a	60	n/a	3	n/a	n/a	n/a	n/a	367.081	n/a
338.37	10.014	ITI	Fixation+	6.207	n/a	3	n/a	n/a	n/a	n/a	n/a	n/a	n/a	n/a	n/a	n/a	367.612	n/a
354.59	n/a	ConfirmRating	Rate	n/a	6.2	3	n/a	n/a	0	n/a	n/a	n/a	2	Angry	25	49	383.832	n/a
358.198	n/a	ConfirmRating	Rate	n/a	3.597	3	n/a	n/a	1	n/a	n/a	n/a	3	Angry	35	49	387.44	n/a
358.231	10.014	ITI	Fixation+	96.945	n/a	4	n/a	n/a	n/a	n/a	n/a	n/a	n/a	n/a	n/a	n/a	387.473	n/a
368.261	0.497	happy	Picture	96.431	n/a	4	10	1	n/a	61	79	2	n/a	n/a	n/a	n/a	397.503	BM28HAS.jpg
368.759	0.514	Blank	Blank	95.918	n/a	4	10	1	n/a	61	n/a	2	n/a	n/a	n/a	n/a	398.001	n/a
369.289	0.497	happy	Picture	95.404	n/a	4	10	2	n/a	62	61	2	n/a	n/a	n/a	n/a	398.531	AM01HAS.jpg
369.787	0.514	Blank	Blank	94.89	n/a	4	10	2	n/a	62	n/a	2	n/a	n/a	n/a	n/a	399.029	n/a
370.317	0.497	happy	Picture	94.376	n/a	4	10	3	n/a	63	57	2	n/a	n/a	n/a	n/a	399.559	BF28HAS.jpg
370.815	0.514	Blank	Blank	93.862	n/a	4	10	3	n/a	63	n/a	2	n/a	n/a	n/a	n/a	400.057	n/a
371.345	0.497	happy	Picture	93.348	n/a	4	10	4	n/a	64	77	2	n/a	n/a	n/a	n/a	400.587	BM25HAS.jpg
371.842	0.514	Blank	Blank	92.834	n/a	4	10	4	n/a	64	n/a	2	n/a	n/a	n/a	n/a	401.084	n/a
372.373	0.497	happy	Picture	92.32	n/a	4	10	5	n/a	65	47	2	n/a	n/a	n/a	n/a	401.615	BF11HAS.jpg
372.87	0.514	Blank	Blank	91.806	n/a	4	10	5	n/a	65	n/a	2	n/a	n/a	n/a	n/a	402.112	n/a
373.401	0.497	happy	Picture	91.292	n/a	4	10	6	n/a	66	50	2	n/a	n/a	n/a	n/a	402.643	AF18HAS.jpg
373.898	0.514	Blank	Blank	90.778	n/a	4	10	6	n/a	66	n/a	2	n/a	n/a	n/a	n/a	403.14	n/a
374.429	0.497	happy	Picture	90.264	n/a	4	10	7	n/a	67	78	2	n/a	n/a	n/a	n/a	403.671	BM26HAS.jpg
374.926	0.514	Blank	Blank	89.75	n/a	4	10	7	n/a	67	n/a	2	n/a	n/a	n/a	n/a	404.168	n/a
375.457	0.497	happy	Picture	89.236	n/a	4	10	8	n/a	68	45	2	n/a	n/a	n/a	n/a	404.699	BF07HAS.jpg
375.954	0.514	Blank	Blank	88.722	n/a	4	10	8	n/a	68	n/a	2	n/a	n/a	n/a	n/a	405.196	n/a
376.485	0.497	happy	Picture	88.208	n/a	4	10	9	n/a	69	56	2	n/a	n/a	n/a	n/a	405.726	AF26HAS.jpg
376.982	0.514	Blank	Blank	87.695	n/a	4	10	9	n/a	69	n/a	2	n/a	n/a	n/a	n/a	406.224	n/a
377.512	0.497	happy	Picture	87.181	n/a	4	10	10	n/a	70	65	2	n/a	n/a	n/a	n/a	406.754	BM06HAS.jpg
378.01	0.514	Blank	Blank	86.667	n/a	4	10	10	n/a	70	n/a	2	n/a	n/a	n/a	n/a	407.252	n/a
378.54	0.497	happy	Picture	86.153	n/a	4	10	11	n/a	71	73	2	n/a	n/a	n/a	n/a	407.782	AM21HAS.jpg
379.038	0.514	Blank	Blank	85.639	n/a	4	10	11	n/a	71	n/a	2	n/a	n/a	n/a	n/a	408.279	n/a
379.568	0.497	happy	Picture	85.125	n/a	4	10	12	n/a	72	41	2	n/a	n/a	n/a	n/a	408.81	AF01HAS.jpg
380.065	0.514	Blank	Blank	84.611	n/a	4	10	12	n/a	72	n/a	2	n/a	n/a	n/a	n/a	409.307	n/a
380.596	0.497	happy	Picture	84.097	n/a	4	10	13	n/a	73	59	2	n/a	n/a	n/a	n/a	409.838	AF31HAS.jpg
381.093	0.514	Blank	Blank	83.583	n/a	4	10	13	n/a	73	n/a	2	n/a	n/a	n/a	n/a	410.335	n/a
381.624	0.497	happy	Picture	83.069	n/a	4	10	14	n/a	74	64	2	n/a	n/a	n/a	n/a	410.866	BM05HAS.jpg
382.121	0.514	Blank	Blank	82.555	n/a	4	10	14	n/a	74	n/a	2	n/a	n/a	n/a	n/a	411.363	n/a
382.652	0.497	happy	Picture	82.041	n/a	4	10	15	n/a	75	68	2	n/a	n/a	n/a	n/a	411.894	AM09HAS.jpg
383.149	0.514	Blank	Blank	81.527	n/a	4	10	15	n/a	75	n/a	2	n/a	n/a	n/a	n/a	412.391	n/a
383.68	0.497	happy	Picture	81.013	n/a	4	10	16	n/a	76	54	2	n/a	n/a	n/a	n/a	412.922	AF23HAS.jpg
384.177	0.514	Blank	Blank	80.499	n/a	4	10	16	n/a	76	n/a	2	n/a	n/a	n/a	n/a	413.419	n/a
384.708	0.497	happy	Picture	79.985	n/a	4	10	17	n/a	77	53	2	n/a	n/a	n/a	n/a	413.95	BF22HAS.jpg
385.205	0.514	Blank	Blank	79.471	n/a	4	10	17	n/a	77	n/a	2	n/a	n/a	n/a	n/a	414.447	n/a
385.735	0.497	happy	Picture	78.957	n/a	4	10	18	n/a	78	44	2	n/a	n/a	n/a	n/a	414.977	AF05HAS.jpg
386.233	0.514	Blank	Blank	78.444	n/a	4	10	18	n/a	78	n/a	2	n/a	n/a	n/a	n/a	415.475	n/a
386.763	0.497	happy	Picture	77.93	n/a	4	10	19	n/a	79	52	2	n/a	n/a	n/a	n/a	416.005	AF21HAS.jpg
387.261	0.514	Blank	Blank	77.416	n/a	4	10	19	n/a	79	n/a	2	n/a	n/a	n/a	n/a	416.503	n/a
387.791	0.497	happy	Picture	76.902	n/a	4	10	20	n/a	80	62	2	n/a	n/a	n/a	n/a	417.033	BM03HAS.jpg
388.289	0.514	Blank	Blank	76.388	n/a	4	10	20	n/a	80	n/a	2	n/a	n/a	n/a	n/a	417.531	n/a
388.819	10.014	ITI	Fixation+	66.358	n/a	4	n/a	n/a	n/a	n/a	n/a	n/a	n/a	n/a	n/a	n/a	418.061	n/a
398.849	0.497	neutral	Picture	65.844	n/a	4	11	1	n/a	81	23	1	n/a	n/a	n/a	n/a	428.091	AM04NES.jpg
399.347	0.514	Blank	Blank	65.33	n/a	4	11	1	n/a	81	n/a	1	n/a	n/a	n/a	n/a	428.589	n/a
399.877	0.497	neutral	Picture	64.816	n/a	4	11	2	n/a	82	29	1	n/a	n/a	n/a	n/a	429.119	AM10NES.jpg
400.375	0.514	Blank	Blank	64.302	n/a	4	11	2	n/a	82	n/a	1	n/a	n/a	n/a	n/a	429.616	n/a
400.905	0.497	neutral	Picture	63.788	n/a	4	11	3	n/a	83	24	1	n/a	n/a	n/a	n/a	430.147	BM05NES.jpg
401.402	0.514	Blank	Blank	63.274	n/a	4	11	3	n/a	83	n/a	1	n/a	n/a	n/a	n/a	430.644	n/a
401.933	0.497	neutral	Picture	62.76	n/a	4	11	4	n/a	84	12	1	n/a	n/a	n/a	n/a	431.175	AF21NES.jpg
402.43	0.514	Blank	Blank	62.246	n/a	4	11	4	n/a	84	n/a	1	n/a	n/a	n/a	n/a	431.672	n/a
402.961	0.497	neutral	Picture	61.732	n/a	4	11	5	n/a	85	13	1	n/a	n/a	n/a	n/a	432.203	BF22NES.jpg
403.458	0.514	Blank	Blank	61.218	n/a	4	11	5	n/a	85	n/a	1	n/a	n/a	n/a	n/a	432.7	n/a
403.989	0.497	neutral	Picture	60.704	n/a	4	11	6	n/a	86	17	1	n/a	n/a	n/a	n/a	433.231	BF28NES.jpg
404.486	0.514	Blank	Blank	60.19	n/a	4	11	6	n/a	86	n/a	1	n/a	n/a	n/a	n/a	433.728	n/a
405.017	0.497	neutral	Picture	59.676	n/a	4	11	7	n/a	87	4	1	n/a	n/a	n/a	n/a	434.258	AF05NES.jpg
405.514	0.514	Blank	Blank	59.163	n/a	4	11	7	n/a	87	n/a	1	n/a	n/a	n/a	n/a	434.756	n/a
406.044	0.497	neutral	Picture	58.649	n/a	4	11	8	n/a	88	11	1	n/a	n/a	n/a	n/a	435.286	AF20NES.jpg
406.542	0.514	Blank	Blank	58.135	n/a	4	11	8	n/a	88	n/a	1	n/a	n/a	n/a	n/a	435.784	n/a
407.072	0.497	neutral	Picture	57.621	n/a	4	11	9	n/a	89	22	1	n/a	n/a	n/a	n/a	436.314	BM03NES.jpg
407.57	0.514	Blank	Blank	57.107	n/a	4	11	9	n/a	89	n/a	1	n/a	n/a	n/a	n/a	436.812	n/a
408.1	0.497	neutral	Picture	56.593	n/a	4	11	10	n/a	90	15	1	n/a	n/a	n/a	n/a	437.342	AF25NES.jpg
408.598	0.514	Blank	Blank	56.079	n/a	4	11	10	n/a	90	n/a	1	n/a	n/a	n/a	n/a	437.839	n/a
409.128	0.497	neutral	Picture	55.565	n/a	4	11	11	n/a	91	19	1	n/a	n/a	n/a	n/a	438.37	AF31NES.jpg
409.625	0.514	Blank	Blank	55.051	n/a	4	11	11	n/a	91	n/a	1	n/a	n/a	n/a	n/a	438.867	n/a
410.156	0.497	neutral	Picture	54.537	n/a	4	11	12	n/a	92	9	1	n/a	n/a	n/a	n/a	439.398	AF17NES.jpg
410.653	0.514	Blank	Blank	54.023	n/a	4	11	12	n/a	92	n/a	1	n/a	n/a	n/a	n/a	439.895	n/a
411.184	0.497	neutral	Picture	53.509	n/a	4	11	13	n/a	93	14	1	n/a	n/a	n/a	n/a	440.426	AF23NES.jpg
411.681	0.514	Blank	Blank	52.995	n/a	4	11	13	n/a	93	n/a	1	n/a	n/a	n/a	n/a	440.923	n/a
412.212	0.497	neutral	Picture	52.481	n/a	4	11	14	n/a	94	36	1	n/a	n/a	n/a	n/a	441.454	BM24NES.jpg
412.709	0.514	Blank	Blank	51.967	n/a	4	11	14	n/a	94	n/a	1	n/a	n/a	n/a	n/a	441.951	n/a
413.24	0.497	neutral	Picture	51.453	n/a	4	11	15	n/a	95	34	1	n/a	n/a	n/a	n/a	442.481	AM22NES.jpg
413.737	0.514	Blank	Blank	50.939	n/a	4	11	15	n/a	95	n/a	1	n/a	n/a	n/a	n/a	442.979	n/a
414.268	0.497	neutral	Picture	50.425	n/a	4	11	16	n/a	96	10	1	n/a	n/a	n/a	n/a	443.509	AF18NES.jpg
414.765	0.514	Blank	Blank	49.911	n/a	4	11	16	n/a	96	n/a	1	n/a	n/a	n/a	n/a	444.007	n/a
415.295	0.497	neutral	Picture	49.398	n/a	4	11	17	n/a	97	5	1	n/a	n/a	n/a	n/a	444.537	BF07NES.jpg
415.793	0.514	Blank	Blank	48.884	n/a	4	11	17	n/a	97	n/a	1	n/a	n/a	n/a	n/a	445.035	n/a
416.323	0.497	neutral	Picture	48.37	n/a	4	11	18	n/a	98	25	1	n/a	n/a	n/a	n/a	445.565	BM06NES.jpg
416.821	0.514	Blank	Blank	47.856	n/a	4	11	18	n/a	98	n/a	1	n/a	n/a	n/a	n/a	446.063	n/a
417.351	0.497	neutral	Picture	47.342	n/a	4	11	19	n/a	99	39	1	n/a	n/a	n/a	n/a	446.593	AM28NES.jpg
417.849	0.514	Blank	Blank	46.828	n/a	4	11	19	n/a	99	n/a	1	n/a	n/a	n/a	n/a	447.09	n/a
418.379	0.497	neutral	Picture	46.314	n/a	4	11	20	n/a	100	33	1	n/a	n/a	n/a	n/a	447.621	AM21NES.jpg
418.876	0.514	Blank	Blank	45.8	n/a	4	11	20	n/a	100	n/a	1	n/a	n/a	n/a	n/a	448.118	n/a
419.407	10.014	ITI	Fixation+	35.77	n/a	4	n/a	n/a	n/a	n/a	n/a	n/a	n/a	n/a	n/a	n/a	448.649	n/a
429.437	0.497	happy	Picture	35.256	n/a	4	12	1	n/a	101	74	2	n/a	n/a	n/a	n/a	458.679	AM22HAS.jpg
429.934	0.514	Blank	Blank	34.742	n/a	4	12	1	n/a	101	n/a	2	n/a	n/a	n/a	n/a	459.176	n/a
430.465	0.497	happy	Picture	34.228	n/a	4	12	2	n/a	102	76	2	n/a	n/a	n/a	n/a	459.707	BM24HAS.jpg
430.962	0.514	Blank	Blank	33.714	n/a	4	12	2	n/a	102	n/a	2	n/a	n/a	n/a	n/a	460.204	n/a
431.493	0.497	happy	Picture	33.2	n/a	4	12	3	n/a	103	80	2	n/a	n/a	n/a	n/a	460.735	BM35HAS.jpg
431.99	0.514	Blank	Blank	32.686	n/a	4	12	3	n/a	103	n/a	2	n/a	n/a	n/a	n/a	461.232	n/a
432.521	0.497	happy	Picture	32.172	n/a	4	12	4	n/a	104	75	2	n/a	n/a	n/a	n/a	461.763	AM23HAS.jpg
433.018	0.514	Blank	Blank	31.658	n/a	4	12	4	n/a	104	n/a	2	n/a	n/a	n/a	n/a	462.26	n/a
433.549	0.497	happy	Picture	31.144	n/a	4	12	5	n/a	105	49	2	n/a	n/a	n/a	n/a	462.791	AF17HAS.jpg
434.046	0.514	Blank	Blank	30.63	n/a	4	12	5	n/a	105	n/a	2	n/a	n/a	n/a	n/a	463.288	n/a
434.576	0.497	happy	Picture	30.116	n/a	4	12	6	n/a	106	43	2	n/a	n/a	n/a	n/a	463.818	BF04HAS.jpg
435.074	0.514	Blank	Blank	29.603	n/a	4	12	6	n/a	106	n/a	2	n/a	n/a	n/a	n/a	464.316	n/a
435.604	0.497	happy	Picture	29.089	n/a	4	12	7	n/a	107	70	2	n/a	n/a	n/a	n/a	464.846	BM11HAS.jpg
436.102	0.514	Blank	Blank	28.575	n/a	4	12	7	n/a	107	n/a	2	n/a	n/a	n/a	n/a	465.344	n/a
436.632	0.497	happy	Picture	28.061	n/a	4	12	8	n/a	108	66	2	n/a	n/a	n/a	n/a	465.874	BM07HAS.jpg
437.13	0.514	Blank	Blank	27.547	n/a	4	12	8	n/a	108	n/a	2	n/a	n/a	n/a	n/a	466.372	n/a
437.66	0.497	happy	Picture	27.033	n/a	4	12	9	n/a	109	48	2	n/a	n/a	n/a	n/a	466.902	AF14HAS.jpg
438.157	0.514	Blank	Blank	26.519	n/a	4	12	9	n/a	109	n/a	2	n/a	n/a	n/a	n/a	467.399	n/a
438.688	0.497	happy	Picture	26.005	n/a	4	12	10	n/a	110	58	2	n/a	n/a	n/a	n/a	467.93	BF29HAS.jpg
439.185	0.514	Blank	Blank	25.491	n/a	4	12	10	n/a	110	n/a	2	n/a	n/a	n/a	n/a	468.427	n/a
439.716	0.497	happy	Picture	24.977	n/a	4	12	11	n/a	111	63	2	n/a	n/a	n/a	n/a	468.958	AM04HAS.jpg
440.213	0.514	Blank	Blank	24.463	n/a	4	12	11	n/a	111	n/a	2	n/a	n/a	n/a	n/a	469.455	n/a
440.744	0.497	happy	Picture	23.949	n/a	4	12	12	n/a	112	72	2	n/a	n/a	n/a	n/a	469.986	AM14HAS.jpg
441.241	0.514	Blank	Blank	23.435	n/a	4	12	12	n/a	112	n/a	2	n/a	n/a	n/a	n/a	470.483	n/a
441.772	0.497	happy	Picture	22.921	n/a	4	12	13	n/a	113	55	2	n/a	n/a	n/a	n/a	471.014	AF25HAS.jpg
442.269	0.514	Blank	Blank	22.407	n/a	4	12	13	n/a	113	n/a	2	n/a	n/a	n/a	n/a	471.511	n/a
442.8	0.497	happy	Picture	21.893	n/a	4	12	14	n/a	114	42	2	n/a	n/a	n/a	n/a	472.041	AF03HAS.jpg
443.297	0.514	Blank	Blank	21.38	n/a	4	12	14	n/a	114	n/a	2	n/a	n/a	n/a	n/a	472.539	n/a
443.827	0.497	happy	Picture	20.866	n/a	4	12	15	n/a	115	60	2	n/a	n/a	n/a	n/a	473.069	AF32HAS.jpg
444.325	0.514	Blank	Blank	20.352	n/a	4	12	15	n/a	115	n/a	2	n/a	n/a	n/a	n/a	473.567	n/a
444.855	0.497	happy	Picture	19.838	n/a	4	12	16	n/a	116	67	2	n/a	n/a	n/a	n/a	474.097	BM08HAS.jpg
445.353	0.514	Blank	Blank	19.324	n/a	4	12	16	n/a	116	n/a	2	n/a	n/a	n/a	n/a	474.594	n/a
445.883	0.497	happy	Picture	18.81	n/a	4	12	17	n/a	117	51	2	n/a	n/a	n/a	n/a	475.125	AF20HAS.jpg
446.381	0.514	Blank	Blank	18.296	n/a	4	12	17	n/a	117	n/a	2	n/a	n/a	n/a	n/a	475.622	n/a
446.911	0.497	happy	Picture	17.782	n/a	4	12	18	n/a	118	71	2	n/a	n/a	n/a	n/a	476.153	BM12HAS.jpg
447.408	0.514	Blank	Blank	17.268	n/a	4	12	18	n/a	118	n/a	2	n/a	n/a	n/a	n/a	476.65	n/a
447.939	0.497	happy	Picture	16.754	n/a	4	12	19	n/a	119	69	2	n/a	n/a	n/a	n/a	477.181	AM10HAS.jpg
448.436	0.514	Blank	Blank	16.24	n/a	4	12	19	n/a	119	n/a	2	n/a	n/a	n/a	n/a	477.678	n/a
448.967	0.497	happy	Picture	15.726	n/a	4	12	20	n/a	120	46	2	n/a	n/a	n/a	n/a	478.209	AF09HAS.jpg
449.464	0.514	Blank	Blank	15.212	n/a	4	12	20	n/a	120	n/a	2	n/a	n/a	n/a	n/a	478.706	n/a
449.995	10.014	ITI	Fixation+	5.182	n/a	4	n/a	n/a	n/a	n/a	n/a	n/a	n/a	n/a	n/a	n/a	479.237	n/a
465.19	n/a	ConfirmRating	Rate	n/a	5.173	4	n/a	n/a	0	n/a	n/a	n/a	2	Happy	61	51	494.432	n/a
467.801	n/a	ConfirmRating	Rate	n/a	2.603	4	n/a	n/a	1	n/a	n/a	n/a	3	Happy	60	51	497.043	n/a
