onset	duration	trial_type	event_type	time_until_response	response_time	trial_number	block_num_within_trial	image_seq_num_within_block	question_seq_num_within_block	image_seq_num	picture_number	condition	question_type	block_type	rating	rating_computed	onset_uncorrected	KDEV_imagefile
0.018	10.014	ITI	Fixation+	99.532	n/a	1	n/a	n/a	n/a	n/a	n/a	n/a	n/a	n/a	n/a	n/a	31.677	n/a
10.048	0.497	angry	Picture	99.018	n/a	1	1	1	n/a	1	46	2	n/a	n/a	n/a	n/a	41.707	AF09HAS.jpg
10.546	0.514	Blank	Blank	98.504	n/a	1	1	1	n/a	1	n/a	2	n/a	n/a	n/a	n/a	42.204	n/a
11.076	0.497	angry	Picture	97.99	n/a	1	1	2	n/a	2	69	2	n/a	n/a	n/a	n/a	42.735	AM10HAS.jpg
11.573	0.514	Blank	Blank	97.476	n/a	1	1	2	n/a	2	n/a	2	n/a	n/a	n/a	n/a	43.232	n/a
12.104	0.497	angry	Picture	96.962	n/a	1	1	3	n/a	3	71	2	n/a	n/a	n/a	n/a	43.763	BM12HAS.jpg
12.601	0.514	Blank	Blank	96.448	n/a	1	1	3	n/a	3	n/a	2	n/a	n/a	n/a	n/a	44.26	n/a
13.132	0.497	angry	Picture	95.934	n/a	1	1	4	n/a	4	51	2	n/a	n/a	n/a	n/a	44.79	AF20HAS.jpg
13.629	0.514	Blank	Blank	95.42	n/a	1	1	4	n/a	4	n/a	2	n/a	n/a	n/a	n/a	45.288	n/a
14.16	0.497	angry	Picture	94.906	n/a	1	1	5	n/a	5	67	2	n/a	n/a	n/a	n/a	45.818	BM08HAS.jpg
14.657	0.514	Blank	Blank	94.392	n/a	1	1	5	n/a	5	n/a	2	n/a	n/a	n/a	n/a	46.316	n/a
15.188	0.497	angry	Picture	93.878	n/a	1	1	6	n/a	6	60	2	n/a	n/a	n/a	n/a	46.846	AF32HAS.jpg
15.685	0.514	Blank	Blank	93.364	n/a	1	1	6	n/a	6	n/a	2	n/a	n/a	n/a	n/a	47.343	n/a
16.216	0.497	angry	Picture	92.85	n/a	1	1	7	n/a	7	42	2	n/a	n/a	n/a	n/a	47.874	AF03HAS.jpg
16.713	0.514	Blank	Blank	92.336	n/a	1	1	7	n/a	7	n/a	2	n/a	n/a	n/a	n/a	48.371	n/a
17.244	0.497	angry	Picture	91.822	n/a	1	1	8	n/a	8	55	2	n/a	n/a	n/a	n/a	48.902	AF25HAS.jpg
17.741	0.514	Blank	Blank	91.309	n/a	1	1	8	n/a	8	n/a	2	n/a	n/a	n/a	n/a	49.399	n/a
18.271	0.497	angry	Picture	90.795	n/a	1	1	9	n/a	9	72	2	n/a	n/a	n/a	n/a	49.93	AM14HAS.jpg
18.769	0.514	Blank	Blank	90.281	n/a	1	1	9	n/a	9	n/a	2	n/a	n/a	n/a	n/a	50.427	n/a
19.299	0.497	angry	Picture	89.767	n/a	1	1	10	n/a	10	63	2	n/a	n/a	n/a	n/a	50.958	AM04HAS.jpg
19.797	0.514	Blank	Blank	89.253	n/a	1	1	10	n/a	10	n/a	2	n/a	n/a	n/a	n/a	51.455	n/a
20.327	0.497	angry	Picture	88.739	n/a	1	1	11	n/a	11	58	2	n/a	n/a	n/a	n/a	51.986	BF29HAS.jpg
20.824	0.514	Blank	Blank	88.225	n/a	1	1	11	n/a	11	n/a	2	n/a	n/a	n/a	n/a	52.483	n/a
21.355	0.497	angry	Picture	87.711	n/a	1	1	12	n/a	12	48	2	n/a	n/a	n/a	n/a	53.014	AF14HAS.jpg
21.852	0.514	Blank	Blank	87.197	n/a	1	1	12	n/a	12	n/a	2	n/a	n/a	n/a	n/a	53.511	n/a
22.383	0.497	angry	Picture	86.683	n/a	1	1	13	n/a	13	66	2	n/a	n/a	n/a	n/a	54.041	BM07HAS.jpg
22.88	0.514	Blank	Blank	86.169	n/a	1	1	13	n/a	13	n/a	2	n/a	n/a	n/a	n/a	54.539	n/a
23.411	0.497	angry	Picture	85.655	n/a	1	1	14	n/a	14	70	2	n/a	n/a	n/a	n/a	55.069	BM11HAS.jpg
23.908	0.514	Blank	Blank	85.141	n/a	1	1	14	n/a	14	n/a	2	n/a	n/a	n/a	n/a	55.567	n/a
24.439	0.497	angry	Picture	84.627	n/a	1	1	15	n/a	15	43	2	n/a	n/a	n/a	n/a	56.097	BF04HAS.jpg
24.936	0.514	Blank	Blank	84.113	n/a	1	1	15	n/a	15	n/a	2	n/a	n/a	n/a	n/a	56.594	n/a
25.466	0.497	angry	Picture	83.599	n/a	1	1	16	n/a	16	49	2	n/a	n/a	n/a	n/a	57.125	AF17HAS.jpg
25.964	0.514	Blank	Blank	83.085	n/a	1	1	16	n/a	16	n/a	2	n/a	n/a	n/a	n/a	57.622	n/a
26.494	0.497	angry	Picture	82.572	n/a	1	1	17	n/a	17	75	2	n/a	n/a	n/a	n/a	58.153	AM23HAS.jpg
26.992	0.514	Blank	Blank	82.058	n/a	1	1	17	n/a	17	n/a	2	n/a	n/a	n/a	n/a	58.65	n/a
27.522	0.497	angry	Picture	81.544	n/a	1	1	18	n/a	18	80	2	n/a	n/a	n/a	n/a	59.181	BM35HAS.jpg
28.02	0.514	Blank	Blank	81.03	n/a	1	1	18	n/a	18	n/a	2	n/a	n/a	n/a	n/a	59.678	n/a
28.55	0.497	angry	Picture	80.516	n/a	1	1	19	n/a	19	76	2	n/a	n/a	n/a	n/a	60.209	BM24HAS.jpg
29.048	0.514	Blank	Blank	80.002	n/a	1	1	19	n/a	19	n/a	2	n/a	n/a	n/a	n/a	60.706	n/a
29.578	0.497	angry	Picture	79.488	n/a	1	1	20	n/a	20	74	2	n/a	n/a	n/a	n/a	61.236	AM22HAS.jpg
30.075	0.514	Blank	Blank	78.974	n/a	1	1	20	n/a	20	n/a	2	n/a	n/a	n/a	n/a	61.734	n/a
30.606	10.014	ITI	Fixation+	68.944	n/a	1	n/a	n/a	n/a	n/a	n/a	n/a	n/a	n/a	n/a	n/a	62.264	n/a
40.636	0.497	neutral	Picture	68.43	n/a	1	2	1	n/a	21	33	1	n/a	n/a	n/a	n/a	72.295	AM21NES.jpg
41.133	0.514	Blank	Blank	67.916	n/a	1	2	1	n/a	21	n/a	1	n/a	n/a	n/a	n/a	72.792	n/a
41.664	0.497	neutral	Picture	67.402	n/a	1	2	2	n/a	22	39	1	n/a	n/a	n/a	n/a	73.322	AM28NES.jpg
42.161	0.514	Blank	Blank	66.888	n/a	1	2	2	n/a	22	n/a	1	n/a	n/a	n/a	n/a	73.82	n/a
42.692	0.497	neutral	Picture	66.374	n/a	1	2	3	n/a	23	25	1	n/a	n/a	n/a	n/a	74.35	BM06NES.jpg
43.189	0.514	Blank	Blank	65.86	n/a	1	2	3	n/a	23	n/a	1	n/a	n/a	n/a	n/a	74.848	n/a
43.72	0.497	neutral	Picture	65.346	n/a	1	2	4	n/a	24	5	1	n/a	n/a	n/a	n/a	75.378	BF07NES.jpg
44.217	0.514	Blank	Blank	64.832	n/a	1	2	4	n/a	24	n/a	1	n/a	n/a	n/a	n/a	75.876	n/a
44.748	0.497	neutral	Picture	64.318	n/a	1	2	5	n/a	25	10	1	n/a	n/a	n/a	n/a	76.406	AF18NES.jpg
45.245	0.514	Blank	Blank	63.804	n/a	1	2	5	n/a	25	n/a	1	n/a	n/a	n/a	n/a	76.903	n/a
45.775	0.497	neutral	Picture	63.291	n/a	1	2	6	n/a	26	34	1	n/a	n/a	n/a	n/a	77.434	AM22NES.jpg
46.273	0.514	Blank	Blank	62.777	n/a	1	2	6	n/a	26	n/a	1	n/a	n/a	n/a	n/a	77.931	n/a
46.803	0.497	neutral	Picture	62.263	n/a	1	2	7	n/a	27	36	1	n/a	n/a	n/a	n/a	78.462	BM24NES.jpg
47.301	0.514	Blank	Blank	61.749	n/a	1	2	7	n/a	27	n/a	1	n/a	n/a	n/a	n/a	78.959	n/a
47.831	0.497	neutral	Picture	61.235	n/a	1	2	8	n/a	28	14	1	n/a	n/a	n/a	n/a	79.49	AF23NES.jpg
48.329	0.514	Blank	Blank	60.721	n/a	1	2	8	n/a	28	n/a	1	n/a	n/a	n/a	n/a	79.987	n/a
48.859	0.497	neutral	Picture	60.207	n/a	1	2	9	n/a	29	9	1	n/a	n/a	n/a	n/a	80.518	AF17NES.jpg
49.356	0.514	Blank	Blank	59.693	n/a	1	2	9	n/a	29	n/a	1	n/a	n/a	n/a	n/a	81.015	n/a
49.887	0.497	neutral	Picture	59.179	n/a	1	2	10	n/a	30	19	1	n/a	n/a	n/a	n/a	81.546	AF31NES.jpg
50.384	0.514	Blank	Blank	58.665	n/a	1	2	10	n/a	30	n/a	1	n/a	n/a	n/a	n/a	82.043	n/a
50.915	0.497	neutral	Picture	58.151	n/a	1	2	11	n/a	31	15	1	n/a	n/a	n/a	n/a	82.573	AF25NES.jpg
51.412	0.514	Blank	Blank	57.637	n/a	1	2	11	n/a	31	n/a	1	n/a	n/a	n/a	n/a	83.071	n/a
51.943	0.497	neutral	Picture	57.123	n/a	1	2	12	n/a	32	22	1	n/a	n/a	n/a	n/a	83.601	BM03NES.jpg
52.44	0.514	Blank	Blank	56.609	n/a	1	2	12	n/a	32	n/a	1	n/a	n/a	n/a	n/a	84.099	n/a
52.971	0.497	neutral	Picture	56.095	n/a	1	2	13	n/a	33	11	1	n/a	n/a	n/a	n/a	84.629	AF20NES.jpg
53.468	0.514	Blank	Blank	55.581	n/a	1	2	13	n/a	33	n/a	1	n/a	n/a	n/a	n/a	85.126	n/a
53.998	0.497	neutral	Picture	55.067	n/a	1	2	14	n/a	34	4	1	n/a	n/a	n/a	n/a	85.657	AF05NES.jpg
54.496	0.514	Blank	Blank	54.554	n/a	1	2	14	n/a	34	n/a	1	n/a	n/a	n/a	n/a	86.154	n/a
55.026	0.497	neutral	Picture	54.04	n/a	1	2	15	n/a	35	17	1	n/a	n/a	n/a	n/a	86.685	BF28NES.jpg
55.524	0.514	Blank	Blank	53.526	n/a	1	2	15	n/a	35	n/a	1	n/a	n/a	n/a	n/a	87.182	n/a
56.054	0.497	neutral	Picture	53.012	n/a	1	2	16	n/a	36	13	1	n/a	n/a	n/a	n/a	87.713	BF22NES.jpg
56.552	0.514	Blank	Blank	52.498	n/a	1	2	16	n/a	36	n/a	1	n/a	n/a	n/a	n/a	88.21	n/a
57.082	0.497	neutral	Picture	51.984	n/a	1	2	17	n/a	37	12	1	n/a	n/a	n/a	n/a	88.741	AF21NES.jpg
57.579	0.514	Blank	Blank	51.47	n/a	1	2	17	n/a	37	n/a	1	n/a	n/a	n/a	n/a	89.238	n/a
58.11	0.497	neutral	Picture	50.956	n/a	1	2	18	n/a	38	24	1	n/a	n/a	n/a	n/a	89.769	BM05NES.jpg
58.607	0.514	Blank	Blank	50.442	n/a	1	2	18	n/a	38	n/a	1	n/a	n/a	n/a	n/a	90.266	n/a
59.138	0.497	neutral	Picture	49.928	n/a	1	2	19	n/a	39	29	1	n/a	n/a	n/a	n/a	90.796	AM10NES.jpg
59.635	0.514	Blank	Blank	49.414	n/a	1	2	19	n/a	39	n/a	1	n/a	n/a	n/a	n/a	91.294	n/a
60.166	0.497	neutral	Picture	48.9	n/a	1	2	20	n/a	40	23	1	n/a	n/a	n/a	n/a	91.824	AM04NES.jpg
60.663	0.514	Blank	Blank	48.386	n/a	1	2	20	n/a	40	n/a	1	n/a	n/a	n/a	n/a	92.322	n/a
61.194	10.014	ITI	Fixation+	38.356	n/a	1	n/a	n/a	n/a	n/a	n/a	n/a	n/a	n/a	n/a	n/a	92.852	n/a
71.224	0.497	angry	Picture	37.842	n/a	1	3	1	n/a	41	62	2	n/a	n/a	n/a	n/a	102.882	BM03HAS.jpg
71.721	0.514	Blank	Blank	37.328	n/a	1	3	1	n/a	41	n/a	2	n/a	n/a	n/a	n/a	103.38	n/a
72.252	0.497	angry	Picture	36.814	n/a	1	3	2	n/a	42	52	2	n/a	n/a	n/a	n/a	103.91	AF21HAS.jpg
72.749	0.514	Blank	Blank	36.3	n/a	1	3	2	n/a	42	n/a	2	n/a	n/a	n/a	n/a	104.408	n/a
73.28	0.497	angry	Picture	35.786	n/a	1	3	3	n/a	43	44	2	n/a	n/a	n/a	n/a	104.938	AF05HAS.jpg
73.777	0.514	Blank	Blank	35.272	n/a	1	3	3	n/a	43	n/a	2	n/a	n/a	n/a	n/a	105.436	n/a
74.307	0.497	angry	Picture	34.759	n/a	1	3	4	n/a	44	53	2	n/a	n/a	n/a	n/a	105.966	BF22HAS.jpg
74.805	0.514	Blank	Blank	34.245	n/a	1	3	4	n/a	44	n/a	2	n/a	n/a	n/a	n/a	106.463	n/a
75.335	0.497	angry	Picture	33.731	n/a	1	3	5	n/a	45	54	2	n/a	n/a	n/a	n/a	106.994	AF23HAS.jpg
75.833	0.514	Blank	Blank	33.217	n/a	1	3	5	n/a	45	n/a	2	n/a	n/a	n/a	n/a	107.491	n/a
76.363	0.497	angry	Picture	32.703	n/a	1	3	6	n/a	46	68	2	n/a	n/a	n/a	n/a	108.022	AM09HAS.jpg
76.861	0.514	Blank	Blank	32.189	n/a	1	3	6	n/a	46	n/a	2	n/a	n/a	n/a	n/a	108.519	n/a
77.391	0.497	angry	Picture	31.675	n/a	1	3	7	n/a	47	64	2	n/a	n/a	n/a	n/a	109.05	BM05HAS.jpg
77.888	0.514	Blank	Blank	31.161	n/a	1	3	7	n/a	47	n/a	2	n/a	n/a	n/a	n/a	109.547	n/a
78.419	0.497	angry	Picture	30.647	n/a	1	3	8	n/a	48	59	2	n/a	n/a	n/a	n/a	110.078	AF31HAS.jpg
78.916	0.514	Blank	Blank	30.133	n/a	1	3	8	n/a	48	n/a	2	n/a	n/a	n/a	n/a	110.575	n/a
79.447	0.497	angry	Picture	29.619	n/a	1	3	9	n/a	49	41	2	n/a	n/a	n/a	n/a	111.105	AF01HAS.jpg
79.944	0.514	Blank	Blank	29.105	n/a	1	3	9	n/a	49	n/a	2	n/a	n/a	n/a	n/a	111.603	n/a
80.475	0.497	angry	Picture	28.591	n/a	1	3	10	n/a	50	73	2	n/a	n/a	n/a	n/a	112.133	AM21HAS.jpg
80.972	0.514	Blank	Blank	28.077	n/a	1	3	10	n/a	50	n/a	2	n/a	n/a	n/a	n/a	112.631	n/a
81.503	0.497	angry	Picture	27.563	n/a	1	3	11	n/a	51	65	2	n/a	n/a	n/a	n/a	113.161	BM06HAS.jpg
82.0	0.514	Blank	Blank	27.049	n/a	1	3	11	n/a	51	n/a	2	n/a	n/a	n/a	n/a	113.659	n/a
82.53	0.497	angry	Picture	26.535	n/a	1	3	12	n/a	52	56	2	n/a	n/a	n/a	n/a	114.189	AF26HAS.jpg
83.028	0.514	Blank	Blank	26.021	n/a	1	3	12	n/a	52	n/a	2	n/a	n/a	n/a	n/a	114.686	n/a
83.558	0.497	angry	Picture	25.508	n/a	1	3	13	n/a	53	45	2	n/a	n/a	n/a	n/a	115.217	BF07HAS.jpg
84.056	0.514	Blank	Blank	24.994	n/a	1	3	13	n/a	53	n/a	2	n/a	n/a	n/a	n/a	115.714	n/a
84.586	0.497	angry	Picture	24.48	n/a	1	3	14	n/a	54	78	2	n/a	n/a	n/a	n/a	116.245	BM26HAS.jpg
85.084	0.514	Blank	Blank	23.966	n/a	1	3	14	n/a	54	n/a	2	n/a	n/a	n/a	n/a	116.742	n/a
85.614	0.497	angry	Picture	23.452	n/a	1	3	15	n/a	55	50	2	n/a	n/a	n/a	n/a	117.273	AF18HAS.jpg
86.111	0.514	Blank	Blank	22.938	n/a	1	3	15	n/a	55	n/a	2	n/a	n/a	n/a	n/a	117.77	n/a
86.642	0.497	angry	Picture	22.424	n/a	1	3	16	n/a	56	47	2	n/a	n/a	n/a	n/a	118.301	BF11HAS.jpg
87.139	0.514	Blank	Blank	21.91	n/a	1	3	16	n/a	56	n/a	2	n/a	n/a	n/a	n/a	118.798	n/a
87.67	0.497	angry	Picture	21.396	n/a	1	3	17	n/a	57	77	2	n/a	n/a	n/a	n/a	119.329	BM25HAS.jpg
88.167	0.514	Blank	Blank	20.882	n/a	1	3	17	n/a	57	n/a	2	n/a	n/a	n/a	n/a	119.826	n/a
88.698	0.497	angry	Picture	20.368	n/a	1	3	18	n/a	58	57	2	n/a	n/a	n/a	n/a	120.356	BF28HAS.jpg
89.195	0.514	Blank	Blank	19.854	n/a	1	3	18	n/a	58	n/a	2	n/a	n/a	n/a	n/a	120.854	n/a
89.726	0.497	angry	Picture	19.34	n/a	1	3	19	n/a	59	61	2	n/a	n/a	n/a	n/a	121.384	AM01HAS.jpg
90.223	0.514	Blank	Blank	18.826	n/a	1	3	19	n/a	59	n/a	2	n/a	n/a	n/a	n/a	121.882	n/a
90.754	0.497	angry	Picture	18.312	n/a	1	3	20	n/a	60	79	2	n/a	n/a	n/a	n/a	122.412	BM28HAS.jpg
91.251	0.514	Blank	Blank	17.798	n/a	1	3	20	n/a	60	n/a	2	n/a	n/a	n/a	n/a	122.909	n/a
91.781	10.014	ITI	Fixation+	7.768	n/a	1	n/a	n/a	n/a	n/a	n/a	n/a	n/a	n/a	n/a	n/a	123.44	n/a
109.563	n/a	ConfirmRating	Rate	n/a	7.743	1	n/a	n/a	0	n/a	n/a	n/a	2	Angry	60	51	141.222	n/a
113.164	n/a	ConfirmRating	Rate	n/a	3.581	1	n/a	n/a	1	n/a	n/a	n/a	3	Angry	50	50	144.823	n/a
113.185	10.014	ITI	Fixation+	99.301	n/a	2	n/a	n/a	n/a	n/a	n/a	n/a	n/a	n/a	n/a	n/a	144.843	n/a
123.215	0.497	happy	Picture	98.787	n/a	2	4	1	n/a	61	119	3	n/a	n/a	n/a	n/a	154.873	BM28ANS.jpg
123.712	0.514	Blank	Blank	98.273	n/a	2	4	1	n/a	61	n/a	3	n/a	n/a	n/a	n/a	155.371	n/a
124.243	0.497	happy	Picture	97.759	n/a	2	4	2	n/a	62	100	3	n/a	n/a	n/a	n/a	155.901	AF32ANS.jpg
124.74	0.514	Blank	Blank	97.245	n/a	2	4	2	n/a	62	n/a	3	n/a	n/a	n/a	n/a	156.399	n/a
125.27	0.497	happy	Picture	96.731	n/a	2	4	3	n/a	63	118	3	n/a	n/a	n/a	n/a	156.929	BM26ANS.jpg
125.768	0.514	Blank	Blank	96.218	n/a	2	4	3	n/a	63	n/a	3	n/a	n/a	n/a	n/a	157.426	n/a
126.298	0.497	happy	Picture	95.704	n/a	2	4	4	n/a	64	89	3	n/a	n/a	n/a	n/a	157.957	AF17ANS.jpg
126.796	0.514	Blank	Blank	95.19	n/a	2	4	4	n/a	64	n/a	3	n/a	n/a	n/a	n/a	158.454	n/a
127.326	0.497	happy	Picture	94.676	n/a	2	4	5	n/a	65	116	3	n/a	n/a	n/a	n/a	158.985	BM24ANS.jpg
127.824	0.514	Blank	Blank	94.162	n/a	2	4	5	n/a	65	n/a	3	n/a	n/a	n/a	n/a	159.482	n/a
128.354	0.497	happy	Picture	93.648	n/a	2	4	6	n/a	66	105	3	n/a	n/a	n/a	n/a	160.013	BM06ANS.jpg
128.851	0.514	Blank	Blank	93.134	n/a	2	4	6	n/a	66	n/a	3	n/a	n/a	n/a	n/a	160.51	n/a
129.382	0.497	happy	Picture	92.62	n/a	2	4	7	n/a	67	106	3	n/a	n/a	n/a	n/a	161.041	AM07ANS.jpg
129.879	0.514	Blank	Blank	92.106	n/a	2	4	7	n/a	67	n/a	3	n/a	n/a	n/a	n/a	161.538	n/a
130.41	0.497	happy	Picture	91.592	n/a	2	4	8	n/a	68	94	3	n/a	n/a	n/a	n/a	162.068	AF23ANS.jpg
130.907	0.514	Blank	Blank	91.078	n/a	2	4	8	n/a	68	n/a	3	n/a	n/a	n/a	n/a	162.566	n/a
131.438	0.497	happy	Picture	90.564	n/a	2	4	9	n/a	69	117	3	n/a	n/a	n/a	n/a	163.096	BM25ANS.jpg
131.935	0.514	Blank	Blank	90.05	n/a	2	4	9	n/a	69	n/a	3	n/a	n/a	n/a	n/a	163.594	n/a
132.466	0.497	happy	Picture	89.536	n/a	2	4	10	n/a	70	90	3	n/a	n/a	n/a	n/a	164.124	AF18ANS.jpg
132.963	0.514	Blank	Blank	89.022	n/a	2	4	10	n/a	70	n/a	3	n/a	n/a	n/a	n/a	164.622	n/a
133.494	0.497	happy	Picture	88.508	n/a	2	4	11	n/a	71	83	3	n/a	n/a	n/a	n/a	165.152	BF04ANS.jpg
133.991	0.514	Blank	Blank	87.994	n/a	2	4	11	n/a	71	n/a	3	n/a	n/a	n/a	n/a	165.649	n/a
134.522	0.497	happy	Picture	87.481	n/a	2	4	12	n/a	72	112	3	n/a	n/a	n/a	n/a	166.18	AM14ANS.jpg
135.019	0.514	Blank	Blank	86.966	n/a	2	4	12	n/a	72	n/a	3	n/a	n/a	n/a	n/a	166.677	n/a
135.549	0.497	happy	Picture	86.453	n/a	2	4	13	n/a	73	102	3	n/a	n/a	n/a	n/a	167.208	BM03ANS.jpg
136.047	0.514	Blank	Blank	85.939	n/a	2	4	13	n/a	73	n/a	3	n/a	n/a	n/a	n/a	167.705	n/a
136.577	0.497	happy	Picture	85.425	n/a	2	4	14	n/a	74	95	3	n/a	n/a	n/a	n/a	168.236	AF25ANS.jpg
137.075	0.514	Blank	Blank	84.911	n/a	2	4	14	n/a	74	n/a	3	n/a	n/a	n/a	n/a	168.733	n/a
137.605	0.497	happy	Picture	84.397	n/a	2	4	15	n/a	75	113	3	n/a	n/a	n/a	n/a	169.264	AM21ANS.jpg
138.102	0.514	Blank	Blank	83.883	n/a	2	4	15	n/a	75	n/a	3	n/a	n/a	n/a	n/a	169.761	n/a
138.633	0.497	happy	Picture	83.369	n/a	2	4	16	n/a	76	88	3	n/a	n/a	n/a	n/a	170.292	AF14ANS.jpg
139.13	0.514	Blank	Blank	82.855	n/a	2	4	16	n/a	76	n/a	3	n/a	n/a	n/a	n/a	170.789	n/a
139.661	0.497	happy	Picture	82.341	n/a	2	4	17	n/a	77	93	3	n/a	n/a	n/a	n/a	171.319	BF22ANS.jpg
140.158	0.514	Blank	Blank	81.827	n/a	2	4	17	n/a	77	n/a	3	n/a	n/a	n/a	n/a	171.817	n/a
140.689	0.497	happy	Picture	81.313	n/a	2	4	18	n/a	78	86	3	n/a	n/a	n/a	n/a	172.347	AF09ANS.jpg
141.186	0.514	Blank	Blank	80.799	n/a	2	4	18	n/a	78	n/a	3	n/a	n/a	n/a	n/a	172.845	n/a
141.717	0.497	happy	Picture	80.285	n/a	2	4	19	n/a	79	92	3	n/a	n/a	n/a	n/a	173.375	AF21ANS.jpg
142.214	0.514	Blank	Blank	79.771	n/a	2	4	19	n/a	79	n/a	3	n/a	n/a	n/a	n/a	173.873	n/a
142.744	0.497	happy	Picture	79.257	n/a	2	4	20	n/a	80	84	3	n/a	n/a	n/a	n/a	174.403	AF05ANS.jpg
143.242	0.514	Blank	Blank	78.744	n/a	2	4	20	n/a	80	n/a	3	n/a	n/a	n/a	n/a	174.9	n/a
143.772	10.014	ITI	Fixation+	68.713	n/a	2	n/a	n/a	n/a	n/a	n/a	n/a	n/a	n/a	n/a	n/a	175.431	n/a
153.803	0.497	neutral	Picture	68.199	n/a	2	5	1	n/a	81	4	1	n/a	n/a	n/a	n/a	185.461	AF05NES.jpg
154.3	0.514	Blank	Blank	67.685	n/a	2	5	1	n/a	81	n/a	1	n/a	n/a	n/a	n/a	185.958	n/a
154.83	0.497	neutral	Picture	67.172	n/a	2	5	2	n/a	82	14	1	n/a	n/a	n/a	n/a	186.489	AF23NES.jpg
155.328	0.514	Blank	Blank	66.658	n/a	2	5	2	n/a	82	n/a	1	n/a	n/a	n/a	n/a	186.986	n/a
155.858	0.497	neutral	Picture	66.144	n/a	2	5	3	n/a	83	19	1	n/a	n/a	n/a	n/a	187.517	AF31NES.jpg
156.356	0.514	Blank	Blank	65.63	n/a	2	5	3	n/a	83	n/a	1	n/a	n/a	n/a	n/a	188.014	n/a
156.886	0.497	neutral	Picture	65.116	n/a	2	5	4	n/a	84	8	1	n/a	n/a	n/a	n/a	188.545	AF14NES.jpg
157.384	0.514	Blank	Blank	64.602	n/a	2	5	4	n/a	84	n/a	1	n/a	n/a	n/a	n/a	189.042	n/a
157.914	0.497	neutral	Picture	64.088	n/a	2	5	5	n/a	85	25	1	n/a	n/a	n/a	n/a	189.573	BM06NES.jpg
158.411	0.514	Blank	Blank	63.574	n/a	2	5	5	n/a	85	n/a	1	n/a	n/a	n/a	n/a	190.07	n/a
158.942	0.497	neutral	Picture	63.06	n/a	2	5	6	n/a	86	9	1	n/a	n/a	n/a	n/a	190.601	AF17NES.jpg
159.439	0.514	Blank	Blank	62.546	n/a	2	5	6	n/a	86	n/a	1	n/a	n/a	n/a	n/a	191.098	n/a
159.97	0.497	neutral	Picture	62.032	n/a	2	5	7	n/a	87	2	1	n/a	n/a	n/a	n/a	191.628	AF03NES.jpg
160.467	0.514	Blank	Blank	61.518	n/a	2	5	7	n/a	87	n/a	1	n/a	n/a	n/a	n/a	192.126	n/a
160.998	0.497	neutral	Picture	61.004	n/a	2	5	8	n/a	88	17	1	n/a	n/a	n/a	n/a	192.656	BF28NES.jpg
161.495	0.514	Blank	Blank	60.49	n/a	2	5	8	n/a	88	n/a	1	n/a	n/a	n/a	n/a	193.154	n/a
162.026	0.497	neutral	Picture	59.976	n/a	2	5	9	n/a	89	6	1	n/a	n/a	n/a	n/a	193.684	AF09NES.jpg
162.523	0.514	Blank	Blank	59.462	n/a	2	5	9	n/a	89	n/a	1	n/a	n/a	n/a	n/a	194.181	n/a
163.053	0.497	neutral	Picture	58.948	n/a	2	5	10	n/a	90	12	1	n/a	n/a	n/a	n/a	194.712	AF21NES.jpg
163.551	0.514	Blank	Blank	58.435	n/a	2	5	10	n/a	90	n/a	1	n/a	n/a	n/a	n/a	195.209	n/a
164.081	0.497	neutral	Picture	57.921	n/a	2	5	11	n/a	91	24	1	n/a	n/a	n/a	n/a	195.74	BM05NES.jpg
164.579	0.514	Blank	Blank	57.407	n/a	2	5	11	n/a	91	n/a	1	n/a	n/a	n/a	n/a	196.237	n/a
165.109	0.497	neutral	Picture	56.893	n/a	2	5	12	n/a	92	34	1	n/a	n/a	n/a	n/a	196.768	AM22NES.jpg
165.607	0.514	Blank	Blank	56.379	n/a	2	5	12	n/a	92	n/a	1	n/a	n/a	n/a	n/a	197.265	n/a
166.137	0.497	neutral	Picture	55.865	n/a	2	5	13	n/a	93	23	1	n/a	n/a	n/a	n/a	197.796	AM04NES.jpg
166.635	0.514	Blank	Blank	55.351	n/a	2	5	13	n/a	93	n/a	1	n/a	n/a	n/a	n/a	198.293	n/a
167.165	0.497	neutral	Picture	54.837	n/a	2	5	14	n/a	94	15	1	n/a	n/a	n/a	n/a	198.823	AF25NES.jpg
167.662	0.514	Blank	Blank	54.323	n/a	2	5	14	n/a	94	n/a	1	n/a	n/a	n/a	n/a	199.321	n/a
168.193	0.497	neutral	Picture	53.809	n/a	2	5	15	n/a	95	37	1	n/a	n/a	n/a	n/a	199.851	BM25NES.jpg
168.69	0.514	Blank	Blank	53.295	n/a	2	5	15	n/a	95	n/a	1	n/a	n/a	n/a	n/a	200.349	n/a
169.221	0.497	neutral	Picture	52.781	n/a	2	5	16	n/a	96	32	1	n/a	n/a	n/a	n/a	200.879	AM14NES.jpg
169.718	0.514	Blank	Blank	52.267	n/a	2	5	16	n/a	96	n/a	1	n/a	n/a	n/a	n/a	201.377	n/a
170.249	0.497	neutral	Picture	51.753	n/a	2	5	17	n/a	97	3	1	n/a	n/a	n/a	n/a	201.907	BF04NES.jpg
170.746	0.514	Blank	Blank	51.239	n/a	2	5	17	n/a	97	n/a	1	n/a	n/a	n/a	n/a	202.405	n/a
171.276	0.497	neutral	Picture	50.725	n/a	2	5	18	n/a	98	16	1	n/a	n/a	n/a	n/a	202.935	AF26NES.jpg
171.774	0.514	Blank	Blank	50.211	n/a	2	5	18	n/a	98	n/a	1	n/a	n/a	n/a	n/a	203.432	n/a
172.304	0.497	neutral	Picture	49.698	n/a	2	5	19	n/a	99	27	1	n/a	n/a	n/a	n/a	203.963	BM08NES.jpg
172.802	0.514	Blank	Blank	49.184	n/a	2	5	19	n/a	99	n/a	1	n/a	n/a	n/a	n/a	204.46	n/a
173.332	0.497	neutral	Picture	48.67	n/a	2	5	20	n/a	100	28	1	n/a	n/a	n/a	n/a	204.991	AM09NES.jpg
173.83	0.514	Blank	Blank	48.156	n/a	2	5	20	n/a	100	n/a	1	n/a	n/a	n/a	n/a	205.488	n/a
174.36	10.014	ITI	Fixation+	38.126	n/a	2	n/a	n/a	n/a	n/a	n/a	n/a	n/a	n/a	n/a	n/a	206.019	n/a
184.39	0.497	happy	Picture	37.612	n/a	2	6	1	n/a	101	81	3	n/a	n/a	n/a	n/a	216.049	AF01ANS.jpg
184.888	0.514	Blank	Blank	37.098	n/a	2	6	1	n/a	101	n/a	3	n/a	n/a	n/a	n/a	216.546	n/a
185.418	0.497	happy	Picture	36.584	n/a	2	6	2	n/a	102	120	3	n/a	n/a	n/a	n/a	217.077	AM35ANS.jpg
185.916	0.514	Blank	Blank	36.07	n/a	2	6	2	n/a	102	n/a	3	n/a	n/a	n/a	n/a	217.574	n/a
186.446	0.497	happy	Picture	35.556	n/a	2	6	3	n/a	103	114	3	n/a	n/a	n/a	n/a	218.105	AM22ANS.jpg
186.944	0.514	Blank	Blank	35.042	n/a	2	6	3	n/a	103	n/a	3	n/a	n/a	n/a	n/a	218.602	n/a
187.474	0.497	happy	Picture	34.528	n/a	2	6	4	n/a	104	109	3	n/a	n/a	n/a	n/a	219.132	AM10ANS.jpg
187.971	0.514	Blank	Blank	34.014	n/a	2	6	4	n/a	104	n/a	3	n/a	n/a	n/a	n/a	219.63	n/a
188.502	0.497	happy	Picture	33.5	n/a	2	6	5	n/a	105	96	3	n/a	n/a	n/a	n/a	220.16	AF26ANS.jpg
188.999	0.514	Blank	Blank	32.986	n/a	2	6	5	n/a	105	n/a	3	n/a	n/a	n/a	n/a	220.658	n/a
189.53	0.497	happy	Picture	32.472	n/a	2	6	6	n/a	106	82	3	n/a	n/a	n/a	n/a	221.188	AF03ANS.jpg
190.027	0.514	Blank	Blank	31.958	n/a	2	6	6	n/a	106	n/a	3	n/a	n/a	n/a	n/a	221.686	n/a
190.558	0.497	happy	Picture	31.444	n/a	2	6	7	n/a	107	97	3	n/a	n/a	n/a	n/a	222.216	BF28ANS.jpg
191.055	0.514	Blank	Blank	30.93	n/a	2	6	7	n/a	107	n/a	3	n/a	n/a	n/a	n/a	222.714	n/a
191.585	0.497	happy	Picture	30.416	n/a	2	6	8	n/a	108	115	3	n/a	n/a	n/a	n/a	223.244	AM23ANS.jpg
192.083	0.514	Blank	Blank	29.903	n/a	2	6	8	n/a	108	n/a	3	n/a	n/a	n/a	n/a	223.741	n/a
192.613	0.497	happy	Picture	29.389	n/a	2	6	9	n/a	109	91	3	n/a	n/a	n/a	n/a	224.272	AF20ANS.jpg
193.111	0.514	Blank	Blank	28.875	n/a	2	6	9	n/a	109	n/a	3	n/a	n/a	n/a	n/a	224.769	n/a
193.641	0.497	happy	Picture	28.361	n/a	2	6	10	n/a	110	87	3	n/a	n/a	n/a	n/a	225.3	BF11ANS.jpg
194.139	0.514	Blank	Blank	27.847	n/a	2	6	10	n/a	110	n/a	3	n/a	n/a	n/a	n/a	225.797	n/a
194.669	0.497	happy	Picture	27.333	n/a	2	6	11	n/a	111	85	3	n/a	n/a	n/a	n/a	226.328	BF07ANS.jpg
195.166	0.514	Blank	Blank	26.819	n/a	2	6	11	n/a	111	n/a	3	n/a	n/a	n/a	n/a	226.825	n/a
195.697	0.497	happy	Picture	26.305	n/a	2	6	12	n/a	112	110	3	n/a	n/a	n/a	n/a	227.356	AM11ANS.jpg
196.194	0.514	Blank	Blank	25.791	n/a	2	6	12	n/a	112	n/a	3	n/a	n/a	n/a	n/a	227.853	n/a
196.725	0.497	happy	Picture	25.277	n/a	2	6	13	n/a	113	111	3	n/a	n/a	n/a	n/a	228.383	BM12ANS.jpg
197.222	0.514	Blank	Blank	24.763	n/a	2	6	13	n/a	113	n/a	3	n/a	n/a	n/a	n/a	228.881	n/a
197.753	0.497	happy	Picture	24.249	n/a	2	6	14	n/a	114	103	3	n/a	n/a	n/a	n/a	229.411	AM04ANS.jpg
198.25	0.514	Blank	Blank	23.735	n/a	2	6	14	n/a	114	n/a	3	n/a	n/a	n/a	n/a	229.909	n/a
198.781	0.497	happy	Picture	23.221	n/a	2	6	15	n/a	115	101	3	n/a	n/a	n/a	n/a	230.439	AM01ANS.jpg
199.278	0.514	Blank	Blank	22.707	n/a	2	6	15	n/a	115	n/a	3	n/a	n/a	n/a	n/a	230.936	n/a
199.809	0.497	happy	Picture	22.193	n/a	2	6	16	n/a	116	104	3	n/a	n/a	n/a	n/a	231.467	BM05ANS.jpg
200.306	0.514	Blank	Blank	21.679	n/a	2	6	16	n/a	116	n/a	3	n/a	n/a	n/a	n/a	231.964	n/a
200.837	0.497	happy	Picture	21.166	n/a	2	6	17	n/a	117	107	3	n/a	n/a	n/a	n/a	232.495	BM08ANS.jpg
201.334	0.514	Blank	Blank	20.651	n/a	2	6	17	n/a	117	n/a	3	n/a	n/a	n/a	n/a	232.992	n/a
201.864	0.497	happy	Picture	20.138	n/a	2	6	18	n/a	118	98	3	n/a	n/a	n/a	n/a	233.523	BF29ANS.jpg
202.362	0.514	Blank	Blank	19.624	n/a	2	6	18	n/a	118	n/a	3	n/a	n/a	n/a	n/a	234.02	n/a
202.892	0.497	happy	Picture	19.11	n/a	2	6	19	n/a	119	99	3	n/a	n/a	n/a	n/a	234.551	AF31ANS.jpg
203.39	0.514	Blank	Blank	18.596	n/a	2	6	19	n/a	119	n/a	3	n/a	n/a	n/a	n/a	235.048	n/a
203.92	0.497	happy	Picture	18.082	n/a	2	6	20	n/a	120	108	3	n/a	n/a	n/a	n/a	235.579	AM09ANS.jpg
204.417	0.514	Blank	Blank	17.568	n/a	2	6	20	n/a	120	n/a	3	n/a	n/a	n/a	n/a	236.076	n/a
204.948	10.014	ITI	Fixation+	7.538	n/a	2	n/a	n/a	n/a	n/a	n/a	n/a	n/a	n/a	n/a	n/a	236.607	n/a
222.499	n/a	ConfirmRating	Rate	n/a	7.527	2	n/a	n/a	0	n/a	n/a	n/a	2	Happy	68	52	254.158	n/a
225.682	n/a	ConfirmRating	Rate	n/a	3.166	2	n/a	n/a	1	n/a	n/a	n/a	3	Happy	50	50	257.341	n/a
225.705	15.004	Rest	Picture	n/a	n/a	n/a	n/a	n/a	n/a	n/a	n/a	n/a	0	n/a	0	0	257.363	n/a
240.725	10.014	ITI	Fixation+	97.818	n/a	3	n/a	n/a	n/a	n/a	n/a	n/a	n/a	n/a	n/a	n/a	272.383	n/a
250.755	0.497	angry	Picture	97.304	n/a	3	7	1	n/a	1	46	2	n/a	n/a	n/a	n/a	282.413	AF09HAS.jpg
251.252	0.514	Blank	Blank	96.79	n/a	3	7	1	n/a	1	n/a	2	n/a	n/a	n/a	n/a	282.911	n/a
251.783	0.497	angry	Picture	96.277	n/a	3	7	2	n/a	2	69	2	n/a	n/a	n/a	n/a	283.441	AM10HAS.jpg
252.28	0.514	Blank	Blank	95.763	n/a	3	7	2	n/a	2	n/a	2	n/a	n/a	n/a	n/a	283.939	n/a
252.811	0.497	angry	Picture	95.249	n/a	3	7	3	n/a	3	71	2	n/a	n/a	n/a	n/a	284.469	BM12HAS.jpg
253.308	0.514	Blank	Blank	94.735	n/a	3	7	3	n/a	3	n/a	2	n/a	n/a	n/a	n/a	284.967	n/a
253.839	0.497	angry	Picture	94.221	n/a	3	7	4	n/a	4	51	2	n/a	n/a	n/a	n/a	285.497	AF20HAS.jpg
254.336	0.514	Blank	Blank	93.707	n/a	3	7	4	n/a	4	n/a	2	n/a	n/a	n/a	n/a	285.995	n/a
254.867	0.497	angry	Picture	93.193	n/a	3	7	5	n/a	5	67	2	n/a	n/a	n/a	n/a	286.525	BM08HAS.jpg
255.364	0.514	Blank	Blank	92.679	n/a	3	7	5	n/a	5	n/a	2	n/a	n/a	n/a	n/a	287.022	n/a
255.894	0.497	angry	Picture	92.165	n/a	3	7	6	n/a	6	60	2	n/a	n/a	n/a	n/a	287.553	AF32HAS.jpg
256.392	0.514	Blank	Blank	91.651	n/a	3	7	6	n/a	6	n/a	2	n/a	n/a	n/a	n/a	288.05	n/a
256.922	0.497	angry	Picture	91.137	n/a	3	7	7	n/a	7	42	2	n/a	n/a	n/a	n/a	288.581	AF03HAS.jpg
257.42	0.514	Blank	Blank	90.623	n/a	3	7	7	n/a	7	n/a	2	n/a	n/a	n/a	n/a	289.078	n/a
257.95	0.497	angry	Picture	90.109	n/a	3	7	8	n/a	8	55	2	n/a	n/a	n/a	n/a	289.609	AF25HAS.jpg
258.448	0.514	Blank	Blank	89.595	n/a	3	7	8	n/a	8	n/a	2	n/a	n/a	n/a	n/a	290.106	n/a
258.978	0.497	angry	Picture	89.081	n/a	3	7	9	n/a	9	72	2	n/a	n/a	n/a	n/a	290.637	AM14HAS.jpg
259.476	0.514	Blank	Blank	88.567	n/a	3	7	9	n/a	9	n/a	2	n/a	n/a	n/a	n/a	291.134	n/a
260.006	0.497	angry	Picture	88.054	n/a	3	7	10	n/a	10	63	2	n/a	n/a	n/a	n/a	291.664	AM04HAS.jpg
260.503	0.514	Blank	Blank	87.54	n/a	3	7	10	n/a	10	n/a	2	n/a	n/a	n/a	n/a	292.162	n/a
261.034	0.497	angry	Picture	87.026	n/a	3	7	11	n/a	11	58	2	n/a	n/a	n/a	n/a	292.692	BF29HAS.jpg
261.531	0.514	Blank	Blank	86.512	n/a	3	7	11	n/a	11	n/a	2	n/a	n/a	n/a	n/a	293.19	n/a
262.062	0.497	angry	Picture	85.998	n/a	3	7	12	n/a	12	48	2	n/a	n/a	n/a	n/a	293.72	AF14HAS.jpg
262.559	0.514	Blank	Blank	85.484	n/a	3	7	12	n/a	12	n/a	2	n/a	n/a	n/a	n/a	294.218	n/a
263.09	0.497	angry	Picture	84.97	n/a	3	7	13	n/a	13	66	2	n/a	n/a	n/a	n/a	294.748	BM07HAS.jpg
263.587	0.514	Blank	Blank	84.456	n/a	3	7	13	n/a	13	n/a	2	n/a	n/a	n/a	n/a	295.245	n/a
264.118	0.497	angry	Picture	83.942	n/a	3	7	14	n/a	14	70	2	n/a	n/a	n/a	n/a	295.776	BM11HAS.jpg
264.615	0.514	Blank	Blank	83.428	n/a	3	7	14	n/a	14	n/a	2	n/a	n/a	n/a	n/a	296.273	n/a
265.145	0.497	angry	Picture	82.914	n/a	3	7	15	n/a	15	43	2	n/a	n/a	n/a	n/a	296.804	BF04HAS.jpg
265.643	0.514	Blank	Blank	82.4	n/a	3	7	15	n/a	15	n/a	2	n/a	n/a	n/a	n/a	297.301	n/a
266.173	0.497	angry	Picture	81.886	n/a	3	7	16	n/a	16	49	2	n/a	n/a	n/a	n/a	297.832	AF17HAS.jpg
266.671	0.514	Blank	Blank	81.372	n/a	3	7	16	n/a	16	n/a	2	n/a	n/a	n/a	n/a	298.329	n/a
267.201	0.497	angry	Picture	80.858	n/a	3	7	17	n/a	17	75	2	n/a	n/a	n/a	n/a	298.86	AM23HAS.jpg
267.699	0.514	Blank	Blank	80.344	n/a	3	7	17	n/a	17	n/a	2	n/a	n/a	n/a	n/a	299.357	n/a
268.229	0.497	angry	Picture	79.83	n/a	3	7	18	n/a	18	80	2	n/a	n/a	n/a	n/a	299.887	BM35HAS.jpg
268.726	0.514	Blank	Blank	79.317	n/a	3	7	18	n/a	18	n/a	2	n/a	n/a	n/a	n/a	300.385	n/a
269.257	0.497	angry	Picture	78.803	n/a	3	7	19	n/a	19	76	2	n/a	n/a	n/a	n/a	300.915	BM24HAS.jpg
269.754	0.514	Blank	Blank	78.289	n/a	3	7	19	n/a	19	n/a	2	n/a	n/a	n/a	n/a	301.413	n/a
270.285	0.497	angry	Picture	77.775	n/a	3	7	20	n/a	20	74	2	n/a	n/a	n/a	n/a	301.943	AM22HAS.jpg
270.782	0.514	Blank	Blank	77.261	n/a	3	7	20	n/a	20	n/a	2	n/a	n/a	n/a	n/a	302.441	n/a
271.313	10.014	ITI	Fixation+	67.231	n/a	3	n/a	n/a	n/a	n/a	n/a	n/a	n/a	n/a	n/a	n/a	302.971	n/a
281.343	0.497	neutral	Picture	66.717	n/a	3	8	1	n/a	21	33	1	n/a	n/a	n/a	n/a	313.001	AM21NES.jpg
281.84	0.514	Blank	Blank	66.203	n/a	3	8	1	n/a	21	n/a	1	n/a	n/a	n/a	n/a	313.499	n/a
282.371	0.497	neutral	Picture	65.689	n/a	3	8	2	n/a	22	39	1	n/a	n/a	n/a	n/a	314.029	AM28NES.jpg
282.868	0.514	Blank	Blank	65.175	n/a	3	8	2	n/a	22	n/a	1	n/a	n/a	n/a	n/a	314.527	n/a
283.399	0.497	neutral	Picture	64.661	n/a	3	8	3	n/a	23	25	1	n/a	n/a	n/a	n/a	315.057	BM06NES.jpg
283.896	0.514	Blank	Blank	64.147	n/a	3	8	3	n/a	23	n/a	1	n/a	n/a	n/a	n/a	315.555	n/a
284.426	0.497	neutral	Picture	63.633	n/a	3	8	4	n/a	24	5	1	n/a	n/a	n/a	n/a	316.085	BF07NES.jpg
284.924	0.514	Blank	Blank	63.119	n/a	3	8	4	n/a	24	n/a	1	n/a	n/a	n/a	n/a	316.582	n/a
285.454	0.497	neutral	Picture	62.605	n/a	3	8	5	n/a	25	10	1	n/a	n/a	n/a	n/a	317.113	AF18NES.jpg
285.952	0.514	Blank	Blank	62.091	n/a	3	8	5	n/a	25	n/a	1	n/a	n/a	n/a	n/a	317.61	n/a
286.482	0.497	neutral	Picture	61.577	n/a	3	8	6	n/a	26	34	1	n/a	n/a	n/a	n/a	318.141	AM22NES.jpg
286.98	0.514	Blank	Blank	61.063	n/a	3	8	6	n/a	26	n/a	1	n/a	n/a	n/a	n/a	318.638	n/a
287.51	0.497	neutral	Picture	60.549	n/a	3	8	7	n/a	27	36	1	n/a	n/a	n/a	n/a	319.169	BM24NES.jpg
288.007	0.514	Blank	Blank	60.036	n/a	3	8	7	n/a	27	n/a	1	n/a	n/a	n/a	n/a	319.666	n/a
288.538	0.497	neutral	Picture	59.521	n/a	3	8	8	n/a	28	14	1	n/a	n/a	n/a	n/a	320.197	AF23NES.jpg
289.035	0.514	Blank	Blank	59.008	n/a	3	8	8	n/a	28	n/a	1	n/a	n/a	n/a	n/a	320.694	n/a
289.566	0.497	neutral	Picture	58.494	n/a	3	8	9	n/a	29	9	1	n/a	n/a	n/a	n/a	321.224	AF17NES.jpg
290.063	0.514	Blank	Blank	57.98	n/a	3	8	9	n/a	29	n/a	1	n/a	n/a	n/a	n/a	321.722	n/a
290.594	0.497	neutral	Picture	57.466	n/a	3	8	10	n/a	30	19	1	n/a	n/a	n/a	n/a	322.252	AF31NES.jpg
291.091	0.514	Blank	Blank	56.952	n/a	3	8	10	n/a	30	n/a	1	n/a	n/a	n/a	n/a	322.75	n/a
291.622	0.497	neutral	Picture	56.438	n/a	3	8	11	n/a	31	15	1	n/a	n/a	n/a	n/a	323.28	AF25NES.jpg
292.119	0.514	Blank	Blank	55.924	n/a	3	8	11	n/a	31	n/a	1	n/a	n/a	n/a	n/a	323.777	n/a
292.649	0.497	neutral	Picture	55.41	n/a	3	8	12	n/a	32	22	1	n/a	n/a	n/a	n/a	324.308	BM03NES.jpg
293.147	0.514	Blank	Blank	54.896	n/a	3	8	12	n/a	32	n/a	1	n/a	n/a	n/a	n/a	324.805	n/a
293.677	0.497	neutral	Picture	54.382	n/a	3	8	13	n/a	33	11	1	n/a	n/a	n/a	n/a	325.336	AF20NES.jpg
294.175	0.514	Blank	Blank	53.868	n/a	3	8	13	n/a	33	n/a	1	n/a	n/a	n/a	n/a	325.833	n/a
294.705	0.497	neutral	Picture	53.354	n/a	3	8	14	n/a	34	4	1	n/a	n/a	n/a	n/a	326.364	AF05NES.jpg
295.203	0.514	Blank	Blank	52.84	n/a	3	8	14	n/a	34	n/a	1	n/a	n/a	n/a	n/a	326.861	n/a
295.733	0.497	neutral	Picture	52.326	n/a	3	8	15	n/a	35	17	1	n/a	n/a	n/a	n/a	327.392	BF28NES.jpg
296.231	0.514	Blank	Blank	51.812	n/a	3	8	15	n/a	35	n/a	1	n/a	n/a	n/a	n/a	327.889	n/a
296.761	0.497	neutral	Picture	51.298	n/a	3	8	16	n/a	36	13	1	n/a	n/a	n/a	n/a	328.42	BF22NES.jpg
297.258	0.514	Blank	Blank	50.784	n/a	3	8	16	n/a	36	n/a	1	n/a	n/a	n/a	n/a	328.917	n/a
297.789	0.497	neutral	Picture	50.271	n/a	3	8	17	n/a	37	12	1	n/a	n/a	n/a	n/a	329.447	AF21NES.jpg
298.286	0.514	Blank	Blank	49.757	n/a	3	8	17	n/a	37	n/a	1	n/a	n/a	n/a	n/a	329.945	n/a
298.817	0.497	neutral	Picture	49.243	n/a	3	8	18	n/a	38	24	1	n/a	n/a	n/a	n/a	330.475	BM05NES.jpg
299.314	0.514	Blank	Blank	48.729	n/a	3	8	18	n/a	38	n/a	1	n/a	n/a	n/a	n/a	330.973	n/a
299.845	0.497	neutral	Picture	48.215	n/a	3	8	19	n/a	39	29	1	n/a	n/a	n/a	n/a	331.503	AM10NES.jpg
300.342	0.514	Blank	Blank	47.701	n/a	3	8	19	n/a	39	n/a	1	n/a	n/a	n/a	n/a	332.001	n/a
300.873	0.497	neutral	Picture	47.187	n/a	3	8	20	n/a	40	23	1	n/a	n/a	n/a	n/a	332.531	AM04NES.jpg
301.37	0.514	Blank	Blank	46.673	n/a	3	8	20	n/a	40	n/a	1	n/a	n/a	n/a	n/a	333.028	n/a
301.901	10.014	ITI	Fixation+	36.643	n/a	3	n/a	n/a	n/a	n/a	n/a	n/a	n/a	n/a	n/a	n/a	333.559	n/a
311.931	0.497	angry	Picture	36.129	n/a	3	9	1	n/a	41	62	2	n/a	n/a	n/a	n/a	343.589	BM03HAS.jpg
312.428	0.514	Blank	Blank	35.615	n/a	3	9	1	n/a	41	n/a	2	n/a	n/a	n/a	n/a	344.087	n/a
312.959	0.497	angry	Picture	35.101	n/a	3	9	2	n/a	42	52	2	n/a	n/a	n/a	n/a	344.617	AF21HAS.jpg
313.456	0.514	Blank	Blank	34.587	n/a	3	9	2	n/a	42	n/a	2	n/a	n/a	n/a	n/a	345.114	n/a
313.986	0.497	angry	Picture	34.073	n/a	3	9	3	n/a	43	44	2	n/a	n/a	n/a	n/a	345.645	AF05HAS.jpg
314.484	0.514	Blank	Blank	33.559	n/a	3	9	3	n/a	43	n/a	2	n/a	n/a	n/a	n/a	346.142	n/a
315.014	0.497	angry	Picture	33.045	n/a	3	9	4	n/a	44	53	2	n/a	n/a	n/a	n/a	346.673	BF22HAS.jpg
315.512	0.514	Blank	Blank	32.531	n/a	3	9	4	n/a	44	n/a	2	n/a	n/a	n/a	n/a	347.17	n/a
316.042	0.497	angry	Picture	32.017	n/a	3	9	5	n/a	45	54	2	n/a	n/a	n/a	n/a	347.701	AF23HAS.jpg
316.539	0.514	Blank	Blank	31.504	n/a	3	9	5	n/a	45	n/a	2	n/a	n/a	n/a	n/a	348.198	n/a
317.07	0.497	angry	Picture	30.989	n/a	3	9	6	n/a	46	68	2	n/a	n/a	n/a	n/a	348.728	AM09HAS.jpg
317.567	0.514	Blank	Blank	30.476	n/a	3	9	6	n/a	46	n/a	2	n/a	n/a	n/a	n/a	349.226	n/a
318.098	0.497	angry	Picture	29.962	n/a	3	9	7	n/a	47	64	2	n/a	n/a	n/a	n/a	349.756	BM05HAS.jpg
318.595	0.514	Blank	Blank	29.448	n/a	3	9	7	n/a	47	n/a	2	n/a	n/a	n/a	n/a	350.254	n/a
319.126	0.497	angry	Picture	28.934	n/a	3	9	8	n/a	48	59	2	n/a	n/a	n/a	n/a	350.784	AF31HAS.jpg
319.623	0.514	Blank	Blank	28.42	n/a	3	9	8	n/a	48	n/a	2	n/a	n/a	n/a	n/a	351.282	n/a
320.154	0.497	angry	Picture	27.906	n/a	3	9	9	n/a	49	41	2	n/a	n/a	n/a	n/a	351.812	AF01HAS.jpg
320.651	0.514	Blank	Blank	27.392	n/a	3	9	9	n/a	49	n/a	2	n/a	n/a	n/a	n/a	352.31	n/a
321.182	0.497	angry	Picture	26.878	n/a	3	9	10	n/a	50	73	2	n/a	n/a	n/a	n/a	352.84	AM21HAS.jpg
321.679	0.514	Blank	Blank	26.364	n/a	3	9	10	n/a	50	n/a	2	n/a	n/a	n/a	n/a	353.337	n/a
322.209	0.497	angry	Picture	25.85	n/a	3	9	11	n/a	51	65	2	n/a	n/a	n/a	n/a	353.868	BM06HAS.jpg
322.707	0.514	Blank	Blank	25.336	n/a	3	9	11	n/a	51	n/a	2	n/a	n/a	n/a	n/a	354.365	n/a
323.237	0.497	angry	Picture	24.822	n/a	3	9	12	n/a	52	56	2	n/a	n/a	n/a	n/a	354.896	AF26HAS.jpg
323.735	0.514	Blank	Blank	24.308	n/a	3	9	12	n/a	52	n/a	2	n/a	n/a	n/a	n/a	355.393	n/a
324.265	0.497	angry	Picture	23.794	n/a	3	9	13	n/a	53	45	2	n/a	n/a	n/a	n/a	355.924	BF07HAS.jpg
324.763	0.514	Blank	Blank	23.28	n/a	3	9	13	n/a	53	n/a	2	n/a	n/a	n/a	n/a	356.421	n/a
325.293	0.497	angry	Picture	22.767	n/a	3	9	14	n/a	54	78	2	n/a	n/a	n/a	n/a	356.952	BM26HAS.jpg
325.79	0.514	Blank	Blank	22.252	n/a	3	9	14	n/a	54	n/a	2	n/a	n/a	n/a	n/a	357.449	n/a
326.321	0.497	angry	Picture	21.739	n/a	3	9	15	n/a	55	50	2	n/a	n/a	n/a	n/a	357.979	AF18HAS.jpg
326.818	0.514	Blank	Blank	21.225	n/a	3	9	15	n/a	55	n/a	2	n/a	n/a	n/a	n/a	358.477	n/a
327.349	0.497	angry	Picture	20.711	n/a	3	9	16	n/a	56	47	2	n/a	n/a	n/a	n/a	359.007	BF11HAS.jpg
327.846	0.514	Blank	Blank	20.197	n/a	3	9	16	n/a	56	n/a	2	n/a	n/a	n/a	n/a	359.505	n/a
328.377	0.497	angry	Picture	19.683	n/a	3	9	17	n/a	57	77	2	n/a	n/a	n/a	n/a	360.035	BM25HAS.jpg
328.874	0.514	Blank	Blank	19.169	n/a	3	9	17	n/a	57	n/a	2	n/a	n/a	n/a	n/a	360.533	n/a
329.405	0.497	angry	Picture	18.655	n/a	3	9	18	n/a	58	57	2	n/a	n/a	n/a	n/a	361.063	BF28HAS.jpg
329.902	0.514	Blank	Blank	18.141	n/a	3	9	18	n/a	58	n/a	2	n/a	n/a	n/a	n/a	361.56	n/a
330.433	0.497	angry	Picture	17.627	n/a	3	9	19	n/a	59	61	2	n/a	n/a	n/a	n/a	362.091	AM01HAS.jpg
330.93	0.514	Blank	Blank	17.113	n/a	3	9	19	n/a	59	n/a	2	n/a	n/a	n/a	n/a	362.588	n/a
331.46	0.497	angry	Picture	16.599	n/a	3	9	20	n/a	60	79	2	n/a	n/a	n/a	n/a	363.119	BM28HAS.jpg
331.958	0.514	Blank	Blank	16.085	n/a	3	9	20	n/a	60	n/a	2	n/a	n/a	n/a	n/a	363.616	n/a
332.488	10.014	ITI	Fixation+	6.055	n/a	3	n/a	n/a	n/a	n/a	n/a	n/a	n/a	n/a	n/a	n/a	364.147	n/a
348.557	n/a	ConfirmRating	Rate	n/a	6.052	3	n/a	n/a	0	n/a	n/a	n/a	2	Angry	58	51	380.215	n/a
350.731	n/a	ConfirmRating	Rate	n/a	2.156	3	n/a	n/a	1	n/a	n/a	n/a	3	Angry	50	50	382.389	n/a
350.758	10.014	ITI	Fixation+	98.789	n/a	4	n/a	n/a	n/a	n/a	n/a	n/a	n/a	n/a	n/a	n/a	382.416	n/a
360.788	0.497	happy	Picture	98.275	n/a	4	10	1	n/a	61	119	3	n/a	n/a	n/a	n/a	392.447	BM28ANS.jpg
361.286	0.514	Blank	Blank	97.761	n/a	4	10	1	n/a	61	n/a	3	n/a	n/a	n/a	n/a	392.944	n/a
361.816	0.497	happy	Picture	97.248	n/a	4	10	2	n/a	62	100	3	n/a	n/a	n/a	n/a	393.474	AF32ANS.jpg
362.313	0.514	Blank	Blank	96.733	n/a	4	10	2	n/a	62	n/a	3	n/a	n/a	n/a	n/a	393.972	n/a
362.844	0.497	happy	Picture	96.22	n/a	4	10	3	n/a	63	118	3	n/a	n/a	n/a	n/a	394.502	BM26ANS.jpg
363.341	0.514	Blank	Blank	95.706	n/a	4	10	3	n/a	63	n/a	3	n/a	n/a	n/a	n/a	395.0	n/a
363.872	0.497	happy	Picture	95.192	n/a	4	10	4	n/a	64	89	3	n/a	n/a	n/a	n/a	395.53	AF17ANS.jpg
364.369	0.514	Blank	Blank	94.678	n/a	4	10	4	n/a	64	n/a	3	n/a	n/a	n/a	n/a	396.028	n/a
364.9	0.497	happy	Picture	94.164	n/a	4	10	5	n/a	65	116	3	n/a	n/a	n/a	n/a	396.558	BM24ANS.jpg
365.397	0.514	Blank	Blank	93.65	n/a	4	10	5	n/a	65	n/a	3	n/a	n/a	n/a	n/a	397.056	n/a
365.928	0.497	happy	Picture	93.136	n/a	4	10	6	n/a	66	105	3	n/a	n/a	n/a	n/a	397.586	BM06ANS.jpg
366.425	0.514	Blank	Blank	92.622	n/a	4	10	6	n/a	66	n/a	3	n/a	n/a	n/a	n/a	398.083	n/a
366.955	0.497	happy	Picture	92.108	n/a	4	10	7	n/a	67	106	3	n/a	n/a	n/a	n/a	398.614	AM07ANS.jpg
367.453	0.514	Blank	Blank	91.594	n/a	4	10	7	n/a	67	n/a	3	n/a	n/a	n/a	n/a	399.111	n/a
367.983	0.497	happy	Picture	91.08	n/a	4	10	8	n/a	68	94	3	n/a	n/a	n/a	n/a	399.642	AF23ANS.jpg
368.481	0.514	Blank	Blank	90.566	n/a	4	10	8	n/a	68	n/a	3	n/a	n/a	n/a	n/a	400.139	n/a
369.011	0.497	happy	Picture	90.052	n/a	4	10	9	n/a	69	117	3	n/a	n/a	n/a	n/a	400.67	BM25ANS.jpg
369.509	0.514	Blank	Blank	89.538	n/a	4	10	9	n/a	69	n/a	3	n/a	n/a	n/a	n/a	401.167	n/a
370.039	0.497	happy	Picture	89.024	n/a	4	10	10	n/a	70	90	3	n/a	n/a	n/a	n/a	401.698	AF18ANS.jpg
370.536	0.514	Blank	Blank	88.511	n/a	4	10	10	n/a	70	n/a	3	n/a	n/a	n/a	n/a	402.195	n/a
371.067	0.497	happy	Picture	87.996	n/a	4	10	11	n/a	71	83	3	n/a	n/a	n/a	n/a	402.726	BF04ANS.jpg
371.564	0.514	Blank	Blank	87.483	n/a	4	10	11	n/a	71	n/a	3	n/a	n/a	n/a	n/a	403.223	n/a
372.095	0.497	happy	Picture	86.969	n/a	4	10	12	n/a	72	112	3	n/a	n/a	n/a	n/a	403.753	AM14ANS.jpg
372.592	0.514	Blank	Blank	86.455	n/a	4	10	12	n/a	72	n/a	3	n/a	n/a	n/a	n/a	404.251	n/a
373.123	0.497	happy	Picture	85.941	n/a	4	10	13	n/a	73	102	3	n/a	n/a	n/a	n/a	404.781	BM03ANS.jpg
373.62	0.514	Blank	Blank	85.427	n/a	4	10	13	n/a	73	n/a	3	n/a	n/a	n/a	n/a	405.279	n/a
374.151	0.497	happy	Picture	84.913	n/a	4	10	14	n/a	74	95	3	n/a	n/a	n/a	n/a	405.809	AF25ANS.jpg
374.648	0.514	Blank	Blank	84.399	n/a	4	10	14	n/a	74	n/a	3	n/a	n/a	n/a	n/a	406.307	n/a
375.178	0.497	happy	Picture	83.885	n/a	4	10	15	n/a	75	113	3	n/a	n/a	n/a	n/a	406.837	AM21ANS.jpg
375.676	0.514	Blank	Blank	83.371	n/a	4	10	15	n/a	75	n/a	3	n/a	n/a	n/a	n/a	407.334	n/a
376.206	0.497	happy	Picture	82.857	n/a	4	10	16	n/a	76	88	3	n/a	n/a	n/a	n/a	407.865	AF14ANS.jpg
376.704	0.514	Blank	Blank	82.343	n/a	4	10	16	n/a	76	n/a	3	n/a	n/a	n/a	n/a	408.362	n/a
377.234	0.497	happy	Picture	81.829	n/a	4	10	17	n/a	77	93	3	n/a	n/a	n/a	n/a	408.893	BF22ANS.jpg
377.732	0.514	Blank	Blank	81.315	n/a	4	10	17	n/a	77	n/a	3	n/a	n/a	n/a	n/a	409.39	n/a
378.262	0.497	happy	Picture	80.801	n/a	4	10	18	n/a	78	86	3	n/a	n/a	n/a	n/a	409.921	AF09ANS.jpg
378.76	0.514	Blank	Blank	80.287	n/a	4	10	18	n/a	78	n/a	3	n/a	n/a	n/a	n/a	410.418	n/a
379.29	0.497	happy	Picture	79.773	n/a	4	10	19	n/a	79	92	3	n/a	n/a	n/a	n/a	410.949	AF21ANS.jpg
379.787	0.514	Blank	Blank	79.26	n/a	4	10	19	n/a	79	n/a	3	n/a	n/a	n/a	n/a	411.446	n/a
380.318	0.497	happy	Picture	78.746	n/a	4	10	20	n/a	80	84	3	n/a	n/a	n/a	n/a	411.976	AF05ANS.jpg
380.815	0.514	Blank	Blank	78.232	n/a	4	10	20	n/a	80	n/a	3	n/a	n/a	n/a	n/a	412.474	n/a
381.346	10.014	ITI	Fixation+	68.202	n/a	4	n/a	n/a	n/a	n/a	n/a	n/a	n/a	n/a	n/a	n/a	413.004	n/a
391.376	0.497	neutral	Picture	67.688	n/a	4	11	1	n/a	81	4	1	n/a	n/a	n/a	n/a	423.034	AF05NES.jpg
391.873	0.514	Blank	Blank	67.174	n/a	4	11	1	n/a	81	n/a	1	n/a	n/a	n/a	n/a	423.532	n/a
392.404	0.497	neutral	Picture	66.66	n/a	4	11	2	n/a	82	14	1	n/a	n/a	n/a	n/a	424.062	AF23NES.jpg
392.901	0.514	Blank	Blank	66.146	n/a	4	11	2	n/a	82	n/a	1	n/a	n/a	n/a	n/a	424.56	n/a
393.432	0.497	neutral	Picture	65.632	n/a	4	11	3	n/a	83	19	1	n/a	n/a	n/a	n/a	425.09	AF31NES.jpg
393.929	0.514	Blank	Blank	65.118	n/a	4	11	3	n/a	83	n/a	1	n/a	n/a	n/a	n/a	425.588	n/a
394.46	0.497	neutral	Picture	64.604	n/a	4	11	4	n/a	84	8	1	n/a	n/a	n/a	n/a	426.118	AF14NES.jpg
394.957	0.514	Blank	Blank	64.09	n/a	4	11	4	n/a	84	n/a	1	n/a	n/a	n/a	n/a	426.615	n/a
395.488	0.497	neutral	Picture	63.576	n/a	4	11	5	n/a	85	25	1	n/a	n/a	n/a	n/a	427.146	BM06NES.jpg
395.985	0.514	Blank	Blank	63.062	n/a	4	11	5	n/a	85	n/a	1	n/a	n/a	n/a	n/a	427.643	n/a
396.515	0.497	neutral	Picture	62.548	n/a	4	11	6	n/a	86	9	1	n/a	n/a	n/a	n/a	428.174	AF17NES.jpg
397.013	0.514	Blank	Blank	62.034	n/a	4	11	6	n/a	86	n/a	1	n/a	n/a	n/a	n/a	428.671	n/a
397.543	0.497	neutral	Picture	61.52	n/a	4	11	7	n/a	87	2	1	n/a	n/a	n/a	n/a	429.202	AF03NES.jpg
398.041	0.514	Blank	Blank	61.006	n/a	4	11	7	n/a	87	n/a	1	n/a	n/a	n/a	n/a	429.699	n/a
398.571	0.497	neutral	Picture	60.492	n/a	4	11	8	n/a	88	17	1	n/a	n/a	n/a	n/a	430.23	BF28NES.jpg
399.068	0.514	Blank	Blank	59.979	n/a	4	11	8	n/a	88	n/a	1	n/a	n/a	n/a	n/a	430.727	n/a
399.599	0.497	neutral	Picture	59.464	n/a	4	11	9	n/a	89	6	1	n/a	n/a	n/a	n/a	431.257	AF09NES.jpg
400.096	0.514	Blank	Blank	58.951	n/a	4	11	9	n/a	89	n/a	1	n/a	n/a	n/a	n/a	431.755	n/a
400.627	0.497	neutral	Picture	58.437	n/a	4	11	10	n/a	90	12	1	n/a	n/a	n/a	n/a	432.285	AF21NES.jpg
401.124	0.514	Blank	Blank	57.923	n/a	4	11	10	n/a	90	n/a	1	n/a	n/a	n/a	n/a	432.783	n/a
401.655	0.497	neutral	Picture	57.409	n/a	4	11	11	n/a	91	24	1	n/a	n/a	n/a	n/a	433.313	BM05NES.jpg
402.152	0.514	Blank	Blank	56.895	n/a	4	11	11	n/a	91	n/a	1	n/a	n/a	n/a	n/a	433.811	n/a
402.683	0.497	neutral	Picture	56.381	n/a	4	11	12	n/a	92	34	1	n/a	n/a	n/a	n/a	434.341	AM22NES.jpg
403.18	0.514	Blank	Blank	55.867	n/a	4	11	12	n/a	92	n/a	1	n/a	n/a	n/a	n/a	434.839	n/a
403.711	0.497	neutral	Picture	55.353	n/a	4	11	13	n/a	93	23	1	n/a	n/a	n/a	n/a	435.369	AM04NES.jpg
404.208	0.514	Blank	Blank	54.839	n/a	4	11	13	n/a	93	n/a	1	n/a	n/a	n/a	n/a	435.866	n/a
404.738	0.497	neutral	Picture	54.325	n/a	4	11	14	n/a	94	15	1	n/a	n/a	n/a	n/a	436.397	AF25NES.jpg
405.236	0.514	Blank	Blank	53.811	n/a	4	11	14	n/a	94	n/a	1	n/a	n/a	n/a	n/a	436.894	n/a
405.766	0.497	neutral	Picture	53.297	n/a	4	11	15	n/a	95	37	1	n/a	n/a	n/a	n/a	437.425	BM25NES.jpg
406.264	0.514	Blank	Blank	52.783	n/a	4	11	15	n/a	95	n/a	1	n/a	n/a	n/a	n/a	437.922	n/a
406.794	0.497	neutral	Picture	52.269	n/a	4	11	16	n/a	96	32	1	n/a	n/a	n/a	n/a	438.453	AM14NES.jpg
407.291	0.514	Blank	Blank	51.755	n/a	4	11	16	n/a	96	n/a	1	n/a	n/a	n/a	n/a	438.95	n/a
407.822	0.497	neutral	Picture	51.242	n/a	4	11	17	n/a	97	3	1	n/a	n/a	n/a	n/a	439.481	BF04NES.jpg
408.319	0.514	Blank	Blank	50.728	n/a	4	11	17	n/a	97	n/a	1	n/a	n/a	n/a	n/a	439.978	n/a
408.85	0.497	neutral	Picture	50.214	n/a	4	11	18	n/a	98	16	1	n/a	n/a	n/a	n/a	440.508	AF26NES.jpg
409.347	0.514	Blank	Blank	49.7	n/a	4	11	18	n/a	98	n/a	1	n/a	n/a	n/a	n/a	441.006	n/a
409.878	0.497	neutral	Picture	49.186	n/a	4	11	19	n/a	99	27	1	n/a	n/a	n/a	n/a	441.536	BM08NES.jpg
410.375	0.514	Blank	Blank	48.672	n/a	4	11	19	n/a	99	n/a	1	n/a	n/a	n/a	n/a	442.034	n/a
410.906	0.497	neutral	Picture	48.158	n/a	4	11	20	n/a	100	28	1	n/a	n/a	n/a	n/a	442.564	AM09NES.jpg
411.403	0.514	Blank	Blank	47.644	n/a	4	11	20	n/a	100	n/a	1	n/a	n/a	n/a	n/a	443.062	n/a
411.934	10.014	ITI	Fixation+	37.614	n/a	4	n/a	n/a	n/a	n/a	n/a	n/a	n/a	n/a	n/a	n/a	443.592	n/a
421.964	0.497	happy	Picture	37.1	n/a	4	12	1	n/a	101	81	3	n/a	n/a	n/a	n/a	453.622	AF01ANS.jpg
422.461	0.514	Blank	Blank	36.586	n/a	4	12	1	n/a	101	n/a	3	n/a	n/a	n/a	n/a	454.12	n/a
422.992	0.497	happy	Picture	36.072	n/a	4	12	2	n/a	102	120	3	n/a	n/a	n/a	n/a	454.65	AM35ANS.jpg
423.489	0.514	Blank	Blank	35.558	n/a	4	12	2	n/a	102	n/a	3	n/a	n/a	n/a	n/a	455.147	n/a
424.019	0.497	happy	Picture	35.044	n/a	4	12	3	n/a	103	114	3	n/a	n/a	n/a	n/a	455.678	AM22ANS.jpg
424.517	0.514	Blank	Blank	34.53	n/a	4	12	3	n/a	103	n/a	3	n/a	n/a	n/a	n/a	456.175	n/a
425.047	0.497	happy	Picture	34.016	n/a	4	12	4	n/a	104	109	3	n/a	n/a	n/a	n/a	456.706	AM10ANS.jpg
425.545	0.514	Blank	Blank	33.502	n/a	4	12	4	n/a	104	n/a	3	n/a	n/a	n/a	n/a	457.203	n/a
426.075	0.497	happy	Picture	32.988	n/a	4	12	5	n/a	105	96	3	n/a	n/a	n/a	n/a	457.734	AF26ANS.jpg
426.573	0.514	Blank	Blank	32.474	n/a	4	12	5	n/a	105	n/a	3	n/a	n/a	n/a	n/a	458.231	n/a
427.103	0.497	happy	Picture	31.96	n/a	4	12	6	n/a	106	82	3	n/a	n/a	n/a	n/a	458.762	AF03ANS.jpg
427.601	0.514	Blank	Blank	31.447	n/a	4	12	6	n/a	106	n/a	3	n/a	n/a	n/a	n/a	459.259	n/a
428.131	0.497	happy	Picture	30.933	n/a	4	12	7	n/a	107	97	3	n/a	n/a	n/a	n/a	459.789	BF28ANS.jpg
428.628	0.514	Blank	Blank	30.419	n/a	4	12	7	n/a	107	n/a	3	n/a	n/a	n/a	n/a	460.287	n/a
429.159	0.497	happy	Picture	29.905	n/a	4	12	8	n/a	108	115	3	n/a	n/a	n/a	n/a	460.817	AM23ANS.jpg
429.656	0.514	Blank	Blank	29.391	n/a	4	12	8	n/a	108	n/a	3	n/a	n/a	n/a	n/a	461.315	n/a
430.187	0.497	happy	Picture	28.877	n/a	4	12	9	n/a	109	91	3	n/a	n/a	n/a	n/a	461.845	AF20ANS.jpg
430.684	0.514	Blank	Blank	28.363	n/a	4	12	9	n/a	109	n/a	3	n/a	n/a	n/a	n/a	462.343	n/a
431.215	0.497	happy	Picture	27.849	n/a	4	12	10	n/a	110	87	3	n/a	n/a	n/a	n/a	462.873	BF11ANS.jpg
431.712	0.514	Blank	Blank	27.335	n/a	4	12	10	n/a	110	n/a	3	n/a	n/a	n/a	n/a	463.37	n/a
432.243	0.497	happy	Picture	26.821	n/a	4	12	11	n/a	111	85	3	n/a	n/a	n/a	n/a	463.901	BF07ANS.jpg
432.74	0.514	Blank	Blank	26.307	n/a	4	12	11	n/a	111	n/a	3	n/a	n/a	n/a	n/a	464.398	n/a
433.27	0.497	happy	Picture	25.793	n/a	4	12	12	n/a	112	110	3	n/a	n/a	n/a	n/a	464.929	AM11ANS.jpg
433.768	0.514	Blank	Blank	25.279	n/a	4	12	12	n/a	112	n/a	3	n/a	n/a	n/a	n/a	465.426	n/a
434.298	0.497	happy	Picture	24.765	n/a	4	12	13	n/a	113	111	3	n/a	n/a	n/a	n/a	465.957	BM12ANS.jpg
434.796	0.514	Blank	Blank	24.251	n/a	4	12	13	n/a	113	n/a	3	n/a	n/a	n/a	n/a	466.454	n/a
435.326	0.497	happy	Picture	23.737	n/a	4	12	14	n/a	114	103	3	n/a	n/a	n/a	n/a	466.985	AM04ANS.jpg
435.824	0.514	Blank	Blank	23.223	n/a	4	12	14	n/a	114	n/a	3	n/a	n/a	n/a	n/a	467.482	n/a
436.354	0.497	happy	Picture	22.709	n/a	4	12	15	n/a	115	101	3	n/a	n/a	n/a	n/a	468.013	AM01ANS.jpg
436.851	0.514	Blank	Blank	22.195	n/a	4	12	15	n/a	115	n/a	3	n/a	n/a	n/a	n/a	468.51	n/a
437.382	0.497	happy	Picture	21.682	n/a	4	12	16	n/a	116	104	3	n/a	n/a	n/a	n/a	469.041	BM05ANS.jpg
437.879	0.514	Blank	Blank	21.168	n/a	4	12	16	n/a	116	n/a	3	n/a	n/a	n/a	n/a	469.538	n/a
438.41	0.497	happy	Picture	20.654	n/a	4	12	17	n/a	117	107	3	n/a	n/a	n/a	n/a	470.068	BM08ANS.jpg
438.907	0.514	Blank	Blank	20.14	n/a	4	12	17	n/a	117	n/a	3	n/a	n/a	n/a	n/a	470.566	n/a
439.438	0.497	happy	Picture	19.626	n/a	4	12	18	n/a	118	98	3	n/a	n/a	n/a	n/a	471.096	BF29ANS.jpg
439.935	0.514	Blank	Blank	19.112	n/a	4	12	18	n/a	118	n/a	3	n/a	n/a	n/a	n/a	471.594	n/a
440.466	0.497	happy	Picture	18.598	n/a	4	12	19	n/a	119	99	3	n/a	n/a	n/a	n/a	472.124	AF31ANS.jpg
440.963	0.514	Blank	Blank	18.084	n/a	4	12	19	n/a	119	n/a	3	n/a	n/a	n/a	n/a	472.622	n/a
441.493	0.497	happy	Picture	17.57	n/a	4	12	20	n/a	120	108	3	n/a	n/a	n/a	n/a	473.152	AM09ANS.jpg
441.991	0.514	Blank	Blank	17.056	n/a	4	12	20	n/a	120	n/a	3	n/a	n/a	n/a	n/a	473.649	n/a
442.521	10.014	ITI	Fixation+	7.026	n/a	4	n/a	n/a	n/a	n/a	n/a	n/a	n/a	n/a	n/a	n/a	474.18	n/a
459.561	n/a	ConfirmRating	Rate	n/a	7.012	4	n/a	n/a	0	n/a	n/a	n/a	2	Happy	59	51	491.219	n/a
461.632	n/a	ConfirmRating	Rate	n/a	2.056	4	n/a	n/a	1	n/a	n/a	n/a	3	Happy	50	50	493.29	n/a
