onset	duration	trial_type	event_type	time_until_response	response_time	trial_number	block_num_within_trial	image_seq_num_within_block	question_seq_num_within_block	image_seq_num	picture_number	condition	question_type	block_type	rating	rating_computed	onset_uncorrected	KDEV_imagefile
0.015	10.014	ITI	Fixation+	98.957	n/a	1	n/a	n/a	n/a	n/a	n/a	n/a	n/a	n/a	n/a	n/a	28.477	n/a
10.045	0.497	angry	Picture	98.444	n/a	1	1	1	n/a	1	108	3	n/a	n/a	n/a	n/a	38.507	AM09ANS.jpg
10.542	0.514	Blank	Blank	97.93	n/a	1	1	1	n/a	1	n/a	3	n/a	n/a	n/a	n/a	39.005	n/a
11.073	0.497	angry	Picture	97.416	n/a	1	1	2	n/a	2	99	3	n/a	n/a	n/a	n/a	39.535	AF31ANS.jpg
11.57	0.514	Blank	Blank	96.902	n/a	1	1	2	n/a	2	n/a	3	n/a	n/a	n/a	n/a	40.032	n/a
12.101	0.497	angry	Picture	96.388	n/a	1	1	3	n/a	3	98	3	n/a	n/a	n/a	n/a	40.563	BF29ANS.jpg
12.598	0.514	Blank	Blank	95.874	n/a	1	1	3	n/a	3	n/a	3	n/a	n/a	n/a	n/a	41.06	n/a
13.128	0.497	angry	Picture	95.36	n/a	1	1	4	n/a	4	107	3	n/a	n/a	n/a	n/a	41.591	BM08ANS.jpg
13.626	0.514	Blank	Blank	94.846	n/a	1	1	4	n/a	4	n/a	3	n/a	n/a	n/a	n/a	42.088	n/a
14.156	0.497	angry	Picture	94.332	n/a	1	1	5	n/a	5	104	3	n/a	n/a	n/a	n/a	42.619	BM05ANS.jpg
14.654	0.514	Blank	Blank	93.818	n/a	1	1	5	n/a	5	n/a	3	n/a	n/a	n/a	n/a	43.116	n/a
15.184	0.497	angry	Picture	93.304	n/a	1	1	6	n/a	6	101	3	n/a	n/a	n/a	n/a	43.647	AM01ANS.jpg
15.682	0.514	Blank	Blank	92.79	n/a	1	1	6	n/a	6	n/a	3	n/a	n/a	n/a	n/a	44.144	n/a
16.212	0.497	angry	Picture	92.276	n/a	1	1	7	n/a	7	103	3	n/a	n/a	n/a	n/a	44.675	AM04ANS.jpg
16.71	0.514	Blank	Blank	91.762	n/a	1	1	7	n/a	7	n/a	3	n/a	n/a	n/a	n/a	45.172	n/a
17.24	0.497	angry	Picture	91.248	n/a	1	1	8	n/a	8	111	3	n/a	n/a	n/a	n/a	45.702	BM12ANS.jpg
17.737	0.514	Blank	Blank	90.734	n/a	1	1	8	n/a	8	n/a	3	n/a	n/a	n/a	n/a	46.2	n/a
18.268	0.497	angry	Picture	90.22	n/a	1	1	9	n/a	9	110	3	n/a	n/a	n/a	n/a	46.73	AM11ANS.jpg
18.765	0.514	Blank	Blank	89.707	n/a	1	1	9	n/a	9	n/a	3	n/a	n/a	n/a	n/a	47.228	n/a
19.296	0.497	angry	Picture	89.193	n/a	1	1	10	n/a	10	85	3	n/a	n/a	n/a	n/a	47.758	BF07ANS.jpg
19.793	0.514	Blank	Blank	88.679	n/a	1	1	10	n/a	10	n/a	3	n/a	n/a	n/a	n/a	48.256	n/a
20.324	0.497	angry	Picture	88.165	n/a	1	1	11	n/a	11	87	3	n/a	n/a	n/a	n/a	48.786	BF11ANS.jpg
20.821	0.514	Blank	Blank	87.651	n/a	1	1	11	n/a	11	n/a	3	n/a	n/a	n/a	n/a	49.283	n/a
21.352	0.497	angry	Picture	87.137	n/a	1	1	12	n/a	12	91	3	n/a	n/a	n/a	n/a	49.814	AF20ANS.jpg
21.849	0.514	Blank	Blank	86.623	n/a	1	1	12	n/a	12	n/a	3	n/a	n/a	n/a	n/a	50.311	n/a
22.38	0.497	angry	Picture	86.109	n/a	1	1	13	n/a	13	115	3	n/a	n/a	n/a	n/a	50.842	AM23ANS.jpg
22.877	0.514	Blank	Blank	85.595	n/a	1	1	13	n/a	13	n/a	3	n/a	n/a	n/a	n/a	51.339	n/a
23.407	0.497	angry	Picture	85.081	n/a	1	1	14	n/a	14	97	3	n/a	n/a	n/a	n/a	51.87	BF28ANS.jpg
23.905	0.514	Blank	Blank	84.567	n/a	1	1	14	n/a	14	n/a	3	n/a	n/a	n/a	n/a	52.367	n/a
24.435	0.497	angry	Picture	84.053	n/a	1	1	15	n/a	15	82	3	n/a	n/a	n/a	n/a	52.898	AF03ANS.jpg
24.933	0.514	Blank	Blank	83.539	n/a	1	1	15	n/a	15	n/a	3	n/a	n/a	n/a	n/a	53.395	n/a
25.463	0.497	angry	Picture	83.025	n/a	1	1	16	n/a	16	96	3	n/a	n/a	n/a	n/a	53.925	AF26ANS.jpg
25.96	0.514	Blank	Blank	82.511	n/a	1	1	16	n/a	16	n/a	3	n/a	n/a	n/a	n/a	54.423	n/a
26.491	0.497	angry	Picture	81.997	n/a	1	1	17	n/a	17	109	3	n/a	n/a	n/a	n/a	54.953	AM10ANS.jpg
26.988	0.514	Blank	Blank	81.483	n/a	1	1	17	n/a	17	n/a	3	n/a	n/a	n/a	n/a	55.451	n/a
27.519	0.497	angry	Picture	80.969	n/a	1	1	18	n/a	18	114	3	n/a	n/a	n/a	n/a	55.981	AM22ANS.jpg
28.016	0.514	Blank	Blank	80.456	n/a	1	1	18	n/a	18	n/a	3	n/a	n/a	n/a	n/a	56.479	n/a
28.547	0.497	angry	Picture	79.942	n/a	1	1	19	n/a	19	120	3	n/a	n/a	n/a	n/a	57.009	AM35ANS.jpg
29.044	0.514	Blank	Blank	79.428	n/a	1	1	19	n/a	19	n/a	3	n/a	n/a	n/a	n/a	57.507	n/a
29.575	0.497	angry	Picture	78.914	n/a	1	1	20	n/a	20	81	3	n/a	n/a	n/a	n/a	58.037	AF01ANS.jpg
30.072	0.514	Blank	Blank	78.4	n/a	1	1	20	n/a	20	n/a	3	n/a	n/a	n/a	n/a	58.535	n/a
30.603	10.014	ITI	Fixation+	68.37	n/a	1	n/a	n/a	n/a	n/a	n/a	n/a	n/a	n/a	n/a	n/a	59.065	n/a
40.633	0.497	neutral	Picture	67.856	n/a	1	2	1	n/a	21	28	1	n/a	n/a	n/a	n/a	69.095	AM09NES.jpg
41.13	0.514	Blank	Blank	67.342	n/a	1	2	1	n/a	21	n/a	1	n/a	n/a	n/a	n/a	69.593	n/a
41.661	0.497	neutral	Picture	66.828	n/a	1	2	2	n/a	22	27	1	n/a	n/a	n/a	n/a	70.123	BM08NES.jpg
42.158	0.514	Blank	Blank	66.314	n/a	1	2	2	n/a	22	n/a	1	n/a	n/a	n/a	n/a	70.62	n/a
42.688	0.497	neutral	Picture	65.8	n/a	1	2	3	n/a	23	16	1	n/a	n/a	n/a	n/a	71.151	AF26NES.jpg
43.186	0.514	Blank	Blank	65.286	n/a	1	2	3	n/a	23	n/a	1	n/a	n/a	n/a	n/a	71.648	n/a
43.716	0.497	neutral	Picture	64.772	n/a	1	2	4	n/a	24	3	1	n/a	n/a	n/a	n/a	72.179	BF04NES.jpg
44.214	0.514	Blank	Blank	64.258	n/a	1	2	4	n/a	24	n/a	1	n/a	n/a	n/a	n/a	72.676	n/a
44.744	0.497	neutral	Picture	63.744	n/a	1	2	5	n/a	25	32	1	n/a	n/a	n/a	n/a	73.207	AM14NES.jpg
45.242	0.514	Blank	Blank	63.23	n/a	1	2	5	n/a	25	n/a	1	n/a	n/a	n/a	n/a	73.704	n/a
45.772	0.497	neutral	Picture	62.716	n/a	1	2	6	n/a	26	37	1	n/a	n/a	n/a	n/a	74.235	BM25NES.jpg
46.269	0.514	Blank	Blank	62.202	n/a	1	2	6	n/a	26	n/a	1	n/a	n/a	n/a	n/a	74.732	n/a
46.8	0.497	neutral	Picture	61.688	n/a	1	2	7	n/a	27	15	1	n/a	n/a	n/a	n/a	75.263	AF25NES.jpg
47.297	0.514	Blank	Blank	61.174	n/a	1	2	7	n/a	27	n/a	1	n/a	n/a	n/a	n/a	75.76	n/a
47.828	0.497	neutral	Picture	60.66	n/a	1	2	8	n/a	28	23	1	n/a	n/a	n/a	n/a	76.29	AM04NES.jpg
48.325	0.514	Blank	Blank	60.146	n/a	1	2	8	n/a	28	n/a	1	n/a	n/a	n/a	n/a	76.788	n/a
48.856	0.497	neutral	Picture	59.633	n/a	1	2	9	n/a	29	34	1	n/a	n/a	n/a	n/a	77.318	AM22NES.jpg
49.353	0.514	Blank	Blank	59.119	n/a	1	2	9	n/a	29	n/a	1	n/a	n/a	n/a	n/a	77.816	n/a
49.884	0.497	neutral	Picture	58.605	n/a	1	2	10	n/a	30	24	1	n/a	n/a	n/a	n/a	78.346	BM05NES.jpg
50.381	0.514	Blank	Blank	58.091	n/a	1	2	10	n/a	30	n/a	1	n/a	n/a	n/a	n/a	78.844	n/a
50.912	0.497	neutral	Picture	57.577	n/a	1	2	11	n/a	31	12	1	n/a	n/a	n/a	n/a	79.374	AF21NES.jpg
51.409	0.514	Blank	Blank	57.063	n/a	1	2	11	n/a	31	n/a	1	n/a	n/a	n/a	n/a	79.871	n/a
51.939	0.497	neutral	Picture	56.549	n/a	1	2	12	n/a	32	6	1	n/a	n/a	n/a	n/a	80.402	AF09NES.jpg
52.437	0.514	Blank	Blank	56.035	n/a	1	2	12	n/a	32	n/a	1	n/a	n/a	n/a	n/a	80.899	n/a
52.967	0.497	neutral	Picture	55.521	n/a	1	2	13	n/a	33	17	1	n/a	n/a	n/a	n/a	81.43	BF28NES.jpg
53.465	0.514	Blank	Blank	55.007	n/a	1	2	13	n/a	33	n/a	1	n/a	n/a	n/a	n/a	81.927	n/a
53.995	0.497	neutral	Picture	54.493	n/a	1	2	14	n/a	34	2	1	n/a	n/a	n/a	n/a	82.458	AF03NES.jpg
54.493	0.514	Blank	Blank	53.979	n/a	1	2	14	n/a	34	n/a	1	n/a	n/a	n/a	n/a	82.955	n/a
55.023	0.497	neutral	Picture	53.465	n/a	1	2	15	n/a	35	9	1	n/a	n/a	n/a	n/a	83.486	AF17NES.jpg
55.52	0.514	Blank	Blank	52.951	n/a	1	2	15	n/a	35	n/a	1	n/a	n/a	n/a	n/a	83.983	n/a
56.051	0.497	neutral	Picture	52.437	n/a	1	2	16	n/a	36	25	1	n/a	n/a	n/a	n/a	84.513	BM06NES.jpg
56.548	0.514	Blank	Blank	51.923	n/a	1	2	16	n/a	36	n/a	1	n/a	n/a	n/a	n/a	85.011	n/a
57.079	0.497	neutral	Picture	51.409	n/a	1	2	17	n/a	37	8	1	n/a	n/a	n/a	n/a	85.541	AF14NES.jpg
57.576	0.514	Blank	Blank	50.896	n/a	1	2	17	n/a	37	n/a	1	n/a	n/a	n/a	n/a	86.039	n/a
58.107	0.497	neutral	Picture	50.382	n/a	1	2	18	n/a	38	19	1	n/a	n/a	n/a	n/a	86.569	AF31NES.jpg
58.604	0.514	Blank	Blank	49.868	n/a	1	2	18	n/a	38	n/a	1	n/a	n/a	n/a	n/a	87.067	n/a
59.135	0.497	neutral	Picture	49.354	n/a	1	2	19	n/a	39	14	1	n/a	n/a	n/a	n/a	87.597	AF23NES.jpg
59.632	0.514	Blank	Blank	48.84	n/a	1	2	19	n/a	39	n/a	1	n/a	n/a	n/a	n/a	88.094	n/a
60.163	0.497	neutral	Picture	48.326	n/a	1	2	20	n/a	40	4	1	n/a	n/a	n/a	n/a	88.625	AF05NES.jpg
60.66	0.514	Blank	Blank	47.812	n/a	1	2	20	n/a	40	n/a	1	n/a	n/a	n/a	n/a	89.122	n/a
61.191	10.014	ITI	Fixation+	37.782	n/a	1	n/a	n/a	n/a	n/a	n/a	n/a	n/a	n/a	n/a	n/a	89.653	n/a
71.221	0.497	angry	Picture	37.268	n/a	1	3	1	n/a	41	84	3	n/a	n/a	n/a	n/a	99.683	AF05ANS.jpg
71.718	0.514	Blank	Blank	36.754	n/a	1	3	1	n/a	41	n/a	3	n/a	n/a	n/a	n/a	100.18	n/a
72.249	0.497	angry	Picture	36.24	n/a	1	3	2	n/a	42	92	3	n/a	n/a	n/a	n/a	100.711	AF21ANS.jpg
72.746	0.514	Blank	Blank	35.726	n/a	1	3	2	n/a	42	n/a	3	n/a	n/a	n/a	n/a	101.208	n/a
73.276	0.497	angry	Picture	35.212	n/a	1	3	3	n/a	43	86	3	n/a	n/a	n/a	n/a	101.739	AF09ANS.jpg
73.774	0.514	Blank	Blank	34.698	n/a	1	3	3	n/a	43	n/a	3	n/a	n/a	n/a	n/a	102.236	n/a
74.304	0.497	angry	Picture	34.184	n/a	1	3	4	n/a	44	93	3	n/a	n/a	n/a	n/a	102.767	BF22ANS.jpg
74.802	0.514	Blank	Blank	33.67	n/a	1	3	4	n/a	44	n/a	3	n/a	n/a	n/a	n/a	103.264	n/a
75.332	0.497	angry	Picture	33.156	n/a	1	3	5	n/a	45	88	3	n/a	n/a	n/a	n/a	103.795	AF14ANS.jpg
75.83	0.514	Blank	Blank	32.642	n/a	1	3	5	n/a	45	n/a	3	n/a	n/a	n/a	n/a	104.292	n/a
76.36	0.497	angry	Picture	32.128	n/a	1	3	6	n/a	46	113	3	n/a	n/a	n/a	n/a	104.823	AM21ANS.jpg
76.858	0.514	Blank	Blank	31.614	n/a	1	3	6	n/a	46	n/a	3	n/a	n/a	n/a	n/a	105.32	n/a
77.388	0.497	angry	Picture	31.1	n/a	1	3	7	n/a	47	95	3	n/a	n/a	n/a	n/a	105.85	AF25ANS.jpg
77.885	0.514	Blank	Blank	30.586	n/a	1	3	7	n/a	47	n/a	3	n/a	n/a	n/a	n/a	106.348	n/a
78.416	0.497	angry	Picture	30.073	n/a	1	3	8	n/a	48	102	3	n/a	n/a	n/a	n/a	106.878	BM03ANS.jpg
78.913	0.514	Blank	Blank	29.559	n/a	1	3	8	n/a	48	n/a	3	n/a	n/a	n/a	n/a	107.376	n/a
79.444	0.497	angry	Picture	29.045	n/a	1	3	9	n/a	49	112	3	n/a	n/a	n/a	n/a	107.906	AM14ANS.jpg
79.941	0.514	Blank	Blank	28.531	n/a	1	3	9	n/a	49	n/a	3	n/a	n/a	n/a	n/a	108.403	n/a
80.472	0.497	angry	Picture	28.017	n/a	1	3	10	n/a	50	83	3	n/a	n/a	n/a	n/a	108.934	BF04ANS.jpg
80.969	0.514	Blank	Blank	27.503	n/a	1	3	10	n/a	50	n/a	3	n/a	n/a	n/a	n/a	109.431	n/a
81.499	0.497	angry	Picture	26.989	n/a	1	3	11	n/a	51	90	3	n/a	n/a	n/a	n/a	109.962	AF18ANS.jpg
81.997	0.514	Blank	Blank	26.475	n/a	1	3	11	n/a	51	n/a	3	n/a	n/a	n/a	n/a	110.459	n/a
82.527	0.497	angry	Picture	25.961	n/a	1	3	12	n/a	52	117	3	n/a	n/a	n/a	n/a	110.99	BM25ANS.jpg
83.025	0.514	Blank	Blank	25.447	n/a	1	3	12	n/a	52	n/a	3	n/a	n/a	n/a	n/a	111.487	n/a
83.555	0.497	angry	Picture	24.933	n/a	1	3	13	n/a	53	94	3	n/a	n/a	n/a	n/a	112.018	AF23ANS.jpg
84.053	0.514	Blank	Blank	24.419	n/a	1	3	13	n/a	53	n/a	3	n/a	n/a	n/a	n/a	112.515	n/a
84.583	0.497	angry	Picture	23.905	n/a	1	3	14	n/a	54	106	3	n/a	n/a	n/a	n/a	113.046	AM07ANS.jpg
85.081	0.514	Blank	Blank	23.391	n/a	1	3	14	n/a	54	n/a	3	n/a	n/a	n/a	n/a	113.543	n/a
85.611	0.497	angry	Picture	22.877	n/a	1	3	15	n/a	55	105	3	n/a	n/a	n/a	n/a	114.073	BM06ANS.jpg
86.108	0.514	Blank	Blank	22.363	n/a	1	3	15	n/a	55	n/a	3	n/a	n/a	n/a	n/a	114.571	n/a
86.639	0.497	angry	Picture	21.849	n/a	1	3	16	n/a	56	116	3	n/a	n/a	n/a	n/a	115.101	BM24ANS.jpg
87.136	0.514	Blank	Blank	21.335	n/a	1	3	16	n/a	56	n/a	3	n/a	n/a	n/a	n/a	115.599	n/a
87.667	0.497	angry	Picture	20.822	n/a	1	3	17	n/a	57	89	3	n/a	n/a	n/a	n/a	116.129	AF17ANS.jpg
88.164	0.514	Blank	Blank	20.308	n/a	1	3	17	n/a	57	n/a	3	n/a	n/a	n/a	n/a	116.627	n/a
88.695	0.497	angry	Picture	19.794	n/a	1	3	18	n/a	58	118	3	n/a	n/a	n/a	n/a	117.157	BM26ANS.jpg
89.192	0.514	Blank	Blank	19.28	n/a	1	3	18	n/a	58	n/a	3	n/a	n/a	n/a	n/a	117.654	n/a
89.723	0.497	angry	Picture	18.766	n/a	1	3	19	n/a	59	100	3	n/a	n/a	n/a	n/a	118.185	AF32ANS.jpg
90.22	0.514	Blank	Blank	18.252	n/a	1	3	19	n/a	59	n/a	3	n/a	n/a	n/a	n/a	118.682	n/a
90.751	0.497	angry	Picture	17.738	n/a	1	3	20	n/a	60	119	3	n/a	n/a	n/a	n/a	119.213	BM28ANS.jpg
91.248	0.514	Blank	Blank	17.224	n/a	1	3	20	n/a	60	n/a	3	n/a	n/a	n/a	n/a	119.71	n/a
91.778	10.014	ITI	Fixation+	7.194	n/a	1	n/a	n/a	n/a	n/a	n/a	n/a	n/a	n/a	n/a	n/a	120.241	n/a
108.986	n/a	ConfirmRating	Rate	n/a	7.178	1	n/a	n/a	0	n/a	n/a	n/a	2	Angry	50	50	137.448	n/a
117.948	n/a	ConfirmRating	Rate	n/a	8.952	1	n/a	n/a	1	n/a	n/a	n/a	3	Angry	0	45	146.411	n/a
117.973	10.014	ITI	Fixation+	96.189	n/a	2	n/a	n/a	n/a	n/a	n/a	n/a	n/a	n/a	n/a	n/a	146.435	n/a
128.003	0.497	happy	Picture	95.675	n/a	2	4	1	n/a	61	79	2	n/a	n/a	n/a	n/a	156.465	BM28HAS.jpg
128.5	0.514	Blank	Blank	95.162	n/a	2	4	1	n/a	61	n/a	2	n/a	n/a	n/a	n/a	156.963	n/a
129.031	0.497	happy	Picture	94.648	n/a	2	4	2	n/a	62	61	2	n/a	n/a	n/a	n/a	157.493	AM01HAS.jpg
129.528	0.514	Blank	Blank	94.134	n/a	2	4	2	n/a	62	n/a	2	n/a	n/a	n/a	n/a	157.991	n/a
130.059	0.497	happy	Picture	93.62	n/a	2	4	3	n/a	63	57	2	n/a	n/a	n/a	n/a	158.521	BF28HAS.jpg
130.556	0.514	Blank	Blank	93.106	n/a	2	4	3	n/a	63	n/a	2	n/a	n/a	n/a	n/a	159.019	n/a
131.087	0.497	happy	Picture	92.592	n/a	2	4	4	n/a	64	77	2	n/a	n/a	n/a	n/a	159.549	BM25HAS.jpg
131.584	0.514	Blank	Blank	92.078	n/a	2	4	4	n/a	64	n/a	2	n/a	n/a	n/a	n/a	160.047	n/a
132.115	0.497	happy	Picture	91.564	n/a	2	4	5	n/a	65	47	2	n/a	n/a	n/a	n/a	160.577	BF11HAS.jpg
132.612	0.514	Blank	Blank	91.05	n/a	2	4	5	n/a	65	n/a	2	n/a	n/a	n/a	n/a	161.074	n/a
133.142	0.497	happy	Picture	90.536	n/a	2	4	6	n/a	66	50	2	n/a	n/a	n/a	n/a	161.605	AF18HAS.jpg
133.64	0.514	Blank	Blank	90.022	n/a	2	4	6	n/a	66	n/a	2	n/a	n/a	n/a	n/a	162.102	n/a
134.17	0.497	happy	Picture	89.508	n/a	2	4	7	n/a	67	78	2	n/a	n/a	n/a	n/a	162.633	BM26HAS.jpg
134.668	0.514	Blank	Blank	88.994	n/a	2	4	7	n/a	67	n/a	2	n/a	n/a	n/a	n/a	163.13	n/a
135.198	0.497	happy	Picture	88.48	n/a	2	4	8	n/a	68	45	2	n/a	n/a	n/a	n/a	163.661	BF07HAS.jpg
135.696	0.514	Blank	Blank	87.966	n/a	2	4	8	n/a	68	n/a	2	n/a	n/a	n/a	n/a	164.158	n/a
136.226	0.497	happy	Picture	87.452	n/a	2	4	9	n/a	69	56	2	n/a	n/a	n/a	n/a	164.689	AF26HAS.jpg
136.724	0.514	Blank	Blank	86.938	n/a	2	4	9	n/a	69	n/a	2	n/a	n/a	n/a	n/a	165.186	n/a
137.254	0.497	happy	Picture	86.425	n/a	2	4	10	n/a	70	65	2	n/a	n/a	n/a	n/a	165.716	BM06HAS.jpg
137.751	0.514	Blank	Blank	85.911	n/a	2	4	10	n/a	70	n/a	2	n/a	n/a	n/a	n/a	166.214	n/a
138.282	0.497	happy	Picture	85.397	n/a	2	4	11	n/a	71	73	2	n/a	n/a	n/a	n/a	166.744	AM21HAS.jpg
138.779	0.514	Blank	Blank	84.883	n/a	2	4	11	n/a	71	n/a	2	n/a	n/a	n/a	n/a	167.242	n/a
139.31	0.497	happy	Picture	84.369	n/a	2	4	12	n/a	72	41	2	n/a	n/a	n/a	n/a	167.772	AF01HAS.jpg
139.807	0.514	Blank	Blank	83.855	n/a	2	4	12	n/a	72	n/a	2	n/a	n/a	n/a	n/a	168.27	n/a
140.338	0.497	happy	Picture	83.341	n/a	2	4	13	n/a	73	59	2	n/a	n/a	n/a	n/a	168.8	AF31HAS.jpg
140.835	0.514	Blank	Blank	82.827	n/a	2	4	13	n/a	73	n/a	2	n/a	n/a	n/a	n/a	169.298	n/a
141.366	0.497	happy	Picture	82.313	n/a	2	4	14	n/a	74	64	2	n/a	n/a	n/a	n/a	169.828	BM05HAS.jpg
141.863	0.514	Blank	Blank	81.799	n/a	2	4	14	n/a	74	n/a	2	n/a	n/a	n/a	n/a	170.325	n/a
142.393	0.497	happy	Picture	81.285	n/a	2	4	15	n/a	75	68	2	n/a	n/a	n/a	n/a	170.856	AM09HAS.jpg
142.891	0.514	Blank	Blank	80.771	n/a	2	4	15	n/a	75	n/a	2	n/a	n/a	n/a	n/a	171.353	n/a
143.421	0.497	happy	Picture	80.257	n/a	2	4	16	n/a	76	54	2	n/a	n/a	n/a	n/a	171.884	AF23HAS.jpg
143.919	0.514	Blank	Blank	79.743	n/a	2	4	16	n/a	76	n/a	2	n/a	n/a	n/a	n/a	172.381	n/a
144.449	0.497	happy	Picture	79.229	n/a	2	4	17	n/a	77	53	2	n/a	n/a	n/a	n/a	172.912	BF22HAS.jpg
144.947	0.514	Blank	Blank	78.715	n/a	2	4	17	n/a	77	n/a	2	n/a	n/a	n/a	n/a	173.409	n/a
145.477	0.497	happy	Picture	78.201	n/a	2	4	18	n/a	78	44	2	n/a	n/a	n/a	n/a	173.94	AF05HAS.jpg
145.975	0.514	Blank	Blank	77.687	n/a	2	4	18	n/a	78	n/a	2	n/a	n/a	n/a	n/a	174.437	n/a
146.505	0.497	happy	Picture	77.174	n/a	2	4	19	n/a	79	52	2	n/a	n/a	n/a	n/a	174.967	AF21HAS.jpg
147.002	0.514	Blank	Blank	76.66	n/a	2	4	19	n/a	79	n/a	2	n/a	n/a	n/a	n/a	175.465	n/a
147.533	0.497	happy	Picture	76.146	n/a	2	4	20	n/a	80	62	2	n/a	n/a	n/a	n/a	175.995	BM03HAS.jpg
148.03	0.514	Blank	Blank	75.632	n/a	2	4	20	n/a	80	n/a	2	n/a	n/a	n/a	n/a	176.493	n/a
148.561	10.014	ITI	Fixation+	65.602	n/a	2	n/a	n/a	n/a	n/a	n/a	n/a	n/a	n/a	n/a	n/a	177.023	n/a
158.591	0.497	neutral	Picture	65.088	n/a	2	5	1	n/a	81	23	1	n/a	n/a	n/a	n/a	187.053	AM04NES.jpg
159.088	0.514	Blank	Blank	64.574	n/a	2	5	1	n/a	81	n/a	1	n/a	n/a	n/a	n/a	187.551	n/a
159.619	0.497	neutral	Picture	64.06	n/a	2	5	2	n/a	82	29	1	n/a	n/a	n/a	n/a	188.081	AM10NES.jpg
160.116	0.514	Blank	Blank	63.546	n/a	2	5	2	n/a	82	n/a	1	n/a	n/a	n/a	n/a	188.579	n/a
160.647	0.497	neutral	Picture	63.032	n/a	2	5	3	n/a	83	24	1	n/a	n/a	n/a	n/a	189.109	BM05NES.jpg
161.144	0.514	Blank	Blank	62.518	n/a	2	5	3	n/a	83	n/a	1	n/a	n/a	n/a	n/a	189.607	n/a
161.675	0.497	neutral	Picture	62.004	n/a	2	5	4	n/a	84	12	1	n/a	n/a	n/a	n/a	190.137	AF21NES.jpg
162.172	0.514	Blank	Blank	61.49	n/a	2	5	4	n/a	84	n/a	1	n/a	n/a	n/a	n/a	190.634	n/a
162.702	0.497	neutral	Picture	60.976	n/a	2	5	5	n/a	85	13	1	n/a	n/a	n/a	n/a	191.165	BF22NES.jpg
163.2	0.514	Blank	Blank	60.462	n/a	2	5	5	n/a	85	n/a	1	n/a	n/a	n/a	n/a	191.662	n/a
163.73	0.497	neutral	Picture	59.948	n/a	2	5	6	n/a	86	17	1	n/a	n/a	n/a	n/a	192.193	BF28NES.jpg
164.228	0.514	Blank	Blank	59.434	n/a	2	5	6	n/a	86	n/a	1	n/a	n/a	n/a	n/a	192.69	n/a
164.758	0.497	neutral	Picture	58.92	n/a	2	5	7	n/a	87	4	1	n/a	n/a	n/a	n/a	193.221	AF05NES.jpg
165.256	0.514	Blank	Blank	58.406	n/a	2	5	7	n/a	87	n/a	1	n/a	n/a	n/a	n/a	193.718	n/a
165.786	0.497	neutral	Picture	57.892	n/a	2	5	8	n/a	88	11	1	n/a	n/a	n/a	n/a	194.249	AF20NES.jpg
166.284	0.514	Blank	Blank	57.378	n/a	2	5	8	n/a	88	n/a	1	n/a	n/a	n/a	n/a	194.746	n/a
166.814	0.497	neutral	Picture	56.864	n/a	2	5	9	n/a	89	22	1	n/a	n/a	n/a	n/a	195.276	BM03NES.jpg
167.311	0.514	Blank	Blank	56.351	n/a	2	5	9	n/a	89	n/a	1	n/a	n/a	n/a	n/a	195.774	n/a
167.842	0.497	neutral	Picture	55.837	n/a	2	5	10	n/a	90	15	1	n/a	n/a	n/a	n/a	196.304	AF25NES.jpg
168.339	0.514	Blank	Blank	55.323	n/a	2	5	10	n/a	90	n/a	1	n/a	n/a	n/a	n/a	196.802	n/a
168.87	0.497	neutral	Picture	54.809	n/a	2	5	11	n/a	91	19	1	n/a	n/a	n/a	n/a	197.332	AF31NES.jpg
169.367	0.514	Blank	Blank	54.295	n/a	2	5	11	n/a	91	n/a	1	n/a	n/a	n/a	n/a	197.83	n/a
169.898	0.497	neutral	Picture	53.781	n/a	2	5	12	n/a	92	9	1	n/a	n/a	n/a	n/a	198.36	AF17NES.jpg
170.395	0.514	Blank	Blank	53.267	n/a	2	5	12	n/a	92	n/a	1	n/a	n/a	n/a	n/a	198.857	n/a
170.926	0.497	neutral	Picture	52.753	n/a	2	5	13	n/a	93	14	1	n/a	n/a	n/a	n/a	199.388	AF23NES.jpg
171.423	0.514	Blank	Blank	52.239	n/a	2	5	13	n/a	93	n/a	1	n/a	n/a	n/a	n/a	199.885	n/a
171.953	0.497	neutral	Picture	51.725	n/a	2	5	14	n/a	94	36	1	n/a	n/a	n/a	n/a	200.416	BM24NES.jpg
172.451	0.514	Blank	Blank	51.211	n/a	2	5	14	n/a	94	n/a	1	n/a	n/a	n/a	n/a	200.913	n/a
172.981	0.497	neutral	Picture	50.697	n/a	2	5	15	n/a	95	34	1	n/a	n/a	n/a	n/a	201.444	AM22NES.jpg
173.479	0.514	Blank	Blank	50.183	n/a	2	5	15	n/a	95	n/a	1	n/a	n/a	n/a	n/a	201.941	n/a
174.009	0.497	neutral	Picture	49.669	n/a	2	5	16	n/a	96	10	1	n/a	n/a	n/a	n/a	202.472	AF18NES.jpg
174.507	0.514	Blank	Blank	49.155	n/a	2	5	16	n/a	96	n/a	1	n/a	n/a	n/a	n/a	202.969	n/a
175.037	0.497	neutral	Picture	48.642	n/a	2	5	17	n/a	97	5	1	n/a	n/a	n/a	n/a	203.5	BF07NES.jpg
175.535	0.514	Blank	Blank	48.127	n/a	2	5	17	n/a	97	n/a	1	n/a	n/a	n/a	n/a	203.997	n/a
176.065	0.497	neutral	Picture	47.614	n/a	2	5	18	n/a	98	25	1	n/a	n/a	n/a	n/a	204.528	BM06NES.jpg
176.562	0.514	Blank	Blank	47.1	n/a	2	5	18	n/a	98	n/a	1	n/a	n/a	n/a	n/a	205.025	n/a
177.093	0.497	neutral	Picture	46.586	n/a	2	5	19	n/a	99	39	1	n/a	n/a	n/a	n/a	205.555	AM28NES.jpg
177.59	0.514	Blank	Blank	46.072	n/a	2	5	19	n/a	99	n/a	1	n/a	n/a	n/a	n/a	206.053	n/a
178.121	0.497	neutral	Picture	45.558	n/a	2	5	20	n/a	100	33	1	n/a	n/a	n/a	n/a	206.583	AM21NES.jpg
178.618	0.514	Blank	Blank	45.044	n/a	2	5	20	n/a	100	n/a	1	n/a	n/a	n/a	n/a	207.081	n/a
179.149	10.014	ITI	Fixation+	35.014	n/a	2	n/a	n/a	n/a	n/a	n/a	n/a	n/a	n/a	n/a	n/a	207.611	n/a
189.179	0.497	happy	Picture	34.5	n/a	2	6	1	n/a	101	74	2	n/a	n/a	n/a	n/a	217.641	AM22HAS.jpg
189.676	0.514	Blank	Blank	33.986	n/a	2	6	1	n/a	101	n/a	2	n/a	n/a	n/a	n/a	218.139	n/a
190.207	0.497	happy	Picture	33.472	n/a	2	6	2	n/a	102	76	2	n/a	n/a	n/a	n/a	218.669	BM24HAS.jpg
190.704	0.514	Blank	Blank	32.958	n/a	2	6	2	n/a	102	n/a	2	n/a	n/a	n/a	n/a	219.167	n/a
191.235	0.497	happy	Picture	32.444	n/a	2	6	3	n/a	103	80	2	n/a	n/a	n/a	n/a	219.697	BM35HAS.jpg
191.732	0.514	Blank	Blank	31.93	n/a	2	6	3	n/a	103	n/a	2	n/a	n/a	n/a	n/a	220.194	n/a
192.263	0.497	happy	Picture	31.416	n/a	2	6	4	n/a	104	75	2	n/a	n/a	n/a	n/a	220.725	AM23HAS.jpg
192.76	0.514	Blank	Blank	30.902	n/a	2	6	4	n/a	104	n/a	2	n/a	n/a	n/a	n/a	221.222	n/a
193.291	0.497	happy	Picture	30.388	n/a	2	6	5	n/a	105	49	2	n/a	n/a	n/a	n/a	221.753	AF17HAS.jpg
193.788	0.514	Blank	Blank	29.874	n/a	2	6	5	n/a	105	n/a	2	n/a	n/a	n/a	n/a	222.25	n/a
194.318	0.497	happy	Picture	29.36	n/a	2	6	6	n/a	106	43	2	n/a	n/a	n/a	n/a	222.781	BF04HAS.jpg
194.816	0.514	Blank	Blank	28.846	n/a	2	6	6	n/a	106	n/a	2	n/a	n/a	n/a	n/a	223.278	n/a
195.346	0.497	happy	Picture	28.332	n/a	2	6	7	n/a	107	70	2	n/a	n/a	n/a	n/a	223.809	BM11HAS.jpg
195.844	0.514	Blank	Blank	27.818	n/a	2	6	7	n/a	107	n/a	2	n/a	n/a	n/a	n/a	224.306	n/a
196.374	0.497	happy	Picture	27.304	n/a	2	6	8	n/a	108	66	2	n/a	n/a	n/a	n/a	224.837	BM07HAS.jpg
196.871	0.514	Blank	Blank	26.791	n/a	2	6	8	n/a	108	n/a	2	n/a	n/a	n/a	n/a	225.334	n/a
197.402	0.497	happy	Picture	26.277	n/a	2	6	9	n/a	109	48	2	n/a	n/a	n/a	n/a	225.864	AF14HAS.jpg
197.899	0.514	Blank	Blank	25.763	n/a	2	6	9	n/a	109	n/a	2	n/a	n/a	n/a	n/a	226.362	n/a
198.43	0.497	happy	Picture	25.249	n/a	2	6	10	n/a	110	58	2	n/a	n/a	n/a	n/a	226.892	BF29HAS.jpg
198.927	0.514	Blank	Blank	24.735	n/a	2	6	10	n/a	110	n/a	2	n/a	n/a	n/a	n/a	227.39	n/a
199.458	0.497	happy	Picture	24.221	n/a	2	6	11	n/a	111	63	2	n/a	n/a	n/a	n/a	227.92	AM04HAS.jpg
199.955	0.514	Blank	Blank	23.707	n/a	2	6	11	n/a	111	n/a	2	n/a	n/a	n/a	n/a	228.417	n/a
200.486	0.497	happy	Picture	23.193	n/a	2	6	12	n/a	112	72	2	n/a	n/a	n/a	n/a	228.948	AM14HAS.jpg
200.983	0.514	Blank	Blank	22.679	n/a	2	6	12	n/a	112	n/a	2	n/a	n/a	n/a	n/a	229.445	n/a
201.513	0.497	happy	Picture	22.165	n/a	2	6	13	n/a	113	55	2	n/a	n/a	n/a	n/a	229.976	AF25HAS.jpg
202.011	0.514	Blank	Blank	21.651	n/a	2	6	13	n/a	113	n/a	2	n/a	n/a	n/a	n/a	230.473	n/a
202.541	0.497	happy	Picture	21.137	n/a	2	6	14	n/a	114	42	2	n/a	n/a	n/a	n/a	231.004	AF03HAS.jpg
203.039	0.514	Blank	Blank	20.623	n/a	2	6	14	n/a	114	n/a	2	n/a	n/a	n/a	n/a	231.501	n/a
203.569	0.497	happy	Picture	20.109	n/a	2	6	15	n/a	115	60	2	n/a	n/a	n/a	n/a	232.032	AF32HAS.jpg
204.067	0.514	Blank	Blank	19.595	n/a	2	6	15	n/a	115	n/a	2	n/a	n/a	n/a	n/a	232.529	n/a
204.597	0.497	happy	Picture	19.081	n/a	2	6	16	n/a	116	67	2	n/a	n/a	n/a	n/a	233.06	BM08HAS.jpg
205.095	0.514	Blank	Blank	18.567	n/a	2	6	16	n/a	116	n/a	2	n/a	n/a	n/a	n/a	233.557	n/a
205.625	0.497	happy	Picture	18.053	n/a	2	6	17	n/a	117	51	2	n/a	n/a	n/a	n/a	234.088	AF20HAS.jpg
206.123	0.514	Blank	Blank	17.54	n/a	2	6	17	n/a	117	n/a	2	n/a	n/a	n/a	n/a	234.585	n/a
206.653	0.497	happy	Picture	17.026	n/a	2	6	18	n/a	118	71	2	n/a	n/a	n/a	n/a	235.115	BM12HAS.jpg
207.15	0.514	Blank	Blank	16.512	n/a	2	6	18	n/a	118	n/a	2	n/a	n/a	n/a	n/a	235.613	n/a
207.681	0.497	happy	Picture	15.998	n/a	2	6	19	n/a	119	69	2	n/a	n/a	n/a	n/a	236.143	AM10HAS.jpg
208.178	0.514	Blank	Blank	15.484	n/a	2	6	19	n/a	119	n/a	2	n/a	n/a	n/a	n/a	236.641	n/a
208.709	0.497	happy	Picture	14.97	n/a	2	6	20	n/a	120	46	2	n/a	n/a	n/a	n/a	237.171	AF09HAS.jpg
209.206	0.514	Blank	Blank	14.456	n/a	2	6	20	n/a	120	n/a	2	n/a	n/a	n/a	n/a	237.668	n/a
209.737	10.014	ITI	Fixation+	4.426	n/a	2	n/a	n/a	n/a	n/a	n/a	n/a	n/a	n/a	n/a	n/a	238.199	n/a
224.176	n/a	ConfirmRating	Rate	n/a	4.41	2	n/a	n/a	0	n/a	n/a	n/a	2	Happy	16	48	252.638	n/a
228.32	n/a	ConfirmRating	Rate	n/a	4.128	2	n/a	n/a	1	n/a	n/a	n/a	3	Happy	0	49	256.782	n/a
228.338	15.004	Rest	Picture	n/a	n/a	n/a	n/a	n/a	n/a	n/a	n/a	n/a	0	n/a	0	0	256.8	n/a
243.358	10.014	ITI	Fixation+	100.367	n/a	3	n/a	n/a	n/a	n/a	n/a	n/a	n/a	n/a	n/a	n/a	271.821	n/a
253.389	0.497	angry	Picture	99.853	n/a	3	7	1	n/a	1	108	3	n/a	n/a	n/a	n/a	281.851	AM09ANS.jpg
253.886	0.514	Blank	Blank	99.339	n/a	3	7	1	n/a	1	n/a	3	n/a	n/a	n/a	n/a	282.348	n/a
254.416	0.497	angry	Picture	98.825	n/a	3	7	2	n/a	2	99	3	n/a	n/a	n/a	n/a	282.879	AF31ANS.jpg
254.914	0.514	Blank	Blank	98.311	n/a	3	7	2	n/a	2	n/a	3	n/a	n/a	n/a	n/a	283.376	n/a
255.444	0.497	angry	Picture	97.797	n/a	3	7	3	n/a	3	98	3	n/a	n/a	n/a	n/a	283.907	BF29ANS.jpg
255.942	0.514	Blank	Blank	97.283	n/a	3	7	3	n/a	3	n/a	3	n/a	n/a	n/a	n/a	284.404	n/a
256.472	0.497	angry	Picture	96.769	n/a	3	7	4	n/a	4	107	3	n/a	n/a	n/a	n/a	284.935	BM08ANS.jpg
256.97	0.514	Blank	Blank	96.256	n/a	3	7	4	n/a	4	n/a	3	n/a	n/a	n/a	n/a	285.432	n/a
257.5	0.497	angry	Picture	95.741	n/a	3	7	5	n/a	5	104	3	n/a	n/a	n/a	n/a	285.963	BM05ANS.jpg
257.998	0.514	Blank	Blank	95.228	n/a	3	7	5	n/a	5	n/a	3	n/a	n/a	n/a	n/a	286.46	n/a
258.528	0.497	angry	Picture	94.714	n/a	3	7	6	n/a	6	101	3	n/a	n/a	n/a	n/a	286.99	AM01ANS.jpg
259.025	0.514	Blank	Blank	94.2	n/a	3	7	6	n/a	6	n/a	3	n/a	n/a	n/a	n/a	287.488	n/a
259.556	0.497	angry	Picture	93.686	n/a	3	7	7	n/a	7	103	3	n/a	n/a	n/a	n/a	288.018	AM04ANS.jpg
260.053	0.514	Blank	Blank	93.172	n/a	3	7	7	n/a	7	n/a	3	n/a	n/a	n/a	n/a	288.516	n/a
260.584	0.497	angry	Picture	92.658	n/a	3	7	8	n/a	8	111	3	n/a	n/a	n/a	n/a	289.046	BM12ANS.jpg
261.081	0.514	Blank	Blank	92.144	n/a	3	7	8	n/a	8	n/a	3	n/a	n/a	n/a	n/a	289.544	n/a
261.612	0.497	angry	Picture	91.63	n/a	3	7	9	n/a	9	110	3	n/a	n/a	n/a	n/a	290.074	AM11ANS.jpg
262.109	0.514	Blank	Blank	91.116	n/a	3	7	9	n/a	9	n/a	3	n/a	n/a	n/a	n/a	290.572	n/a
262.64	0.497	angry	Picture	90.602	n/a	3	7	10	n/a	10	85	3	n/a	n/a	n/a	n/a	291.102	BF07ANS.jpg
263.137	0.514	Blank	Blank	90.088	n/a	3	7	10	n/a	10	n/a	3	n/a	n/a	n/a	n/a	291.599	n/a
263.668	0.497	angry	Picture	89.574	n/a	3	7	11	n/a	11	87	3	n/a	n/a	n/a	n/a	292.13	BF11ANS.jpg
264.165	0.514	Blank	Blank	89.06	n/a	3	7	11	n/a	11	n/a	3	n/a	n/a	n/a	n/a	292.627	n/a
264.695	0.497	angry	Picture	88.546	n/a	3	7	12	n/a	12	91	3	n/a	n/a	n/a	n/a	293.158	AF20ANS.jpg
265.193	0.514	Blank	Blank	88.032	n/a	3	7	12	n/a	12	n/a	3	n/a	n/a	n/a	n/a	293.655	n/a
265.723	0.497	angry	Picture	87.518	n/a	3	7	13	n/a	13	115	3	n/a	n/a	n/a	n/a	294.186	AM23ANS.jpg
266.221	0.514	Blank	Blank	87.005	n/a	3	7	13	n/a	13	n/a	3	n/a	n/a	n/a	n/a	294.683	n/a
266.751	0.497	angry	Picture	86.491	n/a	3	7	14	n/a	14	97	3	n/a	n/a	n/a	n/a	295.214	BF28ANS.jpg
267.248	0.514	Blank	Blank	85.977	n/a	3	7	14	n/a	14	n/a	3	n/a	n/a	n/a	n/a	295.711	n/a
267.779	0.497	angry	Picture	85.463	n/a	3	7	15	n/a	15	82	3	n/a	n/a	n/a	n/a	296.241	AF03ANS.jpg
268.276	0.514	Blank	Blank	84.949	n/a	3	7	15	n/a	15	n/a	3	n/a	n/a	n/a	n/a	296.739	n/a
268.807	0.497	angry	Picture	84.435	n/a	3	7	16	n/a	16	96	3	n/a	n/a	n/a	n/a	297.269	AF26ANS.jpg
269.304	0.514	Blank	Blank	83.921	n/a	3	7	16	n/a	16	n/a	3	n/a	n/a	n/a	n/a	297.767	n/a
269.835	0.497	angry	Picture	83.407	n/a	3	7	17	n/a	17	109	3	n/a	n/a	n/a	n/a	298.297	AM10ANS.jpg
270.332	0.514	Blank	Blank	82.893	n/a	3	7	17	n/a	17	n/a	3	n/a	n/a	n/a	n/a	298.795	n/a
270.863	0.497	angry	Picture	82.379	n/a	3	7	18	n/a	18	114	3	n/a	n/a	n/a	n/a	299.325	AM22ANS.jpg
271.36	0.514	Blank	Blank	81.865	n/a	3	7	18	n/a	18	n/a	3	n/a	n/a	n/a	n/a	299.822	n/a
271.891	0.497	angry	Picture	81.351	n/a	3	7	19	n/a	19	120	3	n/a	n/a	n/a	n/a	300.353	AM35ANS.jpg
272.388	0.514	Blank	Blank	80.837	n/a	3	7	19	n/a	19	n/a	3	n/a	n/a	n/a	n/a	300.85	n/a
272.918	0.497	angry	Picture	80.323	n/a	3	7	20	n/a	20	81	3	n/a	n/a	n/a	n/a	301.381	AF01ANS.jpg
273.416	0.514	Blank	Blank	79.809	n/a	3	7	20	n/a	20	n/a	3	n/a	n/a	n/a	n/a	301.878	n/a
273.946	10.014	ITI	Fixation+	69.779	n/a	3	n/a	n/a	n/a	n/a	n/a	n/a	n/a	n/a	n/a	n/a	302.409	n/a
283.977	0.497	neutral	Picture	69.265	n/a	3	8	1	n/a	21	28	1	n/a	n/a	n/a	n/a	312.439	AM09NES.jpg
284.474	0.514	Blank	Blank	68.751	n/a	3	8	1	n/a	21	n/a	1	n/a	n/a	n/a	n/a	312.936	n/a
285.004	0.497	neutral	Picture	68.237	n/a	3	8	2	n/a	22	27	1	n/a	n/a	n/a	n/a	313.467	BM08NES.jpg
285.502	0.514	Blank	Blank	67.723	n/a	3	8	2	n/a	22	n/a	1	n/a	n/a	n/a	n/a	313.964	n/a
286.032	0.497	neutral	Picture	67.209	n/a	3	8	3	n/a	23	16	1	n/a	n/a	n/a	n/a	314.495	AF26NES.jpg
286.53	0.514	Blank	Blank	66.696	n/a	3	8	3	n/a	23	n/a	1	n/a	n/a	n/a	n/a	314.992	n/a
287.06	0.497	neutral	Picture	66.181	n/a	3	8	4	n/a	24	3	1	n/a	n/a	n/a	n/a	315.523	BF04NES.jpg
287.558	0.514	Blank	Blank	65.668	n/a	3	8	4	n/a	24	n/a	1	n/a	n/a	n/a	n/a	316.02	n/a
288.088	0.497	neutral	Picture	65.154	n/a	3	8	5	n/a	25	32	1	n/a	n/a	n/a	n/a	316.55	AM14NES.jpg
288.586	0.514	Blank	Blank	64.64	n/a	3	8	5	n/a	25	n/a	1	n/a	n/a	n/a	n/a	317.048	n/a
289.116	0.497	neutral	Picture	64.126	n/a	3	8	6	n/a	26	37	1	n/a	n/a	n/a	n/a	317.578	BM25NES.jpg
289.613	0.514	Blank	Blank	63.612	n/a	3	8	6	n/a	26	n/a	1	n/a	n/a	n/a	n/a	318.076	n/a
290.144	0.497	neutral	Picture	63.098	n/a	3	8	7	n/a	27	15	1	n/a	n/a	n/a	n/a	318.606	AF25NES.jpg
290.641	0.514	Blank	Blank	62.584	n/a	3	8	7	n/a	27	n/a	1	n/a	n/a	n/a	n/a	319.104	n/a
291.172	0.497	neutral	Picture	62.07	n/a	3	8	8	n/a	28	23	1	n/a	n/a	n/a	n/a	319.634	AM04NES.jpg
291.669	0.514	Blank	Blank	61.556	n/a	3	8	8	n/a	28	n/a	1	n/a	n/a	n/a	n/a	320.132	n/a
292.2	0.497	neutral	Picture	61.042	n/a	3	8	9	n/a	29	34	1	n/a	n/a	n/a	n/a	320.662	AM22NES.jpg
292.697	0.514	Blank	Blank	60.528	n/a	3	8	9	n/a	29	n/a	1	n/a	n/a	n/a	n/a	321.159	n/a
293.228	0.497	neutral	Picture	60.014	n/a	3	8	10	n/a	30	24	1	n/a	n/a	n/a	n/a	321.69	BM05NES.jpg
293.725	0.514	Blank	Blank	59.5	n/a	3	8	10	n/a	30	n/a	1	n/a	n/a	n/a	n/a	322.187	n/a
294.255	0.497	neutral	Picture	58.986	n/a	3	8	11	n/a	31	12	1	n/a	n/a	n/a	n/a	322.718	AF21NES.jpg
294.753	0.514	Blank	Blank	58.472	n/a	3	8	11	n/a	31	n/a	1	n/a	n/a	n/a	n/a	323.215	n/a
295.283	0.497	neutral	Picture	57.958	n/a	3	8	12	n/a	32	6	1	n/a	n/a	n/a	n/a	323.746	AF09NES.jpg
295.781	0.514	Blank	Blank	57.445	n/a	3	8	12	n/a	32	n/a	1	n/a	n/a	n/a	n/a	324.243	n/a
296.311	0.497	neutral	Picture	56.93	n/a	3	8	13	n/a	33	17	1	n/a	n/a	n/a	n/a	324.774	BF28NES.jpg
296.809	0.514	Blank	Blank	56.417	n/a	3	8	13	n/a	33	n/a	1	n/a	n/a	n/a	n/a	325.271	n/a
297.339	0.497	neutral	Picture	55.903	n/a	3	8	14	n/a	34	2	1	n/a	n/a	n/a	n/a	325.801	AF03NES.jpg
297.836	0.514	Blank	Blank	55.389	n/a	3	8	14	n/a	34	n/a	1	n/a	n/a	n/a	n/a	326.299	n/a
298.367	0.497	neutral	Picture	54.875	n/a	3	8	15	n/a	35	9	1	n/a	n/a	n/a	n/a	326.829	AF17NES.jpg
298.864	0.514	Blank	Blank	54.361	n/a	3	8	15	n/a	35	n/a	1	n/a	n/a	n/a	n/a	327.327	n/a
299.395	0.497	neutral	Picture	53.847	n/a	3	8	16	n/a	36	25	1	n/a	n/a	n/a	n/a	327.857	BM06NES.jpg
299.892	0.514	Blank	Blank	53.333	n/a	3	8	16	n/a	36	n/a	1	n/a	n/a	n/a	n/a	328.355	n/a
300.423	0.497	neutral	Picture	52.819	n/a	3	8	17	n/a	37	8	1	n/a	n/a	n/a	n/a	328.885	AF14NES.jpg
300.92	0.514	Blank	Blank	52.305	n/a	3	8	17	n/a	37	n/a	1	n/a	n/a	n/a	n/a	329.382	n/a
301.451	0.497	neutral	Picture	51.791	n/a	3	8	18	n/a	38	19	1	n/a	n/a	n/a	n/a	329.913	AF31NES.jpg
301.948	0.514	Blank	Blank	51.277	n/a	3	8	18	n/a	38	n/a	1	n/a	n/a	n/a	n/a	330.41	n/a
302.478	0.497	neutral	Picture	50.763	n/a	3	8	19	n/a	39	14	1	n/a	n/a	n/a	n/a	330.941	AF23NES.jpg
302.976	0.514	Blank	Blank	50.249	n/a	3	8	19	n/a	39	n/a	1	n/a	n/a	n/a	n/a	331.438	n/a
303.506	0.497	neutral	Picture	49.735	n/a	3	8	20	n/a	40	4	1	n/a	n/a	n/a	n/a	331.969	AF05NES.jpg
304.004	0.514	Blank	Blank	49.221	n/a	3	8	20	n/a	40	n/a	1	n/a	n/a	n/a	n/a	332.466	n/a
304.534	10.014	ITI	Fixation+	39.191	n/a	3	n/a	n/a	n/a	n/a	n/a	n/a	n/a	n/a	n/a	n/a	332.997	n/a
314.565	0.497	angry	Picture	38.677	n/a	3	9	1	n/a	41	84	3	n/a	n/a	n/a	n/a	343.027	AF05ANS.jpg
315.062	0.514	Blank	Blank	38.163	n/a	3	9	1	n/a	41	n/a	3	n/a	n/a	n/a	n/a	343.524	n/a
315.592	0.497	angry	Picture	37.649	n/a	3	9	2	n/a	42	92	3	n/a	n/a	n/a	n/a	344.055	AF21ANS.jpg
316.09	0.514	Blank	Blank	37.135	n/a	3	9	2	n/a	42	n/a	3	n/a	n/a	n/a	n/a	344.552	n/a
316.62	0.497	angry	Picture	36.621	n/a	3	9	3	n/a	43	86	3	n/a	n/a	n/a	n/a	345.083	AF09ANS.jpg
317.118	0.514	Blank	Blank	36.108	n/a	3	9	3	n/a	43	n/a	3	n/a	n/a	n/a	n/a	345.58	n/a
317.648	0.497	angry	Picture	35.594	n/a	3	9	4	n/a	44	93	3	n/a	n/a	n/a	n/a	346.111	BF22ANS.jpg
318.145	0.514	Blank	Blank	35.08	n/a	3	9	4	n/a	44	n/a	3	n/a	n/a	n/a	n/a	346.608	n/a
318.676	0.497	angry	Picture	34.566	n/a	3	9	5	n/a	45	88	3	n/a	n/a	n/a	n/a	347.138	AF14ANS.jpg
319.173	0.514	Blank	Blank	34.052	n/a	3	9	5	n/a	45	n/a	3	n/a	n/a	n/a	n/a	347.636	n/a
319.704	0.497	angry	Picture	33.538	n/a	3	9	6	n/a	46	113	3	n/a	n/a	n/a	n/a	348.166	AM21ANS.jpg
320.201	0.514	Blank	Blank	33.024	n/a	3	9	6	n/a	46	n/a	3	n/a	n/a	n/a	n/a	348.664	n/a
320.732	0.497	angry	Picture	32.51	n/a	3	9	7	n/a	47	95	3	n/a	n/a	n/a	n/a	349.194	AF25ANS.jpg
321.229	0.514	Blank	Blank	31.996	n/a	3	9	7	n/a	47	n/a	3	n/a	n/a	n/a	n/a	349.692	n/a
321.76	0.497	angry	Picture	31.482	n/a	3	9	8	n/a	48	102	3	n/a	n/a	n/a	n/a	350.222	BM03ANS.jpg
322.257	0.514	Blank	Blank	30.968	n/a	3	9	8	n/a	48	n/a	3	n/a	n/a	n/a	n/a	350.719	n/a
322.788	0.497	angry	Picture	30.454	n/a	3	9	9	n/a	49	112	3	n/a	n/a	n/a	n/a	351.25	AM14ANS.jpg
323.285	0.514	Blank	Blank	29.94	n/a	3	9	9	n/a	49	n/a	3	n/a	n/a	n/a	n/a	351.747	n/a
323.815	0.497	angry	Picture	29.426	n/a	3	9	10	n/a	50	83	3	n/a	n/a	n/a	n/a	352.278	BF04ANS.jpg
324.313	0.514	Blank	Blank	28.912	n/a	3	9	10	n/a	50	n/a	3	n/a	n/a	n/a	n/a	352.775	n/a
324.843	0.497	angry	Picture	28.398	n/a	3	9	11	n/a	51	90	3	n/a	n/a	n/a	n/a	353.306	AF18ANS.jpg
325.341	0.514	Blank	Blank	27.885	n/a	3	9	11	n/a	51	n/a	3	n/a	n/a	n/a	n/a	353.803	n/a
325.871	0.497	angry	Picture	27.37	n/a	3	9	12	n/a	52	117	3	n/a	n/a	n/a	n/a	354.334	BM25ANS.jpg
326.369	0.514	Blank	Blank	26.857	n/a	3	9	12	n/a	52	n/a	3	n/a	n/a	n/a	n/a	354.831	n/a
326.899	0.497	angry	Picture	26.343	n/a	3	9	13	n/a	53	94	3	n/a	n/a	n/a	n/a	355.361	AF23ANS.jpg
327.397	0.514	Blank	Blank	25.829	n/a	3	9	13	n/a	53	n/a	3	n/a	n/a	n/a	n/a	355.859	n/a
327.927	0.497	angry	Picture	25.315	n/a	3	9	14	n/a	54	106	3	n/a	n/a	n/a	n/a	356.389	AM07ANS.jpg
328.424	0.514	Blank	Blank	24.801	n/a	3	9	14	n/a	54	n/a	3	n/a	n/a	n/a	n/a	356.887	n/a
328.955	0.497	angry	Picture	24.287	n/a	3	9	15	n/a	55	105	3	n/a	n/a	n/a	n/a	357.417	BM06ANS.jpg
329.452	0.514	Blank	Blank	23.773	n/a	3	9	15	n/a	55	n/a	3	n/a	n/a	n/a	n/a	357.915	n/a
329.983	0.497	angry	Picture	23.259	n/a	3	9	16	n/a	56	116	3	n/a	n/a	n/a	n/a	358.445	BM24ANS.jpg
330.48	0.514	Blank	Blank	22.745	n/a	3	9	16	n/a	56	n/a	3	n/a	n/a	n/a	n/a	358.942	n/a
331.011	0.497	angry	Picture	22.231	n/a	3	9	17	n/a	57	89	3	n/a	n/a	n/a	n/a	359.473	AF17ANS.jpg
331.508	0.514	Blank	Blank	21.717	n/a	3	9	17	n/a	57	n/a	3	n/a	n/a	n/a	n/a	359.97	n/a
332.038	0.497	angry	Picture	21.203	n/a	3	9	18	n/a	58	118	3	n/a	n/a	n/a	n/a	360.501	BM26ANS.jpg
332.536	0.514	Blank	Blank	20.689	n/a	3	9	18	n/a	58	n/a	3	n/a	n/a	n/a	n/a	360.998	n/a
333.066	0.497	angry	Picture	20.175	n/a	3	9	19	n/a	59	100	3	n/a	n/a	n/a	n/a	361.529	AF32ANS.jpg
333.564	0.514	Blank	Blank	19.661	n/a	3	9	19	n/a	59	n/a	3	n/a	n/a	n/a	n/a	362.026	n/a
334.094	0.497	angry	Picture	19.147	n/a	3	9	20	n/a	60	119	3	n/a	n/a	n/a	n/a	362.557	BM28ANS.jpg
334.592	0.514	Blank	Blank	18.634	n/a	3	9	20	n/a	60	n/a	3	n/a	n/a	n/a	n/a	363.054	n/a
335.122	10.014	ITI	Fixation+	8.603	n/a	3	n/a	n/a	n/a	n/a	n/a	n/a	n/a	n/a	n/a	n/a	363.585	n/a
353.739	n/a	ConfirmRating	Rate	n/a	8.588	3	n/a	n/a	0	n/a	n/a	n/a	2	Angry	8	48	382.202	n/a
357.565	n/a	ConfirmRating	Rate	n/a	3.813	3	n/a	n/a	1	n/a	n/a	n/a	3	Angry	0	49	386.027	n/a
357.587	10.014	ITI	Fixation+	95.871	n/a	4	n/a	n/a	n/a	n/a	n/a	n/a	n/a	n/a	n/a	n/a	386.049	n/a
367.617	0.497	happy	Picture	95.358	n/a	4	10	1	n/a	61	79	2	n/a	n/a	n/a	n/a	396.079	BM28HAS.jpg
368.114	0.514	Blank	Blank	94.844	n/a	4	10	1	n/a	61	n/a	2	n/a	n/a	n/a	n/a	396.576	n/a
368.645	0.497	happy	Picture	94.33	n/a	4	10	2	n/a	62	61	2	n/a	n/a	n/a	n/a	397.107	AM01HAS.jpg
369.142	0.514	Blank	Blank	93.816	n/a	4	10	2	n/a	62	n/a	2	n/a	n/a	n/a	n/a	397.604	n/a
369.672	0.497	happy	Picture	93.302	n/a	4	10	3	n/a	63	57	2	n/a	n/a	n/a	n/a	398.135	BF28HAS.jpg
370.17	0.514	Blank	Blank	92.788	n/a	4	10	3	n/a	63	n/a	2	n/a	n/a	n/a	n/a	398.632	n/a
370.7	0.497	happy	Picture	92.274	n/a	4	10	4	n/a	64	77	2	n/a	n/a	n/a	n/a	399.163	BM25HAS.jpg
371.198	0.514	Blank	Blank	91.76	n/a	4	10	4	n/a	64	n/a	2	n/a	n/a	n/a	n/a	399.66	n/a
371.728	0.497	happy	Picture	91.246	n/a	4	10	5	n/a	65	47	2	n/a	n/a	n/a	n/a	400.191	BF11HAS.jpg
372.226	0.514	Blank	Blank	90.732	n/a	4	10	5	n/a	65	n/a	2	n/a	n/a	n/a	n/a	400.688	n/a
372.756	0.497	happy	Picture	90.218	n/a	4	10	6	n/a	66	50	2	n/a	n/a	n/a	n/a	401.219	AF18HAS.jpg
373.253	0.514	Blank	Blank	89.704	n/a	4	10	6	n/a	66	n/a	2	n/a	n/a	n/a	n/a	401.716	n/a
373.784	0.497	happy	Picture	89.19	n/a	4	10	7	n/a	67	78	2	n/a	n/a	n/a	n/a	402.246	BM26HAS.jpg
374.281	0.514	Blank	Blank	88.676	n/a	4	10	7	n/a	67	n/a	2	n/a	n/a	n/a	n/a	402.744	n/a
374.812	0.497	happy	Picture	88.162	n/a	4	10	8	n/a	68	45	2	n/a	n/a	n/a	n/a	403.274	BF07HAS.jpg
375.309	0.514	Blank	Blank	87.648	n/a	4	10	8	n/a	68	n/a	2	n/a	n/a	n/a	n/a	403.772	n/a
375.84	0.497	happy	Picture	87.134	n/a	4	10	9	n/a	69	56	2	n/a	n/a	n/a	n/a	404.302	AF26HAS.jpg
376.337	0.514	Blank	Blank	86.62	n/a	4	10	9	n/a	69	n/a	2	n/a	n/a	n/a	n/a	404.8	n/a
376.868	0.497	happy	Picture	86.106	n/a	4	10	10	n/a	70	65	2	n/a	n/a	n/a	n/a	405.33	BM06HAS.jpg
377.365	0.514	Blank	Blank	85.592	n/a	4	10	10	n/a	70	n/a	2	n/a	n/a	n/a	n/a	405.827	n/a
377.895	0.497	happy	Picture	85.079	n/a	4	10	11	n/a	71	73	2	n/a	n/a	n/a	n/a	406.358	AM21HAS.jpg
378.393	0.514	Blank	Blank	84.565	n/a	4	10	11	n/a	71	n/a	2	n/a	n/a	n/a	n/a	406.855	n/a
378.923	0.497	happy	Picture	84.051	n/a	4	10	12	n/a	72	41	2	n/a	n/a	n/a	n/a	407.386	AF01HAS.jpg
379.421	0.514	Blank	Blank	83.537	n/a	4	10	12	n/a	72	n/a	2	n/a	n/a	n/a	n/a	407.883	n/a
379.951	0.497	happy	Picture	83.023	n/a	4	10	13	n/a	73	59	2	n/a	n/a	n/a	n/a	408.414	AF31HAS.jpg
380.449	0.514	Blank	Blank	82.509	n/a	4	10	13	n/a	73	n/a	2	n/a	n/a	n/a	n/a	408.911	n/a
380.979	0.497	happy	Picture	81.995	n/a	4	10	14	n/a	74	64	2	n/a	n/a	n/a	n/a	409.442	BM05HAS.jpg
381.477	0.514	Blank	Blank	81.481	n/a	4	10	14	n/a	74	n/a	2	n/a	n/a	n/a	n/a	409.939	n/a
382.007	0.497	happy	Picture	80.967	n/a	4	10	15	n/a	75	68	2	n/a	n/a	n/a	n/a	410.469	AM09HAS.jpg
382.504	0.514	Blank	Blank	80.453	n/a	4	10	15	n/a	75	n/a	2	n/a	n/a	n/a	n/a	410.967	n/a
383.035	0.497	happy	Picture	79.939	n/a	4	10	16	n/a	76	54	2	n/a	n/a	n/a	n/a	411.497	AF23HAS.jpg
383.532	0.514	Blank	Blank	79.425	n/a	4	10	16	n/a	76	n/a	2	n/a	n/a	n/a	n/a	411.995	n/a
384.063	0.497	happy	Picture	78.911	n/a	4	10	17	n/a	77	53	2	n/a	n/a	n/a	n/a	412.525	BF22HAS.jpg
384.56	0.514	Blank	Blank	78.397	n/a	4	10	17	n/a	77	n/a	2	n/a	n/a	n/a	n/a	413.023	n/a
385.091	0.497	happy	Picture	77.883	n/a	4	10	18	n/a	78	44	2	n/a	n/a	n/a	n/a	413.553	AF05HAS.jpg
385.588	0.514	Blank	Blank	77.37	n/a	4	10	18	n/a	78	n/a	2	n/a	n/a	n/a	n/a	414.05	n/a
386.119	0.497	happy	Picture	76.855	n/a	4	10	19	n/a	79	52	2	n/a	n/a	n/a	n/a	414.581	AF21HAS.jpg
386.616	0.514	Blank	Blank	76.342	n/a	4	10	19	n/a	79	n/a	2	n/a	n/a	n/a	n/a	415.078	n/a
387.147	0.497	happy	Picture	75.828	n/a	4	10	20	n/a	80	62	2	n/a	n/a	n/a	n/a	415.609	BM03HAS.jpg
387.644	0.514	Blank	Blank	75.314	n/a	4	10	20	n/a	80	n/a	2	n/a	n/a	n/a	n/a	416.106	n/a
388.174	10.014	ITI	Fixation+	65.284	n/a	4	n/a	n/a	n/a	n/a	n/a	n/a	n/a	n/a	n/a	n/a	416.637	n/a
398.205	0.497	neutral	Picture	64.77	n/a	4	11	1	n/a	81	23	1	n/a	n/a	n/a	n/a	426.667	AM04NES.jpg
398.702	0.514	Blank	Blank	64.256	n/a	4	11	1	n/a	81	n/a	1	n/a	n/a	n/a	n/a	427.164	n/a
399.233	0.497	neutral	Picture	63.742	n/a	4	11	2	n/a	82	29	1	n/a	n/a	n/a	n/a	427.695	AM10NES.jpg
399.73	0.514	Blank	Blank	63.228	n/a	4	11	2	n/a	82	n/a	1	n/a	n/a	n/a	n/a	428.192	n/a
400.26	0.497	neutral	Picture	62.714	n/a	4	11	3	n/a	83	24	1	n/a	n/a	n/a	n/a	428.723	BM05NES.jpg
400.758	0.514	Blank	Blank	62.2	n/a	4	11	3	n/a	83	n/a	1	n/a	n/a	n/a	n/a	429.22	n/a
401.288	0.497	neutral	Picture	61.686	n/a	4	11	4	n/a	84	12	1	n/a	n/a	n/a	n/a	429.751	AF21NES.jpg
401.786	0.514	Blank	Blank	61.172	n/a	4	11	4	n/a	84	n/a	1	n/a	n/a	n/a	n/a	430.248	n/a
402.316	0.497	neutral	Picture	60.658	n/a	4	11	5	n/a	85	13	1	n/a	n/a	n/a	n/a	430.779	BF22NES.jpg
402.813	0.514	Blank	Blank	60.144	n/a	4	11	5	n/a	85	n/a	1	n/a	n/a	n/a	n/a	431.276	n/a
403.344	0.497	neutral	Picture	59.63	n/a	4	11	6	n/a	86	17	1	n/a	n/a	n/a	n/a	431.806	BF28NES.jpg
403.841	0.514	Blank	Blank	59.116	n/a	4	11	6	n/a	86	n/a	1	n/a	n/a	n/a	n/a	432.304	n/a
404.372	0.497	neutral	Picture	58.602	n/a	4	11	7	n/a	87	4	1	n/a	n/a	n/a	n/a	432.834	AF05NES.jpg
404.869	0.514	Blank	Blank	58.088	n/a	4	11	7	n/a	87	n/a	1	n/a	n/a	n/a	n/a	433.332	n/a
405.4	0.497	neutral	Picture	57.574	n/a	4	11	8	n/a	88	11	1	n/a	n/a	n/a	n/a	433.862	AF20NES.jpg
405.897	0.514	Blank	Blank	57.06	n/a	4	11	8	n/a	88	n/a	1	n/a	n/a	n/a	n/a	434.36	n/a
406.428	0.497	neutral	Picture	56.546	n/a	4	11	9	n/a	89	22	1	n/a	n/a	n/a	n/a	434.89	BM03NES.jpg
406.925	0.514	Blank	Blank	56.032	n/a	4	11	9	n/a	89	n/a	1	n/a	n/a	n/a	n/a	435.387	n/a
407.456	0.497	neutral	Picture	55.519	n/a	4	11	10	n/a	90	15	1	n/a	n/a	n/a	n/a	435.918	AF25NES.jpg
407.953	0.514	Blank	Blank	55.005	n/a	4	11	10	n/a	90	n/a	1	n/a	n/a	n/a	n/a	436.415	n/a
408.483	0.497	neutral	Picture	54.491	n/a	4	11	11	n/a	91	19	1	n/a	n/a	n/a	n/a	436.946	AF31NES.jpg
408.981	0.514	Blank	Blank	53.977	n/a	4	11	11	n/a	91	n/a	1	n/a	n/a	n/a	n/a	437.443	n/a
409.511	0.497	neutral	Picture	53.463	n/a	4	11	12	n/a	92	9	1	n/a	n/a	n/a	n/a	437.974	AF17NES.jpg
410.009	0.514	Blank	Blank	52.949	n/a	4	11	12	n/a	92	n/a	1	n/a	n/a	n/a	n/a	438.471	n/a
410.539	0.497	neutral	Picture	52.435	n/a	4	11	13	n/a	93	14	1	n/a	n/a	n/a	n/a	439.002	AF23NES.jpg
411.037	0.514	Blank	Blank	51.921	n/a	4	11	13	n/a	93	n/a	1	n/a	n/a	n/a	n/a	439.499	n/a
411.567	0.497	neutral	Picture	51.407	n/a	4	11	14	n/a	94	36	1	n/a	n/a	n/a	n/a	440.029	BM24NES.jpg
412.065	0.514	Blank	Blank	50.893	n/a	4	11	14	n/a	94	n/a	1	n/a	n/a	n/a	n/a	440.527	n/a
412.595	0.497	neutral	Picture	50.379	n/a	4	11	15	n/a	95	34	1	n/a	n/a	n/a	n/a	441.057	AM22NES.jpg
413.092	0.514	Blank	Blank	49.865	n/a	4	11	15	n/a	95	n/a	1	n/a	n/a	n/a	n/a	441.555	n/a
413.623	0.497	neutral	Picture	49.351	n/a	4	11	16	n/a	96	10	1	n/a	n/a	n/a	n/a	442.085	AF18NES.jpg
414.12	0.514	Blank	Blank	48.837	n/a	4	11	16	n/a	96	n/a	1	n/a	n/a	n/a	n/a	442.583	n/a
414.651	0.497	neutral	Picture	48.323	n/a	4	11	17	n/a	97	5	1	n/a	n/a	n/a	n/a	443.113	BF07NES.jpg
415.148	0.514	Blank	Blank	47.809	n/a	4	11	17	n/a	97	n/a	1	n/a	n/a	n/a	n/a	443.611	n/a
415.679	0.497	neutral	Picture	47.295	n/a	4	11	18	n/a	98	25	1	n/a	n/a	n/a	n/a	444.141	BM06NES.jpg
416.176	0.514	Blank	Blank	46.781	n/a	4	11	18	n/a	98	n/a	1	n/a	n/a	n/a	n/a	444.638	n/a
416.707	0.497	neutral	Picture	46.268	n/a	4	11	19	n/a	99	39	1	n/a	n/a	n/a	n/a	445.169	AM28NES.jpg
417.204	0.514	Blank	Blank	45.754	n/a	4	11	19	n/a	99	n/a	1	n/a	n/a	n/a	n/a	445.666	n/a
417.734	0.497	neutral	Picture	45.24	n/a	4	11	20	n/a	100	33	1	n/a	n/a	n/a	n/a	446.197	AM21NES.jpg
418.232	0.514	Blank	Blank	44.726	n/a	4	11	20	n/a	100	n/a	1	n/a	n/a	n/a	n/a	446.694	n/a
418.762	10.014	ITI	Fixation+	34.696	n/a	4	n/a	n/a	n/a	n/a	n/a	n/a	n/a	n/a	n/a	n/a	447.225	n/a
428.793	0.497	happy	Picture	34.182	n/a	4	12	1	n/a	101	74	2	n/a	n/a	n/a	n/a	457.255	AM22HAS.jpg
429.29	0.514	Blank	Blank	33.668	n/a	4	12	1	n/a	101	n/a	2	n/a	n/a	n/a	n/a	457.752	n/a
429.82	0.497	happy	Picture	33.154	n/a	4	12	2	n/a	102	76	2	n/a	n/a	n/a	n/a	458.283	BM24HAS.jpg
430.318	0.514	Blank	Blank	32.64	n/a	4	12	2	n/a	102	n/a	2	n/a	n/a	n/a	n/a	458.78	n/a
430.848	0.497	happy	Picture	32.126	n/a	4	12	3	n/a	103	80	2	n/a	n/a	n/a	n/a	459.311	BM35HAS.jpg
431.346	0.514	Blank	Blank	31.612	n/a	4	12	3	n/a	103	n/a	2	n/a	n/a	n/a	n/a	459.808	n/a
431.876	0.497	happy	Picture	31.098	n/a	4	12	4	n/a	104	75	2	n/a	n/a	n/a	n/a	460.339	AM23HAS.jpg
432.373	0.514	Blank	Blank	30.584	n/a	4	12	4	n/a	104	n/a	2	n/a	n/a	n/a	n/a	460.836	n/a
432.904	0.497	happy	Picture	30.07	n/a	4	12	5	n/a	105	49	2	n/a	n/a	n/a	n/a	461.366	AF17HAS.jpg
433.401	0.514	Blank	Blank	29.556	n/a	4	12	5	n/a	105	n/a	2	n/a	n/a	n/a	n/a	461.864	n/a
433.932	0.497	happy	Picture	29.042	n/a	4	12	6	n/a	106	43	2	n/a	n/a	n/a	n/a	462.394	BF04HAS.jpg
434.429	0.514	Blank	Blank	28.528	n/a	4	12	6	n/a	106	n/a	2	n/a	n/a	n/a	n/a	462.892	n/a
434.96	0.497	happy	Picture	28.014	n/a	4	12	7	n/a	107	70	2	n/a	n/a	n/a	n/a	463.422	BM11HAS.jpg
435.457	0.514	Blank	Blank	27.5	n/a	4	12	7	n/a	107	n/a	2	n/a	n/a	n/a	n/a	463.92	n/a
435.988	0.497	happy	Picture	26.986	n/a	4	12	8	n/a	108	66	2	n/a	n/a	n/a	n/a	464.45	BM07HAS.jpg
436.485	0.514	Blank	Blank	26.473	n/a	4	12	8	n/a	108	n/a	2	n/a	n/a	n/a	n/a	464.947	n/a
437.016	0.497	happy	Picture	25.959	n/a	4	12	9	n/a	109	48	2	n/a	n/a	n/a	n/a	465.478	AF14HAS.jpg
437.513	0.514	Blank	Blank	25.445	n/a	4	12	9	n/a	109	n/a	2	n/a	n/a	n/a	n/a	465.975	n/a
438.043	0.497	happy	Picture	24.931	n/a	4	12	10	n/a	110	58	2	n/a	n/a	n/a	n/a	466.506	BF29HAS.jpg
438.541	0.514	Blank	Blank	24.417	n/a	4	12	10	n/a	110	n/a	2	n/a	n/a	n/a	n/a	467.003	n/a
439.071	0.497	happy	Picture	23.903	n/a	4	12	11	n/a	111	63	2	n/a	n/a	n/a	n/a	467.534	AM04HAS.jpg
439.569	0.514	Blank	Blank	23.389	n/a	4	12	11	n/a	111	n/a	2	n/a	n/a	n/a	n/a	468.031	n/a
440.099	0.497	happy	Picture	22.875	n/a	4	12	12	n/a	112	72	2	n/a	n/a	n/a	n/a	468.562	AM14HAS.jpg
440.597	0.514	Blank	Blank	22.361	n/a	4	12	12	n/a	112	n/a	2	n/a	n/a	n/a	n/a	469.059	n/a
441.127	0.497	happy	Picture	21.847	n/a	4	12	13	n/a	113	55	2	n/a	n/a	n/a	n/a	469.589	AF25HAS.jpg
441.625	0.514	Blank	Blank	21.333	n/a	4	12	13	n/a	113	n/a	2	n/a	n/a	n/a	n/a	470.087	n/a
442.155	0.497	happy	Picture	20.819	n/a	4	12	14	n/a	114	42	2	n/a	n/a	n/a	n/a	470.617	AF03HAS.jpg
442.652	0.514	Blank	Blank	20.305	n/a	4	12	14	n/a	114	n/a	2	n/a	n/a	n/a	n/a	471.115	n/a
443.183	0.497	happy	Picture	19.791	n/a	4	12	15	n/a	115	60	2	n/a	n/a	n/a	n/a	471.645	AF32HAS.jpg
443.68	0.514	Blank	Blank	19.277	n/a	4	12	15	n/a	115	n/a	2	n/a	n/a	n/a	n/a	472.143	n/a
444.211	0.497	happy	Picture	18.763	n/a	4	12	16	n/a	116	67	2	n/a	n/a	n/a	n/a	472.673	BM08HAS.jpg
444.708	0.514	Blank	Blank	18.249	n/a	4	12	16	n/a	116	n/a	2	n/a	n/a	n/a	n/a	473.171	n/a
445.239	0.497	happy	Picture	17.736	n/a	4	12	17	n/a	117	51	2	n/a	n/a	n/a	n/a	473.701	AF20HAS.jpg
445.736	0.514	Blank	Blank	17.221	n/a	4	12	17	n/a	117	n/a	2	n/a	n/a	n/a	n/a	474.198	n/a
446.267	0.497	happy	Picture	16.708	n/a	4	12	18	n/a	118	71	2	n/a	n/a	n/a	n/a	474.729	BM12HAS.jpg
446.764	0.514	Blank	Blank	16.194	n/a	4	12	18	n/a	118	n/a	2	n/a	n/a	n/a	n/a	475.226	n/a
447.294	0.497	happy	Picture	15.68	n/a	4	12	19	n/a	119	69	2	n/a	n/a	n/a	n/a	475.757	AM10HAS.jpg
447.792	0.514	Blank	Blank	15.166	n/a	4	12	19	n/a	119	n/a	2	n/a	n/a	n/a	n/a	476.254	n/a
448.322	0.497	happy	Picture	14.652	n/a	4	12	20	n/a	120	46	2	n/a	n/a	n/a	n/a	476.785	AF09HAS.jpg
448.82	0.514	Blank	Blank	14.138	n/a	4	12	20	n/a	120	n/a	2	n/a	n/a	n/a	n/a	477.282	n/a
449.35	10.014	ITI	Fixation+	4.108	n/a	4	n/a	n/a	n/a	n/a	n/a	n/a	n/a	n/a	n/a	n/a	477.813	n/a
463.471	n/a	ConfirmRating	Rate	n/a	4.095	4	n/a	n/a	0	n/a	n/a	n/a	2	Happy	15	46	491.934	n/a
466.031	n/a	ConfirmRating	Rate	n/a	2.553	4	n/a	n/a	1	n/a	n/a	n/a	3	Happy	0	49	494.494	n/a
