onset	duration	trial_type	event_type	time_until_response	response_time	trial_number	block_num_within_trial	image_seq_num_within_block	question_seq_num_within_block	image_seq_num	picture_number	condition	question_type	block_type	rating	rating_computed	onset_uncorrected	KDEV_imagefile
0.003	10.014	ITI	Fixation+	97.838	n/a	1	n/a	n/a	n/a	n/a	n/a	n/a	n/a	n/a	n/a	n/a	26.073	n/a
10.033	0.497	happy	Picture	97.324	n/a	1	1	1	n/a	1	46	2	n/a	n/a	n/a	n/a	36.103	AF09HAS.jpg
10.531	0.514	Blank	Blank	96.81	n/a	1	1	1	n/a	1	n/a	2	n/a	n/a	n/a	n/a	36.6	n/a
11.061	0.497	happy	Picture	96.296	n/a	1	1	2	n/a	2	69	2	n/a	n/a	n/a	n/a	37.131	AM10HAS.jpg
11.559	0.514	Blank	Blank	95.782	n/a	1	1	2	n/a	2	n/a	2	n/a	n/a	n/a	n/a	37.628	n/a
12.089	0.497	happy	Picture	95.268	n/a	1	1	3	n/a	3	71	2	n/a	n/a	n/a	n/a	38.159	BM12HAS.jpg
12.587	0.514	Blank	Blank	94.754	n/a	1	1	3	n/a	3	n/a	2	n/a	n/a	n/a	n/a	38.656	n/a
13.117	0.497	happy	Picture	94.24	n/a	1	1	4	n/a	4	51	2	n/a	n/a	n/a	n/a	39.187	AF20HAS.jpg
13.614	0.514	Blank	Blank	93.726	n/a	1	1	4	n/a	4	n/a	2	n/a	n/a	n/a	n/a	39.684	n/a
14.145	0.497	happy	Picture	93.212	n/a	1	1	5	n/a	5	67	2	n/a	n/a	n/a	n/a	40.215	BM08HAS.jpg
14.642	0.514	Blank	Blank	92.698	n/a	1	1	5	n/a	5	n/a	2	n/a	n/a	n/a	n/a	40.712	n/a
15.173	0.497	happy	Picture	92.184	n/a	1	1	6	n/a	6	60	2	n/a	n/a	n/a	n/a	41.243	AF32HAS.jpg
15.67	0.514	Blank	Blank	91.67	n/a	1	1	6	n/a	6	n/a	2	n/a	n/a	n/a	n/a	41.74	n/a
16.201	0.497	happy	Picture	91.156	n/a	1	1	7	n/a	7	42	2	n/a	n/a	n/a	n/a	42.27	AF03HAS.jpg
16.698	0.514	Blank	Blank	90.642	n/a	1	1	7	n/a	7	n/a	2	n/a	n/a	n/a	n/a	42.768	n/a
17.228	0.497	happy	Picture	90.129	n/a	1	1	8	n/a	8	55	2	n/a	n/a	n/a	n/a	43.298	AF25HAS.jpg
17.726	0.514	Blank	Blank	89.615	n/a	1	1	8	n/a	8	n/a	2	n/a	n/a	n/a	n/a	43.796	n/a
18.256	0.497	happy	Picture	89.101	n/a	1	1	9	n/a	9	72	2	n/a	n/a	n/a	n/a	44.326	AM14HAS.jpg
18.754	0.514	Blank	Blank	88.587	n/a	1	1	9	n/a	9	n/a	2	n/a	n/a	n/a	n/a	44.824	n/a
19.284	0.497	happy	Picture	88.073	n/a	1	1	10	n/a	10	63	2	n/a	n/a	n/a	n/a	45.354	AM04HAS.jpg
19.782	0.514	Blank	Blank	87.559	n/a	1	1	10	n/a	10	n/a	2	n/a	n/a	n/a	n/a	45.852	n/a
20.312	0.497	happy	Picture	87.045	n/a	1	1	11	n/a	11	58	2	n/a	n/a	n/a	n/a	46.382	BF29HAS.jpg
20.81	0.514	Blank	Blank	86.531	n/a	1	1	11	n/a	11	n/a	2	n/a	n/a	n/a	n/a	46.879	n/a
21.34	0.497	happy	Picture	86.017	n/a	1	1	12	n/a	12	48	2	n/a	n/a	n/a	n/a	47.41	AF14HAS.jpg
21.837	0.514	Blank	Blank	85.503	n/a	1	1	12	n/a	12	n/a	2	n/a	n/a	n/a	n/a	47.907	n/a
22.368	0.497	happy	Picture	84.989	n/a	1	1	13	n/a	13	66	2	n/a	n/a	n/a	n/a	48.438	BM07HAS.jpg
22.865	0.514	Blank	Blank	84.475	n/a	1	1	13	n/a	13	n/a	2	n/a	n/a	n/a	n/a	48.935	n/a
23.396	0.497	happy	Picture	83.961	n/a	1	1	14	n/a	14	70	2	n/a	n/a	n/a	n/a	49.466	BM11HAS.jpg
23.893	0.514	Blank	Blank	83.447	n/a	1	1	14	n/a	14	n/a	2	n/a	n/a	n/a	n/a	49.963	n/a
24.424	0.497	happy	Picture	82.933	n/a	1	1	15	n/a	15	43	2	n/a	n/a	n/a	n/a	50.493	BF04HAS.jpg
24.921	0.514	Blank	Blank	82.419	n/a	1	1	15	n/a	15	n/a	2	n/a	n/a	n/a	n/a	50.991	n/a
25.452	0.497	happy	Picture	81.905	n/a	1	1	16	n/a	16	49	2	n/a	n/a	n/a	n/a	51.521	AF17HAS.jpg
25.949	0.514	Blank	Blank	81.392	n/a	1	1	16	n/a	16	n/a	2	n/a	n/a	n/a	n/a	52.019	n/a
26.48	0.497	happy	Picture	80.878	n/a	1	1	17	n/a	17	75	2	n/a	n/a	n/a	n/a	52.549	AM23HAS.jpg
26.977	0.514	Blank	Blank	80.364	n/a	1	1	17	n/a	17	n/a	2	n/a	n/a	n/a	n/a	53.047	n/a
27.507	0.497	happy	Picture	79.85	n/a	1	1	18	n/a	18	80	2	n/a	n/a	n/a	n/a	53.577	BM35HAS.jpg
28.005	0.514	Blank	Blank	79.336	n/a	1	1	18	n/a	18	n/a	2	n/a	n/a	n/a	n/a	54.075	n/a
28.535	0.497	happy	Picture	78.822	n/a	1	1	19	n/a	19	76	2	n/a	n/a	n/a	n/a	54.605	BM24HAS.jpg
29.033	0.514	Blank	Blank	78.308	n/a	1	1	19	n/a	19	n/a	2	n/a	n/a	n/a	n/a	55.102	n/a
29.563	0.497	happy	Picture	77.794	n/a	1	1	20	n/a	20	74	2	n/a	n/a	n/a	n/a	55.633	AM22HAS.jpg
30.06	0.514	Blank	Blank	77.28	n/a	1	1	20	n/a	20	n/a	2	n/a	n/a	n/a	n/a	56.13	n/a
30.591	10.014	ITI	Fixation+	67.25	n/a	1	n/a	n/a	n/a	n/a	n/a	n/a	n/a	n/a	n/a	n/a	56.661	n/a
40.621	0.497	neutral	Picture	66.736	n/a	1	2	1	n/a	21	33	1	n/a	n/a	n/a	n/a	66.691	AM21NES.jpg
41.118	0.514	Blank	Blank	66.222	n/a	1	2	1	n/a	21	n/a	1	n/a	n/a	n/a	n/a	67.188	n/a
41.649	0.497	neutral	Picture	65.708	n/a	1	2	2	n/a	22	39	1	n/a	n/a	n/a	n/a	67.719	AM28NES.jpg
42.146	0.514	Blank	Blank	65.194	n/a	1	2	2	n/a	22	n/a	1	n/a	n/a	n/a	n/a	68.216	n/a
42.677	0.497	neutral	Picture	64.68	n/a	1	2	3	n/a	23	25	1	n/a	n/a	n/a	n/a	68.747	BM06NES.jpg
43.174	0.514	Blank	Blank	64.166	n/a	1	2	3	n/a	23	n/a	1	n/a	n/a	n/a	n/a	69.244	n/a
43.705	0.497	neutral	Picture	63.652	n/a	1	2	4	n/a	24	5	1	n/a	n/a	n/a	n/a	69.775	BF07NES.jpg
44.202	0.514	Blank	Blank	63.138	n/a	1	2	4	n/a	24	n/a	1	n/a	n/a	n/a	n/a	70.272	n/a
44.733	0.497	neutral	Picture	62.624	n/a	1	2	5	n/a	25	10	1	n/a	n/a	n/a	n/a	70.802	AF18NES.jpg
45.23	0.514	Blank	Blank	62.11	n/a	1	2	5	n/a	25	n/a	1	n/a	n/a	n/a	n/a	71.3	n/a
45.761	0.497	neutral	Picture	61.597	n/a	1	2	6	n/a	26	34	1	n/a	n/a	n/a	n/a	71.83	AM22NES.jpg
46.258	0.514	Blank	Blank	61.083	n/a	1	2	6	n/a	26	n/a	1	n/a	n/a	n/a	n/a	72.328	n/a
46.788	0.497	neutral	Picture	60.569	n/a	1	2	7	n/a	27	36	1	n/a	n/a	n/a	n/a	72.858	BM24NES.jpg
47.286	0.514	Blank	Blank	60.055	n/a	1	2	7	n/a	27	n/a	1	n/a	n/a	n/a	n/a	73.356	n/a
47.816	0.497	neutral	Picture	59.541	n/a	1	2	8	n/a	28	14	1	n/a	n/a	n/a	n/a	73.886	AF23NES.jpg
48.314	0.514	Blank	Blank	59.027	n/a	1	2	8	n/a	28	n/a	1	n/a	n/a	n/a	n/a	74.383	n/a
48.844	0.497	neutral	Picture	58.513	n/a	1	2	9	n/a	29	9	1	n/a	n/a	n/a	n/a	74.914	AF17NES.jpg
49.342	0.514	Blank	Blank	57.999	n/a	1	2	9	n/a	29	n/a	1	n/a	n/a	n/a	n/a	75.411	n/a
49.872	0.497	neutral	Picture	57.485	n/a	1	2	10	n/a	30	19	1	n/a	n/a	n/a	n/a	75.942	AF31NES.jpg
50.37	0.514	Blank	Blank	56.971	n/a	1	2	10	n/a	30	n/a	1	n/a	n/a	n/a	n/a	76.439	n/a
50.9	0.497	neutral	Picture	56.457	n/a	1	2	11	n/a	31	15	1	n/a	n/a	n/a	n/a	76.97	AF25NES.jpg
51.397	0.514	Blank	Blank	55.943	n/a	1	2	11	n/a	31	n/a	1	n/a	n/a	n/a	n/a	77.467	n/a
51.928	0.497	neutral	Picture	55.429	n/a	1	2	12	n/a	32	22	1	n/a	n/a	n/a	n/a	77.998	BM03NES.jpg
52.425	0.514	Blank	Blank	54.915	n/a	1	2	12	n/a	32	n/a	1	n/a	n/a	n/a	n/a	78.495	n/a
52.956	0.497	neutral	Picture	54.401	n/a	1	2	13	n/a	33	11	1	n/a	n/a	n/a	n/a	79.025	AF20NES.jpg
53.453	0.514	Blank	Blank	53.887	n/a	1	2	13	n/a	33	n/a	1	n/a	n/a	n/a	n/a	79.523	n/a
53.984	0.497	neutral	Picture	53.373	n/a	1	2	14	n/a	34	4	1	n/a	n/a	n/a	n/a	80.053	AF05NES.jpg
54.481	0.514	Blank	Blank	52.86	n/a	1	2	14	n/a	34	n/a	1	n/a	n/a	n/a	n/a	80.551	n/a
55.011	0.497	neutral	Picture	52.346	n/a	1	2	15	n/a	35	17	1	n/a	n/a	n/a	n/a	81.081	BF28NES.jpg
55.509	0.514	Blank	Blank	51.832	n/a	1	2	15	n/a	35	n/a	1	n/a	n/a	n/a	n/a	81.579	n/a
56.039	0.497	neutral	Picture	51.318	n/a	1	2	16	n/a	36	13	1	n/a	n/a	n/a	n/a	82.109	BF22NES.jpg
56.537	0.514	Blank	Blank	50.804	n/a	1	2	16	n/a	36	n/a	1	n/a	n/a	n/a	n/a	82.607	n/a
57.067	0.497	neutral	Picture	50.29	n/a	1	2	17	n/a	37	12	1	n/a	n/a	n/a	n/a	83.137	AF21NES.jpg
57.565	0.514	Blank	Blank	49.776	n/a	1	2	17	n/a	37	n/a	1	n/a	n/a	n/a	n/a	83.634	n/a
58.095	0.497	neutral	Picture	49.262	n/a	1	2	18	n/a	38	24	1	n/a	n/a	n/a	n/a	84.165	BM05NES.jpg
58.593	0.514	Blank	Blank	48.748	n/a	1	2	18	n/a	38	n/a	1	n/a	n/a	n/a	n/a	84.662	n/a
59.123	0.497	neutral	Picture	48.234	n/a	1	2	19	n/a	39	29	1	n/a	n/a	n/a	n/a	85.193	AM10NES.jpg
59.62	0.514	Blank	Blank	47.72	n/a	1	2	19	n/a	39	n/a	1	n/a	n/a	n/a	n/a	85.69	n/a
60.151	0.497	neutral	Picture	47.206	n/a	1	2	20	n/a	40	23	1	n/a	n/a	n/a	n/a	86.221	AM04NES.jpg
60.648	0.514	Blank	Blank	46.692	n/a	1	2	20	n/a	40	n/a	1	n/a	n/a	n/a	n/a	86.718	n/a
61.179	10.014	ITI	Fixation+	36.662	n/a	1	n/a	n/a	n/a	n/a	n/a	n/a	n/a	n/a	n/a	n/a	87.249	n/a
71.209	0.497	happy	Picture	36.148	n/a	1	3	1	n/a	41	62	2	n/a	n/a	n/a	n/a	97.279	BM03HAS.jpg
71.706	0.514	Blank	Blank	35.634	n/a	1	3	1	n/a	41	n/a	2	n/a	n/a	n/a	n/a	97.776	n/a
72.237	0.497	happy	Picture	35.12	n/a	1	3	2	n/a	42	52	2	n/a	n/a	n/a	n/a	98.307	AF21HAS.jpg
72.734	0.514	Blank	Blank	34.606	n/a	1	3	2	n/a	42	n/a	2	n/a	n/a	n/a	n/a	98.804	n/a
73.265	0.497	happy	Picture	34.092	n/a	1	3	3	n/a	43	44	2	n/a	n/a	n/a	n/a	99.335	AF05HAS.jpg
73.762	0.514	Blank	Blank	33.578	n/a	1	3	3	n/a	43	n/a	2	n/a	n/a	n/a	n/a	99.832	n/a
74.293	0.497	happy	Picture	33.064	n/a	1	3	4	n/a	44	53	2	n/a	n/a	n/a	n/a	100.362	BF22HAS.jpg
74.79	0.514	Blank	Blank	32.551	n/a	1	3	4	n/a	44	n/a	2	n/a	n/a	n/a	n/a	100.86	n/a
75.32	0.497	happy	Picture	32.037	n/a	1	3	5	n/a	45	54	2	n/a	n/a	n/a	n/a	101.39	AF23HAS.jpg
75.818	0.514	Blank	Blank	31.523	n/a	1	3	5	n/a	45	n/a	2	n/a	n/a	n/a	n/a	101.888	n/a
76.348	0.497	happy	Picture	31.009	n/a	1	3	6	n/a	46	68	2	n/a	n/a	n/a	n/a	102.418	AM09HAS.jpg
76.846	0.514	Blank	Blank	30.495	n/a	1	3	6	n/a	46	n/a	2	n/a	n/a	n/a	n/a	102.915	n/a
77.376	0.497	happy	Picture	29.981	n/a	1	3	7	n/a	47	64	2	n/a	n/a	n/a	n/a	103.446	BM05HAS.jpg
77.874	0.514	Blank	Blank	29.467	n/a	1	3	7	n/a	47	n/a	2	n/a	n/a	n/a	n/a	103.943	n/a
78.404	0.497	happy	Picture	28.953	n/a	1	3	8	n/a	48	59	2	n/a	n/a	n/a	n/a	104.474	AF31HAS.jpg
78.901	0.514	Blank	Blank	28.439	n/a	1	3	8	n/a	48	n/a	2	n/a	n/a	n/a	n/a	104.971	n/a
79.432	0.497	happy	Picture	27.925	n/a	1	3	9	n/a	49	41	2	n/a	n/a	n/a	n/a	105.502	AF01HAS.jpg
79.929	0.514	Blank	Blank	27.411	n/a	1	3	9	n/a	49	n/a	2	n/a	n/a	n/a	n/a	105.999	n/a
80.46	0.497	happy	Picture	26.897	n/a	1	3	10	n/a	50	73	2	n/a	n/a	n/a	n/a	106.53	AM21HAS.jpg
80.957	0.514	Blank	Blank	26.383	n/a	1	3	10	n/a	50	n/a	2	n/a	n/a	n/a	n/a	107.027	n/a
81.488	0.497	happy	Picture	25.869	n/a	1	3	11	n/a	51	65	2	n/a	n/a	n/a	n/a	107.558	BM06HAS.jpg
81.985	0.514	Blank	Blank	25.355	n/a	1	3	11	n/a	51	n/a	2	n/a	n/a	n/a	n/a	108.055	n/a
82.516	0.497	happy	Picture	24.841	n/a	1	3	12	n/a	52	56	2	n/a	n/a	n/a	n/a	108.585	AF26HAS.jpg
83.013	0.514	Blank	Blank	24.327	n/a	1	3	12	n/a	52	n/a	2	n/a	n/a	n/a	n/a	109.083	n/a
83.543	0.497	happy	Picture	23.814	n/a	1	3	13	n/a	53	45	2	n/a	n/a	n/a	n/a	109.613	BF07HAS.jpg
84.041	0.514	Blank	Blank	23.3	n/a	1	3	13	n/a	53	n/a	2	n/a	n/a	n/a	n/a	110.111	n/a
84.571	0.497	happy	Picture	22.786	n/a	1	3	14	n/a	54	78	2	n/a	n/a	n/a	n/a	110.641	BM26HAS.jpg
85.069	0.514	Blank	Blank	22.272	n/a	1	3	14	n/a	54	n/a	2	n/a	n/a	n/a	n/a	111.139	n/a
85.599	0.497	happy	Picture	21.758	n/a	1	3	15	n/a	55	50	2	n/a	n/a	n/a	n/a	111.669	AF18HAS.jpg
86.097	0.514	Blank	Blank	21.244	n/a	1	3	15	n/a	55	n/a	2	n/a	n/a	n/a	n/a	112.166	n/a
86.627	0.497	happy	Picture	20.73	n/a	1	3	16	n/a	56	47	2	n/a	n/a	n/a	n/a	112.697	BF11HAS.jpg
87.124	0.514	Blank	Blank	20.216	n/a	1	3	16	n/a	56	n/a	2	n/a	n/a	n/a	n/a	113.194	n/a
87.655	0.497	happy	Picture	19.702	n/a	1	3	17	n/a	57	77	2	n/a	n/a	n/a	n/a	113.725	BM25HAS.jpg
88.152	0.514	Blank	Blank	19.188	n/a	1	3	17	n/a	57	n/a	2	n/a	n/a	n/a	n/a	114.222	n/a
88.683	0.497	happy	Picture	18.674	n/a	1	3	18	n/a	58	57	2	n/a	n/a	n/a	n/a	114.753	BF28HAS.jpg
89.18	0.514	Blank	Blank	18.16	n/a	1	3	18	n/a	58	n/a	2	n/a	n/a	n/a	n/a	115.25	n/a
89.711	0.497	happy	Picture	17.646	n/a	1	3	19	n/a	59	61	2	n/a	n/a	n/a	n/a	115.781	AM01HAS.jpg
90.208	0.514	Blank	Blank	17.132	n/a	1	3	19	n/a	59	n/a	2	n/a	n/a	n/a	n/a	116.278	n/a
90.739	0.497	happy	Picture	16.618	n/a	1	3	20	n/a	60	79	2	n/a	n/a	n/a	n/a	116.808	BM28HAS.jpg
91.236	0.514	Blank	Blank	16.104	n/a	1	3	20	n/a	60	n/a	2	n/a	n/a	n/a	n/a	117.306	n/a
91.767	10.014	ITI	Fixation+	6.074	n/a	1	n/a	n/a	n/a	n/a	n/a	n/a	n/a	n/a	n/a	n/a	117.836	n/a
107.854	n/a	ConfirmRating	Rate	n/a	6.051	1	n/a	n/a	0	n/a	n/a	n/a	2	Happy	61	51	133.924	n/a
114.515	n/a	ConfirmRating	Rate	n/a	6.648	1	n/a	n/a	1	n/a	n/a	n/a	3	Happy	0	48	140.585	n/a
114.546	10.014	ITI	Fixation+	102.316	n/a	2	n/a	n/a	n/a	n/a	n/a	n/a	n/a	n/a	n/a	n/a	140.616	n/a
124.576	0.497	angry	Picture	101.802	n/a	2	4	1	n/a	61	119	3	n/a	n/a	n/a	n/a	150.646	BM28ANS.jpg
125.073	0.514	Blank	Blank	101.288	n/a	2	4	1	n/a	61	n/a	3	n/a	n/a	n/a	n/a	151.143	n/a
125.604	0.497	angry	Picture	100.774	n/a	2	4	2	n/a	62	100	3	n/a	n/a	n/a	n/a	151.674	AF32ANS.jpg
126.101	0.514	Blank	Blank	100.26	n/a	2	4	2	n/a	62	n/a	3	n/a	n/a	n/a	n/a	152.171	n/a
126.632	0.497	angry	Picture	99.746	n/a	2	4	3	n/a	63	118	3	n/a	n/a	n/a	n/a	152.702	BM26ANS.jpg
127.129	0.514	Blank	Blank	99.232	n/a	2	4	3	n/a	63	n/a	3	n/a	n/a	n/a	n/a	153.199	n/a
127.66	0.497	angry	Picture	98.718	n/a	2	4	4	n/a	64	89	3	n/a	n/a	n/a	n/a	153.729	AF17ANS.jpg
128.157	0.514	Blank	Blank	98.204	n/a	2	4	4	n/a	64	n/a	3	n/a	n/a	n/a	n/a	154.227	n/a
128.688	0.497	angry	Picture	97.69	n/a	2	4	5	n/a	65	116	3	n/a	n/a	n/a	n/a	154.757	BM24ANS.jpg
129.185	0.514	Blank	Blank	97.176	n/a	2	4	5	n/a	65	n/a	3	n/a	n/a	n/a	n/a	155.255	n/a
129.715	0.497	angry	Picture	96.663	n/a	2	4	6	n/a	66	105	3	n/a	n/a	n/a	n/a	155.785	BM06ANS.jpg
130.213	0.514	Blank	Blank	96.149	n/a	2	4	6	n/a	66	n/a	3	n/a	n/a	n/a	n/a	156.282	n/a
130.743	0.497	angry	Picture	95.635	n/a	2	4	7	n/a	67	106	3	n/a	n/a	n/a	n/a	156.813	AM07ANS.jpg
131.241	0.514	Blank	Blank	95.121	n/a	2	4	7	n/a	67	n/a	3	n/a	n/a	n/a	n/a	157.31	n/a
131.771	0.497	angry	Picture	94.607	n/a	2	4	8	n/a	68	94	3	n/a	n/a	n/a	n/a	157.841	AF23ANS.jpg
132.269	0.514	Blank	Blank	94.093	n/a	2	4	8	n/a	68	n/a	3	n/a	n/a	n/a	n/a	158.338	n/a
132.799	0.497	angry	Picture	93.579	n/a	2	4	9	n/a	69	117	3	n/a	n/a	n/a	n/a	158.869	BM25ANS.jpg
133.296	0.514	Blank	Blank	93.065	n/a	2	4	9	n/a	69	n/a	3	n/a	n/a	n/a	n/a	159.366	n/a
133.827	0.497	angry	Picture	92.551	n/a	2	4	10	n/a	70	90	3	n/a	n/a	n/a	n/a	159.897	AF18ANS.jpg
134.324	0.514	Blank	Blank	92.037	n/a	2	4	10	n/a	70	n/a	3	n/a	n/a	n/a	n/a	160.394	n/a
134.855	0.497	angry	Picture	91.523	n/a	2	4	11	n/a	71	83	3	n/a	n/a	n/a	n/a	160.925	BF04ANS.jpg
135.352	0.514	Blank	Blank	91.009	n/a	2	4	11	n/a	71	n/a	3	n/a	n/a	n/a	n/a	161.422	n/a
135.883	0.497	angry	Picture	90.495	n/a	2	4	12	n/a	72	112	3	n/a	n/a	n/a	n/a	161.952	AM14ANS.jpg
136.38	0.514	Blank	Blank	89.981	n/a	2	4	12	n/a	72	n/a	3	n/a	n/a	n/a	n/a	162.45	n/a
136.911	0.497	angry	Picture	89.467	n/a	2	4	13	n/a	73	102	3	n/a	n/a	n/a	n/a	162.98	BM03ANS.jpg
137.408	0.514	Blank	Blank	88.953	n/a	2	4	13	n/a	73	n/a	3	n/a	n/a	n/a	n/a	163.478	n/a
137.938	0.497	angry	Picture	88.439	n/a	2	4	14	n/a	74	95	3	n/a	n/a	n/a	n/a	164.008	AF25ANS.jpg
138.436	0.514	Blank	Blank	87.926	n/a	2	4	14	n/a	74	n/a	3	n/a	n/a	n/a	n/a	164.506	n/a
138.966	0.497	angry	Picture	87.412	n/a	2	4	15	n/a	75	113	3	n/a	n/a	n/a	n/a	165.036	AM21ANS.jpg
139.464	0.514	Blank	Blank	86.898	n/a	2	4	15	n/a	75	n/a	3	n/a	n/a	n/a	n/a	165.533	n/a
139.994	0.497	angry	Picture	86.384	n/a	2	4	16	n/a	76	88	3	n/a	n/a	n/a	n/a	166.064	AF14ANS.jpg
140.491	0.514	Blank	Blank	85.87	n/a	2	4	16	n/a	76	n/a	3	n/a	n/a	n/a	n/a	166.561	n/a
141.022	0.497	angry	Picture	85.356	n/a	2	4	17	n/a	77	93	3	n/a	n/a	n/a	n/a	167.092	BF22ANS.jpg
141.519	0.514	Blank	Blank	84.842	n/a	2	4	17	n/a	77	n/a	3	n/a	n/a	n/a	n/a	167.589	n/a
142.05	0.497	angry	Picture	84.328	n/a	2	4	18	n/a	78	86	3	n/a	n/a	n/a	n/a	168.12	AF09ANS.jpg
142.547	0.514	Blank	Blank	83.814	n/a	2	4	18	n/a	78	n/a	3	n/a	n/a	n/a	n/a	168.617	n/a
143.078	0.497	angry	Picture	83.3	n/a	2	4	19	n/a	79	92	3	n/a	n/a	n/a	n/a	169.148	AF21ANS.jpg
143.575	0.514	Blank	Blank	82.786	n/a	2	4	19	n/a	79	n/a	3	n/a	n/a	n/a	n/a	169.645	n/a
144.106	0.497	angry	Picture	82.272	n/a	2	4	20	n/a	80	84	3	n/a	n/a	n/a	n/a	170.175	AF05ANS.jpg
144.603	0.514	Blank	Blank	81.758	n/a	2	4	20	n/a	80	n/a	3	n/a	n/a	n/a	n/a	170.673	n/a
145.134	10.014	ITI	Fixation+	71.728	n/a	2	n/a	n/a	n/a	n/a	n/a	n/a	n/a	n/a	n/a	n/a	171.203	n/a
155.164	0.497	neutral	Picture	71.214	n/a	2	5	1	n/a	81	4	1	n/a	n/a	n/a	n/a	181.233	AF05NES.jpg
155.661	0.514	Blank	Blank	70.7	n/a	2	5	1	n/a	81	n/a	1	n/a	n/a	n/a	n/a	181.731	n/a
156.192	0.497	neutral	Picture	70.186	n/a	2	5	2	n/a	82	14	1	n/a	n/a	n/a	n/a	182.261	AF23NES.jpg
156.689	0.514	Blank	Blank	69.672	n/a	2	5	2	n/a	82	n/a	1	n/a	n/a	n/a	n/a	182.759	n/a
157.219	0.497	neutral	Picture	69.159	n/a	2	5	3	n/a	83	19	1	n/a	n/a	n/a	n/a	183.289	AF31NES.jpg
157.717	0.514	Blank	Blank	68.644	n/a	2	5	3	n/a	83	n/a	1	n/a	n/a	n/a	n/a	183.787	n/a
158.247	0.497	neutral	Picture	68.131	n/a	2	5	4	n/a	84	8	1	n/a	n/a	n/a	n/a	184.317	AF14NES.jpg
158.745	0.514	Blank	Blank	67.617	n/a	2	5	4	n/a	84	n/a	1	n/a	n/a	n/a	n/a	184.815	n/a
159.275	0.497	neutral	Picture	67.103	n/a	2	5	5	n/a	85	25	1	n/a	n/a	n/a	n/a	185.345	BM06NES.jpg
159.773	0.514	Blank	Blank	66.589	n/a	2	5	5	n/a	85	n/a	1	n/a	n/a	n/a	n/a	185.842	n/a
160.303	0.497	neutral	Picture	66.075	n/a	2	5	6	n/a	86	9	1	n/a	n/a	n/a	n/a	186.373	AF17NES.jpg
160.8	0.514	Blank	Blank	65.561	n/a	2	5	6	n/a	86	n/a	1	n/a	n/a	n/a	n/a	186.87	n/a
161.331	0.497	neutral	Picture	65.047	n/a	2	5	7	n/a	87	2	1	n/a	n/a	n/a	n/a	187.401	AF03NES.jpg
161.828	0.514	Blank	Blank	64.533	n/a	2	5	7	n/a	87	n/a	1	n/a	n/a	n/a	n/a	187.898	n/a
162.359	0.497	neutral	Picture	64.019	n/a	2	5	8	n/a	88	17	1	n/a	n/a	n/a	n/a	188.429	BF28NES.jpg
162.856	0.514	Blank	Blank	63.505	n/a	2	5	8	n/a	88	n/a	1	n/a	n/a	n/a	n/a	188.926	n/a
163.387	0.497	neutral	Picture	62.991	n/a	2	5	9	n/a	89	6	1	n/a	n/a	n/a	n/a	189.457	AF09NES.jpg
163.884	0.514	Blank	Blank	62.477	n/a	2	5	9	n/a	89	n/a	1	n/a	n/a	n/a	n/a	189.954	n/a
164.415	0.497	neutral	Picture	61.963	n/a	2	5	10	n/a	90	12	1	n/a	n/a	n/a	n/a	190.484	AF21NES.jpg
164.912	0.514	Blank	Blank	61.449	n/a	2	5	10	n/a	90	n/a	1	n/a	n/a	n/a	n/a	190.982	n/a
165.442	0.497	neutral	Picture	60.935	n/a	2	5	11	n/a	91	24	1	n/a	n/a	n/a	n/a	191.512	BM05NES.jpg
165.94	0.514	Blank	Blank	60.421	n/a	2	5	11	n/a	91	n/a	1	n/a	n/a	n/a	n/a	192.01	n/a
166.47	0.497	neutral	Picture	59.907	n/a	2	5	12	n/a	92	34	1	n/a	n/a	n/a	n/a	192.54	AM22NES.jpg
166.968	0.514	Blank	Blank	59.394	n/a	2	5	12	n/a	92	n/a	1	n/a	n/a	n/a	n/a	193.038	n/a
167.498	0.497	neutral	Picture	58.88	n/a	2	5	13	n/a	93	23	1	n/a	n/a	n/a	n/a	193.568	AM04NES.jpg
167.996	0.514	Blank	Blank	58.366	n/a	2	5	13	n/a	93	n/a	1	n/a	n/a	n/a	n/a	194.065	n/a
168.526	0.497	neutral	Picture	57.852	n/a	2	5	14	n/a	94	15	1	n/a	n/a	n/a	n/a	194.596	AF25NES.jpg
169.024	0.514	Blank	Blank	57.338	n/a	2	5	14	n/a	94	n/a	1	n/a	n/a	n/a	n/a	195.093	n/a
169.554	0.497	neutral	Picture	56.824	n/a	2	5	15	n/a	95	37	1	n/a	n/a	n/a	n/a	195.624	BM25NES.jpg
170.051	0.514	Blank	Blank	56.31	n/a	2	5	15	n/a	95	n/a	1	n/a	n/a	n/a	n/a	196.121	n/a
170.582	0.497	neutral	Picture	55.796	n/a	2	5	16	n/a	96	32	1	n/a	n/a	n/a	n/a	196.652	AM14NES.jpg
171.079	0.514	Blank	Blank	55.282	n/a	2	5	16	n/a	96	n/a	1	n/a	n/a	n/a	n/a	197.149	n/a
171.61	0.497	neutral	Picture	54.768	n/a	2	5	17	n/a	97	3	1	n/a	n/a	n/a	n/a	197.68	BF04NES.jpg
172.107	0.514	Blank	Blank	54.254	n/a	2	5	17	n/a	97	n/a	1	n/a	n/a	n/a	n/a	198.177	n/a
172.638	0.497	neutral	Picture	53.74	n/a	2	5	18	n/a	98	16	1	n/a	n/a	n/a	n/a	198.708	AF26NES.jpg
173.135	0.514	Blank	Blank	53.226	n/a	2	5	18	n/a	98	n/a	1	n/a	n/a	n/a	n/a	199.205	n/a
173.666	0.497	neutral	Picture	52.712	n/a	2	5	19	n/a	99	27	1	n/a	n/a	n/a	n/a	199.735	BM08NES.jpg
174.163	0.514	Blank	Blank	52.198	n/a	2	5	19	n/a	99	n/a	1	n/a	n/a	n/a	n/a	200.233	n/a
174.693	0.497	neutral	Picture	51.685	n/a	2	5	20	n/a	100	28	1	n/a	n/a	n/a	n/a	200.763	AM09NES.jpg
175.191	0.514	Blank	Blank	51.17	n/a	2	5	20	n/a	100	n/a	1	n/a	n/a	n/a	n/a	201.261	n/a
175.721	10.014	ITI	Fixation+	41.14	n/a	2	n/a	n/a	n/a	n/a	n/a	n/a	n/a	n/a	n/a	n/a	201.791	n/a
185.752	0.497	angry	Picture	40.626	n/a	2	6	1	n/a	101	81	3	n/a	n/a	n/a	n/a	211.821	AF01ANS.jpg
186.249	0.514	Blank	Blank	40.112	n/a	2	6	1	n/a	101	n/a	3	n/a	n/a	n/a	n/a	212.319	n/a
186.779	0.497	angry	Picture	39.598	n/a	2	6	2	n/a	102	120	3	n/a	n/a	n/a	n/a	212.849	AM35ANS.jpg
187.277	0.514	Blank	Blank	39.085	n/a	2	6	2	n/a	102	n/a	3	n/a	n/a	n/a	n/a	213.347	n/a
187.807	0.497	angry	Picture	38.571	n/a	2	6	3	n/a	103	114	3	n/a	n/a	n/a	n/a	213.877	AM22ANS.jpg
188.305	0.514	Blank	Blank	38.057	n/a	2	6	3	n/a	103	n/a	3	n/a	n/a	n/a	n/a	214.374	n/a
188.835	0.497	angry	Picture	37.543	n/a	2	6	4	n/a	104	109	3	n/a	n/a	n/a	n/a	214.905	AM10ANS.jpg
189.332	0.514	Blank	Blank	37.029	n/a	2	6	4	n/a	104	n/a	3	n/a	n/a	n/a	n/a	215.402	n/a
189.863	0.497	angry	Picture	36.515	n/a	2	6	5	n/a	105	96	3	n/a	n/a	n/a	n/a	215.933	AF26ANS.jpg
190.36	0.514	Blank	Blank	36.001	n/a	2	6	5	n/a	105	n/a	3	n/a	n/a	n/a	n/a	216.43	n/a
190.891	0.497	angry	Picture	35.487	n/a	2	6	6	n/a	106	82	3	n/a	n/a	n/a	n/a	216.961	AF03ANS.jpg
191.388	0.514	Blank	Blank	34.973	n/a	2	6	6	n/a	106	n/a	3	n/a	n/a	n/a	n/a	217.458	n/a
191.919	0.497	angry	Picture	34.459	n/a	2	6	7	n/a	107	97	3	n/a	n/a	n/a	n/a	217.989	BF28ANS.jpg
192.416	0.514	Blank	Blank	33.945	n/a	2	6	7	n/a	107	n/a	3	n/a	n/a	n/a	n/a	218.486	n/a
192.947	0.497	angry	Picture	33.431	n/a	2	6	8	n/a	108	115	3	n/a	n/a	n/a	n/a	219.017	AM23ANS.jpg
193.444	0.514	Blank	Blank	32.917	n/a	2	6	8	n/a	108	n/a	3	n/a	n/a	n/a	n/a	219.514	n/a
193.975	0.497	angry	Picture	32.403	n/a	2	6	9	n/a	109	91	3	n/a	n/a	n/a	n/a	220.044	AF20ANS.jpg
194.472	0.514	Blank	Blank	31.889	n/a	2	6	9	n/a	109	n/a	3	n/a	n/a	n/a	n/a	220.542	n/a
195.002	0.497	angry	Picture	31.375	n/a	2	6	10	n/a	110	87	3	n/a	n/a	n/a	n/a	221.072	BF11ANS.jpg
195.5	0.514	Blank	Blank	30.861	n/a	2	6	10	n/a	110	n/a	3	n/a	n/a	n/a	n/a	221.57	n/a
196.03	0.497	angry	Picture	30.348	n/a	2	6	11	n/a	111	85	3	n/a	n/a	n/a	n/a	222.1	BF07ANS.jpg
196.528	0.514	Blank	Blank	29.834	n/a	2	6	11	n/a	111	n/a	3	n/a	n/a	n/a	n/a	222.597	n/a
197.058	0.497	angry	Picture	29.32	n/a	2	6	12	n/a	112	110	3	n/a	n/a	n/a	n/a	223.128	AM11ANS.jpg
197.556	0.514	Blank	Blank	28.806	n/a	2	6	12	n/a	112	n/a	3	n/a	n/a	n/a	n/a	223.625	n/a
198.086	0.497	angry	Picture	28.292	n/a	2	6	13	n/a	113	111	3	n/a	n/a	n/a	n/a	224.156	BM12ANS.jpg
198.584	0.514	Blank	Blank	27.778	n/a	2	6	13	n/a	113	n/a	3	n/a	n/a	n/a	n/a	224.653	n/a
199.114	0.497	angry	Picture	27.264	n/a	2	6	14	n/a	114	103	3	n/a	n/a	n/a	n/a	225.184	AM04ANS.jpg
199.611	0.514	Blank	Blank	26.75	n/a	2	6	14	n/a	114	n/a	3	n/a	n/a	n/a	n/a	225.681	n/a
200.142	0.497	angry	Picture	26.236	n/a	2	6	15	n/a	115	101	3	n/a	n/a	n/a	n/a	226.212	AM01ANS.jpg
200.639	0.514	Blank	Blank	25.722	n/a	2	6	15	n/a	115	n/a	3	n/a	n/a	n/a	n/a	226.709	n/a
201.17	0.497	angry	Picture	25.208	n/a	2	6	16	n/a	116	104	3	n/a	n/a	n/a	n/a	227.239	BM05ANS.jpg
201.667	0.514	Blank	Blank	24.694	n/a	2	6	16	n/a	116	n/a	3	n/a	n/a	n/a	n/a	227.737	n/a
202.198	0.497	angry	Picture	24.18	n/a	2	6	17	n/a	117	107	3	n/a	n/a	n/a	n/a	228.267	BM08ANS.jpg
202.695	0.514	Blank	Blank	23.666	n/a	2	6	17	n/a	117	n/a	3	n/a	n/a	n/a	n/a	228.765	n/a
203.226	0.497	angry	Picture	23.152	n/a	2	6	18	n/a	118	98	3	n/a	n/a	n/a	n/a	229.295	BF29ANS.jpg
203.723	0.514	Blank	Blank	22.638	n/a	2	6	18	n/a	118	n/a	3	n/a	n/a	n/a	n/a	229.793	n/a
204.253	0.497	angry	Picture	22.124	n/a	2	6	19	n/a	119	99	3	n/a	n/a	n/a	n/a	230.323	AF31ANS.jpg
204.751	0.514	Blank	Blank	21.611	n/a	2	6	19	n/a	119	n/a	3	n/a	n/a	n/a	n/a	230.821	n/a
205.281	0.497	angry	Picture	21.097	n/a	2	6	20	n/a	120	108	3	n/a	n/a	n/a	n/a	231.351	AM09ANS.jpg
205.779	0.514	Blank	Blank	20.583	n/a	2	6	20	n/a	120	n/a	3	n/a	n/a	n/a	n/a	231.848	n/a
206.309	10.014	ITI	Fixation+	10.553	n/a	2	n/a	n/a	n/a	n/a	n/a	n/a	n/a	n/a	n/a	n/a	232.379	n/a
226.875	n/a	ConfirmRating	Rate	n/a	10.544	2	n/a	n/a	0	n/a	n/a	n/a	2	Angry	5	45	252.945	n/a
230.57	n/a	ConfirmRating	Rate	n/a	3.681	2	n/a	n/a	1	n/a	n/a	n/a	3	Angry	60	51	256.64	n/a
230.597	15.004	Rest	Picture	n/a	n/a	n/a	n/a	n/a	n/a	n/a	n/a	n/a	0	n/a	0	0	256.667	n/a
245.617	10.014	ITI	Fixation+	99.116	n/a	3	n/a	n/a	n/a	n/a	n/a	n/a	n/a	n/a	n/a	n/a	271.687	n/a
255.648	0.497	happy	Picture	98.602	n/a	3	7	1	n/a	1	46	2	n/a	n/a	n/a	n/a	281.717	AF09HAS.jpg
256.145	0.514	Blank	Blank	98.088	n/a	3	7	1	n/a	1	n/a	2	n/a	n/a	n/a	n/a	282.215	n/a
256.675	0.497	happy	Picture	97.574	n/a	3	7	2	n/a	2	69	2	n/a	n/a	n/a	n/a	282.745	AM10HAS.jpg
257.173	0.514	Blank	Blank	97.06	n/a	3	7	2	n/a	2	n/a	2	n/a	n/a	n/a	n/a	283.243	n/a
257.703	0.497	happy	Picture	96.546	n/a	3	7	3	n/a	3	71	2	n/a	n/a	n/a	n/a	283.773	BM12HAS.jpg
258.201	0.514	Blank	Blank	96.032	n/a	3	7	3	n/a	3	n/a	2	n/a	n/a	n/a	n/a	284.27	n/a
258.731	0.497	happy	Picture	95.518	n/a	3	7	4	n/a	4	51	2	n/a	n/a	n/a	n/a	284.801	AF20HAS.jpg
259.228	0.514	Blank	Blank	95.004	n/a	3	7	4	n/a	4	n/a	2	n/a	n/a	n/a	n/a	285.298	n/a
259.759	0.497	happy	Picture	94.49	n/a	3	7	5	n/a	5	67	2	n/a	n/a	n/a	n/a	285.829	BM08HAS.jpg
260.256	0.514	Blank	Blank	93.977	n/a	3	7	5	n/a	5	n/a	2	n/a	n/a	n/a	n/a	286.326	n/a
260.787	0.497	happy	Picture	93.463	n/a	3	7	6	n/a	6	60	2	n/a	n/a	n/a	n/a	286.857	AF32HAS.jpg
261.284	0.514	Blank	Blank	92.949	n/a	3	7	6	n/a	6	n/a	2	n/a	n/a	n/a	n/a	287.354	n/a
261.815	0.497	happy	Picture	92.435	n/a	3	7	7	n/a	7	42	2	n/a	n/a	n/a	n/a	287.885	AF03HAS.jpg
262.312	0.514	Blank	Blank	91.921	n/a	3	7	7	n/a	7	n/a	2	n/a	n/a	n/a	n/a	288.382	n/a
262.843	0.497	happy	Picture	91.407	n/a	3	7	8	n/a	8	55	2	n/a	n/a	n/a	n/a	288.913	AF25HAS.jpg
263.34	0.514	Blank	Blank	90.893	n/a	3	7	8	n/a	8	n/a	2	n/a	n/a	n/a	n/a	289.41	n/a
263.871	0.497	happy	Picture	90.379	n/a	3	7	9	n/a	9	72	2	n/a	n/a	n/a	n/a	289.94	AM14HAS.jpg
264.368	0.514	Blank	Blank	89.865	n/a	3	7	9	n/a	9	n/a	2	n/a	n/a	n/a	n/a	290.438	n/a
264.898	0.497	happy	Picture	89.351	n/a	3	7	10	n/a	10	63	2	n/a	n/a	n/a	n/a	290.968	AM04HAS.jpg
265.396	0.514	Blank	Blank	88.837	n/a	3	7	10	n/a	10	n/a	2	n/a	n/a	n/a	n/a	291.466	n/a
265.926	0.497	happy	Picture	88.323	n/a	3	7	11	n/a	11	58	2	n/a	n/a	n/a	n/a	291.996	BF29HAS.jpg
266.424	0.514	Blank	Blank	87.809	n/a	3	7	11	n/a	11	n/a	2	n/a	n/a	n/a	n/a	292.493	n/a
266.954	0.497	happy	Picture	87.295	n/a	3	7	12	n/a	12	48	2	n/a	n/a	n/a	n/a	293.024	AF14HAS.jpg
267.452	0.514	Blank	Blank	86.781	n/a	3	7	12	n/a	12	n/a	2	n/a	n/a	n/a	n/a	293.521	n/a
267.982	0.497	happy	Picture	86.267	n/a	3	7	13	n/a	13	66	2	n/a	n/a	n/a	n/a	294.052	BM07HAS.jpg
268.48	0.514	Blank	Blank	85.754	n/a	3	7	13	n/a	13	n/a	2	n/a	n/a	n/a	n/a	294.549	n/a
269.01	0.497	happy	Picture	85.24	n/a	3	7	14	n/a	14	70	2	n/a	n/a	n/a	n/a	295.08	BM11HAS.jpg
269.507	0.514	Blank	Blank	84.726	n/a	3	7	14	n/a	14	n/a	2	n/a	n/a	n/a	n/a	295.577	n/a
270.038	0.497	happy	Picture	84.212	n/a	3	7	15	n/a	15	43	2	n/a	n/a	n/a	n/a	296.108	BF04HAS.jpg
270.535	0.514	Blank	Blank	83.698	n/a	3	7	15	n/a	15	n/a	2	n/a	n/a	n/a	n/a	296.605	n/a
271.066	0.497	happy	Picture	83.184	n/a	3	7	16	n/a	16	49	2	n/a	n/a	n/a	n/a	297.135	AF17HAS.jpg
271.563	0.514	Blank	Blank	82.67	n/a	3	7	16	n/a	16	n/a	2	n/a	n/a	n/a	n/a	297.633	n/a
272.094	0.497	happy	Picture	82.156	n/a	3	7	17	n/a	17	75	2	n/a	n/a	n/a	n/a	298.163	AM23HAS.jpg
272.591	0.514	Blank	Blank	81.642	n/a	3	7	17	n/a	17	n/a	2	n/a	n/a	n/a	n/a	298.661	n/a
273.122	0.497	happy	Picture	81.128	n/a	3	7	18	n/a	18	80	2	n/a	n/a	n/a	n/a	299.191	BM35HAS.jpg
273.619	0.514	Blank	Blank	80.614	n/a	3	7	18	n/a	18	n/a	2	n/a	n/a	n/a	n/a	299.689	n/a
274.149	0.497	happy	Picture	80.1	n/a	3	7	19	n/a	19	76	2	n/a	n/a	n/a	n/a	300.219	BM24HAS.jpg
274.647	0.514	Blank	Blank	79.586	n/a	3	7	19	n/a	19	n/a	2	n/a	n/a	n/a	n/a	300.716	n/a
275.177	0.497	happy	Picture	79.072	n/a	3	7	20	n/a	20	74	2	n/a	n/a	n/a	n/a	301.247	AM22HAS.jpg
275.675	0.514	Blank	Blank	78.558	n/a	3	7	20	n/a	20	n/a	2	n/a	n/a	n/a	n/a	301.744	n/a
276.205	10.014	ITI	Fixation+	68.528	n/a	3	n/a	n/a	n/a	n/a	n/a	n/a	n/a	n/a	n/a	n/a	302.275	n/a
286.235	0.497	neutral	Picture	68.014	n/a	3	8	1	n/a	21	33	1	n/a	n/a	n/a	n/a	312.305	AM21NES.jpg
286.733	0.514	Blank	Blank	67.5	n/a	3	8	1	n/a	21	n/a	1	n/a	n/a	n/a	n/a	312.803	n/a
287.263	0.497	neutral	Picture	66.986	n/a	3	8	2	n/a	22	39	1	n/a	n/a	n/a	n/a	313.333	AM28NES.jpg
287.761	0.514	Blank	Blank	66.472	n/a	3	8	2	n/a	22	n/a	1	n/a	n/a	n/a	n/a	313.83	n/a
288.291	0.497	neutral	Picture	65.959	n/a	3	8	3	n/a	23	25	1	n/a	n/a	n/a	n/a	314.361	BM06NES.jpg
288.788	0.514	Blank	Blank	65.445	n/a	3	8	3	n/a	23	n/a	1	n/a	n/a	n/a	n/a	314.858	n/a
289.319	0.497	neutral	Picture	64.931	n/a	3	8	4	n/a	24	5	1	n/a	n/a	n/a	n/a	315.389	BF07NES.jpg
289.816	0.514	Blank	Blank	64.417	n/a	3	8	4	n/a	24	n/a	1	n/a	n/a	n/a	n/a	315.886	n/a
290.347	0.497	neutral	Picture	63.903	n/a	3	8	5	n/a	25	10	1	n/a	n/a	n/a	n/a	316.417	AF18NES.jpg
290.844	0.514	Blank	Blank	63.389	n/a	3	8	5	n/a	25	n/a	1	n/a	n/a	n/a	n/a	316.914	n/a
291.375	0.497	neutral	Picture	62.875	n/a	3	8	6	n/a	26	34	1	n/a	n/a	n/a	n/a	317.445	AM22NES.jpg
291.872	0.514	Blank	Blank	62.361	n/a	3	8	6	n/a	26	n/a	1	n/a	n/a	n/a	n/a	317.942	n/a
292.403	0.497	neutral	Picture	61.847	n/a	3	8	7	n/a	27	36	1	n/a	n/a	n/a	n/a	318.472	BM24NES.jpg
292.9	0.514	Blank	Blank	61.333	n/a	3	8	7	n/a	27	n/a	1	n/a	n/a	n/a	n/a	318.97	n/a
293.43	0.497	neutral	Picture	60.819	n/a	3	8	8	n/a	28	14	1	n/a	n/a	n/a	n/a	319.5	AF23NES.jpg
293.928	0.514	Blank	Blank	60.305	n/a	3	8	8	n/a	28	n/a	1	n/a	n/a	n/a	n/a	319.998	n/a
294.458	0.497	neutral	Picture	59.791	n/a	3	8	9	n/a	29	9	1	n/a	n/a	n/a	n/a	320.528	AF17NES.jpg
294.956	0.514	Blank	Blank	59.277	n/a	3	8	9	n/a	29	n/a	1	n/a	n/a	n/a	n/a	321.026	n/a
295.486	0.497	neutral	Picture	58.763	n/a	3	8	10	n/a	30	19	1	n/a	n/a	n/a	n/a	321.556	AF31NES.jpg
295.984	0.514	Blank	Blank	58.249	n/a	3	8	10	n/a	30	n/a	1	n/a	n/a	n/a	n/a	322.053	n/a
296.514	0.497	neutral	Picture	57.735	n/a	3	8	11	n/a	31	15	1	n/a	n/a	n/a	n/a	322.584	AF25NES.jpg
297.012	0.514	Blank	Blank	57.222	n/a	3	8	11	n/a	31	n/a	1	n/a	n/a	n/a	n/a	323.081	n/a
297.542	0.497	neutral	Picture	56.707	n/a	3	8	12	n/a	32	22	1	n/a	n/a	n/a	n/a	323.612	BM03NES.jpg
298.039	0.514	Blank	Blank	56.194	n/a	3	8	12	n/a	32	n/a	1	n/a	n/a	n/a	n/a	324.109	n/a
298.57	0.497	neutral	Picture	55.68	n/a	3	8	13	n/a	33	11	1	n/a	n/a	n/a	n/a	324.64	AF20NES.jpg
299.067	0.514	Blank	Blank	55.166	n/a	3	8	13	n/a	33	n/a	1	n/a	n/a	n/a	n/a	325.137	n/a
299.598	0.497	neutral	Picture	54.652	n/a	3	8	14	n/a	34	4	1	n/a	n/a	n/a	n/a	325.668	AF05NES.jpg
300.095	0.514	Blank	Blank	54.138	n/a	3	8	14	n/a	34	n/a	1	n/a	n/a	n/a	n/a	326.165	n/a
300.626	0.497	neutral	Picture	53.624	n/a	3	8	15	n/a	35	17	1	n/a	n/a	n/a	n/a	326.695	BF28NES.jpg
301.123	0.514	Blank	Blank	53.11	n/a	3	8	15	n/a	35	n/a	1	n/a	n/a	n/a	n/a	327.193	n/a
301.654	0.497	neutral	Picture	52.596	n/a	3	8	16	n/a	36	13	1	n/a	n/a	n/a	n/a	327.723	BF22NES.jpg
302.151	0.514	Blank	Blank	52.082	n/a	3	8	16	n/a	36	n/a	1	n/a	n/a	n/a	n/a	328.221	n/a
302.681	0.497	neutral	Picture	51.568	n/a	3	8	17	n/a	37	12	1	n/a	n/a	n/a	n/a	328.751	AF21NES.jpg
303.179	0.514	Blank	Blank	51.054	n/a	3	8	17	n/a	37	n/a	1	n/a	n/a	n/a	n/a	329.249	n/a
303.709	0.497	neutral	Picture	50.54	n/a	3	8	18	n/a	38	24	1	n/a	n/a	n/a	n/a	329.779	BM05NES.jpg
304.207	0.514	Blank	Blank	50.026	n/a	3	8	18	n/a	38	n/a	1	n/a	n/a	n/a	n/a	330.276	n/a
304.737	0.497	neutral	Picture	49.512	n/a	3	8	19	n/a	39	29	1	n/a	n/a	n/a	n/a	330.807	AM10NES.jpg
305.235	0.514	Blank	Blank	48.998	n/a	3	8	19	n/a	39	n/a	1	n/a	n/a	n/a	n/a	331.304	n/a
305.765	0.497	neutral	Picture	48.485	n/a	3	8	20	n/a	40	23	1	n/a	n/a	n/a	n/a	331.835	AM04NES.jpg
306.262	0.514	Blank	Blank	47.971	n/a	3	8	20	n/a	40	n/a	1	n/a	n/a	n/a	n/a	332.332	n/a
306.793	10.014	ITI	Fixation+	37.94	n/a	3	n/a	n/a	n/a	n/a	n/a	n/a	n/a	n/a	n/a	n/a	332.863	n/a
316.823	0.497	happy	Picture	37.427	n/a	3	9	1	n/a	41	62	2	n/a	n/a	n/a	n/a	342.893	BM03HAS.jpg
317.32	0.514	Blank	Blank	36.913	n/a	3	9	1	n/a	41	n/a	2	n/a	n/a	n/a	n/a	343.39	n/a
317.851	0.497	happy	Picture	36.399	n/a	3	9	2	n/a	42	52	2	n/a	n/a	n/a	n/a	343.921	AF21HAS.jpg
318.348	0.514	Blank	Blank	35.885	n/a	3	9	2	n/a	42	n/a	2	n/a	n/a	n/a	n/a	344.418	n/a
318.879	0.497	happy	Picture	35.371	n/a	3	9	3	n/a	43	44	2	n/a	n/a	n/a	n/a	344.949	AF05HAS.jpg
319.376	0.514	Blank	Blank	34.857	n/a	3	9	3	n/a	43	n/a	2	n/a	n/a	n/a	n/a	345.446	n/a
319.907	0.497	happy	Picture	34.343	n/a	3	9	4	n/a	44	53	2	n/a	n/a	n/a	n/a	345.976	BF22HAS.jpg
320.404	0.514	Blank	Blank	33.829	n/a	3	9	4	n/a	44	n/a	2	n/a	n/a	n/a	n/a	346.474	n/a
320.935	0.497	happy	Picture	33.315	n/a	3	9	5	n/a	45	54	2	n/a	n/a	n/a	n/a	347.004	AF23HAS.jpg
321.432	0.514	Blank	Blank	32.801	n/a	3	9	5	n/a	45	n/a	2	n/a	n/a	n/a	n/a	347.502	n/a
321.963	0.497	happy	Picture	32.287	n/a	3	9	6	n/a	46	68	2	n/a	n/a	n/a	n/a	348.032	AM09HAS.jpg
322.46	0.514	Blank	Blank	31.773	n/a	3	9	6	n/a	46	n/a	2	n/a	n/a	n/a	n/a	348.53	n/a
322.99	0.497	happy	Picture	31.259	n/a	3	9	7	n/a	47	64	2	n/a	n/a	n/a	n/a	349.06	BM05HAS.jpg
323.488	0.514	Blank	Blank	30.745	n/a	3	9	7	n/a	47	n/a	2	n/a	n/a	n/a	n/a	349.558	n/a
324.018	0.497	happy	Picture	30.231	n/a	3	9	8	n/a	48	59	2	n/a	n/a	n/a	n/a	350.088	AF31HAS.jpg
324.516	0.514	Blank	Blank	29.717	n/a	3	9	8	n/a	48	n/a	2	n/a	n/a	n/a	n/a	350.585	n/a
325.046	0.497	happy	Picture	29.203	n/a	3	9	9	n/a	49	41	2	n/a	n/a	n/a	n/a	351.116	AF01HAS.jpg
325.543	0.514	Blank	Blank	28.69	n/a	3	9	9	n/a	49	n/a	2	n/a	n/a	n/a	n/a	351.613	n/a
326.074	0.497	happy	Picture	28.175	n/a	3	9	10	n/a	50	73	2	n/a	n/a	n/a	n/a	352.144	AM21HAS.jpg
326.571	0.514	Blank	Blank	27.662	n/a	3	9	10	n/a	50	n/a	2	n/a	n/a	n/a	n/a	352.641	n/a
327.102	0.497	happy	Picture	27.148	n/a	3	9	11	n/a	51	65	2	n/a	n/a	n/a	n/a	353.172	BM06HAS.jpg
327.599	0.514	Blank	Blank	26.634	n/a	3	9	11	n/a	51	n/a	2	n/a	n/a	n/a	n/a	353.669	n/a
328.13	0.497	happy	Picture	26.12	n/a	3	9	12	n/a	52	56	2	n/a	n/a	n/a	n/a	354.2	AF26HAS.jpg
328.627	0.514	Blank	Blank	25.606	n/a	3	9	12	n/a	52	n/a	2	n/a	n/a	n/a	n/a	354.697	n/a
329.158	0.497	happy	Picture	25.092	n/a	3	9	13	n/a	53	45	2	n/a	n/a	n/a	n/a	355.228	BF07HAS.jpg
329.655	0.514	Blank	Blank	24.578	n/a	3	9	13	n/a	53	n/a	2	n/a	n/a	n/a	n/a	355.725	n/a
330.186	0.497	happy	Picture	24.064	n/a	3	9	14	n/a	54	78	2	n/a	n/a	n/a	n/a	356.255	BM26HAS.jpg
330.683	0.514	Blank	Blank	23.55	n/a	3	9	14	n/a	54	n/a	2	n/a	n/a	n/a	n/a	356.753	n/a
331.213	0.497	happy	Picture	23.036	n/a	3	9	15	n/a	55	50	2	n/a	n/a	n/a	n/a	357.283	AF18HAS.jpg
331.711	0.514	Blank	Blank	22.522	n/a	3	9	15	n/a	55	n/a	2	n/a	n/a	n/a	n/a	357.781	n/a
332.241	0.497	happy	Picture	22.008	n/a	3	9	16	n/a	56	47	2	n/a	n/a	n/a	n/a	358.311	BF11HAS.jpg
332.739	0.514	Blank	Blank	21.494	n/a	3	9	16	n/a	56	n/a	2	n/a	n/a	n/a	n/a	358.808	n/a
333.269	0.497	happy	Picture	20.98	n/a	3	9	17	n/a	57	77	2	n/a	n/a	n/a	n/a	359.339	BM25HAS.jpg
333.767	0.514	Blank	Blank	20.466	n/a	3	9	17	n/a	57	n/a	2	n/a	n/a	n/a	n/a	359.836	n/a
334.297	0.497	happy	Picture	19.953	n/a	3	9	18	n/a	58	57	2	n/a	n/a	n/a	n/a	360.367	BF28HAS.jpg
334.794	0.514	Blank	Blank	19.439	n/a	3	9	18	n/a	58	n/a	2	n/a	n/a	n/a	n/a	360.864	n/a
335.325	0.497	happy	Picture	18.925	n/a	3	9	19	n/a	59	61	2	n/a	n/a	n/a	n/a	361.395	AM01HAS.jpg
335.822	0.514	Blank	Blank	18.411	n/a	3	9	19	n/a	59	n/a	2	n/a	n/a	n/a	n/a	361.892	n/a
336.353	0.497	happy	Picture	17.897	n/a	3	9	20	n/a	60	79	2	n/a	n/a	n/a	n/a	362.423	BM28HAS.jpg
336.85	0.514	Blank	Blank	17.383	n/a	3	9	20	n/a	60	n/a	2	n/a	n/a	n/a	n/a	362.92	n/a
337.381	10.014	ITI	Fixation+	7.353	n/a	3	n/a	n/a	n/a	n/a	n/a	n/a	n/a	n/a	n/a	n/a	363.45	n/a
354.747	n/a	ConfirmRating	Rate	n/a	7.345	3	n/a	n/a	0	n/a	n/a	n/a	2	Happy	9	46	380.817	n/a
360.315	n/a	ConfirmRating	Rate	n/a	5.554	3	n/a	n/a	1	n/a	n/a	n/a	3	Happy	58	51	386.385	n/a
360.342	10.014	ITI	Fixation+	96.33	n/a	4	n/a	n/a	n/a	n/a	n/a	n/a	n/a	n/a	n/a	n/a	386.412	n/a
370.372	0.497	angry	Picture	95.816	n/a	4	10	1	n/a	61	119	3	n/a	n/a	n/a	n/a	396.442	BM28ANS.jpg
370.87	0.514	Blank	Blank	95.302	n/a	4	10	1	n/a	61	n/a	3	n/a	n/a	n/a	n/a	396.94	n/a
371.4	0.497	angry	Picture	94.788	n/a	4	10	2	n/a	62	100	3	n/a	n/a	n/a	n/a	397.47	AF32ANS.jpg
371.898	0.514	Blank	Blank	94.274	n/a	4	10	2	n/a	62	n/a	3	n/a	n/a	n/a	n/a	397.967	n/a
372.428	0.497	angry	Picture	93.76	n/a	4	10	3	n/a	63	118	3	n/a	n/a	n/a	n/a	398.498	BM26ANS.jpg
372.926	0.514	Blank	Blank	93.246	n/a	4	10	3	n/a	63	n/a	3	n/a	n/a	n/a	n/a	398.995	n/a
373.456	0.497	angry	Picture	92.732	n/a	4	10	4	n/a	64	89	3	n/a	n/a	n/a	n/a	399.526	AF17ANS.jpg
373.953	0.514	Blank	Blank	92.218	n/a	4	10	4	n/a	64	n/a	3	n/a	n/a	n/a	n/a	400.023	n/a
374.484	0.497	angry	Picture	91.704	n/a	4	10	5	n/a	65	116	3	n/a	n/a	n/a	n/a	400.554	BM24ANS.jpg
374.981	0.514	Blank	Blank	91.19	n/a	4	10	5	n/a	65	n/a	3	n/a	n/a	n/a	n/a	401.051	n/a
375.512	0.497	angry	Picture	90.677	n/a	4	10	6	n/a	66	105	3	n/a	n/a	n/a	n/a	401.582	BM06ANS.jpg
376.009	0.514	Blank	Blank	90.163	n/a	4	10	6	n/a	66	n/a	3	n/a	n/a	n/a	n/a	402.079	n/a
376.54	0.497	angry	Picture	89.649	n/a	4	10	7	n/a	67	106	3	n/a	n/a	n/a	n/a	402.61	AM07ANS.jpg
377.037	0.514	Blank	Blank	89.135	n/a	4	10	7	n/a	67	n/a	3	n/a	n/a	n/a	n/a	403.107	n/a
377.568	0.497	angry	Picture	88.621	n/a	4	10	8	n/a	68	94	3	n/a	n/a	n/a	n/a	403.637	AF23ANS.jpg
378.065	0.514	Blank	Blank	88.107	n/a	4	10	8	n/a	68	n/a	3	n/a	n/a	n/a	n/a	404.135	n/a
378.596	0.497	angry	Picture	87.593	n/a	4	10	9	n/a	69	117	3	n/a	n/a	n/a	n/a	404.665	BM25ANS.jpg
379.093	0.514	Blank	Blank	87.079	n/a	4	10	9	n/a	69	n/a	3	n/a	n/a	n/a	n/a	405.163	n/a
379.623	0.497	angry	Picture	86.565	n/a	4	10	10	n/a	70	90	3	n/a	n/a	n/a	n/a	405.693	AF18ANS.jpg
380.121	0.514	Blank	Blank	86.051	n/a	4	10	10	n/a	70	n/a	3	n/a	n/a	n/a	n/a	406.19	n/a
380.651	0.497	angry	Picture	85.537	n/a	4	10	11	n/a	71	83	3	n/a	n/a	n/a	n/a	406.721	BF04ANS.jpg
381.149	0.514	Blank	Blank	85.023	n/a	4	10	11	n/a	71	n/a	3	n/a	n/a	n/a	n/a	407.218	n/a
381.679	0.497	angry	Picture	84.509	n/a	4	10	12	n/a	72	112	3	n/a	n/a	n/a	n/a	407.749	AM14ANS.jpg
382.177	0.514	Blank	Blank	83.995	n/a	4	10	12	n/a	72	n/a	3	n/a	n/a	n/a	n/a	408.246	n/a
382.707	0.497	angry	Picture	83.481	n/a	4	10	13	n/a	73	102	3	n/a	n/a	n/a	n/a	408.777	BM03ANS.jpg
383.204	0.514	Blank	Blank	82.968	n/a	4	10	13	n/a	73	n/a	3	n/a	n/a	n/a	n/a	409.274	n/a
383.735	0.497	angry	Picture	82.453	n/a	4	10	14	n/a	74	95	3	n/a	n/a	n/a	n/a	409.805	AF25ANS.jpg
384.232	0.514	Blank	Blank	81.94	n/a	4	10	14	n/a	74	n/a	3	n/a	n/a	n/a	n/a	410.302	n/a
384.763	0.497	angry	Picture	81.426	n/a	4	10	15	n/a	75	113	3	n/a	n/a	n/a	n/a	410.833	AM21ANS.jpg
385.26	0.514	Blank	Blank	80.912	n/a	4	10	15	n/a	75	n/a	3	n/a	n/a	n/a	n/a	411.33	n/a
385.791	0.497	angry	Picture	80.398	n/a	4	10	16	n/a	76	88	3	n/a	n/a	n/a	n/a	411.861	AF14ANS.jpg
386.288	0.514	Blank	Blank	79.884	n/a	4	10	16	n/a	76	n/a	3	n/a	n/a	n/a	n/a	412.358	n/a
386.819	0.497	angry	Picture	79.37	n/a	4	10	17	n/a	77	93	3	n/a	n/a	n/a	n/a	412.888	BF22ANS.jpg
387.316	0.514	Blank	Blank	78.856	n/a	4	10	17	n/a	77	n/a	3	n/a	n/a	n/a	n/a	413.386	n/a
387.846	0.497	angry	Picture	78.342	n/a	4	10	18	n/a	78	86	3	n/a	n/a	n/a	n/a	413.916	AF09ANS.jpg
388.344	0.514	Blank	Blank	77.828	n/a	4	10	18	n/a	78	n/a	3	n/a	n/a	n/a	n/a	414.414	n/a
388.874	0.497	angry	Picture	77.314	n/a	4	10	19	n/a	79	92	3	n/a	n/a	n/a	n/a	414.944	AF21ANS.jpg
389.372	0.514	Blank	Blank	76.8	n/a	4	10	19	n/a	79	n/a	3	n/a	n/a	n/a	n/a	415.442	n/a
389.902	0.497	angry	Picture	76.286	n/a	4	10	20	n/a	80	84	3	n/a	n/a	n/a	n/a	415.972	AF05ANS.jpg
390.4	0.514	Blank	Blank	75.772	n/a	4	10	20	n/a	80	n/a	3	n/a	n/a	n/a	n/a	416.469	n/a
390.93	10.014	ITI	Fixation+	65.742	n/a	4	n/a	n/a	n/a	n/a	n/a	n/a	n/a	n/a	n/a	n/a	417.0	n/a
400.96	0.497	neutral	Picture	65.228	n/a	4	11	1	n/a	81	4	1	n/a	n/a	n/a	n/a	427.03	AF05NES.jpg
401.458	0.514	Blank	Blank	64.714	n/a	4	11	1	n/a	81	n/a	1	n/a	n/a	n/a	n/a	427.527	n/a
401.988	0.497	neutral	Picture	64.2	n/a	4	11	2	n/a	82	14	1	n/a	n/a	n/a	n/a	428.058	AF23NES.jpg
402.486	0.514	Blank	Blank	63.686	n/a	4	11	2	n/a	82	n/a	1	n/a	n/a	n/a	n/a	428.555	n/a
403.016	0.497	neutral	Picture	63.173	n/a	4	11	3	n/a	83	19	1	n/a	n/a	n/a	n/a	429.086	AF31NES.jpg
403.513	0.514	Blank	Blank	62.659	n/a	4	11	3	n/a	83	n/a	1	n/a	n/a	n/a	n/a	429.583	n/a
404.044	0.497	neutral	Picture	62.145	n/a	4	11	4	n/a	84	8	1	n/a	n/a	n/a	n/a	430.114	AF14NES.jpg
404.541	0.514	Blank	Blank	61.631	n/a	4	11	4	n/a	84	n/a	1	n/a	n/a	n/a	n/a	430.611	n/a
405.072	0.497	neutral	Picture	61.117	n/a	4	11	5	n/a	85	25	1	n/a	n/a	n/a	n/a	431.142	BM06NES.jpg
405.569	0.514	Blank	Blank	60.603	n/a	4	11	5	n/a	85	n/a	1	n/a	n/a	n/a	n/a	431.639	n/a
406.1	0.497	neutral	Picture	60.089	n/a	4	11	6	n/a	86	9	1	n/a	n/a	n/a	n/a	432.169	AF17NES.jpg
406.597	0.514	Blank	Blank	59.575	n/a	4	11	6	n/a	86	n/a	1	n/a	n/a	n/a	n/a	432.667	n/a
407.127	0.497	neutral	Picture	59.061	n/a	4	11	7	n/a	87	2	1	n/a	n/a	n/a	n/a	433.197	AF03NES.jpg
407.625	0.514	Blank	Blank	58.547	n/a	4	11	7	n/a	87	n/a	1	n/a	n/a	n/a	n/a	433.695	n/a
408.155	0.497	neutral	Picture	58.033	n/a	4	11	8	n/a	88	17	1	n/a	n/a	n/a	n/a	434.225	BF28NES.jpg
408.653	0.514	Blank	Blank	57.519	n/a	4	11	8	n/a	88	n/a	1	n/a	n/a	n/a	n/a	434.723	n/a
409.183	0.497	neutral	Picture	57.005	n/a	4	11	9	n/a	89	6	1	n/a	n/a	n/a	n/a	435.253	AF09NES.jpg
409.681	0.514	Blank	Blank	56.491	n/a	4	11	9	n/a	89	n/a	1	n/a	n/a	n/a	n/a	435.75	n/a
410.211	0.497	neutral	Picture	55.977	n/a	4	11	10	n/a	90	12	1	n/a	n/a	n/a	n/a	436.281	AF21NES.jpg
410.709	0.514	Blank	Blank	55.463	n/a	4	11	10	n/a	90	n/a	1	n/a	n/a	n/a	n/a	436.778	n/a
411.239	0.497	neutral	Picture	54.949	n/a	4	11	11	n/a	91	24	1	n/a	n/a	n/a	n/a	437.309	BM05NES.jpg
411.736	0.514	Blank	Blank	54.436	n/a	4	11	11	n/a	91	n/a	1	n/a	n/a	n/a	n/a	437.806	n/a
412.267	0.497	neutral	Picture	53.921	n/a	4	11	12	n/a	92	34	1	n/a	n/a	n/a	n/a	438.337	AM22NES.jpg
412.764	0.514	Blank	Blank	53.408	n/a	4	11	12	n/a	92	n/a	1	n/a	n/a	n/a	n/a	438.834	n/a
413.295	0.497	neutral	Picture	52.894	n/a	4	11	13	n/a	93	23	1	n/a	n/a	n/a	n/a	439.365	AM04NES.jpg
413.792	0.514	Blank	Blank	52.38	n/a	4	11	13	n/a	93	n/a	1	n/a	n/a	n/a	n/a	439.862	n/a
414.323	0.497	neutral	Picture	51.866	n/a	4	11	14	n/a	94	15	1	n/a	n/a	n/a	n/a	440.392	AF25NES.jpg
414.82	0.514	Blank	Blank	51.352	n/a	4	11	14	n/a	94	n/a	1	n/a	n/a	n/a	n/a	440.89	n/a
415.351	0.497	neutral	Picture	50.838	n/a	4	11	15	n/a	95	37	1	n/a	n/a	n/a	n/a	441.42	BM25NES.jpg
415.848	0.514	Blank	Blank	50.324	n/a	4	11	15	n/a	95	n/a	1	n/a	n/a	n/a	n/a	441.918	n/a
416.379	0.497	neutral	Picture	49.81	n/a	4	11	16	n/a	96	32	1	n/a	n/a	n/a	n/a	442.448	AM14NES.jpg
416.876	0.514	Blank	Blank	49.296	n/a	4	11	16	n/a	96	n/a	1	n/a	n/a	n/a	n/a	442.946	n/a
417.406	0.497	neutral	Picture	48.782	n/a	4	11	17	n/a	97	3	1	n/a	n/a	n/a	n/a	443.476	BF04NES.jpg
417.904	0.514	Blank	Blank	48.268	n/a	4	11	17	n/a	97	n/a	1	n/a	n/a	n/a	n/a	443.974	n/a
418.434	0.497	neutral	Picture	47.754	n/a	4	11	18	n/a	98	16	1	n/a	n/a	n/a	n/a	444.504	AF26NES.jpg
418.932	0.514	Blank	Blank	47.24	n/a	4	11	18	n/a	98	n/a	1	n/a	n/a	n/a	n/a	445.001	n/a
419.462	0.497	neutral	Picture	46.726	n/a	4	11	19	n/a	99	27	1	n/a	n/a	n/a	n/a	445.532	BM08NES.jpg
419.959	0.514	Blank	Blank	46.212	n/a	4	11	19	n/a	99	n/a	1	n/a	n/a	n/a	n/a	446.029	n/a
420.49	0.497	neutral	Picture	45.699	n/a	4	11	20	n/a	100	28	1	n/a	n/a	n/a	n/a	446.56	AM09NES.jpg
420.987	0.514	Blank	Blank	45.185	n/a	4	11	20	n/a	100	n/a	1	n/a	n/a	n/a	n/a	447.057	n/a
421.518	10.014	ITI	Fixation+	35.154	n/a	4	n/a	n/a	n/a	n/a	n/a	n/a	n/a	n/a	n/a	n/a	447.588	n/a
431.548	0.497	angry	Picture	34.64	n/a	4	12	1	n/a	101	81	3	n/a	n/a	n/a	n/a	457.618	AF01ANS.jpg
432.045	0.514	Blank	Blank	34.127	n/a	4	12	1	n/a	101	n/a	3	n/a	n/a	n/a	n/a	458.115	n/a
432.576	0.497	angry	Picture	33.613	n/a	4	12	2	n/a	102	120	3	n/a	n/a	n/a	n/a	458.646	AM35ANS.jpg
433.073	0.514	Blank	Blank	33.099	n/a	4	12	2	n/a	102	n/a	3	n/a	n/a	n/a	n/a	459.143	n/a
433.604	0.497	angry	Picture	32.585	n/a	4	12	3	n/a	103	114	3	n/a	n/a	n/a	n/a	459.674	AM22ANS.jpg
434.101	0.514	Blank	Blank	32.071	n/a	4	12	3	n/a	103	n/a	3	n/a	n/a	n/a	n/a	460.171	n/a
434.632	0.497	angry	Picture	31.557	n/a	4	12	4	n/a	104	109	3	n/a	n/a	n/a	n/a	460.702	AM10ANS.jpg
435.129	0.514	Blank	Blank	31.043	n/a	4	12	4	n/a	104	n/a	3	n/a	n/a	n/a	n/a	461.199	n/a
435.66	0.497	angry	Picture	30.529	n/a	4	12	5	n/a	105	96	3	n/a	n/a	n/a	n/a	461.729	AF26ANS.jpg
436.157	0.514	Blank	Blank	30.015	n/a	4	12	5	n/a	105	n/a	3	n/a	n/a	n/a	n/a	462.227	n/a
436.687	0.497	angry	Picture	29.501	n/a	4	12	6	n/a	106	82	3	n/a	n/a	n/a	n/a	462.757	AF03ANS.jpg
437.185	0.514	Blank	Blank	28.987	n/a	4	12	6	n/a	106	n/a	3	n/a	n/a	n/a	n/a	463.255	n/a
437.715	0.497	angry	Picture	28.473	n/a	4	12	7	n/a	107	97	3	n/a	n/a	n/a	n/a	463.785	BF28ANS.jpg
438.213	0.514	Blank	Blank	27.959	n/a	4	12	7	n/a	107	n/a	3	n/a	n/a	n/a	n/a	464.283	n/a
438.743	0.497	angry	Picture	27.445	n/a	4	12	8	n/a	108	115	3	n/a	n/a	n/a	n/a	464.813	AM23ANS.jpg
439.24	0.514	Blank	Blank	26.931	n/a	4	12	8	n/a	108	n/a	3	n/a	n/a	n/a	n/a	465.31	n/a
439.771	0.497	angry	Picture	26.417	n/a	4	12	9	n/a	109	91	3	n/a	n/a	n/a	n/a	465.841	AF20ANS.jpg
440.268	0.514	Blank	Blank	25.903	n/a	4	12	9	n/a	109	n/a	3	n/a	n/a	n/a	n/a	466.338	n/a
440.799	0.497	angry	Picture	25.389	n/a	4	12	10	n/a	110	87	3	n/a	n/a	n/a	n/a	466.869	BF11ANS.jpg
441.296	0.514	Blank	Blank	24.875	n/a	4	12	10	n/a	110	n/a	3	n/a	n/a	n/a	n/a	467.366	n/a
441.827	0.497	angry	Picture	24.362	n/a	4	12	11	n/a	111	85	3	n/a	n/a	n/a	n/a	467.897	BF07ANS.jpg
442.324	0.514	Blank	Blank	23.848	n/a	4	12	11	n/a	111	n/a	3	n/a	n/a	n/a	n/a	468.394	n/a
442.855	0.497	angry	Picture	23.334	n/a	4	12	12	n/a	112	110	3	n/a	n/a	n/a	n/a	468.925	AM11ANS.jpg
443.352	0.514	Blank	Blank	22.82	n/a	4	12	12	n/a	112	n/a	3	n/a	n/a	n/a	n/a	469.422	n/a
443.883	0.497	angry	Picture	22.306	n/a	4	12	13	n/a	113	111	3	n/a	n/a	n/a	n/a	469.952	BM12ANS.jpg
444.38	0.514	Blank	Blank	21.792	n/a	4	12	13	n/a	113	n/a	3	n/a	n/a	n/a	n/a	470.45	n/a
444.911	0.497	angry	Picture	21.278	n/a	4	12	14	n/a	114	103	3	n/a	n/a	n/a	n/a	470.98	AM04ANS.jpg
445.408	0.514	Blank	Blank	20.764	n/a	4	12	14	n/a	114	n/a	3	n/a	n/a	n/a	n/a	471.478	n/a
445.938	0.497	angry	Picture	20.25	n/a	4	12	15	n/a	115	101	3	n/a	n/a	n/a	n/a	472.008	AM01ANS.jpg
446.436	0.514	Blank	Blank	19.736	n/a	4	12	15	n/a	115	n/a	3	n/a	n/a	n/a	n/a	472.505	n/a
446.966	0.497	angry	Picture	19.222	n/a	4	12	16	n/a	116	104	3	n/a	n/a	n/a	n/a	473.036	BM05ANS.jpg
447.464	0.514	Blank	Blank	18.708	n/a	4	12	16	n/a	116	n/a	3	n/a	n/a	n/a	n/a	473.533	n/a
447.994	0.497	angry	Picture	18.194	n/a	4	12	17	n/a	117	107	3	n/a	n/a	n/a	n/a	474.064	BM08ANS.jpg
448.492	0.514	Blank	Blank	17.68	n/a	4	12	17	n/a	117	n/a	3	n/a	n/a	n/a	n/a	474.561	n/a
449.022	0.497	angry	Picture	17.166	n/a	4	12	18	n/a	118	98	3	n/a	n/a	n/a	n/a	475.092	BF29ANS.jpg
449.519	0.514	Blank	Blank	16.653	n/a	4	12	18	n/a	118	n/a	3	n/a	n/a	n/a	n/a	475.589	n/a
450.05	0.497	angry	Picture	16.139	n/a	4	12	19	n/a	119	99	3	n/a	n/a	n/a	n/a	476.12	AF31ANS.jpg
450.547	0.514	Blank	Blank	15.625	n/a	4	12	19	n/a	119	n/a	3	n/a	n/a	n/a	n/a	476.617	n/a
451.078	0.497	angry	Picture	15.111	n/a	4	12	20	n/a	120	108	3	n/a	n/a	n/a	n/a	477.148	AM09ANS.jpg
451.575	0.514	Blank	Blank	14.597	n/a	4	12	20	n/a	120	n/a	3	n/a	n/a	n/a	n/a	477.645	n/a
452.106	10.014	ITI	Fixation+	4.567	n/a	4	n/a	n/a	n/a	n/a	n/a	n/a	n/a	n/a	n/a	n/a	478.175	n/a
466.686	n/a	ConfirmRating	Rate	n/a	4.559	4	n/a	n/a	0	n/a	n/a	n/a	2	Angry	15	47	492.756	n/a
470.255	n/a	ConfirmRating	Rate	n/a	3.548	4	n/a	n/a	1	n/a	n/a	n/a	3	Angry	62	51	496.325	n/a
