onset	duration	trial_type	event_type	time_until_response	response_time	trial_number	block_num_within_trial	image_seq_num_within_block	question_seq_num_within_block	image_seq_num	picture_number	condition	question_type	block_type	rating	rating_computed	onset_uncorrected	KDEV_imagefile
0.012	10.014	ITI	Fixation+	101.921	n/a	1	n/a	n/a	n/a	n/a	n/a	n/a	n/a	n/a	n/a	n/a	29.372	n/a
10.042	0.497	angry	Picture	101.407	n/a	1	1	1	n/a	1	46	2	n/a	n/a	n/a	n/a	39.402	AF09HAS.jpg
10.54	0.514	Blank	Blank	100.893	n/a	1	1	1	n/a	1	n/a	2	n/a	n/a	n/a	n/a	39.9	n/a
11.07	0.497	angry	Picture	100.379	n/a	1	1	2	n/a	2	69	2	n/a	n/a	n/a	n/a	40.43	AM10HAS.jpg
11.567	0.514	Blank	Blank	99.865	n/a	1	1	2	n/a	2	n/a	2	n/a	n/a	n/a	n/a	40.928	n/a
12.098	0.497	angry	Picture	99.351	n/a	1	1	3	n/a	3	71	2	n/a	n/a	n/a	n/a	41.458	BM12HAS.jpg
12.595	0.514	Blank	Blank	98.838	n/a	1	1	3	n/a	3	n/a	2	n/a	n/a	n/a	n/a	41.956	n/a
13.126	0.497	angry	Picture	98.324	n/a	1	1	4	n/a	4	51	2	n/a	n/a	n/a	n/a	42.486	AF20HAS.jpg
13.623	0.514	Blank	Blank	97.81	n/a	1	1	4	n/a	4	n/a	2	n/a	n/a	n/a	n/a	42.983	n/a
14.154	0.497	angry	Picture	97.296	n/a	1	1	5	n/a	5	67	2	n/a	n/a	n/a	n/a	43.514	BM08HAS.jpg
14.651	0.514	Blank	Blank	96.782	n/a	1	1	5	n/a	5	n/a	2	n/a	n/a	n/a	n/a	44.011	n/a
15.182	0.497	angry	Picture	96.268	n/a	1	1	6	n/a	6	60	2	n/a	n/a	n/a	n/a	44.542	AF32HAS.jpg
15.679	0.514	Blank	Blank	95.754	n/a	1	1	6	n/a	6	n/a	2	n/a	n/a	n/a	n/a	45.039	n/a
16.21	0.497	angry	Picture	95.24	n/a	1	1	7	n/a	7	42	2	n/a	n/a	n/a	n/a	45.57	AF03HAS.jpg
16.707	0.514	Blank	Blank	94.726	n/a	1	1	7	n/a	7	n/a	2	n/a	n/a	n/a	n/a	46.067	n/a
17.237	0.497	angry	Picture	94.212	n/a	1	1	8	n/a	8	55	2	n/a	n/a	n/a	n/a	46.597	AF25HAS.jpg
17.735	0.514	Blank	Blank	93.698	n/a	1	1	8	n/a	8	n/a	2	n/a	n/a	n/a	n/a	47.095	n/a
18.265	0.497	angry	Picture	93.184	n/a	1	1	9	n/a	9	72	2	n/a	n/a	n/a	n/a	47.625	AM14HAS.jpg
18.763	0.514	Blank	Blank	92.67	n/a	1	1	9	n/a	9	n/a	2	n/a	n/a	n/a	n/a	48.123	n/a
19.293	0.497	angry	Picture	92.156	n/a	1	1	10	n/a	10	63	2	n/a	n/a	n/a	n/a	48.653	AM04HAS.jpg
19.79	0.514	Blank	Blank	91.642	n/a	1	1	10	n/a	10	n/a	2	n/a	n/a	n/a	n/a	49.151	n/a
20.321	0.497	angry	Picture	91.128	n/a	1	1	11	n/a	11	58	2	n/a	n/a	n/a	n/a	49.681	BF29HAS.jpg
20.818	0.514	Blank	Blank	90.614	n/a	1	1	11	n/a	11	n/a	2	n/a	n/a	n/a	n/a	50.178	n/a
21.349	0.497	angry	Picture	90.101	n/a	1	1	12	n/a	12	48	2	n/a	n/a	n/a	n/a	50.709	AF14HAS.jpg
21.846	0.514	Blank	Blank	89.587	n/a	1	1	12	n/a	12	n/a	2	n/a	n/a	n/a	n/a	51.206	n/a
22.377	0.497	angry	Picture	89.073	n/a	1	1	13	n/a	13	66	2	n/a	n/a	n/a	n/a	51.737	BM07HAS.jpg
22.874	0.514	Blank	Blank	88.559	n/a	1	1	13	n/a	13	n/a	2	n/a	n/a	n/a	n/a	52.234	n/a
23.405	0.497	angry	Picture	88.045	n/a	1	1	14	n/a	14	70	2	n/a	n/a	n/a	n/a	52.765	BM11HAS.jpg
23.902	0.514	Blank	Blank	87.531	n/a	1	1	14	n/a	14	n/a	2	n/a	n/a	n/a	n/a	53.262	n/a
24.433	0.497	angry	Picture	87.017	n/a	1	1	15	n/a	15	43	2	n/a	n/a	n/a	n/a	53.793	BF04HAS.jpg
24.93	0.514	Blank	Blank	86.503	n/a	1	1	15	n/a	15	n/a	2	n/a	n/a	n/a	n/a	54.29	n/a
25.46	0.497	angry	Picture	85.989	n/a	1	1	16	n/a	16	49	2	n/a	n/a	n/a	n/a	54.821	AF17HAS.jpg
25.958	0.514	Blank	Blank	85.475	n/a	1	1	16	n/a	16	n/a	2	n/a	n/a	n/a	n/a	55.318	n/a
26.488	0.497	angry	Picture	84.961	n/a	1	1	17	n/a	17	75	2	n/a	n/a	n/a	n/a	55.849	AM23HAS.jpg
26.986	0.514	Blank	Blank	84.447	n/a	1	1	17	n/a	17	n/a	2	n/a	n/a	n/a	n/a	56.346	n/a
27.516	0.497	angry	Picture	83.933	n/a	1	1	18	n/a	18	80	2	n/a	n/a	n/a	n/a	56.876	BM35HAS.jpg
28.014	0.514	Blank	Blank	83.419	n/a	1	1	18	n/a	18	n/a	2	n/a	n/a	n/a	n/a	57.374	n/a
28.544	0.497	angry	Picture	82.905	n/a	1	1	19	n/a	19	76	2	n/a	n/a	n/a	n/a	57.904	BM24HAS.jpg
29.042	0.514	Blank	Blank	82.391	n/a	1	1	19	n/a	19	n/a	2	n/a	n/a	n/a	n/a	58.402	n/a
29.572	0.497	angry	Picture	81.877	n/a	1	1	20	n/a	20	74	2	n/a	n/a	n/a	n/a	58.932	AM22HAS.jpg
30.069	0.514	Blank	Blank	81.364	n/a	1	1	20	n/a	20	n/a	2	n/a	n/a	n/a	n/a	59.429	n/a
30.6	10.014	ITI	Fixation+	71.333	n/a	1	n/a	n/a	n/a	n/a	n/a	n/a	n/a	n/a	n/a	n/a	59.96	n/a
40.63	0.497	neutral	Picture	70.819	n/a	1	2	1	n/a	21	33	1	n/a	n/a	n/a	n/a	69.99	AM21NES.jpg
41.127	0.514	Blank	Blank	70.306	n/a	1	2	1	n/a	21	n/a	1	n/a	n/a	n/a	n/a	70.487	n/a
41.658	0.497	neutral	Picture	69.792	n/a	1	2	2	n/a	22	39	1	n/a	n/a	n/a	n/a	71.018	AM28NES.jpg
42.155	0.514	Blank	Blank	69.278	n/a	1	2	2	n/a	22	n/a	1	n/a	n/a	n/a	n/a	71.515	n/a
42.686	0.497	neutral	Picture	68.764	n/a	1	2	3	n/a	23	25	1	n/a	n/a	n/a	n/a	72.046	BM06NES.jpg
43.183	0.514	Blank	Blank	68.25	n/a	1	2	3	n/a	23	n/a	1	n/a	n/a	n/a	n/a	72.543	n/a
43.714	0.497	neutral	Picture	67.736	n/a	1	2	4	n/a	24	5	1	n/a	n/a	n/a	n/a	73.074	BF07NES.jpg
44.211	0.514	Blank	Blank	67.222	n/a	1	2	4	n/a	24	n/a	1	n/a	n/a	n/a	n/a	73.571	n/a
44.742	0.497	neutral	Picture	66.708	n/a	1	2	5	n/a	25	10	1	n/a	n/a	n/a	n/a	74.102	AF18NES.jpg
45.239	0.514	Blank	Blank	66.194	n/a	1	2	5	n/a	25	n/a	1	n/a	n/a	n/a	n/a	74.599	n/a
45.769	0.497	neutral	Picture	65.68	n/a	1	2	6	n/a	26	34	1	n/a	n/a	n/a	n/a	75.129	AM22NES.jpg
46.267	0.514	Blank	Blank	65.166	n/a	1	2	6	n/a	26	n/a	1	n/a	n/a	n/a	n/a	75.627	n/a
46.797	0.497	neutral	Picture	64.652	n/a	1	2	7	n/a	27	36	1	n/a	n/a	n/a	n/a	76.157	BM24NES.jpg
47.295	0.514	Blank	Blank	64.138	n/a	1	2	7	n/a	27	n/a	1	n/a	n/a	n/a	n/a	76.655	n/a
47.825	0.497	neutral	Picture	63.624	n/a	1	2	8	n/a	28	14	1	n/a	n/a	n/a	n/a	77.185	AF23NES.jpg
48.323	0.514	Blank	Blank	63.11	n/a	1	2	8	n/a	28	n/a	1	n/a	n/a	n/a	n/a	77.683	n/a
48.853	0.497	neutral	Picture	62.596	n/a	1	2	9	n/a	29	9	1	n/a	n/a	n/a	n/a	78.213	AF17NES.jpg
49.35	0.514	Blank	Blank	62.082	n/a	1	2	9	n/a	29	n/a	1	n/a	n/a	n/a	n/a	78.71	n/a
49.881	0.497	neutral	Picture	61.569	n/a	1	2	10	n/a	30	19	1	n/a	n/a	n/a	n/a	79.241	AF31NES.jpg
50.378	0.514	Blank	Blank	61.055	n/a	1	2	10	n/a	30	n/a	1	n/a	n/a	n/a	n/a	79.738	n/a
50.909	0.497	neutral	Picture	60.541	n/a	1	2	11	n/a	31	15	1	n/a	n/a	n/a	n/a	80.269	AF25NES.jpg
51.406	0.514	Blank	Blank	60.027	n/a	1	2	11	n/a	31	n/a	1	n/a	n/a	n/a	n/a	80.766	n/a
51.937	0.497	neutral	Picture	59.513	n/a	1	2	12	n/a	32	22	1	n/a	n/a	n/a	n/a	81.297	BM03NES.jpg
52.434	0.514	Blank	Blank	58.999	n/a	1	2	12	n/a	32	n/a	1	n/a	n/a	n/a	n/a	81.794	n/a
52.965	0.497	neutral	Picture	58.485	n/a	1	2	13	n/a	33	11	1	n/a	n/a	n/a	n/a	82.325	AF20NES.jpg
53.462	0.514	Blank	Blank	57.971	n/a	1	2	13	n/a	33	n/a	1	n/a	n/a	n/a	n/a	82.822	n/a
53.992	0.497	neutral	Picture	57.457	n/a	1	2	14	n/a	34	4	1	n/a	n/a	n/a	n/a	83.353	AF05NES.jpg
54.49	0.514	Blank	Blank	56.943	n/a	1	2	14	n/a	34	n/a	1	n/a	n/a	n/a	n/a	83.85	n/a
55.02	0.497	neutral	Picture	56.429	n/a	1	2	15	n/a	35	17	1	n/a	n/a	n/a	n/a	84.38	BF28NES.jpg
55.518	0.514	Blank	Blank	55.915	n/a	1	2	15	n/a	35	n/a	1	n/a	n/a	n/a	n/a	84.878	n/a
56.048	0.497	neutral	Picture	55.401	n/a	1	2	16	n/a	36	13	1	n/a	n/a	n/a	n/a	85.408	BF22NES.jpg
56.546	0.514	Blank	Blank	54.887	n/a	1	2	16	n/a	36	n/a	1	n/a	n/a	n/a	n/a	85.906	n/a
57.076	0.497	neutral	Picture	54.373	n/a	1	2	17	n/a	37	12	1	n/a	n/a	n/a	n/a	86.436	AF21NES.jpg
57.573	0.514	Blank	Blank	53.859	n/a	1	2	17	n/a	37	n/a	1	n/a	n/a	n/a	n/a	86.934	n/a
58.104	0.497	neutral	Picture	53.345	n/a	1	2	18	n/a	38	24	1	n/a	n/a	n/a	n/a	87.464	BM05NES.jpg
58.601	0.514	Blank	Blank	52.832	n/a	1	2	18	n/a	38	n/a	1	n/a	n/a	n/a	n/a	87.962	n/a
59.132	0.497	neutral	Picture	52.318	n/a	1	2	19	n/a	39	29	1	n/a	n/a	n/a	n/a	88.492	AM10NES.jpg
59.629	0.514	Blank	Blank	51.804	n/a	1	2	19	n/a	39	n/a	1	n/a	n/a	n/a	n/a	88.989	n/a
60.16	0.497	neutral	Picture	51.29	n/a	1	2	20	n/a	40	23	1	n/a	n/a	n/a	n/a	89.52	AM04NES.jpg
60.657	0.514	Blank	Blank	50.776	n/a	1	2	20	n/a	40	n/a	1	n/a	n/a	n/a	n/a	90.017	n/a
61.188	10.014	ITI	Fixation+	40.746	n/a	1	n/a	n/a	n/a	n/a	n/a	n/a	n/a	n/a	n/a	n/a	90.548	n/a
71.218	0.497	angry	Picture	40.232	n/a	1	3	1	n/a	41	62	2	n/a	n/a	n/a	n/a	100.578	BM03HAS.jpg
71.715	0.514	Blank	Blank	39.718	n/a	1	3	1	n/a	41	n/a	2	n/a	n/a	n/a	n/a	101.075	n/a
72.246	0.497	angry	Picture	39.204	n/a	1	3	2	n/a	42	52	2	n/a	n/a	n/a	n/a	101.606	AF21HAS.jpg
72.743	0.514	Blank	Blank	38.69	n/a	1	3	2	n/a	42	n/a	2	n/a	n/a	n/a	n/a	102.103	n/a
73.274	0.497	angry	Picture	38.176	n/a	1	3	3	n/a	43	44	2	n/a	n/a	n/a	n/a	102.634	AF05HAS.jpg
73.771	0.514	Blank	Blank	37.662	n/a	1	3	3	n/a	43	n/a	2	n/a	n/a	n/a	n/a	103.131	n/a
74.302	0.497	angry	Picture	37.148	n/a	1	3	4	n/a	44	53	2	n/a	n/a	n/a	n/a	103.662	BF22HAS.jpg
74.799	0.514	Blank	Blank	36.634	n/a	1	3	4	n/a	44	n/a	2	n/a	n/a	n/a	n/a	104.159	n/a
75.329	0.497	angry	Picture	36.12	n/a	1	3	5	n/a	45	54	2	n/a	n/a	n/a	n/a	104.689	AF23HAS.jpg
75.827	0.514	Blank	Blank	35.606	n/a	1	3	5	n/a	45	n/a	2	n/a	n/a	n/a	n/a	105.187	n/a
76.357	0.497	angry	Picture	35.092	n/a	1	3	6	n/a	46	68	2	n/a	n/a	n/a	n/a	105.717	AM09HAS.jpg
76.855	0.514	Blank	Blank	34.578	n/a	1	3	6	n/a	46	n/a	2	n/a	n/a	n/a	n/a	106.215	n/a
77.385	0.497	angry	Picture	34.064	n/a	1	3	7	n/a	47	64	2	n/a	n/a	n/a	n/a	106.745	BM05HAS.jpg
77.882	0.514	Blank	Blank	33.55	n/a	1	3	7	n/a	47	n/a	2	n/a	n/a	n/a	n/a	107.243	n/a
78.413	0.497	angry	Picture	33.036	n/a	1	3	8	n/a	48	59	2	n/a	n/a	n/a	n/a	107.773	AF31HAS.jpg
78.91	0.514	Blank	Blank	32.523	n/a	1	3	8	n/a	48	n/a	2	n/a	n/a	n/a	n/a	108.27	n/a
79.441	0.497	angry	Picture	32.009	n/a	1	3	9	n/a	49	41	2	n/a	n/a	n/a	n/a	108.801	AF01HAS.jpg
79.938	0.514	Blank	Blank	31.495	n/a	1	3	9	n/a	49	n/a	2	n/a	n/a	n/a	n/a	109.298	n/a
80.469	0.497	angry	Picture	30.981	n/a	1	3	10	n/a	50	73	2	n/a	n/a	n/a	n/a	109.829	AM21HAS.jpg
80.966	0.514	Blank	Blank	30.467	n/a	1	3	10	n/a	50	n/a	2	n/a	n/a	n/a	n/a	110.326	n/a
81.497	0.497	angry	Picture	29.953	n/a	1	3	11	n/a	51	65	2	n/a	n/a	n/a	n/a	110.857	BM06HAS.jpg
81.994	0.514	Blank	Blank	29.439	n/a	1	3	11	n/a	51	n/a	2	n/a	n/a	n/a	n/a	111.354	n/a
82.525	0.497	angry	Picture	28.925	n/a	1	3	12	n/a	52	56	2	n/a	n/a	n/a	n/a	111.885	AF26HAS.jpg
83.022	0.514	Blank	Blank	28.411	n/a	1	3	12	n/a	52	n/a	2	n/a	n/a	n/a	n/a	112.382	n/a
83.552	0.497	angry	Picture	27.897	n/a	1	3	13	n/a	53	45	2	n/a	n/a	n/a	n/a	112.912	BF07HAS.jpg
84.05	0.514	Blank	Blank	27.383	n/a	1	3	13	n/a	53	n/a	2	n/a	n/a	n/a	n/a	113.41	n/a
84.58	0.497	angry	Picture	26.869	n/a	1	3	14	n/a	54	78	2	n/a	n/a	n/a	n/a	113.94	BM26HAS.jpg
85.078	0.514	Blank	Blank	26.355	n/a	1	3	14	n/a	54	n/a	2	n/a	n/a	n/a	n/a	114.438	n/a
85.608	0.497	angry	Picture	25.841	n/a	1	3	15	n/a	55	50	2	n/a	n/a	n/a	n/a	114.968	AF18HAS.jpg
86.105	0.514	Blank	Blank	25.327	n/a	1	3	15	n/a	55	n/a	2	n/a	n/a	n/a	n/a	115.466	n/a
86.636	0.497	angry	Picture	24.813	n/a	1	3	16	n/a	56	47	2	n/a	n/a	n/a	n/a	115.996	BF11HAS.jpg
87.133	0.514	Blank	Blank	24.299	n/a	1	3	16	n/a	56	n/a	2	n/a	n/a	n/a	n/a	116.493	n/a
87.664	0.497	angry	Picture	23.786	n/a	1	3	17	n/a	57	77	2	n/a	n/a	n/a	n/a	117.024	BM25HAS.jpg
88.161	0.514	Blank	Blank	23.272	n/a	1	3	17	n/a	57	n/a	2	n/a	n/a	n/a	n/a	117.521	n/a
88.692	0.497	angry	Picture	22.758	n/a	1	3	18	n/a	58	57	2	n/a	n/a	n/a	n/a	118.052	BF28HAS.jpg
89.189	0.514	Blank	Blank	22.244	n/a	1	3	18	n/a	58	n/a	2	n/a	n/a	n/a	n/a	118.549	n/a
89.72	0.497	angry	Picture	21.73	n/a	1	3	19	n/a	59	61	2	n/a	n/a	n/a	n/a	119.08	AM01HAS.jpg
90.217	0.514	Blank	Blank	21.216	n/a	1	3	19	n/a	59	n/a	2	n/a	n/a	n/a	n/a	119.577	n/a
90.748	0.497	angry	Picture	20.702	n/a	1	3	20	n/a	60	79	2	n/a	n/a	n/a	n/a	120.108	BM28HAS.jpg
91.245	0.514	Blank	Blank	20.188	n/a	1	3	20	n/a	60	n/a	2	n/a	n/a	n/a	n/a	120.605	n/a
91.775	10.014	ITI	Fixation+	10.158	n/a	1	n/a	n/a	n/a	n/a	n/a	n/a	n/a	n/a	n/a	n/a	121.136	n/a
111.947	n/a	ConfirmRating	Rate	n/a	10.146	1	n/a	n/a	0	n/a	n/a	n/a	2	Angry	40	49	141.307	n/a
119.203	n/a	ConfirmRating	Rate	n/a	7.245	1	n/a	n/a	1	n/a	n/a	n/a	3	Angry	18	48	148.563	n/a
119.23	10.014	ITI	Fixation+	96.153	n/a	2	n/a	n/a	n/a	n/a	n/a	n/a	n/a	n/a	n/a	n/a	148.59	n/a
129.26	0.497	happy	Picture	95.639	n/a	2	4	1	n/a	61	119	3	n/a	n/a	n/a	n/a	158.62	BM28ANS.jpg
129.757	0.514	Blank	Blank	95.125	n/a	2	4	1	n/a	61	n/a	3	n/a	n/a	n/a	n/a	159.118	n/a
130.288	0.497	happy	Picture	94.611	n/a	2	4	2	n/a	62	100	3	n/a	n/a	n/a	n/a	159.648	AF32ANS.jpg
130.785	0.514	Blank	Blank	94.097	n/a	2	4	2	n/a	62	n/a	3	n/a	n/a	n/a	n/a	160.145	n/a
131.316	0.497	happy	Picture	93.584	n/a	2	4	3	n/a	63	118	3	n/a	n/a	n/a	n/a	160.676	BM26ANS.jpg
131.813	0.514	Blank	Blank	93.07	n/a	2	4	3	n/a	63	n/a	3	n/a	n/a	n/a	n/a	161.173	n/a
132.344	0.497	happy	Picture	92.556	n/a	2	4	4	n/a	64	89	3	n/a	n/a	n/a	n/a	161.704	AF17ANS.jpg
132.841	0.514	Blank	Blank	92.042	n/a	2	4	4	n/a	64	n/a	3	n/a	n/a	n/a	n/a	162.201	n/a
133.371	0.497	happy	Picture	91.528	n/a	2	4	5	n/a	65	116	3	n/a	n/a	n/a	n/a	162.732	BM24ANS.jpg
133.869	0.514	Blank	Blank	91.014	n/a	2	4	5	n/a	65	n/a	3	n/a	n/a	n/a	n/a	163.229	n/a
134.399	0.497	happy	Picture	90.5	n/a	2	4	6	n/a	66	105	3	n/a	n/a	n/a	n/a	163.76	BM06ANS.jpg
134.897	0.514	Blank	Blank	89.986	n/a	2	4	6	n/a	66	n/a	3	n/a	n/a	n/a	n/a	164.257	n/a
135.427	0.497	happy	Picture	89.472	n/a	2	4	7	n/a	67	106	3	n/a	n/a	n/a	n/a	164.787	AM07ANS.jpg
135.925	0.514	Blank	Blank	88.958	n/a	2	4	7	n/a	67	n/a	3	n/a	n/a	n/a	n/a	165.285	n/a
136.455	0.497	happy	Picture	88.444	n/a	2	4	8	n/a	68	94	3	n/a	n/a	n/a	n/a	165.815	AF23ANS.jpg
136.953	0.514	Blank	Blank	87.93	n/a	2	4	8	n/a	68	n/a	3	n/a	n/a	n/a	n/a	166.313	n/a
137.483	0.497	happy	Picture	87.416	n/a	2	4	9	n/a	69	117	3	n/a	n/a	n/a	n/a	166.843	BM25ANS.jpg
137.98	0.514	Blank	Blank	86.902	n/a	2	4	9	n/a	69	n/a	3	n/a	n/a	n/a	n/a	167.34	n/a
138.511	0.497	happy	Picture	86.388	n/a	2	4	10	n/a	70	90	3	n/a	n/a	n/a	n/a	167.871	AF18ANS.jpg
139.008	0.514	Blank	Blank	85.874	n/a	2	4	10	n/a	70	n/a	3	n/a	n/a	n/a	n/a	168.368	n/a
139.539	0.497	happy	Picture	85.361	n/a	2	4	11	n/a	71	83	3	n/a	n/a	n/a	n/a	168.899	BF04ANS.jpg
140.036	0.514	Blank	Blank	84.847	n/a	2	4	11	n/a	71	n/a	3	n/a	n/a	n/a	n/a	169.396	n/a
140.567	0.497	happy	Picture	84.333	n/a	2	4	12	n/a	72	112	3	n/a	n/a	n/a	n/a	169.927	AM14ANS.jpg
141.064	0.514	Blank	Blank	83.819	n/a	2	4	12	n/a	72	n/a	3	n/a	n/a	n/a	n/a	170.424	n/a
141.595	0.497	happy	Picture	83.305	n/a	2	4	13	n/a	73	102	3	n/a	n/a	n/a	n/a	170.955	BM03ANS.jpg
142.092	0.514	Blank	Blank	82.791	n/a	2	4	13	n/a	73	n/a	3	n/a	n/a	n/a	n/a	171.452	n/a
142.623	0.497	happy	Picture	82.277	n/a	2	4	14	n/a	74	95	3	n/a	n/a	n/a	n/a	171.983	AF25ANS.jpg
143.12	0.514	Blank	Blank	81.763	n/a	2	4	14	n/a	74	n/a	3	n/a	n/a	n/a	n/a	172.48	n/a
143.65	0.497	happy	Picture	81.249	n/a	2	4	15	n/a	75	113	3	n/a	n/a	n/a	n/a	173.011	AM21ANS.jpg
144.148	0.514	Blank	Blank	80.735	n/a	2	4	15	n/a	75	n/a	3	n/a	n/a	n/a	n/a	173.508	n/a
144.678	0.497	happy	Picture	80.221	n/a	2	4	16	n/a	76	88	3	n/a	n/a	n/a	n/a	174.038	AF14ANS.jpg
145.176	0.514	Blank	Blank	79.707	n/a	2	4	16	n/a	76	n/a	3	n/a	n/a	n/a	n/a	174.536	n/a
145.706	0.497	happy	Picture	79.193	n/a	2	4	17	n/a	77	93	3	n/a	n/a	n/a	n/a	175.066	BF22ANS.jpg
146.204	0.514	Blank	Blank	78.679	n/a	2	4	17	n/a	77	n/a	3	n/a	n/a	n/a	n/a	175.564	n/a
146.734	0.497	happy	Picture	78.165	n/a	2	4	18	n/a	78	86	3	n/a	n/a	n/a	n/a	176.094	AF09ANS.jpg
147.231	0.514	Blank	Blank	77.651	n/a	2	4	18	n/a	78	n/a	3	n/a	n/a	n/a	n/a	176.591	n/a
147.762	0.497	happy	Picture	77.137	n/a	2	4	19	n/a	79	92	3	n/a	n/a	n/a	n/a	177.122	AF21ANS.jpg
148.259	0.514	Blank	Blank	76.623	n/a	2	4	19	n/a	79	n/a	3	n/a	n/a	n/a	n/a	177.619	n/a
148.79	0.497	happy	Picture	76.11	n/a	2	4	20	n/a	80	84	3	n/a	n/a	n/a	n/a	178.15	AF05ANS.jpg
149.287	0.514	Blank	Blank	75.596	n/a	2	4	20	n/a	80	n/a	3	n/a	n/a	n/a	n/a	178.647	n/a
149.818	10.014	ITI	Fixation+	65.566	n/a	2	n/a	n/a	n/a	n/a	n/a	n/a	n/a	n/a	n/a	n/a	179.178	n/a
159.848	0.497	neutral	Picture	65.052	n/a	2	5	1	n/a	81	4	1	n/a	n/a	n/a	n/a	189.208	AF05NES.jpg
160.345	0.514	Blank	Blank	64.538	n/a	2	5	1	n/a	81	n/a	1	n/a	n/a	n/a	n/a	189.705	n/a
160.876	0.497	neutral	Picture	64.024	n/a	2	5	2	n/a	82	14	1	n/a	n/a	n/a	n/a	190.236	AF23NES.jpg
161.373	0.514	Blank	Blank	63.51	n/a	2	5	2	n/a	82	n/a	1	n/a	n/a	n/a	n/a	190.733	n/a
161.904	0.497	neutral	Picture	62.996	n/a	2	5	3	n/a	83	19	1	n/a	n/a	n/a	n/a	191.264	AF31NES.jpg
162.401	0.514	Blank	Blank	62.482	n/a	2	5	3	n/a	83	n/a	1	n/a	n/a	n/a	n/a	191.761	n/a
162.931	0.497	neutral	Picture	61.968	n/a	2	5	4	n/a	84	8	1	n/a	n/a	n/a	n/a	192.292	AF14NES.jpg
163.429	0.514	Blank	Blank	61.454	n/a	2	5	4	n/a	84	n/a	1	n/a	n/a	n/a	n/a	192.789	n/a
163.959	0.497	neutral	Picture	60.94	n/a	2	5	5	n/a	85	25	1	n/a	n/a	n/a	n/a	193.319	BM06NES.jpg
164.457	0.514	Blank	Blank	60.426	n/a	2	5	5	n/a	85	n/a	1	n/a	n/a	n/a	n/a	193.817	n/a
164.987	0.497	neutral	Picture	59.912	n/a	2	5	6	n/a	86	9	1	n/a	n/a	n/a	n/a	194.347	AF17NES.jpg
165.485	0.514	Blank	Blank	59.398	n/a	2	5	6	n/a	86	n/a	1	n/a	n/a	n/a	n/a	194.845	n/a
166.015	0.497	neutral	Picture	58.884	n/a	2	5	7	n/a	87	2	1	n/a	n/a	n/a	n/a	195.375	AF03NES.jpg
166.512	0.514	Blank	Blank	58.37	n/a	2	5	7	n/a	87	n/a	1	n/a	n/a	n/a	n/a	195.873	n/a
167.043	0.497	neutral	Picture	57.856	n/a	2	5	8	n/a	88	17	1	n/a	n/a	n/a	n/a	196.403	BF28NES.jpg
167.54	0.514	Blank	Blank	57.342	n/a	2	5	8	n/a	88	n/a	1	n/a	n/a	n/a	n/a	196.9	n/a
168.071	0.497	neutral	Picture	56.828	n/a	2	5	9	n/a	89	6	1	n/a	n/a	n/a	n/a	197.431	AF09NES.jpg
168.568	0.514	Blank	Blank	56.314	n/a	2	5	9	n/a	89	n/a	1	n/a	n/a	n/a	n/a	197.928	n/a
169.099	0.497	neutral	Picture	55.801	n/a	2	5	10	n/a	90	12	1	n/a	n/a	n/a	n/a	198.459	AF21NES.jpg
169.596	0.514	Blank	Blank	55.287	n/a	2	5	10	n/a	90	n/a	1	n/a	n/a	n/a	n/a	198.956	n/a
170.127	0.497	neutral	Picture	54.773	n/a	2	5	11	n/a	91	24	1	n/a	n/a	n/a	n/a	199.487	BM05NES.jpg
170.624	0.514	Blank	Blank	54.259	n/a	2	5	11	n/a	91	n/a	1	n/a	n/a	n/a	n/a	199.984	n/a
171.155	0.497	neutral	Picture	53.745	n/a	2	5	12	n/a	92	34	1	n/a	n/a	n/a	n/a	200.515	AM22NES.jpg
171.652	0.514	Blank	Blank	53.231	n/a	2	5	12	n/a	92	n/a	1	n/a	n/a	n/a	n/a	201.012	n/a
172.182	0.497	neutral	Picture	52.717	n/a	2	5	13	n/a	93	23	1	n/a	n/a	n/a	n/a	201.542	AM04NES.jpg
172.68	0.514	Blank	Blank	52.203	n/a	2	5	13	n/a	93	n/a	1	n/a	n/a	n/a	n/a	202.04	n/a
173.21	0.497	neutral	Picture	51.689	n/a	2	5	14	n/a	94	15	1	n/a	n/a	n/a	n/a	202.57	AF25NES.jpg
173.708	0.514	Blank	Blank	51.175	n/a	2	5	14	n/a	94	n/a	1	n/a	n/a	n/a	n/a	203.068	n/a
174.238	0.497	neutral	Picture	50.661	n/a	2	5	15	n/a	95	37	1	n/a	n/a	n/a	n/a	203.598	BM25NES.jpg
174.736	0.514	Blank	Blank	50.147	n/a	2	5	15	n/a	95	n/a	1	n/a	n/a	n/a	n/a	204.096	n/a
175.266	0.497	neutral	Picture	49.633	n/a	2	5	16	n/a	96	32	1	n/a	n/a	n/a	n/a	204.626	AM14NES.jpg
175.763	0.514	Blank	Blank	49.119	n/a	2	5	16	n/a	96	n/a	1	n/a	n/a	n/a	n/a	205.124	n/a
176.294	0.497	neutral	Picture	48.605	n/a	2	5	17	n/a	97	3	1	n/a	n/a	n/a	n/a	205.654	BF04NES.jpg
176.791	0.514	Blank	Blank	48.091	n/a	2	5	17	n/a	97	n/a	1	n/a	n/a	n/a	n/a	206.151	n/a
177.322	0.497	neutral	Picture	47.577	n/a	2	5	18	n/a	98	16	1	n/a	n/a	n/a	n/a	206.682	AF26NES.jpg
177.819	0.514	Blank	Blank	47.064	n/a	2	5	18	n/a	98	n/a	1	n/a	n/a	n/a	n/a	207.179	n/a
178.35	0.497	neutral	Picture	46.55	n/a	2	5	19	n/a	99	27	1	n/a	n/a	n/a	n/a	207.71	BM08NES.jpg
178.847	0.514	Blank	Blank	46.036	n/a	2	5	19	n/a	99	n/a	1	n/a	n/a	n/a	n/a	208.207	n/a
179.378	0.497	neutral	Picture	45.522	n/a	2	5	20	n/a	100	28	1	n/a	n/a	n/a	n/a	208.738	AM09NES.jpg
179.875	0.514	Blank	Blank	45.008	n/a	2	5	20	n/a	100	n/a	1	n/a	n/a	n/a	n/a	209.235	n/a
180.405	10.014	ITI	Fixation+	34.978	n/a	2	n/a	n/a	n/a	n/a	n/a	n/a	n/a	n/a	n/a	n/a	209.766	n/a
190.436	0.497	happy	Picture	34.464	n/a	2	6	1	n/a	101	81	3	n/a	n/a	n/a	n/a	219.796	AF01ANS.jpg
190.933	0.514	Blank	Blank	33.95	n/a	2	6	1	n/a	101	n/a	3	n/a	n/a	n/a	n/a	220.293	n/a
191.464	0.497	happy	Picture	33.436	n/a	2	6	2	n/a	102	120	3	n/a	n/a	n/a	n/a	220.824	AM35ANS.jpg
191.961	0.514	Blank	Blank	32.922	n/a	2	6	2	n/a	102	n/a	3	n/a	n/a	n/a	n/a	221.321	n/a
192.491	0.497	happy	Picture	32.408	n/a	2	6	3	n/a	103	114	3	n/a	n/a	n/a	n/a	221.851	AM22ANS.jpg
192.989	0.514	Blank	Blank	31.894	n/a	2	6	3	n/a	103	n/a	3	n/a	n/a	n/a	n/a	222.349	n/a
193.519	0.497	happy	Picture	31.38	n/a	2	6	4	n/a	104	109	3	n/a	n/a	n/a	n/a	222.879	AM10ANS.jpg
194.017	0.514	Blank	Blank	30.866	n/a	2	6	4	n/a	104	n/a	3	n/a	n/a	n/a	n/a	223.377	n/a
194.547	0.497	happy	Picture	30.352	n/a	2	6	5	n/a	105	96	3	n/a	n/a	n/a	n/a	223.907	AF26ANS.jpg
195.044	0.514	Blank	Blank	29.838	n/a	2	6	5	n/a	105	n/a	3	n/a	n/a	n/a	n/a	224.405	n/a
195.575	0.497	happy	Picture	29.324	n/a	2	6	6	n/a	106	82	3	n/a	n/a	n/a	n/a	224.935	AF03ANS.jpg
196.072	0.514	Blank	Blank	28.81	n/a	2	6	6	n/a	106	n/a	3	n/a	n/a	n/a	n/a	225.433	n/a
196.603	0.497	happy	Picture	28.297	n/a	2	6	7	n/a	107	97	3	n/a	n/a	n/a	n/a	225.963	BF28ANS.jpg
197.1	0.514	Blank	Blank	27.782	n/a	2	6	7	n/a	107	n/a	3	n/a	n/a	n/a	n/a	226.46	n/a
197.631	0.497	happy	Picture	27.269	n/a	2	6	8	n/a	108	115	3	n/a	n/a	n/a	n/a	226.991	AM23ANS.jpg
198.128	0.514	Blank	Blank	26.755	n/a	2	6	8	n/a	108	n/a	3	n/a	n/a	n/a	n/a	227.488	n/a
198.659	0.497	happy	Picture	26.241	n/a	2	6	9	n/a	109	91	3	n/a	n/a	n/a	n/a	228.019	AF20ANS.jpg
199.156	0.514	Blank	Blank	25.727	n/a	2	6	9	n/a	109	n/a	3	n/a	n/a	n/a	n/a	228.516	n/a
199.687	0.497	happy	Picture	25.213	n/a	2	6	10	n/a	110	87	3	n/a	n/a	n/a	n/a	229.047	BF11ANS.jpg
200.184	0.514	Blank	Blank	24.699	n/a	2	6	10	n/a	110	n/a	3	n/a	n/a	n/a	n/a	229.544	n/a
200.714	0.497	happy	Picture	24.185	n/a	2	6	11	n/a	111	85	3	n/a	n/a	n/a	n/a	230.075	BF07ANS.jpg
201.212	0.514	Blank	Blank	23.671	n/a	2	6	11	n/a	111	n/a	3	n/a	n/a	n/a	n/a	230.572	n/a
201.742	0.497	happy	Picture	23.157	n/a	2	6	12	n/a	112	110	3	n/a	n/a	n/a	n/a	231.102	AM11ANS.jpg
202.24	0.514	Blank	Blank	22.643	n/a	2	6	12	n/a	112	n/a	3	n/a	n/a	n/a	n/a	231.6	n/a
202.77	0.497	happy	Picture	22.129	n/a	2	6	13	n/a	113	111	3	n/a	n/a	n/a	n/a	232.13	BM12ANS.jpg
203.268	0.514	Blank	Blank	21.615	n/a	2	6	13	n/a	113	n/a	3	n/a	n/a	n/a	n/a	232.628	n/a
203.798	0.497	happy	Picture	21.101	n/a	2	6	14	n/a	114	103	3	n/a	n/a	n/a	n/a	233.158	AM04ANS.jpg
204.295	0.514	Blank	Blank	20.587	n/a	2	6	14	n/a	114	n/a	3	n/a	n/a	n/a	n/a	233.655	n/a
204.826	0.497	happy	Picture	20.073	n/a	2	6	15	n/a	115	101	3	n/a	n/a	n/a	n/a	234.186	AM01ANS.jpg
205.323	0.514	Blank	Blank	19.559	n/a	2	6	15	n/a	115	n/a	3	n/a	n/a	n/a	n/a	234.683	n/a
205.854	0.497	happy	Picture	19.046	n/a	2	6	16	n/a	116	104	3	n/a	n/a	n/a	n/a	235.214	BM05ANS.jpg
206.351	0.514	Blank	Blank	18.532	n/a	2	6	16	n/a	116	n/a	3	n/a	n/a	n/a	n/a	235.711	n/a
206.882	0.497	happy	Picture	18.018	n/a	2	6	17	n/a	117	107	3	n/a	n/a	n/a	n/a	236.242	BM08ANS.jpg
207.379	0.514	Blank	Blank	17.504	n/a	2	6	17	n/a	117	n/a	3	n/a	n/a	n/a	n/a	236.739	n/a
207.91	0.497	happy	Picture	16.99	n/a	2	6	18	n/a	118	98	3	n/a	n/a	n/a	n/a	237.27	BF29ANS.jpg
208.407	0.514	Blank	Blank	16.476	n/a	2	6	18	n/a	118	n/a	3	n/a	n/a	n/a	n/a	237.767	n/a
208.938	0.497	happy	Picture	15.962	n/a	2	6	19	n/a	119	99	3	n/a	n/a	n/a	n/a	238.298	AF31ANS.jpg
209.435	0.514	Blank	Blank	15.448	n/a	2	6	19	n/a	119	n/a	3	n/a	n/a	n/a	n/a	238.795	n/a
209.965	0.497	happy	Picture	14.934	n/a	2	6	20	n/a	120	108	3	n/a	n/a	n/a	n/a	239.325	AM09ANS.jpg
210.463	0.514	Blank	Blank	14.42	n/a	2	6	20	n/a	120	n/a	3	n/a	n/a	n/a	n/a	239.823	n/a
210.993	10.014	ITI	Fixation+	4.39	n/a	2	n/a	n/a	n/a	n/a	n/a	n/a	n/a	n/a	n/a	n/a	240.353	n/a
225.397	n/a	ConfirmRating	Rate	n/a	4.377	2	n/a	n/a	0	n/a	n/a	n/a	2	Happy	68	51	254.757	n/a
235.118	n/a	ConfirmRating	Rate	n/a	9.716	2	n/a	n/a	1	n/a	n/a	n/a	3	Happy	29	48	264.479	n/a
235.149	15.004	Rest	Picture	n/a	n/a	n/a	n/a	n/a	n/a	n/a	n/a	n/a	0	n/a	0	0	264.509	n/a
250.169	10.014	ITI	Fixation+	95.692	n/a	3	n/a	n/a	n/a	n/a	n/a	n/a	n/a	n/a	n/a	n/a	279.529	n/a
260.199	0.497	angry	Picture	95.178	n/a	3	7	1	n/a	1	46	2	n/a	n/a	n/a	n/a	289.559	AF09HAS.jpg
260.696	0.514	Blank	Blank	94.664	n/a	3	7	1	n/a	1	n/a	2	n/a	n/a	n/a	n/a	290.056	n/a
261.227	0.497	angry	Picture	94.15	n/a	3	7	2	n/a	2	69	2	n/a	n/a	n/a	n/a	290.587	AM10HAS.jpg
261.724	0.514	Blank	Blank	93.636	n/a	3	7	2	n/a	2	n/a	2	n/a	n/a	n/a	n/a	291.084	n/a
262.255	0.497	angry	Picture	93.122	n/a	3	7	3	n/a	3	71	2	n/a	n/a	n/a	n/a	291.615	BM12HAS.jpg
262.752	0.514	Blank	Blank	92.608	n/a	3	7	3	n/a	3	n/a	2	n/a	n/a	n/a	n/a	292.112	n/a
263.283	0.497	angry	Picture	92.094	n/a	3	7	4	n/a	4	51	2	n/a	n/a	n/a	n/a	292.643	AF20HAS.jpg
263.78	0.514	Blank	Blank	91.58	n/a	3	7	4	n/a	4	n/a	2	n/a	n/a	n/a	n/a	293.14	n/a
264.31	0.497	angry	Picture	91.067	n/a	3	7	5	n/a	5	67	2	n/a	n/a	n/a	n/a	293.671	BM08HAS.jpg
264.808	0.514	Blank	Blank	90.553	n/a	3	7	5	n/a	5	n/a	2	n/a	n/a	n/a	n/a	294.168	n/a
265.338	0.497	angry	Picture	90.039	n/a	3	7	6	n/a	6	60	2	n/a	n/a	n/a	n/a	294.699	AF32HAS.jpg
265.836	0.514	Blank	Blank	89.525	n/a	3	7	6	n/a	6	n/a	2	n/a	n/a	n/a	n/a	295.196	n/a
266.366	0.497	angry	Picture	89.011	n/a	3	7	7	n/a	7	42	2	n/a	n/a	n/a	n/a	295.726	AF03HAS.jpg
266.864	0.514	Blank	Blank	88.497	n/a	3	7	7	n/a	7	n/a	2	n/a	n/a	n/a	n/a	296.224	n/a
267.394	0.497	angry	Picture	87.983	n/a	3	7	8	n/a	8	55	2	n/a	n/a	n/a	n/a	296.754	AF25HAS.jpg
267.892	0.514	Blank	Blank	87.469	n/a	3	7	8	n/a	8	n/a	2	n/a	n/a	n/a	n/a	297.252	n/a
268.422	0.497	angry	Picture	86.955	n/a	3	7	9	n/a	9	72	2	n/a	n/a	n/a	n/a	297.782	AM14HAS.jpg
268.919	0.514	Blank	Blank	86.441	n/a	3	7	9	n/a	9	n/a	2	n/a	n/a	n/a	n/a	298.279	n/a
269.45	0.497	angry	Picture	85.927	n/a	3	7	10	n/a	10	63	2	n/a	n/a	n/a	n/a	298.81	AM04HAS.jpg
269.947	0.514	Blank	Blank	85.413	n/a	3	7	10	n/a	10	n/a	2	n/a	n/a	n/a	n/a	299.307	n/a
270.478	0.497	angry	Picture	84.899	n/a	3	7	11	n/a	11	58	2	n/a	n/a	n/a	n/a	299.838	BF29HAS.jpg
270.975	0.514	Blank	Blank	84.385	n/a	3	7	11	n/a	11	n/a	2	n/a	n/a	n/a	n/a	300.335	n/a
271.506	0.497	angry	Picture	83.871	n/a	3	7	12	n/a	12	48	2	n/a	n/a	n/a	n/a	300.866	AF14HAS.jpg
272.003	0.514	Blank	Blank	83.357	n/a	3	7	12	n/a	12	n/a	2	n/a	n/a	n/a	n/a	301.363	n/a
272.534	0.497	angry	Picture	82.843	n/a	3	7	13	n/a	13	66	2	n/a	n/a	n/a	n/a	301.894	BM07HAS.jpg
273.031	0.514	Blank	Blank	82.329	n/a	3	7	13	n/a	13	n/a	2	n/a	n/a	n/a	n/a	302.391	n/a
273.561	0.497	angry	Picture	81.815	n/a	3	7	14	n/a	14	70	2	n/a	n/a	n/a	n/a	302.921	BM11HAS.jpg
274.059	0.514	Blank	Blank	81.302	n/a	3	7	14	n/a	14	n/a	2	n/a	n/a	n/a	n/a	303.419	n/a
274.589	0.497	angry	Picture	80.788	n/a	3	7	15	n/a	15	43	2	n/a	n/a	n/a	n/a	303.949	BF04HAS.jpg
275.087	0.514	Blank	Blank	80.274	n/a	3	7	15	n/a	15	n/a	2	n/a	n/a	n/a	n/a	304.447	n/a
275.617	0.497	angry	Picture	79.76	n/a	3	7	16	n/a	16	49	2	n/a	n/a	n/a	n/a	304.977	AF17HAS.jpg
276.115	0.514	Blank	Blank	79.246	n/a	3	7	16	n/a	16	n/a	2	n/a	n/a	n/a	n/a	305.475	n/a
276.645	0.497	angry	Picture	78.732	n/a	3	7	17	n/a	17	75	2	n/a	n/a	n/a	n/a	306.005	AM23HAS.jpg
277.142	0.514	Blank	Blank	78.218	n/a	3	7	17	n/a	17	n/a	2	n/a	n/a	n/a	n/a	306.502	n/a
277.673	0.497	angry	Picture	77.704	n/a	3	7	18	n/a	18	80	2	n/a	n/a	n/a	n/a	307.033	BM35HAS.jpg
278.17	0.514	Blank	Blank	77.19	n/a	3	7	18	n/a	18	n/a	2	n/a	n/a	n/a	n/a	307.53	n/a
278.701	0.497	angry	Picture	76.676	n/a	3	7	19	n/a	19	76	2	n/a	n/a	n/a	n/a	308.061	BM24HAS.jpg
279.198	0.514	Blank	Blank	76.162	n/a	3	7	19	n/a	19	n/a	2	n/a	n/a	n/a	n/a	308.558	n/a
279.729	0.497	angry	Picture	75.648	n/a	3	7	20	n/a	20	74	2	n/a	n/a	n/a	n/a	309.089	AM22HAS.jpg
280.226	0.514	Blank	Blank	75.134	n/a	3	7	20	n/a	20	n/a	2	n/a	n/a	n/a	n/a	309.586	n/a
280.757	10.014	ITI	Fixation+	65.104	n/a	3	n/a	n/a	n/a	n/a	n/a	n/a	n/a	n/a	n/a	n/a	310.117	n/a
290.787	0.497	neutral	Picture	64.59	n/a	3	8	1	n/a	21	33	1	n/a	n/a	n/a	n/a	320.147	AM21NES.jpg
291.284	0.514	Blank	Blank	64.076	n/a	3	8	1	n/a	21	n/a	1	n/a	n/a	n/a	n/a	320.644	n/a
291.815	0.497	neutral	Picture	63.562	n/a	3	8	2	n/a	22	39	1	n/a	n/a	n/a	n/a	321.175	AM28NES.jpg
292.312	0.514	Blank	Blank	63.048	n/a	3	8	2	n/a	22	n/a	1	n/a	n/a	n/a	n/a	321.672	n/a
292.843	0.497	neutral	Picture	62.534	n/a	3	8	3	n/a	23	25	1	n/a	n/a	n/a	n/a	322.203	BM06NES.jpg
293.34	0.514	Blank	Blank	62.021	n/a	3	8	3	n/a	23	n/a	1	n/a	n/a	n/a	n/a	322.7	n/a
293.87	0.497	neutral	Picture	61.507	n/a	3	8	4	n/a	24	5	1	n/a	n/a	n/a	n/a	323.231	BF07NES.jpg
294.368	0.514	Blank	Blank	60.993	n/a	3	8	4	n/a	24	n/a	1	n/a	n/a	n/a	n/a	323.728	n/a
294.898	0.497	neutral	Picture	60.479	n/a	3	8	5	n/a	25	10	1	n/a	n/a	n/a	n/a	324.258	AF18NES.jpg
295.396	0.514	Blank	Blank	59.965	n/a	3	8	5	n/a	25	n/a	1	n/a	n/a	n/a	n/a	324.756	n/a
295.926	0.497	neutral	Picture	59.451	n/a	3	8	6	n/a	26	34	1	n/a	n/a	n/a	n/a	325.286	AM22NES.jpg
296.423	0.514	Blank	Blank	58.937	n/a	3	8	6	n/a	26	n/a	1	n/a	n/a	n/a	n/a	325.784	n/a
296.954	0.497	neutral	Picture	58.423	n/a	3	8	7	n/a	27	36	1	n/a	n/a	n/a	n/a	326.314	BM24NES.jpg
297.451	0.514	Blank	Blank	57.909	n/a	3	8	7	n/a	27	n/a	1	n/a	n/a	n/a	n/a	326.812	n/a
297.982	0.497	neutral	Picture	57.395	n/a	3	8	8	n/a	28	14	1	n/a	n/a	n/a	n/a	327.342	AF23NES.jpg
298.479	0.514	Blank	Blank	56.881	n/a	3	8	8	n/a	28	n/a	1	n/a	n/a	n/a	n/a	327.839	n/a
299.01	0.497	neutral	Picture	56.367	n/a	3	8	9	n/a	29	9	1	n/a	n/a	n/a	n/a	328.37	AF17NES.jpg
299.507	0.514	Blank	Blank	55.853	n/a	3	8	9	n/a	29	n/a	1	n/a	n/a	n/a	n/a	328.867	n/a
300.038	0.497	neutral	Picture	55.339	n/a	3	8	10	n/a	30	19	1	n/a	n/a	n/a	n/a	329.398	AF31NES.jpg
300.535	0.514	Blank	Blank	54.825	n/a	3	8	10	n/a	30	n/a	1	n/a	n/a	n/a	n/a	329.895	n/a
301.066	0.497	neutral	Picture	54.311	n/a	3	8	11	n/a	31	15	1	n/a	n/a	n/a	n/a	330.426	AF25NES.jpg
301.563	0.514	Blank	Blank	53.797	n/a	3	8	11	n/a	31	n/a	1	n/a	n/a	n/a	n/a	330.923	n/a
302.093	0.497	neutral	Picture	53.283	n/a	3	8	12	n/a	32	22	1	n/a	n/a	n/a	n/a	331.454	BM03NES.jpg
302.591	0.514	Blank	Blank	52.77	n/a	3	8	12	n/a	32	n/a	1	n/a	n/a	n/a	n/a	331.951	n/a
303.121	0.497	neutral	Picture	52.256	n/a	3	8	13	n/a	33	11	1	n/a	n/a	n/a	n/a	332.481	AF20NES.jpg
303.619	0.514	Blank	Blank	51.742	n/a	3	8	13	n/a	33	n/a	1	n/a	n/a	n/a	n/a	332.979	n/a
304.149	0.497	neutral	Picture	51.228	n/a	3	8	14	n/a	34	4	1	n/a	n/a	n/a	n/a	333.509	AF05NES.jpg
304.647	0.514	Blank	Blank	50.714	n/a	3	8	14	n/a	34	n/a	1	n/a	n/a	n/a	n/a	334.007	n/a
305.177	0.497	neutral	Picture	50.2	n/a	3	8	15	n/a	35	17	1	n/a	n/a	n/a	n/a	334.537	BF28NES.jpg
305.675	0.514	Blank	Blank	49.686	n/a	3	8	15	n/a	35	n/a	1	n/a	n/a	n/a	n/a	335.035	n/a
306.205	0.497	neutral	Picture	49.172	n/a	3	8	16	n/a	36	13	1	n/a	n/a	n/a	n/a	335.565	BF22NES.jpg
306.702	0.514	Blank	Blank	48.658	n/a	3	8	16	n/a	36	n/a	1	n/a	n/a	n/a	n/a	336.062	n/a
307.233	0.497	neutral	Picture	48.144	n/a	3	8	17	n/a	37	12	1	n/a	n/a	n/a	n/a	336.593	AF21NES.jpg
307.73	0.514	Blank	Blank	47.63	n/a	3	8	17	n/a	37	n/a	1	n/a	n/a	n/a	n/a	337.09	n/a
308.261	0.497	neutral	Picture	47.116	n/a	3	8	18	n/a	38	24	1	n/a	n/a	n/a	n/a	337.621	BM05NES.jpg
308.758	0.514	Blank	Blank	46.602	n/a	3	8	18	n/a	38	n/a	1	n/a	n/a	n/a	n/a	338.118	n/a
309.289	0.497	neutral	Picture	46.088	n/a	3	8	19	n/a	39	29	1	n/a	n/a	n/a	n/a	338.649	AM10NES.jpg
309.786	0.514	Blank	Blank	45.574	n/a	3	8	19	n/a	39	n/a	1	n/a	n/a	n/a	n/a	339.146	n/a
310.317	0.497	neutral	Picture	45.06	n/a	3	8	20	n/a	40	23	1	n/a	n/a	n/a	n/a	339.677	AM04NES.jpg
310.814	0.514	Blank	Blank	44.547	n/a	3	8	20	n/a	40	n/a	1	n/a	n/a	n/a	n/a	340.174	n/a
311.344	10.014	ITI	Fixation+	34.516	n/a	3	n/a	n/a	n/a	n/a	n/a	n/a	n/a	n/a	n/a	n/a	340.704	n/a
321.375	0.497	angry	Picture	34.002	n/a	3	9	1	n/a	41	62	2	n/a	n/a	n/a	n/a	350.735	BM03HAS.jpg
321.872	0.514	Blank	Blank	33.488	n/a	3	9	1	n/a	41	n/a	2	n/a	n/a	n/a	n/a	351.232	n/a
322.402	0.497	angry	Picture	32.974	n/a	3	9	2	n/a	42	52	2	n/a	n/a	n/a	n/a	351.762	AF21HAS.jpg
322.9	0.514	Blank	Blank	32.461	n/a	3	9	2	n/a	42	n/a	2	n/a	n/a	n/a	n/a	352.26	n/a
323.43	0.497	angry	Picture	31.947	n/a	3	9	3	n/a	43	44	2	n/a	n/a	n/a	n/a	352.79	AF05HAS.jpg
323.928	0.514	Blank	Blank	31.433	n/a	3	9	3	n/a	43	n/a	2	n/a	n/a	n/a	n/a	353.288	n/a
324.458	0.497	angry	Picture	30.919	n/a	3	9	4	n/a	44	53	2	n/a	n/a	n/a	n/a	353.818	BF22HAS.jpg
324.956	0.514	Blank	Blank	30.405	n/a	3	9	4	n/a	44	n/a	2	n/a	n/a	n/a	n/a	354.316	n/a
325.486	0.497	angry	Picture	29.891	n/a	3	9	5	n/a	45	54	2	n/a	n/a	n/a	n/a	354.846	AF23HAS.jpg
325.983	0.514	Blank	Blank	29.377	n/a	3	9	5	n/a	45	n/a	2	n/a	n/a	n/a	n/a	355.344	n/a
326.514	0.497	angry	Picture	28.863	n/a	3	9	6	n/a	46	68	2	n/a	n/a	n/a	n/a	355.874	AM09HAS.jpg
327.011	0.514	Blank	Blank	28.349	n/a	3	9	6	n/a	46	n/a	2	n/a	n/a	n/a	n/a	356.371	n/a
327.542	0.497	angry	Picture	27.835	n/a	3	9	7	n/a	47	64	2	n/a	n/a	n/a	n/a	356.902	BM05HAS.jpg
328.039	0.514	Blank	Blank	27.321	n/a	3	9	7	n/a	47	n/a	2	n/a	n/a	n/a	n/a	357.399	n/a
328.57	0.497	angry	Picture	26.807	n/a	3	9	8	n/a	48	59	2	n/a	n/a	n/a	n/a	357.93	AF31HAS.jpg
329.067	0.514	Blank	Blank	26.293	n/a	3	9	8	n/a	48	n/a	2	n/a	n/a	n/a	n/a	358.427	n/a
329.598	0.497	angry	Picture	25.779	n/a	3	9	9	n/a	49	41	2	n/a	n/a	n/a	n/a	358.958	AF01HAS.jpg
330.095	0.514	Blank	Blank	25.265	n/a	3	9	9	n/a	49	n/a	2	n/a	n/a	n/a	n/a	359.455	n/a
330.625	0.497	angry	Picture	24.752	n/a	3	9	10	n/a	50	73	2	n/a	n/a	n/a	n/a	359.986	AM21HAS.jpg
331.123	0.514	Blank	Blank	24.238	n/a	3	9	10	n/a	50	n/a	2	n/a	n/a	n/a	n/a	360.483	n/a
331.653	0.497	angry	Picture	23.724	n/a	3	9	11	n/a	51	65	2	n/a	n/a	n/a	n/a	361.013	BM06HAS.jpg
332.151	0.514	Blank	Blank	23.21	n/a	3	9	11	n/a	51	n/a	2	n/a	n/a	n/a	n/a	361.511	n/a
332.681	0.497	angry	Picture	22.696	n/a	3	9	12	n/a	52	56	2	n/a	n/a	n/a	n/a	362.041	AF26HAS.jpg
333.179	0.514	Blank	Blank	22.182	n/a	3	9	12	n/a	52	n/a	2	n/a	n/a	n/a	n/a	362.539	n/a
333.709	0.497	angry	Picture	21.668	n/a	3	9	13	n/a	53	45	2	n/a	n/a	n/a	n/a	363.069	BF07HAS.jpg
334.207	0.514	Blank	Blank	21.154	n/a	3	9	13	n/a	53	n/a	2	n/a	n/a	n/a	n/a	363.567	n/a
334.737	0.497	angry	Picture	20.64	n/a	3	9	14	n/a	54	78	2	n/a	n/a	n/a	n/a	364.097	BM26HAS.jpg
335.234	0.514	Blank	Blank	20.126	n/a	3	9	14	n/a	54	n/a	2	n/a	n/a	n/a	n/a	364.594	n/a
335.765	0.497	angry	Picture	19.612	n/a	3	9	15	n/a	55	50	2	n/a	n/a	n/a	n/a	365.125	AF18HAS.jpg
336.262	0.514	Blank	Blank	19.098	n/a	3	9	15	n/a	55	n/a	2	n/a	n/a	n/a	n/a	365.622	n/a
336.793	0.497	angry	Picture	18.584	n/a	3	9	16	n/a	56	47	2	n/a	n/a	n/a	n/a	366.153	BF11HAS.jpg
337.29	0.514	Blank	Blank	18.07	n/a	3	9	16	n/a	56	n/a	2	n/a	n/a	n/a	n/a	366.65	n/a
337.821	0.497	angry	Picture	17.556	n/a	3	9	17	n/a	57	77	2	n/a	n/a	n/a	n/a	367.181	BM25HAS.jpg
338.318	0.514	Blank	Blank	17.042	n/a	3	9	17	n/a	57	n/a	2	n/a	n/a	n/a	n/a	367.678	n/a
338.849	0.497	angry	Picture	16.528	n/a	3	9	18	n/a	58	57	2	n/a	n/a	n/a	n/a	368.209	BF28HAS.jpg
339.346	0.514	Blank	Blank	16.014	n/a	3	9	18	n/a	58	n/a	2	n/a	n/a	n/a	n/a	368.706	n/a
339.876	0.497	angry	Picture	15.5	n/a	3	9	19	n/a	59	61	2	n/a	n/a	n/a	n/a	369.236	AM01HAS.jpg
340.374	0.514	Blank	Blank	14.987	n/a	3	9	19	n/a	59	n/a	2	n/a	n/a	n/a	n/a	369.734	n/a
340.904	0.497	angry	Picture	14.473	n/a	3	9	20	n/a	60	79	2	n/a	n/a	n/a	n/a	370.264	BM28HAS.jpg
341.402	0.514	Blank	Blank	13.959	n/a	3	9	20	n/a	60	n/a	2	n/a	n/a	n/a	n/a	370.762	n/a
341.932	10.014	ITI	Fixation+	3.929	n/a	3	n/a	n/a	n/a	n/a	n/a	n/a	n/a	n/a	n/a	n/a	371.292	n/a
355.874	n/a	ConfirmRating	Rate	n/a	3.913	3	n/a	n/a	0	n/a	n/a	n/a	2	Angry	31	49	385.234	n/a
362.799	n/a	ConfirmRating	Rate	n/a	6.913	3	n/a	n/a	1	n/a	n/a	n/a	3	Angry	36	49	392.159	n/a
362.821	10.014	ITI	Fixation+	97.282	n/a	4	n/a	n/a	n/a	n/a	n/a	n/a	n/a	n/a	n/a	n/a	392.182	n/a
372.851	0.497	happy	Picture	96.768	n/a	4	10	1	n/a	61	119	3	n/a	n/a	n/a	n/a	402.212	BM28ANS.jpg
373.349	0.514	Blank	Blank	96.254	n/a	4	10	1	n/a	61	n/a	3	n/a	n/a	n/a	n/a	402.709	n/a
373.879	0.497	happy	Picture	95.74	n/a	4	10	2	n/a	62	100	3	n/a	n/a	n/a	n/a	403.24	AF32ANS.jpg
374.377	0.514	Blank	Blank	95.226	n/a	4	10	2	n/a	62	n/a	3	n/a	n/a	n/a	n/a	403.737	n/a
374.907	0.497	happy	Picture	94.712	n/a	4	10	3	n/a	63	118	3	n/a	n/a	n/a	n/a	404.267	BM26ANS.jpg
375.405	0.514	Blank	Blank	94.199	n/a	4	10	3	n/a	63	n/a	3	n/a	n/a	n/a	n/a	404.765	n/a
375.935	0.497	happy	Picture	93.685	n/a	4	10	4	n/a	64	89	3	n/a	n/a	n/a	n/a	405.295	AF17ANS.jpg
376.433	0.514	Blank	Blank	93.171	n/a	4	10	4	n/a	64	n/a	3	n/a	n/a	n/a	n/a	405.793	n/a
376.963	0.497	happy	Picture	92.657	n/a	4	10	5	n/a	65	116	3	n/a	n/a	n/a	n/a	406.323	BM24ANS.jpg
377.46	0.514	Blank	Blank	92.143	n/a	4	10	5	n/a	65	n/a	3	n/a	n/a	n/a	n/a	406.82	n/a
377.991	0.497	happy	Picture	91.629	n/a	4	10	6	n/a	66	105	3	n/a	n/a	n/a	n/a	407.351	BM06ANS.jpg
378.488	0.514	Blank	Blank	91.115	n/a	4	10	6	n/a	66	n/a	3	n/a	n/a	n/a	n/a	407.848	n/a
379.019	0.497	happy	Picture	90.601	n/a	4	10	7	n/a	67	106	3	n/a	n/a	n/a	n/a	408.379	AM07ANS.jpg
379.516	0.514	Blank	Blank	90.087	n/a	4	10	7	n/a	67	n/a	3	n/a	n/a	n/a	n/a	408.876	n/a
380.047	0.497	happy	Picture	89.573	n/a	4	10	8	n/a	68	94	3	n/a	n/a	n/a	n/a	409.407	AF23ANS.jpg
380.544	0.514	Blank	Blank	89.059	n/a	4	10	8	n/a	68	n/a	3	n/a	n/a	n/a	n/a	409.904	n/a
381.075	0.497	happy	Picture	88.545	n/a	4	10	9	n/a	69	117	3	n/a	n/a	n/a	n/a	410.435	BM25ANS.jpg
381.572	0.514	Blank	Blank	88.031	n/a	4	10	9	n/a	69	n/a	3	n/a	n/a	n/a	n/a	410.932	n/a
382.103	0.497	happy	Picture	87.517	n/a	4	10	10	n/a	70	90	3	n/a	n/a	n/a	n/a	411.463	AF18ANS.jpg
382.6	0.514	Blank	Blank	87.003	n/a	4	10	10	n/a	70	n/a	3	n/a	n/a	n/a	n/a	411.96	n/a
383.13	0.497	happy	Picture	86.489	n/a	4	10	11	n/a	71	83	3	n/a	n/a	n/a	n/a	412.49	BF04ANS.jpg
383.628	0.514	Blank	Blank	85.975	n/a	4	10	11	n/a	71	n/a	3	n/a	n/a	n/a	n/a	412.988	n/a
384.158	0.497	happy	Picture	85.461	n/a	4	10	12	n/a	72	112	3	n/a	n/a	n/a	n/a	413.518	AM14ANS.jpg
384.656	0.514	Blank	Blank	84.948	n/a	4	10	12	n/a	72	n/a	3	n/a	n/a	n/a	n/a	414.016	n/a
385.186	0.497	happy	Picture	84.434	n/a	4	10	13	n/a	73	102	3	n/a	n/a	n/a	n/a	414.546	BM03ANS.jpg
385.684	0.514	Blank	Blank	83.92	n/a	4	10	13	n/a	73	n/a	3	n/a	n/a	n/a	n/a	415.044	n/a
386.214	0.497	happy	Picture	83.406	n/a	4	10	14	n/a	74	95	3	n/a	n/a	n/a	n/a	415.574	AF25ANS.jpg
386.711	0.514	Blank	Blank	82.892	n/a	4	10	14	n/a	74	n/a	3	n/a	n/a	n/a	n/a	416.072	n/a
387.242	0.497	happy	Picture	82.378	n/a	4	10	15	n/a	75	113	3	n/a	n/a	n/a	n/a	416.602	AM21ANS.jpg
387.739	0.514	Blank	Blank	81.864	n/a	4	10	15	n/a	75	n/a	3	n/a	n/a	n/a	n/a	417.099	n/a
388.27	0.497	happy	Picture	81.35	n/a	4	10	16	n/a	76	88	3	n/a	n/a	n/a	n/a	417.63	AF14ANS.jpg
388.767	0.514	Blank	Blank	80.836	n/a	4	10	16	n/a	76	n/a	3	n/a	n/a	n/a	n/a	418.127	n/a
389.298	0.497	happy	Picture	80.322	n/a	4	10	17	n/a	77	93	3	n/a	n/a	n/a	n/a	418.658	BF22ANS.jpg
389.795	0.514	Blank	Blank	79.808	n/a	4	10	17	n/a	77	n/a	3	n/a	n/a	n/a	n/a	419.155	n/a
390.326	0.497	happy	Picture	79.294	n/a	4	10	18	n/a	78	86	3	n/a	n/a	n/a	n/a	419.686	AF09ANS.jpg
390.823	0.514	Blank	Blank	78.78	n/a	4	10	18	n/a	78	n/a	3	n/a	n/a	n/a	n/a	420.183	n/a
391.353	0.497	happy	Picture	78.266	n/a	4	10	19	n/a	79	92	3	n/a	n/a	n/a	n/a	420.714	AF21ANS.jpg
391.851	0.514	Blank	Blank	77.752	n/a	4	10	19	n/a	79	n/a	3	n/a	n/a	n/a	n/a	421.211	n/a
392.381	0.497	happy	Picture	77.238	n/a	4	10	20	n/a	80	84	3	n/a	n/a	n/a	n/a	421.741	AF05ANS.jpg
392.879	0.514	Blank	Blank	76.724	n/a	4	10	20	n/a	80	n/a	3	n/a	n/a	n/a	n/a	422.239	n/a
393.409	10.014	ITI	Fixation+	66.694	n/a	4	n/a	n/a	n/a	n/a	n/a	n/a	n/a	n/a	n/a	n/a	422.769	n/a
403.439	0.497	neutral	Picture	66.18	n/a	4	11	1	n/a	81	4	1	n/a	n/a	n/a	n/a	432.799	AF05NES.jpg
403.937	0.514	Blank	Blank	65.666	n/a	4	11	1	n/a	81	n/a	1	n/a	n/a	n/a	n/a	433.297	n/a
404.467	0.497	neutral	Picture	65.152	n/a	4	11	2	n/a	82	14	1	n/a	n/a	n/a	n/a	433.827	AF23NES.jpg
404.965	0.514	Blank	Blank	64.639	n/a	4	11	2	n/a	82	n/a	1	n/a	n/a	n/a	n/a	434.325	n/a
405.495	0.497	neutral	Picture	64.125	n/a	4	11	3	n/a	83	19	1	n/a	n/a	n/a	n/a	434.855	AF31NES.jpg
405.992	0.514	Blank	Blank	63.611	n/a	4	11	3	n/a	83	n/a	1	n/a	n/a	n/a	n/a	435.352	n/a
406.523	0.497	neutral	Picture	63.097	n/a	4	11	4	n/a	84	8	1	n/a	n/a	n/a	n/a	435.883	AF14NES.jpg
407.02	0.514	Blank	Blank	62.583	n/a	4	11	4	n/a	84	n/a	1	n/a	n/a	n/a	n/a	436.38	n/a
407.551	0.497	neutral	Picture	62.069	n/a	4	11	5	n/a	85	25	1	n/a	n/a	n/a	n/a	436.911	BM06NES.jpg
408.048	0.514	Blank	Blank	61.555	n/a	4	11	5	n/a	85	n/a	1	n/a	n/a	n/a	n/a	437.408	n/a
408.579	0.497	neutral	Picture	61.041	n/a	4	11	6	n/a	86	9	1	n/a	n/a	n/a	n/a	437.939	AF17NES.jpg
409.076	0.514	Blank	Blank	60.527	n/a	4	11	6	n/a	86	n/a	1	n/a	n/a	n/a	n/a	438.436	n/a
409.607	0.497	neutral	Picture	60.013	n/a	4	11	7	n/a	87	2	1	n/a	n/a	n/a	n/a	438.967	AF03NES.jpg
410.104	0.514	Blank	Blank	59.499	n/a	4	11	7	n/a	87	n/a	1	n/a	n/a	n/a	n/a	439.464	n/a
410.635	0.497	neutral	Picture	58.985	n/a	4	11	8	n/a	88	17	1	n/a	n/a	n/a	n/a	439.995	BF28NES.jpg
411.132	0.514	Blank	Blank	58.471	n/a	4	11	8	n/a	88	n/a	1	n/a	n/a	n/a	n/a	440.492	n/a
411.662	0.497	neutral	Picture	57.957	n/a	4	11	9	n/a	89	6	1	n/a	n/a	n/a	n/a	441.022	AF09NES.jpg
412.16	0.514	Blank	Blank	57.443	n/a	4	11	9	n/a	89	n/a	1	n/a	n/a	n/a	n/a	441.52	n/a
412.69	0.497	neutral	Picture	56.929	n/a	4	11	10	n/a	90	12	1	n/a	n/a	n/a	n/a	442.05	AF21NES.jpg
413.188	0.514	Blank	Blank	56.415	n/a	4	11	10	n/a	90	n/a	1	n/a	n/a	n/a	n/a	442.548	n/a
413.718	0.497	neutral	Picture	55.902	n/a	4	11	11	n/a	91	24	1	n/a	n/a	n/a	n/a	443.078	BM05NES.jpg
414.216	0.514	Blank	Blank	55.388	n/a	4	11	11	n/a	91	n/a	1	n/a	n/a	n/a	n/a	443.576	n/a
414.746	0.497	neutral	Picture	54.874	n/a	4	11	12	n/a	92	34	1	n/a	n/a	n/a	n/a	444.106	AM22NES.jpg
415.243	0.514	Blank	Blank	54.36	n/a	4	11	12	n/a	92	n/a	1	n/a	n/a	n/a	n/a	444.603	n/a
415.774	0.497	neutral	Picture	53.846	n/a	4	11	13	n/a	93	23	1	n/a	n/a	n/a	n/a	445.134	AM04NES.jpg
416.271	0.514	Blank	Blank	53.332	n/a	4	11	13	n/a	93	n/a	1	n/a	n/a	n/a	n/a	445.631	n/a
416.802	0.497	neutral	Picture	52.818	n/a	4	11	14	n/a	94	15	1	n/a	n/a	n/a	n/a	446.162	AF25NES.jpg
417.299	0.514	Blank	Blank	52.304	n/a	4	11	14	n/a	94	n/a	1	n/a	n/a	n/a	n/a	446.659	n/a
417.83	0.497	neutral	Picture	51.79	n/a	4	11	15	n/a	95	37	1	n/a	n/a	n/a	n/a	447.19	BM25NES.jpg
418.327	0.514	Blank	Blank	51.276	n/a	4	11	15	n/a	95	n/a	1	n/a	n/a	n/a	n/a	447.687	n/a
418.858	0.497	neutral	Picture	50.762	n/a	4	11	16	n/a	96	32	1	n/a	n/a	n/a	n/a	448.218	AM14NES.jpg
419.355	0.514	Blank	Blank	50.248	n/a	4	11	16	n/a	96	n/a	1	n/a	n/a	n/a	n/a	448.715	n/a
419.885	0.497	neutral	Picture	49.734	n/a	4	11	17	n/a	97	3	1	n/a	n/a	n/a	n/a	449.245	BF04NES.jpg
420.383	0.514	Blank	Blank	49.22	n/a	4	11	17	n/a	97	n/a	1	n/a	n/a	n/a	n/a	449.743	n/a
420.913	0.497	neutral	Picture	48.706	n/a	4	11	18	n/a	98	16	1	n/a	n/a	n/a	n/a	450.273	AF26NES.jpg
421.411	0.514	Blank	Blank	48.192	n/a	4	11	18	n/a	98	n/a	1	n/a	n/a	n/a	n/a	450.771	n/a
421.941	0.497	neutral	Picture	47.678	n/a	4	11	19	n/a	99	27	1	n/a	n/a	n/a	n/a	451.301	BM08NES.jpg
422.439	0.514	Blank	Blank	47.165	n/a	4	11	19	n/a	99	n/a	1	n/a	n/a	n/a	n/a	451.799	n/a
422.969	0.497	neutral	Picture	46.651	n/a	4	11	20	n/a	100	28	1	n/a	n/a	n/a	n/a	452.329	AM09NES.jpg
423.466	0.514	Blank	Blank	46.137	n/a	4	11	20	n/a	100	n/a	1	n/a	n/a	n/a	n/a	452.827	n/a
423.997	10.014	ITI	Fixation+	36.107	n/a	4	n/a	n/a	n/a	n/a	n/a	n/a	n/a	n/a	n/a	n/a	453.357	n/a
434.027	0.497	happy	Picture	35.593	n/a	4	12	1	n/a	101	81	3	n/a	n/a	n/a	n/a	463.387	AF01ANS.jpg
434.524	0.514	Blank	Blank	35.079	n/a	4	12	1	n/a	101	n/a	3	n/a	n/a	n/a	n/a	463.885	n/a
435.055	0.497	happy	Picture	34.565	n/a	4	12	2	n/a	102	120	3	n/a	n/a	n/a	n/a	464.415	AM35ANS.jpg
435.552	0.514	Blank	Blank	34.051	n/a	4	12	2	n/a	102	n/a	3	n/a	n/a	n/a	n/a	464.913	n/a
436.083	0.497	happy	Picture	33.537	n/a	4	12	3	n/a	103	114	3	n/a	n/a	n/a	n/a	465.443	AM22ANS.jpg
436.58	0.514	Blank	Blank	33.023	n/a	4	12	3	n/a	103	n/a	3	n/a	n/a	n/a	n/a	465.94	n/a
437.111	0.497	happy	Picture	32.509	n/a	4	12	4	n/a	104	109	3	n/a	n/a	n/a	n/a	466.471	AM10ANS.jpg
437.608	0.514	Blank	Blank	31.995	n/a	4	12	4	n/a	104	n/a	3	n/a	n/a	n/a	n/a	466.968	n/a
438.139	0.497	happy	Picture	31.481	n/a	4	12	5	n/a	105	96	3	n/a	n/a	n/a	n/a	467.499	AF26ANS.jpg
438.636	0.514	Blank	Blank	30.967	n/a	4	12	5	n/a	105	n/a	3	n/a	n/a	n/a	n/a	467.996	n/a
439.166	0.497	happy	Picture	30.453	n/a	4	12	6	n/a	106	82	3	n/a	n/a	n/a	n/a	468.527	AF03ANS.jpg
439.664	0.514	Blank	Blank	29.939	n/a	4	12	6	n/a	106	n/a	3	n/a	n/a	n/a	n/a	469.024	n/a
440.194	0.497	happy	Picture	29.425	n/a	4	12	7	n/a	107	97	3	n/a	n/a	n/a	n/a	469.555	BF28ANS.jpg
440.692	0.514	Blank	Blank	28.911	n/a	4	12	7	n/a	107	n/a	3	n/a	n/a	n/a	n/a	470.052	n/a
441.222	0.497	happy	Picture	28.397	n/a	4	12	8	n/a	108	115	3	n/a	n/a	n/a	n/a	470.582	AM23ANS.jpg
441.72	0.514	Blank	Blank	27.884	n/a	4	12	8	n/a	108	n/a	3	n/a	n/a	n/a	n/a	471.08	n/a
442.25	0.497	happy	Picture	27.37	n/a	4	12	9	n/a	109	91	3	n/a	n/a	n/a	n/a	471.61	AF20ANS.jpg
442.748	0.514	Blank	Blank	26.856	n/a	4	12	9	n/a	109	n/a	3	n/a	n/a	n/a	n/a	472.108	n/a
443.278	0.497	happy	Picture	26.342	n/a	4	12	10	n/a	110	87	3	n/a	n/a	n/a	n/a	472.638	BF11ANS.jpg
443.775	0.514	Blank	Blank	25.828	n/a	4	12	10	n/a	110	n/a	3	n/a	n/a	n/a	n/a	473.135	n/a
444.306	0.497	happy	Picture	25.314	n/a	4	12	11	n/a	111	85	3	n/a	n/a	n/a	n/a	473.666	BF07ANS.jpg
444.803	0.514	Blank	Blank	24.8	n/a	4	12	11	n/a	111	n/a	3	n/a	n/a	n/a	n/a	474.163	n/a
445.334	0.497	happy	Picture	24.286	n/a	4	12	12	n/a	112	110	3	n/a	n/a	n/a	n/a	474.694	AM11ANS.jpg
445.831	0.514	Blank	Blank	23.772	n/a	4	12	12	n/a	112	n/a	3	n/a	n/a	n/a	n/a	475.191	n/a
446.362	0.497	happy	Picture	23.258	n/a	4	12	13	n/a	113	111	3	n/a	n/a	n/a	n/a	475.722	BM12ANS.jpg
446.859	0.514	Blank	Blank	22.744	n/a	4	12	13	n/a	113	n/a	3	n/a	n/a	n/a	n/a	476.219	n/a
447.39	0.497	happy	Picture	22.23	n/a	4	12	14	n/a	114	103	3	n/a	n/a	n/a	n/a	476.75	AM04ANS.jpg
447.887	0.514	Blank	Blank	21.716	n/a	4	12	14	n/a	114	n/a	3	n/a	n/a	n/a	n/a	477.247	n/a
448.418	0.497	happy	Picture	21.202	n/a	4	12	15	n/a	115	101	3	n/a	n/a	n/a	n/a	477.778	AM01ANS.jpg
448.915	0.514	Blank	Blank	20.688	n/a	4	12	15	n/a	115	n/a	3	n/a	n/a	n/a	n/a	478.275	n/a
449.445	0.497	happy	Picture	20.174	n/a	4	12	16	n/a	116	104	3	n/a	n/a	n/a	n/a	478.805	BM05ANS.jpg
449.943	0.514	Blank	Blank	19.661	n/a	4	12	16	n/a	116	n/a	3	n/a	n/a	n/a	n/a	479.303	n/a
450.473	0.497	happy	Picture	19.146	n/a	4	12	17	n/a	117	107	3	n/a	n/a	n/a	n/a	479.833	BM08ANS.jpg
450.971	0.514	Blank	Blank	18.633	n/a	4	12	17	n/a	117	n/a	3	n/a	n/a	n/a	n/a	480.331	n/a
451.501	0.497	happy	Picture	18.119	n/a	4	12	18	n/a	118	98	3	n/a	n/a	n/a	n/a	480.861	BF29ANS.jpg
451.999	0.514	Blank	Blank	17.605	n/a	4	12	18	n/a	118	n/a	3	n/a	n/a	n/a	n/a	481.359	n/a
452.529	0.497	happy	Picture	17.091	n/a	4	12	19	n/a	119	99	3	n/a	n/a	n/a	n/a	481.889	AF31ANS.jpg
453.026	0.514	Blank	Blank	16.577	n/a	4	12	19	n/a	119	n/a	3	n/a	n/a	n/a	n/a	482.387	n/a
453.557	0.497	happy	Picture	16.063	n/a	4	12	20	n/a	120	108	3	n/a	n/a	n/a	n/a	482.917	AM09ANS.jpg
454.054	0.514	Blank	Blank	15.549	n/a	4	12	20	n/a	120	n/a	3	n/a	n/a	n/a	n/a	483.414	n/a
454.585	10.014	ITI	Fixation+	5.519	n/a	4	n/a	n/a	n/a	n/a	n/a	n/a	n/a	n/a	n/a	n/a	483.945	n/a
470.117	n/a	ConfirmRating	Rate	n/a	5.504	4	n/a	n/a	0	n/a	n/a	n/a	2	Happy	62	50	499.477	n/a
476.936	n/a	ConfirmRating	Rate	n/a	6.814	4	n/a	n/a	1	n/a	n/a	n/a	3	Happy	29	49	506.296	n/a
