onset	duration	trial_type	trial_number	event_type	cue_to_participant	stimulus_type	time_until_response	rated_success_of_regulation	onset_uncorrected
0.014	10.014	Instruction	-1	Picture	Instruction	n/a	n/a	n/a	29.637
10.044	5.007	ITI	0	Picture	Fixation+	1	15.001	n/a	39.668
15.067	2.006	Cue	0	Picture	Maintain	1	12.979	n/a	44.691
17.074	4.99	Pic	0	Picture	IAPS_01	1	7.989	n/a	46.697
22.064	2.006	Blank	0	Picture	BLANK	1	5.983	n/a	51.687
30.052	n/a	ConfirmRating	0	Response	n/a	1	n/a	0	59.676
30.071	6.002	ITI	1	Picture	Fixation+	2	15.734	n/a	59.695
36.089	2.006	Cue	1	Picture	Enhance	2	13.712	n/a	65.713
38.095	4.99	Pic	1	Picture	IAPS_26	2	8.721	n/a	67.719
43.086	2.006	Blank	1	Picture	BLANK	2	6.715	n/a	72.709
51.807	n/a	ConfirmRating	1	Response	n/a	2	n/a	1	81.43
51.839	4.012	ITI	2	Picture	Fixation+	3	13.801	n/a	81.463
55.868	2.006	Cue	2	Picture	Suppress	3	11.779	n/a	85.491
57.874	4.99	Pic	2	Picture	IAPS_36	3	6.789	n/a	87.497
62.864	2.006	Blank	2	Picture	BLANK	3	4.783	n/a	92.487
69.653	n/a	ConfirmRating	2	Response	n/a	3	n/a	0	99.276
69.678	5.007	ITI	3	Picture	Fixation+	4	11.489	n/a	99.301
74.701	2.006	Cue	3	Picture	Maintain	4	9.466	n/a	104.325
76.707	4.99	Pic	3	Picture	IAPS_46	4	4.476	n/a	106.331
81.697	2.006	Blank	3	Picture	BLANK	4	2.47	n/a	111.321
86.173	n/a	ConfirmRating	3	Response	n/a	4	n/a	3	115.797
86.19	5.007	ITI	4	Picture	Fixation+	4	10.311	n/a	115.814
91.214	2.006	Cue	4	Picture	Maintain	4	8.288	n/a	120.837
93.22	4.99	Pic	4	Picture	IAPS_49	4	3.298	n/a	122.843
98.21	2.006	Blank	4	Picture	BLANK	4	1.292	n/a	127.833
101.508	n/a	ConfirmRating	4	Response	n/a	4	n/a	0	131.132
101.526	6.002	ITI	5	Picture	Fixation+	2	11.128	n/a	131.149
107.544	2.006	Cue	5	Picture	Enhance	2	9.105	n/a	137.167
109.55	4.99	Pic	5	Picture	IAPS_27	2	4.115	n/a	139.173
114.54	2.006	Blank	5	Picture	BLANK	2	2.109	n/a	144.163
118.655	n/a	ConfirmRating	5	Response	n/a	2	n/a	2	148.278
118.685	4.012	ITI	6	Picture	Fixation+	1	14.615	n/a	148.308
122.713	2.006	Cue	6	Picture	Maintain	1	12.592	n/a	152.337
124.719	4.99	Pic	6	Picture	IAPS_02	1	7.602	n/a	154.343
129.709	2.006	Blank	6	Picture	BLANK	1	5.596	n/a	159.333
137.311	n/a	ConfirmRating	6	Response	n/a	1	n/a	3	166.935
137.336	6.002	ITI	7	Picture	Fixation+	3	13.18	n/a	166.959
143.354	2.006	Cue	7	Picture	Suppress	3	11.157	n/a	172.977
145.36	4.99	Pic	7	Picture	IAPS_37	3	6.167	n/a	174.983
150.35	2.006	Blank	7	Picture	BLANK	3	4.161	n/a	179.974
156.517	n/a	ConfirmRating	7	Response	n/a	3	n/a	3	186.141
156.534	5.007	ITI	8	Picture	Fixation+	4	9.728	n/a	186.157
161.557	2.006	Cue	8	Picture	Maintain	4	7.706	n/a	191.181
163.563	4.99	Pic	8	Picture	IAPS_52	4	2.715	n/a	193.187
168.553	2.006	Blank	8	Picture	BLANK	4	0.709	n/a	198.177
171.269	n/a	ConfirmRating	8	Response	n/a	4	n/a	0	200.892
171.289	6.002	ITI	9	Picture	Fixation+	1	10.63	n/a	200.912
177.307	2.006	Cue	9	Picture	Maintain	1	8.607	n/a	206.93
179.313	4.99	Pic	9	Picture	IAPS_03	1	3.617	n/a	208.937
184.303	2.006	Blank	9	Picture	BLANK	1	1.611	n/a	213.927
187.92	n/a	ConfirmRating	9	Response	n/a	1	n/a	2	217.544
187.951	5.007	ITI	10	Picture	Fixation+	2	11.072	n/a	217.574
192.974	2.006	Cue	10	Picture	Enhance	2	9.049	n/a	222.597
194.98	4.99	Pic	10	Picture	IAPS_28	2	4.059	n/a	224.603
199.97	2.006	Blank	10	Picture	BLANK	2	2.053	n/a	229.594
204.029	n/a	ConfirmRating	10	Response	n/a	2	n/a	1	233.653
204.048	4.012	ITI	11	Picture	Fixation+	3	12.714	n/a	233.672
208.077	2.006	Cue	11	Picture	Suppress	3	10.692	n/a	237.701
210.083	4.99	Pic	11	Picture	IAPS_38	3	5.701	n/a	239.707
215.073	2.006	Blank	11	Picture	BLANK	3	3.695	n/a	244.697
220.775	n/a	ConfirmRating	11	Response	n/a	3	n/a	3	250.398
220.793	6.002	ITI	12	Picture	Fixation+	2	10.234	n/a	250.417
226.811	2.006	Cue	12	Picture	Enhance	2	8.211	n/a	256.435
228.817	4.99	Pic	12	Picture	IAPS_29	2	3.221	n/a	258.441
233.807	2.006	Blank	12	Picture	BLANK	2	1.215	n/a	263.431
237.028	n/a	ConfirmRating	12	Response	n/a	2	n/a	2	266.652
237.057	5.007	ITI	13	Picture	Fixation+	1	10.639	n/a	266.68
242.08	2.006	Cue	13	Picture	Maintain	1	8.616	n/a	271.704
244.086	4.99	Pic	13	Picture	IAPS_04	1	3.626	n/a	273.71
249.076	2.006	Blank	13	Picture	BLANK	1	1.62	n/a	278.7
252.702	n/a	ConfirmRating	13	Response	n/a	1	n/a	2	282.326
252.724	4.012	ITI	14	Picture	Fixation+	4	11.614	n/a	282.347
256.752	2.006	Cue	14	Picture	Maintain	4	9.592	n/a	286.376
258.758	4.99	Pic	14	Picture	IAPS_55	4	4.601	n/a	288.382
263.749	2.006	Blank	14	Picture	BLANK	4	2.595	n/a	293.372
268.35	n/a	ConfirmRating	14	Response	n/a	4	n/a	5	297.974
268.374	5.007	ITI	15	Picture	Fixation+	3	10.918	n/a	297.998
273.397	2.006	Cue	15	Picture	Suppress	3	8.895	n/a	303.021
275.403	4.99	Pic	15	Picture	IAPS_39	3	3.905	n/a	305.027
280.394	2.006	Blank	15	Picture	BLANK	3	1.899	n/a	310.017
284.299	n/a	ConfirmRating	15	Response	n/a	3	n/a	0	313.922
284.323	6.002	ITI	16	Picture	Fixation+	2	10.731	n/a	313.946
290.341	2.006	Cue	16	Picture	Enhance	2	8.709	n/a	319.964
292.347	4.99	Pic	16	Picture	IAPS_30	2	3.718	n/a	321.97
297.337	2.006	Blank	16	Picture	BLANK	2	1.712	n/a	326.961
301.055	n/a	ConfirmRating	16	Response	n/a	2	n/a	2	330.679
301.084	6.002	ITI	17	Picture	Fixation+	1	11.055	n/a	330.707
307.102	2.006	Cue	17	Picture	Maintain	1	9.032	n/a	336.726
309.108	4.99	Pic	17	Picture	IAPS_05	1	4.042	n/a	338.731
314.098	2.006	Blank	17	Picture	BLANK	1	2.036	n/a	343.722
318.14	n/a	ConfirmRating	17	Response	n/a	1	n/a	1	347.764
318.16	4.012	ITI	18	Picture	Fixation+	3	12.413	n/a	347.784
322.189	2.006	Cue	18	Picture	Suppress	3	10.39	n/a	351.812
324.195	4.99	Pic	18	Picture	IAPS_40	3	5.4	n/a	353.818
329.185	2.006	Blank	18	Picture	BLANK	3	3.394	n/a	358.808
334.585	n/a	ConfirmRating	18	Response	n/a	3	n/a	5	364.208
334.606	5.007	ITI	19	Picture	Fixation+	4	10.149	n/a	364.23
339.63	2.006	Cue	19	Picture	Maintain	4	8.126	n/a	369.253
341.636	4.99	Pic	19	Picture	IAPS_58	4	3.136	n/a	371.259
346.626	2.006	Blank	19	Picture	BLANK	4	1.13	n/a	376.249
349.762	n/a	ConfirmRating	19	Response	n/a	4	n/a	0	379.385
349.792	6.002	ITI	20	Picture	Fixation+	4	9.498	n/a	379.416
355.81	2.006	Cue	20	Picture	Maintain	4	7.476	n/a	385.434
357.816	4.99	Pic	20	Picture	IAPS_47	4	2.486	n/a	387.44
362.807	2.006	Blank	20	Picture	BLANK	4	0.48	n/a	392.43
365.292	n/a	ConfirmRating	20	Response	n/a	4	n/a	0	394.916
365.31	5.007	ITI	21	Picture	Fixation+	3	11.082	n/a	394.933
370.333	2.006	Cue	21	Picture	Suppress	3	9.059	n/a	399.957
372.339	4.99	Pic	21	Picture	IAPS_41	3	4.069	n/a	401.963
377.33	2.006	Blank	21	Picture	BLANK	3	2.063	n/a	406.953
381.399	n/a	ConfirmRating	21	Response	n/a	3	n/a	5	411.022
381.425	4.012	ITI	22	Picture	Fixation+	1	11.104	n/a	411.048
385.453	2.006	Cue	22	Picture	Maintain	1	9.081	n/a	415.077
387.459	4.99	Pic	22	Picture	IAPS_06	1	4.091	n/a	417.083
392.449	2.006	Blank	22	Picture	BLANK	1	2.085	n/a	422.073
396.541	n/a	ConfirmRating	22	Response	n/a	1	n/a	3	426.164
396.561	4.012	ITI	23	Picture	Fixation+	2	11.581	n/a	426.184
400.59	2.006	Cue	23	Picture	Enhance	2	9.559	n/a	430.213
402.596	4.99	Pic	23	Picture	IAPS_16	2	4.568	n/a	432.219
407.586	2.006	Blank	23	Picture	BLANK	2	2.563	n/a	437.209
412.154	n/a	ConfirmRating	23	Response	n/a	2	n/a	7	441.778
412.178	5.007	ITI	24	Picture	Fixation+	1	9.587	n/a	441.802
417.201	2.006	Cue	24	Picture	Maintain	1	7.565	n/a	446.825
419.208	4.99	Pic	24	Picture	IAPS_07	1	2.574	n/a	448.831
424.198	2.006	Blank	24	Picture	BLANK	1	0.568	n/a	453.821
426.772	n/a	ConfirmRating	24	Response	n/a	1	n/a	0	456.396
426.8	4.012	ITI	25	Picture	Fixation+	2	10.868	n/a	456.424
430.829	2.006	Cue	25	Picture	Enhance	2	8.846	n/a	460.453
432.835	4.99	Pic	25	Picture	IAPS_17	2	3.855	n/a	462.459
437.825	2.006	Blank	25	Picture	BLANK	2	1.849	n/a	467.449
441.681	n/a	ConfirmRating	25	Response	n/a	2	n/a	3	471.304
441.705	6.002	ITI	26	Picture	Fixation+	4	11.43	n/a	471.328
447.723	2.006	Cue	26	Picture	Maintain	4	9.408	n/a	477.346
449.729	4.99	Pic	26	Picture	IAPS_50	4	4.417	n/a	479.352
454.719	2.006	Blank	26	Picture	BLANK	4	2.411	n/a	484.343
459.136	n/a	ConfirmRating	26	Response	n/a	4	n/a	3	488.76
459.162	5.007	ITI	27	Picture	Fixation+	3	10.863	n/a	488.786
464.186	2.006	Cue	27	Picture	Suppress	3	8.841	n/a	493.809
466.192	4.99	Pic	27	Picture	IAPS_42	3	3.85	n/a	495.815
471.182	2.006	Blank	27	Picture	BLANK	3	1.844	n/a	500.805
475.032	n/a	ConfirmRating	27	Response	n/a	3	n/a	6	504.656
475.061	5.007	ITI	28	Picture	Fixation+	2	11.29	n/a	504.685
480.085	2.006	Cue	28	Picture	Enhance	2	9.267	n/a	509.708
482.091	4.99	Pic	28	Picture	IAPS_18	2	4.277	n/a	511.714
487.081	2.006	Blank	28	Picture	BLANK	2	2.271	n/a	516.704
491.358	n/a	ConfirmRating	28	Response	n/a	2	n/a	1	520.981
491.375	4.012	ITI	29	Picture	Fixation+	3	11.111	n/a	520.998
495.403	2.006	Cue	29	Picture	Suppress	3	9.088	n/a	525.027
497.409	4.99	Pic	29	Picture	IAPS_43	3	4.098	n/a	527.033
502.4	2.006	Blank	29	Picture	BLANK	3	2.092	n/a	532.023
506.498	n/a	ConfirmRating	29	Response	n/a	3	n/a	6	536.121
506.528	15.004	Rest	29	Picture	Rest	n/a	-15.034	n/a	536.151
521.548	5.007	ITI	30	Picture	Fixation+	4	10.472	n/a	551.172
526.571	2.006	Cue	30	Picture	Maintain	4	8.45	n/a	556.195
528.577	4.99	Pic	30	Picture	IAPS_53	4	3.459	n/a	558.201
533.568	2.006	Blank	30	Picture	BLANK	4	1.453	n/a	563.191
537.027	n/a	ConfirmRating	30	Response	n/a	4	n/a	0	566.65
537.049	6.002	ITI	31	Picture	Fixation+	1	10.154	n/a	566.673
543.067	2.006	Cue	31	Picture	Maintain	1	8.131	n/a	572.691
545.073	4.99	Pic	31	Picture	IAPS_08	1	3.141	n/a	574.697
550.063	2.006	Blank	31	Picture	BLANK	1	1.135	n/a	579.687
553.205	n/a	ConfirmRating	31	Response	n/a	1	n/a	3	582.828
553.23	4.012	ITI	32	Picture	Fixation+	3	10.757	n/a	582.854
557.259	2.006	Cue	32	Picture	Suppress	3	8.735	n/a	586.882
559.265	4.99	Pic	32	Picture	IAPS_44	3	3.745	n/a	588.888
564.255	2.006	Blank	32	Picture	BLANK	3	1.738	n/a	593.878
567.999	n/a	ConfirmRating	32	Response	n/a	3	n/a	6	597.623
568.018	5.007	ITI	33	Picture	Fixation+	1	10.507	n/a	597.642
573.042	2.006	Cue	33	Picture	Maintain	1	8.485	n/a	602.665
575.048	4.99	Pic	33	Picture	IAPS_09	1	3.494	n/a	604.671
580.038	2.006	Blank	33	Picture	BLANK	1	1.488	n/a	609.661
583.532	n/a	ConfirmRating	33	Response	n/a	1	n/a	1	613.156
583.553	4.012	ITI	34	Picture	Fixation+	2	10.513	n/a	613.176
587.581	2.006	Cue	34	Picture	Enhance	2	8.491	n/a	617.205
589.587	4.99	Pic	34	Picture	IAPS_19	2	3.501	n/a	619.211
594.577	2.006	Blank	34	Picture	BLANK	2	1.495	n/a	624.201
598.078	n/a	ConfirmRating	34	Response	n/a	2	n/a	1	627.701
598.109	6.002	ITI	35	Picture	Fixation+	4	9.601	n/a	627.732
604.127	2.006	Cue	35	Picture	Maintain	4	7.579	n/a	633.75
606.133	4.99	Pic	35	Picture	IAPS_56	4	2.589	n/a	635.756
611.123	2.006	Blank	35	Picture	BLANK	4	0.583	n/a	640.746
613.712	n/a	ConfirmRating	35	Response	n/a	4	n/a	0	643.335
613.742	5.007	ITI	36	Picture	Fixation+	3	10.967	n/a	643.366
618.766	2.006	Cue	36	Picture	Suppress	3	8.944	n/a	648.389
620.772	4.99	Pic	36	Picture	IAPS_45	3	3.954	n/a	650.395
625.762	2.006	Blank	36	Picture	BLANK	3	1.948	n/a	655.385
629.716	n/a	ConfirmRating	36	Response	n/a	3	n/a	1	659.34
629.741	6.002	ITI	37	Picture	Fixation+	4	9.616	n/a	659.364
635.759	2.006	Cue	37	Picture	Maintain	4	7.593	n/a	665.383
637.765	4.99	Pic	37	Picture	IAPS_59	4	2.603	n/a	667.389
642.755	2.006	Blank	37	Picture	BLANK	4	0.597	n/a	672.379
645.358	n/a	ConfirmRating	37	Response	n/a	4	n/a	0	674.981
645.375	5.007	ITI	38	Picture	Fixation+	2	10.743	n/a	674.998
650.398	2.006	Cue	38	Picture	Enhance	2	8.721	n/a	680.021
652.404	4.99	Pic	38	Picture	IAPS_20	2	3.731	n/a	682.028
657.394	2.006	Blank	38	Picture	BLANK	2	1.724	n/a	687.018
661.125	n/a	ConfirmRating	38	Response	n/a	2	n/a	2	690.748
661.158	4.012	ITI	39	Picture	Fixation+	1	10.58	n/a	690.781
665.186	2.006	Cue	39	Picture	Maintain	1	8.557	n/a	694.81
667.192	4.99	Pic	39	Picture	IAPS_10	1	3.567	n/a	696.816
672.183	2.006	Blank	39	Picture	BLANK	1	1.561	n/a	701.806
675.75	n/a	ConfirmRating	39	Response	n/a	1	n/a	1	705.373
675.78	6.002	ITI	40	Picture	Fixation+	4	10.987	n/a	705.404
681.798	2.006	Cue	40	Picture	Maintain	4	8.964	n/a	711.422
683.804	4.99	Pic	40	Picture	IAPS_48	4	3.974	n/a	713.428
688.794	2.006	Blank	40	Picture	BLANK	4	1.968	n/a	718.418
692.768	n/a	ConfirmRating	40	Response	n/a	4	n/a	0	722.392
692.79	5.007	ITI	41	Picture	Fixation+	3	12.172	n/a	722.413
697.813	2.006	Cue	41	Picture	Suppress	3	10.15	n/a	727.437
699.819	4.99	Pic	41	Picture	IAPS_31	3	5.159	n/a	729.443
704.809	2.006	Blank	41	Picture	BLANK	3	3.153	n/a	734.433
709.969	n/a	ConfirmRating	41	Response	n/a	3	n/a	7	739.592
709.999	6.002	ITI	42	Picture	Fixation+	2	10.596	n/a	739.622
716.017	2.006	Cue	42	Picture	Enhance	2	8.574	n/a	745.64
718.023	4.99	Pic	42	Picture	IAPS_21	2	3.584	n/a	747.646
723.013	2.006	Blank	42	Picture	BLANK	2	1.578	n/a	752.636
726.596	n/a	ConfirmRating	42	Response	n/a	2	n/a	1	756.22
726.627	4.012	ITI	43	Picture	Fixation+	1	10.259	n/a	756.251
730.656	2.006	Cue	43	Picture	Maintain	1	8.237	n/a	760.279
732.662	4.99	Pic	43	Picture	IAPS_11	1	3.246	n/a	762.285
737.652	2.006	Blank	43	Picture	BLANK	1	1.24	n/a	767.275
740.898	n/a	ConfirmRating	43	Response	n/a	1	n/a	2	770.522
740.918	5.007	ITI	44	Picture	Fixation+	2	10.187	n/a	770.542
745.941	2.006	Cue	44	Picture	Enhance	2	8.165	n/a	775.565
747.947	4.99	Pic	44	Picture	IAPS_22	2	3.175	n/a	777.571
752.938	2.006	Blank	44	Picture	BLANK	2	1.168	n/a	782.561
756.112	n/a	ConfirmRating	44	Response	n/a	2	n/a	3	785.736
756.137	5.007	ITI	45	Picture	Fixation+	4	10.555	n/a	785.761
761.161	2.006	Cue	45	Picture	Maintain	4	8.532	n/a	790.784
763.167	4.99	Pic	45	Picture	IAPS_51	4	3.542	n/a	792.79
768.157	2.006	Blank	45	Picture	BLANK	4	1.536	n/a	797.78
771.699	n/a	ConfirmRating	45	Response	n/a	4	n/a	0	801.322
771.721	4.012	ITI	46	Picture	Fixation+	3	10.682	n/a	801.345
775.75	2.006	Cue	46	Picture	Suppress	3	8.66	n/a	805.373
777.756	4.99	Pic	46	Picture	IAPS_32	3	3.669	n/a	807.379
782.746	2.006	Blank	46	Picture	BLANK	3	1.663	n/a	812.37
786.415	n/a	ConfirmRating	46	Response	n/a	3	n/a	1	816.039
786.443	5.007	ITI	47	Picture	Fixation+	1	10.863	n/a	816.067
791.466	2.006	Cue	47	Picture	Maintain	1	8.841	n/a	821.09
793.473	4.99	Pic	47	Picture	IAPS_12	1	3.85	n/a	823.096
798.463	2.006	Blank	47	Picture	BLANK	1	1.844	n/a	828.086
802.313	n/a	ConfirmRating	47	Response	n/a	1	n/a	1	831.937
802.342	4.012	ITI	48	Picture	Fixation+	3	10.811	n/a	831.966
806.371	2.006	Cue	48	Picture	Suppress	3	8.788	n/a	835.994
808.377	4.99	Pic	48	Picture	IAPS_33	3	3.798	n/a	838.0
813.367	2.006	Blank	48	Picture	BLANK	3	1.792	n/a	842.991
817.165	n/a	ConfirmRating	48	Response	n/a	3	n/a	1	846.788
817.197	5.007	ITI	49	Picture	Fixation+	4	9.591	n/a	846.82
822.22	2.006	Cue	49	Picture	Maintain	4	7.568	n/a	851.844
824.226	4.99	Pic	49	Picture	IAPS_54	4	2.578	n/a	853.85
829.216	2.006	Blank	49	Picture	BLANK	4	0.572	n/a	858.84
831.794	n/a	ConfirmRating	49	Response	n/a	4	n/a	0	861.418
831.819	5.007	ITI	50	Picture	Fixation+	1	10.74	n/a	861.443
836.843	2.006	Cue	50	Picture	Maintain	1	8.718	n/a	866.466
838.849	4.99	Pic	50	Picture	IAPS_13	1	3.728	n/a	868.472
843.839	2.006	Blank	50	Picture	BLANK	1	1.721	n/a	873.462
847.566	n/a	ConfirmRating	50	Response	n/a	1	n/a	1	877.19
847.586	4.012	ITI	51	Picture	Fixation+	2	10.685	n/a	877.209
851.614	2.006	Cue	51	Picture	Enhance	2	8.663	n/a	881.238
853.62	4.99	Pic	51	Picture	IAPS_23	2	3.673	n/a	883.244
858.61	2.006	Blank	51	Picture	BLANK	2	1.667	n/a	888.234
862.283	n/a	ConfirmRating	51	Response	n/a	2	n/a	1	891.907
862.308	5.007	ITI	52	Picture	Fixation+	1	10.61	n/a	891.931
867.331	2.006	Cue	52	Picture	Maintain	1	8.588	n/a	896.954
869.337	4.99	Pic	52	Picture	IAPS_14	1	3.598	n/a	898.96
874.327	2.006	Blank	52	Picture	BLANK	1	1.592	n/a	903.951
877.925	0.017	ConfirmRating	52	Response	n/a	1	-0.017	1	907.548
877.941	5.007	ITI	53	Picture	Fixation+	4	10.153	n/a	907.565
882.965	2.006	Cue	53	Picture	Maintain	4	8.131	n/a	912.588
884.971	4.99	Pic	53	Picture	IAPS_57	4	3.141	n/a	914.594
889.961	2.006	Blank	53	Picture	BLANK	4	1.135	n/a	919.584
893.101	n/a	ConfirmRating	53	Response	n/a	4	n/a	0	922.725
893.127	6.002	ITI	54	Picture	Fixation+	3	11.798	n/a	922.751
899.145	2.006	Cue	54	Picture	Suppress	3	9.776	n/a	928.769
901.151	4.99	Pic	54	Picture	IAPS_34	3	4.785	n/a	930.775
906.142	2.006	Blank	54	Picture	BLANK	3	2.779	n/a	935.765
910.927	n/a	ConfirmRating	54	Response	n/a	3	n/a	1	940.551
910.949	5.007	ITI	55	Picture	Fixation+	2	10.364	n/a	940.573
915.973	2.006	Cue	55	Picture	Enhance	2	8.341	n/a	945.596
917.979	4.99	Pic	55	Picture	IAPS_24	2	3.351	n/a	947.602
922.969	2.006	Blank	55	Picture	BLANK	2	1.345	n/a	952.593
926.32	n/a	ConfirmRating	55	Response	n/a	2	n/a	2	955.943
926.351	5.007	ITI	56	Picture	Fixation+	1	10.779	n/a	955.975
931.375	2.006	Cue	56	Picture	Maintain	1	8.757	n/a	960.998
933.381	4.99	Pic	56	Picture	IAPS_15	1	3.767	n/a	963.004
938.371	2.006	Blank	56	Picture	BLANK	1	1.761	n/a	967.994
942.137	n/a	ConfirmRating	56	Response	n/a	1	n/a	1	971.761
942.167	6.002	ITI	57	Picture	Fixation+	3	10.697	n/a	971.791
948.185	2.006	Cue	57	Picture	Suppress	3	8.675	n/a	977.809
950.191	4.99	Pic	57	Picture	IAPS_35	3	3.685	n/a	979.815
955.182	2.006	Blank	57	Picture	BLANK	3	1.679	n/a	984.805
958.866	n/a	ConfirmRating	57	Response	n/a	3	n/a	6	988.49
958.895	4.012	ITI	58	Picture	Fixation+	4	10.115	n/a	988.519
962.924	2.006	Cue	58	Picture	Maintain	4	8.092	n/a	992.547
964.93	4.99	Pic	58	Picture	IAPS_60	4	3.102	n/a	994.553
969.92	2.006	Blank	58	Picture	BLANK	4	1.096	n/a	999.544
973.022	n/a	ConfirmRating	58	Response	n/a	4	n/a	0	1002.645
973.053	6.002	ITI	59	Picture	Fixation+	2	10.604	n/a	1002.677
979.072	2.006	Cue	59	Picture	Enhance	2	8.581	n/a	1008.695
981.078	4.99	Pic	59	Picture	IAPS_25	2	3.591	n/a	1010.701
986.068	2.006	Blank	59	Picture	BLANK	2	1.585	n/a	1015.691
989.659	n/a	ConfirmRating	59	Response	n/a	2	n/a	1	1019.282
