onset	duration	trial_type	event_type	time_until_response	response_time	trial_number	block_num_within_trial	image_seq_num_within_block	question_seq_num_within_block	image_seq_num	picture_number	condition	question_type	block_type	rating	rating_computed	onset_uncorrected	KDEV_imagefile
0.005	10.014	ITI	Fixation+	102.192	n/a	1	n/a	n/a	n/a	n/a	n/a	n/a	n/a	n/a	n/a	n/a	38.756	n/a
10.035	0.497	happy	Picture	101.678	n/a	1	1	1	n/a	1	46	2	n/a	n/a	n/a	n/a	48.786	AF09HAS.jpg
10.533	0.514	Blank	Blank	101.164	n/a	1	1	1	n/a	1	n/a	2	n/a	n/a	n/a	n/a	49.283	n/a
11.063	0.497	happy	Picture	100.65	n/a	1	1	2	n/a	2	69	2	n/a	n/a	n/a	n/a	49.814	AM10HAS.jpg
11.561	0.514	Blank	Blank	100.136	n/a	1	1	2	n/a	2	n/a	2	n/a	n/a	n/a	n/a	50.311	n/a
12.091	0.497	happy	Picture	99.622	n/a	1	1	3	n/a	3	71	2	n/a	n/a	n/a	n/a	50.842	BM12HAS.jpg
12.589	0.514	Blank	Blank	99.108	n/a	1	1	3	n/a	3	n/a	2	n/a	n/a	n/a	n/a	51.339	n/a
13.119	0.497	happy	Picture	98.594	n/a	1	1	4	n/a	4	51	2	n/a	n/a	n/a	n/a	51.869	AF20HAS.jpg
13.617	0.514	Blank	Blank	98.08	n/a	1	1	4	n/a	4	n/a	2	n/a	n/a	n/a	n/a	52.367	n/a
14.147	0.497	happy	Picture	97.566	n/a	1	1	5	n/a	5	67	2	n/a	n/a	n/a	n/a	52.897	BM08HAS.jpg
14.644	0.514	Blank	Blank	97.053	n/a	1	1	5	n/a	5	n/a	2	n/a	n/a	n/a	n/a	53.395	n/a
15.175	0.497	happy	Picture	96.538	n/a	1	1	6	n/a	6	60	2	n/a	n/a	n/a	n/a	53.925	AF32HAS.jpg
15.672	0.514	Blank	Blank	96.025	n/a	1	1	6	n/a	6	n/a	2	n/a	n/a	n/a	n/a	54.422	n/a
16.203	0.497	happy	Picture	95.511	n/a	1	1	7	n/a	7	42	2	n/a	n/a	n/a	n/a	54.953	AF03HAS.jpg
16.7	0.514	Blank	Blank	94.997	n/a	1	1	7	n/a	7	n/a	2	n/a	n/a	n/a	n/a	55.45	n/a
17.231	0.497	happy	Picture	94.483	n/a	1	1	8	n/a	8	55	2	n/a	n/a	n/a	n/a	55.981	AF25HAS.jpg
17.728	0.514	Blank	Blank	93.969	n/a	1	1	8	n/a	8	n/a	2	n/a	n/a	n/a	n/a	56.478	n/a
18.259	0.497	happy	Picture	93.455	n/a	1	1	9	n/a	9	72	2	n/a	n/a	n/a	n/a	57.009	AM14HAS.jpg
18.756	0.514	Blank	Blank	92.941	n/a	1	1	9	n/a	9	n/a	2	n/a	n/a	n/a	n/a	57.506	n/a
19.286	0.497	happy	Picture	92.427	n/a	1	1	10	n/a	10	63	2	n/a	n/a	n/a	n/a	58.037	AM04HAS.jpg
19.784	0.514	Blank	Blank	91.913	n/a	1	1	10	n/a	10	n/a	2	n/a	n/a	n/a	n/a	58.534	n/a
20.314	0.497	happy	Picture	91.399	n/a	1	1	11	n/a	11	58	2	n/a	n/a	n/a	n/a	59.065	BF29HAS.jpg
20.812	0.514	Blank	Blank	90.885	n/a	1	1	11	n/a	11	n/a	2	n/a	n/a	n/a	n/a	59.562	n/a
21.342	0.497	happy	Picture	90.371	n/a	1	1	12	n/a	12	48	2	n/a	n/a	n/a	n/a	60.092	AF14HAS.jpg
21.84	0.514	Blank	Blank	89.857	n/a	1	1	12	n/a	12	n/a	2	n/a	n/a	n/a	n/a	60.59	n/a
22.37	0.497	happy	Picture	89.343	n/a	1	1	13	n/a	13	66	2	n/a	n/a	n/a	n/a	61.12	BM07HAS.jpg
22.867	0.514	Blank	Blank	88.829	n/a	1	1	13	n/a	13	n/a	2	n/a	n/a	n/a	n/a	61.618	n/a
23.398	0.497	happy	Picture	88.316	n/a	1	1	14	n/a	14	70	2	n/a	n/a	n/a	n/a	62.148	BM11HAS.jpg
23.895	0.514	Blank	Blank	87.802	n/a	1	1	14	n/a	14	n/a	2	n/a	n/a	n/a	n/a	62.645	n/a
24.426	0.497	happy	Picture	87.288	n/a	1	1	15	n/a	15	43	2	n/a	n/a	n/a	n/a	63.176	BF04HAS.jpg
24.923	0.514	Blank	Blank	86.774	n/a	1	1	15	n/a	15	n/a	2	n/a	n/a	n/a	n/a	63.673	n/a
25.454	0.497	happy	Picture	86.26	n/a	1	1	16	n/a	16	49	2	n/a	n/a	n/a	n/a	64.204	AF17HAS.jpg
25.951	0.514	Blank	Blank	85.746	n/a	1	1	16	n/a	16	n/a	2	n/a	n/a	n/a	n/a	64.701	n/a
26.482	0.497	happy	Picture	85.232	n/a	1	1	17	n/a	17	75	2	n/a	n/a	n/a	n/a	65.232	AM23HAS.jpg
26.979	0.514	Blank	Blank	84.718	n/a	1	1	17	n/a	17	n/a	2	n/a	n/a	n/a	n/a	65.729	n/a
27.509	0.497	happy	Picture	84.204	n/a	1	1	18	n/a	18	80	2	n/a	n/a	n/a	n/a	66.26	BM35HAS.jpg
28.007	0.514	Blank	Blank	83.69	n/a	1	1	18	n/a	18	n/a	2	n/a	n/a	n/a	n/a	66.757	n/a
28.537	0.497	happy	Picture	83.176	n/a	1	1	19	n/a	19	76	2	n/a	n/a	n/a	n/a	67.288	BM24HAS.jpg
29.035	0.514	Blank	Blank	82.662	n/a	1	1	19	n/a	19	n/a	2	n/a	n/a	n/a	n/a	67.785	n/a
29.565	0.497	happy	Picture	82.148	n/a	1	1	20	n/a	20	74	2	n/a	n/a	n/a	n/a	68.315	AM22HAS.jpg
30.063	0.514	Blank	Blank	81.634	n/a	1	1	20	n/a	20	n/a	2	n/a	n/a	n/a	n/a	68.813	n/a
30.593	10.014	ITI	Fixation+	71.604	n/a	1	n/a	n/a	n/a	n/a	n/a	n/a	n/a	n/a	n/a	n/a	69.343	n/a
40.623	0.497	neutral	Picture	71.09	n/a	1	2	1	n/a	21	33	1	n/a	n/a	n/a	n/a	79.373	AM21NES.jpg
41.121	0.514	Blank	Blank	70.576	n/a	1	2	1	n/a	21	n/a	1	n/a	n/a	n/a	n/a	79.871	n/a
41.651	0.497	neutral	Picture	70.062	n/a	1	2	2	n/a	22	39	1	n/a	n/a	n/a	n/a	80.401	AM28NES.jpg
42.149	0.514	Blank	Blank	69.548	n/a	1	2	2	n/a	22	n/a	1	n/a	n/a	n/a	n/a	80.899	n/a
42.679	0.497	neutral	Picture	69.035	n/a	1	2	3	n/a	23	25	1	n/a	n/a	n/a	n/a	81.429	BM06NES.jpg
43.176	0.514	Blank	Blank	68.52	n/a	1	2	3	n/a	23	n/a	1	n/a	n/a	n/a	n/a	81.927	n/a
43.707	0.497	neutral	Picture	68.007	n/a	1	2	4	n/a	24	5	1	n/a	n/a	n/a	n/a	82.457	BF07NES.jpg
44.204	0.514	Blank	Blank	67.493	n/a	1	2	4	n/a	24	n/a	1	n/a	n/a	n/a	n/a	82.954	n/a
44.735	0.497	neutral	Picture	66.979	n/a	1	2	5	n/a	25	10	1	n/a	n/a	n/a	n/a	83.485	AF18NES.jpg
45.232	0.514	Blank	Blank	66.465	n/a	1	2	5	n/a	25	n/a	1	n/a	n/a	n/a	n/a	83.982	n/a
45.763	0.497	neutral	Picture	65.951	n/a	1	2	6	n/a	26	34	1	n/a	n/a	n/a	n/a	84.513	AM22NES.jpg
46.26	0.514	Blank	Blank	65.437	n/a	1	2	6	n/a	26	n/a	1	n/a	n/a	n/a	n/a	85.01	n/a
46.791	0.497	neutral	Picture	64.923	n/a	1	2	7	n/a	27	36	1	n/a	n/a	n/a	n/a	85.541	BM24NES.jpg
47.288	0.514	Blank	Blank	64.409	n/a	1	2	7	n/a	27	n/a	1	n/a	n/a	n/a	n/a	86.038	n/a
47.818	0.497	neutral	Picture	63.895	n/a	1	2	8	n/a	28	14	1	n/a	n/a	n/a	n/a	86.569	AF23NES.jpg
48.316	0.514	Blank	Blank	63.381	n/a	1	2	8	n/a	28	n/a	1	n/a	n/a	n/a	n/a	87.066	n/a
48.846	0.497	neutral	Picture	62.867	n/a	1	2	9	n/a	29	9	1	n/a	n/a	n/a	n/a	87.597	AF17NES.jpg
49.344	0.514	Blank	Blank	62.353	n/a	1	2	9	n/a	29	n/a	1	n/a	n/a	n/a	n/a	88.094	n/a
49.874	0.497	neutral	Picture	61.839	n/a	1	2	10	n/a	30	19	1	n/a	n/a	n/a	n/a	88.624	AF31NES.jpg
50.372	0.514	Blank	Blank	61.325	n/a	1	2	10	n/a	30	n/a	1	n/a	n/a	n/a	n/a	89.122	n/a
50.902	0.497	neutral	Picture	60.811	n/a	1	2	11	n/a	31	15	1	n/a	n/a	n/a	n/a	89.652	AF25NES.jpg
51.399	0.514	Blank	Blank	60.297	n/a	1	2	11	n/a	31	n/a	1	n/a	n/a	n/a	n/a	90.15	n/a
51.93	0.497	neutral	Picture	59.784	n/a	1	2	12	n/a	32	22	1	n/a	n/a	n/a	n/a	90.68	BM03NES.jpg
52.427	0.514	Blank	Blank	59.27	n/a	1	2	12	n/a	32	n/a	1	n/a	n/a	n/a	n/a	91.177	n/a
52.958	0.497	neutral	Picture	58.756	n/a	1	2	13	n/a	33	11	1	n/a	n/a	n/a	n/a	91.708	AF20NES.jpg
53.455	0.514	Blank	Blank	58.242	n/a	1	2	13	n/a	33	n/a	1	n/a	n/a	n/a	n/a	92.205	n/a
53.986	0.497	neutral	Picture	57.728	n/a	1	2	14	n/a	34	4	1	n/a	n/a	n/a	n/a	92.736	AF05NES.jpg
54.483	0.514	Blank	Blank	57.214	n/a	1	2	14	n/a	34	n/a	1	n/a	n/a	n/a	n/a	93.233	n/a
55.014	0.497	neutral	Picture	56.7	n/a	1	2	15	n/a	35	17	1	n/a	n/a	n/a	n/a	93.764	BF28NES.jpg
55.511	0.514	Blank	Blank	56.186	n/a	1	2	15	n/a	35	n/a	1	n/a	n/a	n/a	n/a	94.261	n/a
56.041	0.497	neutral	Picture	55.672	n/a	1	2	16	n/a	36	13	1	n/a	n/a	n/a	n/a	94.792	BF22NES.jpg
56.539	0.514	Blank	Blank	55.158	n/a	1	2	16	n/a	36	n/a	1	n/a	n/a	n/a	n/a	95.289	n/a
57.069	0.497	neutral	Picture	54.644	n/a	1	2	17	n/a	37	12	1	n/a	n/a	n/a	n/a	95.82	AF21NES.jpg
57.567	0.514	Blank	Blank	54.13	n/a	1	2	17	n/a	37	n/a	1	n/a	n/a	n/a	n/a	96.317	n/a
58.097	0.497	neutral	Picture	53.616	n/a	1	2	18	n/a	38	24	1	n/a	n/a	n/a	n/a	96.847	BM05NES.jpg
58.595	0.514	Blank	Blank	53.102	n/a	1	2	18	n/a	38	n/a	1	n/a	n/a	n/a	n/a	97.345	n/a
59.125	0.497	neutral	Picture	52.588	n/a	1	2	19	n/a	39	29	1	n/a	n/a	n/a	n/a	97.875	AM10NES.jpg
59.622	0.514	Blank	Blank	52.075	n/a	1	2	19	n/a	39	n/a	1	n/a	n/a	n/a	n/a	98.373	n/a
60.153	0.497	neutral	Picture	51.561	n/a	1	2	20	n/a	40	23	1	n/a	n/a	n/a	n/a	98.903	AM04NES.jpg
60.65	0.514	Blank	Blank	51.047	n/a	1	2	20	n/a	40	n/a	1	n/a	n/a	n/a	n/a	99.4	n/a
61.181	10.014	ITI	Fixation+	41.017	n/a	1	n/a	n/a	n/a	n/a	n/a	n/a	n/a	n/a	n/a	n/a	99.931	n/a
71.211	0.497	happy	Picture	40.502	n/a	1	3	1	n/a	41	62	2	n/a	n/a	n/a	n/a	109.961	BM03HAS.jpg
71.708	0.514	Blank	Blank	39.989	n/a	1	3	1	n/a	41	n/a	2	n/a	n/a	n/a	n/a	110.459	n/a
72.239	0.497	happy	Picture	39.475	n/a	1	3	2	n/a	42	52	2	n/a	n/a	n/a	n/a	110.989	AF21HAS.jpg
72.736	0.514	Blank	Blank	38.961	n/a	1	3	2	n/a	42	n/a	2	n/a	n/a	n/a	n/a	111.486	n/a
73.267	0.497	happy	Picture	38.447	n/a	1	3	3	n/a	43	44	2	n/a	n/a	n/a	n/a	112.017	AF05HAS.jpg
73.764	0.514	Blank	Blank	37.933	n/a	1	3	3	n/a	43	n/a	2	n/a	n/a	n/a	n/a	112.514	n/a
74.294	0.497	happy	Picture	37.419	n/a	1	3	4	n/a	44	53	2	n/a	n/a	n/a	n/a	113.045	BF22HAS.jpg
74.792	0.514	Blank	Blank	36.905	n/a	1	3	4	n/a	44	n/a	2	n/a	n/a	n/a	n/a	113.542	n/a
75.322	0.497	happy	Picture	36.391	n/a	1	3	5	n/a	45	54	2	n/a	n/a	n/a	n/a	114.073	AF23HAS.jpg
75.82	0.514	Blank	Blank	35.877	n/a	1	3	5	n/a	45	n/a	2	n/a	n/a	n/a	n/a	114.57	n/a
76.35	0.497	happy	Picture	35.363	n/a	1	3	6	n/a	46	68	2	n/a	n/a	n/a	n/a	115.1	AM09HAS.jpg
76.848	0.514	Blank	Blank	34.849	n/a	1	3	6	n/a	46	n/a	2	n/a	n/a	n/a	n/a	115.598	n/a
77.378	0.497	happy	Picture	34.335	n/a	1	3	7	n/a	47	64	2	n/a	n/a	n/a	n/a	116.128	BM05HAS.jpg
77.875	0.514	Blank	Blank	33.821	n/a	1	3	7	n/a	47	n/a	2	n/a	n/a	n/a	n/a	116.626	n/a
78.406	0.497	happy	Picture	33.307	n/a	1	3	8	n/a	48	59	2	n/a	n/a	n/a	n/a	117.156	AF31HAS.jpg
78.903	0.514	Blank	Blank	32.793	n/a	1	3	8	n/a	48	n/a	2	n/a	n/a	n/a	n/a	117.654	n/a
79.434	0.497	happy	Picture	32.28	n/a	1	3	9	n/a	49	41	2	n/a	n/a	n/a	n/a	118.184	AF01HAS.jpg
79.931	0.514	Blank	Blank	31.766	n/a	1	3	9	n/a	49	n/a	2	n/a	n/a	n/a	n/a	118.681	n/a
80.462	0.497	happy	Picture	31.252	n/a	1	3	10	n/a	50	73	2	n/a	n/a	n/a	n/a	119.212	AM21HAS.jpg
80.959	0.514	Blank	Blank	30.738	n/a	1	3	10	n/a	50	n/a	2	n/a	n/a	n/a	n/a	119.709	n/a
81.49	0.497	happy	Picture	30.224	n/a	1	3	11	n/a	51	65	2	n/a	n/a	n/a	n/a	120.24	BM06HAS.jpg
81.987	0.514	Blank	Blank	29.71	n/a	1	3	11	n/a	51	n/a	2	n/a	n/a	n/a	n/a	120.737	n/a
82.518	0.497	happy	Picture	29.196	n/a	1	3	12	n/a	52	56	2	n/a	n/a	n/a	n/a	121.268	AF26HAS.jpg
83.015	0.514	Blank	Blank	28.682	n/a	1	3	12	n/a	52	n/a	2	n/a	n/a	n/a	n/a	121.765	n/a
83.546	0.497	happy	Picture	28.168	n/a	1	3	13	n/a	53	45	2	n/a	n/a	n/a	n/a	122.296	BF07HAS.jpg
84.043	0.514	Blank	Blank	27.654	n/a	1	3	13	n/a	53	n/a	2	n/a	n/a	n/a	n/a	122.793	n/a
84.573	0.497	happy	Picture	27.14	n/a	1	3	14	n/a	54	78	2	n/a	n/a	n/a	n/a	123.323	BM26HAS.jpg
85.071	0.514	Blank	Blank	26.626	n/a	1	3	14	n/a	54	n/a	2	n/a	n/a	n/a	n/a	123.821	n/a
85.601	0.497	happy	Picture	26.112	n/a	1	3	15	n/a	55	50	2	n/a	n/a	n/a	n/a	124.351	AF18HAS.jpg
86.099	0.514	Blank	Blank	25.598	n/a	1	3	15	n/a	55	n/a	2	n/a	n/a	n/a	n/a	124.849	n/a
86.629	0.497	happy	Picture	25.084	n/a	1	3	16	n/a	56	47	2	n/a	n/a	n/a	n/a	125.379	BF11HAS.jpg
87.126	0.514	Blank	Blank	24.57	n/a	1	3	16	n/a	56	n/a	2	n/a	n/a	n/a	n/a	125.877	n/a
87.657	0.497	happy	Picture	24.056	n/a	1	3	17	n/a	57	77	2	n/a	n/a	n/a	n/a	126.407	BM25HAS.jpg
88.154	0.514	Blank	Blank	23.543	n/a	1	3	17	n/a	57	n/a	2	n/a	n/a	n/a	n/a	126.904	n/a
88.685	0.497	happy	Picture	23.029	n/a	1	3	18	n/a	58	57	2	n/a	n/a	n/a	n/a	127.435	BF28HAS.jpg
89.182	0.514	Blank	Blank	22.515	n/a	1	3	18	n/a	58	n/a	2	n/a	n/a	n/a	n/a	127.932	n/a
89.713	0.497	happy	Picture	22.001	n/a	1	3	19	n/a	59	61	2	n/a	n/a	n/a	n/a	128.463	AM01HAS.jpg
90.21	0.514	Blank	Blank	21.487	n/a	1	3	19	n/a	59	n/a	2	n/a	n/a	n/a	n/a	128.96	n/a
90.741	0.497	happy	Picture	20.973	n/a	1	3	20	n/a	60	79	2	n/a	n/a	n/a	n/a	129.491	BM28HAS.jpg
91.238	0.514	Blank	Blank	20.459	n/a	1	3	20	n/a	60	n/a	2	n/a	n/a	n/a	n/a	129.988	n/a
91.768	10.014	ITI	Fixation+	10.429	n/a	1	n/a	n/a	n/a	n/a	n/a	n/a	n/a	n/a	n/a	n/a	130.519	n/a
112.211	n/a	ConfirmRating	Rate	n/a	10.428	1	n/a	n/a	0	n/a	n/a	n/a	2	Happy	46	51	150.961	n/a
116.475	n/a	ConfirmRating	Rate	n/a	4.244	1	n/a	n/a	1	n/a	n/a	n/a	3	Happy	50	50	155.225	n/a
116.504	10.014	ITI	Fixation+	102.301	n/a	2	n/a	n/a	n/a	n/a	n/a	n/a	n/a	n/a	n/a	n/a	155.254	n/a
126.534	0.497	angry	Picture	101.787	n/a	2	4	1	n/a	61	119	3	n/a	n/a	n/a	n/a	165.284	BM28ANS.jpg
127.031	0.514	Blank	Blank	101.273	n/a	2	4	1	n/a	61	n/a	3	n/a	n/a	n/a	n/a	165.782	n/a
127.562	0.497	angry	Picture	100.76	n/a	2	4	2	n/a	62	100	3	n/a	n/a	n/a	n/a	166.312	AF32ANS.jpg
128.059	0.514	Blank	Blank	100.245	n/a	2	4	2	n/a	62	n/a	3	n/a	n/a	n/a	n/a	166.809	n/a
128.59	0.497	angry	Picture	99.732	n/a	2	4	3	n/a	63	118	3	n/a	n/a	n/a	n/a	167.34	BM26ANS.jpg
129.087	0.514	Blank	Blank	99.218	n/a	2	4	3	n/a	63	n/a	3	n/a	n/a	n/a	n/a	167.837	n/a
129.618	0.497	angry	Picture	98.704	n/a	2	4	4	n/a	64	89	3	n/a	n/a	n/a	n/a	168.368	AF17ANS.jpg
130.115	0.514	Blank	Blank	98.19	n/a	2	4	4	n/a	64	n/a	3	n/a	n/a	n/a	n/a	168.865	n/a
130.645	0.497	angry	Picture	97.676	n/a	2	4	5	n/a	65	116	3	n/a	n/a	n/a	n/a	169.396	BM24ANS.jpg
131.143	0.514	Blank	Blank	97.162	n/a	2	4	5	n/a	65	n/a	3	n/a	n/a	n/a	n/a	169.893	n/a
131.673	0.497	angry	Picture	96.648	n/a	2	4	6	n/a	66	105	3	n/a	n/a	n/a	n/a	170.424	BM06ANS.jpg
132.171	0.514	Blank	Blank	96.134	n/a	2	4	6	n/a	66	n/a	3	n/a	n/a	n/a	n/a	170.921	n/a
132.701	0.497	angry	Picture	95.62	n/a	2	4	7	n/a	67	106	3	n/a	n/a	n/a	n/a	171.452	AM07ANS.jpg
133.199	0.514	Blank	Blank	95.106	n/a	2	4	7	n/a	67	n/a	3	n/a	n/a	n/a	n/a	171.949	n/a
133.729	0.497	angry	Picture	94.592	n/a	2	4	8	n/a	68	94	3	n/a	n/a	n/a	n/a	172.479	AF23ANS.jpg
134.226	0.514	Blank	Blank	94.078	n/a	2	4	8	n/a	68	n/a	3	n/a	n/a	n/a	n/a	172.977	n/a
134.757	0.497	angry	Picture	93.564	n/a	2	4	9	n/a	69	117	3	n/a	n/a	n/a	n/a	173.507	BM25ANS.jpg
135.254	0.514	Blank	Blank	93.05	n/a	2	4	9	n/a	69	n/a	3	n/a	n/a	n/a	n/a	174.005	n/a
135.785	0.497	angry	Picture	92.536	n/a	2	4	10	n/a	70	90	3	n/a	n/a	n/a	n/a	174.535	AF18ANS.jpg
136.282	0.514	Blank	Blank	92.022	n/a	2	4	10	n/a	70	n/a	3	n/a	n/a	n/a	n/a	175.032	n/a
136.813	0.497	angry	Picture	91.509	n/a	2	4	11	n/a	71	83	3	n/a	n/a	n/a	n/a	175.563	BF04ANS.jpg
137.31	0.514	Blank	Blank	90.995	n/a	2	4	11	n/a	71	n/a	3	n/a	n/a	n/a	n/a	176.06	n/a
137.841	0.497	angry	Picture	90.481	n/a	2	4	12	n/a	72	112	3	n/a	n/a	n/a	n/a	176.591	AM14ANS.jpg
138.338	0.514	Blank	Blank	89.967	n/a	2	4	12	n/a	72	n/a	3	n/a	n/a	n/a	n/a	177.088	n/a
138.868	0.497	angry	Picture	89.453	n/a	2	4	13	n/a	73	102	3	n/a	n/a	n/a	n/a	177.619	BM03ANS.jpg
139.366	0.514	Blank	Blank	88.939	n/a	2	4	13	n/a	73	n/a	3	n/a	n/a	n/a	n/a	178.116	n/a
139.896	0.497	angry	Picture	88.425	n/a	2	4	14	n/a	74	95	3	n/a	n/a	n/a	n/a	178.647	AF25ANS.jpg
140.394	0.514	Blank	Blank	87.911	n/a	2	4	14	n/a	74	n/a	3	n/a	n/a	n/a	n/a	179.144	n/a
140.924	0.497	angry	Picture	87.397	n/a	2	4	15	n/a	75	113	3	n/a	n/a	n/a	n/a	179.674	AM21ANS.jpg
141.422	0.514	Blank	Blank	86.883	n/a	2	4	15	n/a	75	n/a	3	n/a	n/a	n/a	n/a	180.172	n/a
141.952	0.497	angry	Picture	86.369	n/a	2	4	16	n/a	76	88	3	n/a	n/a	n/a	n/a	180.702	AF14ANS.jpg
142.45	0.514	Blank	Blank	85.855	n/a	2	4	16	n/a	76	n/a	3	n/a	n/a	n/a	n/a	181.2	n/a
142.98	0.497	angry	Picture	85.341	n/a	2	4	17	n/a	77	93	3	n/a	n/a	n/a	n/a	181.73	BF22ANS.jpg
143.477	0.514	Blank	Blank	84.827	n/a	2	4	17	n/a	77	n/a	3	n/a	n/a	n/a	n/a	182.228	n/a
144.008	0.497	angry	Picture	84.313	n/a	2	4	18	n/a	78	86	3	n/a	n/a	n/a	n/a	182.758	AF09ANS.jpg
144.505	0.514	Blank	Blank	83.799	n/a	2	4	18	n/a	78	n/a	3	n/a	n/a	n/a	n/a	183.256	n/a
145.036	0.497	angry	Picture	83.285	n/a	2	4	19	n/a	79	92	3	n/a	n/a	n/a	n/a	183.786	AF21ANS.jpg
145.533	0.514	Blank	Blank	82.772	n/a	2	4	19	n/a	79	n/a	3	n/a	n/a	n/a	n/a	184.283	n/a
146.064	0.497	angry	Picture	82.258	n/a	2	4	20	n/a	80	84	3	n/a	n/a	n/a	n/a	184.814	AF05ANS.jpg
146.561	0.514	Blank	Blank	81.744	n/a	2	4	20	n/a	80	n/a	3	n/a	n/a	n/a	n/a	185.311	n/a
147.092	10.014	ITI	Fixation+	71.714	n/a	2	n/a	n/a	n/a	n/a	n/a	n/a	n/a	n/a	n/a	n/a	185.842	n/a
157.122	0.497	neutral	Picture	71.2	n/a	2	5	1	n/a	81	4	1	n/a	n/a	n/a	n/a	195.872	AF05NES.jpg
157.619	0.514	Blank	Blank	70.686	n/a	2	5	1	n/a	81	n/a	1	n/a	n/a	n/a	n/a	196.369	n/a
158.15	0.497	neutral	Picture	70.172	n/a	2	5	2	n/a	82	14	1	n/a	n/a	n/a	n/a	196.9	AF23NES.jpg
158.647	0.514	Blank	Blank	69.658	n/a	2	5	2	n/a	82	n/a	1	n/a	n/a	n/a	n/a	197.397	n/a
159.177	0.497	neutral	Picture	69.144	n/a	2	5	3	n/a	83	19	1	n/a	n/a	n/a	n/a	197.928	AF31NES.jpg
159.675	0.514	Blank	Blank	68.63	n/a	2	5	3	n/a	83	n/a	1	n/a	n/a	n/a	n/a	198.425	n/a
160.205	0.497	neutral	Picture	68.116	n/a	2	5	4	n/a	84	8	1	n/a	n/a	n/a	n/a	198.956	AF14NES.jpg
160.703	0.514	Blank	Blank	67.602	n/a	2	5	4	n/a	84	n/a	1	n/a	n/a	n/a	n/a	199.453	n/a
161.233	0.497	neutral	Picture	67.088	n/a	2	5	5	n/a	85	25	1	n/a	n/a	n/a	n/a	199.983	BM06NES.jpg
161.731	0.514	Blank	Blank	66.574	n/a	2	5	5	n/a	85	n/a	1	n/a	n/a	n/a	n/a	200.481	n/a
162.261	0.497	neutral	Picture	66.06	n/a	2	5	6	n/a	86	9	1	n/a	n/a	n/a	n/a	201.011	AF17NES.jpg
162.758	0.514	Blank	Blank	65.546	n/a	2	5	6	n/a	86	n/a	1	n/a	n/a	n/a	n/a	201.509	n/a
163.289	0.497	neutral	Picture	65.032	n/a	2	5	7	n/a	87	2	1	n/a	n/a	n/a	n/a	202.039	AF03NES.jpg
163.786	0.514	Blank	Blank	64.518	n/a	2	5	7	n/a	87	n/a	1	n/a	n/a	n/a	n/a	202.536	n/a
164.317	0.497	neutral	Picture	64.004	n/a	2	5	8	n/a	88	17	1	n/a	n/a	n/a	n/a	203.067	BF28NES.jpg
164.814	0.514	Blank	Blank	63.491	n/a	2	5	8	n/a	88	n/a	1	n/a	n/a	n/a	n/a	203.564	n/a
165.345	0.497	neutral	Picture	62.977	n/a	2	5	9	n/a	89	6	1	n/a	n/a	n/a	n/a	204.095	AF09NES.jpg
165.842	0.514	Blank	Blank	62.463	n/a	2	5	9	n/a	89	n/a	1	n/a	n/a	n/a	n/a	204.592	n/a
166.373	0.497	neutral	Picture	61.949	n/a	2	5	10	n/a	90	12	1	n/a	n/a	n/a	n/a	205.123	AF21NES.jpg
166.87	0.514	Blank	Blank	61.435	n/a	2	5	10	n/a	90	n/a	1	n/a	n/a	n/a	n/a	205.62	n/a
167.4	0.497	neutral	Picture	60.921	n/a	2	5	11	n/a	91	24	1	n/a	n/a	n/a	n/a	206.151	BM05NES.jpg
167.898	0.514	Blank	Blank	60.407	n/a	2	5	11	n/a	91	n/a	1	n/a	n/a	n/a	n/a	206.648	n/a
168.428	0.497	neutral	Picture	59.893	n/a	2	5	12	n/a	92	34	1	n/a	n/a	n/a	n/a	207.179	AM22NES.jpg
168.926	0.514	Blank	Blank	59.379	n/a	2	5	12	n/a	92	n/a	1	n/a	n/a	n/a	n/a	207.676	n/a
169.456	0.497	neutral	Picture	58.865	n/a	2	5	13	n/a	93	23	1	n/a	n/a	n/a	n/a	208.206	AM04NES.jpg
169.954	0.514	Blank	Blank	58.351	n/a	2	5	13	n/a	93	n/a	1	n/a	n/a	n/a	n/a	208.704	n/a
170.484	0.497	neutral	Picture	57.837	n/a	2	5	14	n/a	94	15	1	n/a	n/a	n/a	n/a	209.234	AF25NES.jpg
170.981	0.514	Blank	Blank	57.323	n/a	2	5	14	n/a	94	n/a	1	n/a	n/a	n/a	n/a	209.732	n/a
171.512	0.497	neutral	Picture	56.809	n/a	2	5	15	n/a	95	37	1	n/a	n/a	n/a	n/a	210.262	BM25NES.jpg
172.009	0.514	Blank	Blank	56.295	n/a	2	5	15	n/a	95	n/a	1	n/a	n/a	n/a	n/a	210.76	n/a
172.54	0.497	neutral	Picture	55.781	n/a	2	5	16	n/a	96	32	1	n/a	n/a	n/a	n/a	211.29	AM14NES.jpg
173.037	0.514	Blank	Blank	55.267	n/a	2	5	16	n/a	96	n/a	1	n/a	n/a	n/a	n/a	211.787	n/a
173.568	0.497	neutral	Picture	54.754	n/a	2	5	17	n/a	97	3	1	n/a	n/a	n/a	n/a	212.318	BF04NES.jpg
174.065	0.514	Blank	Blank	54.24	n/a	2	5	17	n/a	97	n/a	1	n/a	n/a	n/a	n/a	212.815	n/a
174.596	0.497	neutral	Picture	53.726	n/a	2	5	18	n/a	98	16	1	n/a	n/a	n/a	n/a	213.346	AF26NES.jpg
175.093	0.514	Blank	Blank	53.212	n/a	2	5	18	n/a	98	n/a	1	n/a	n/a	n/a	n/a	213.843	n/a
175.624	0.497	neutral	Picture	52.698	n/a	2	5	19	n/a	99	27	1	n/a	n/a	n/a	n/a	214.374	BM08NES.jpg
176.121	0.514	Blank	Blank	52.184	n/a	2	5	19	n/a	99	n/a	1	n/a	n/a	n/a	n/a	214.871	n/a
176.651	0.497	neutral	Picture	51.67	n/a	2	5	20	n/a	100	28	1	n/a	n/a	n/a	n/a	215.402	AM09NES.jpg
177.149	0.514	Blank	Blank	51.156	n/a	2	5	20	n/a	100	n/a	1	n/a	n/a	n/a	n/a	215.899	n/a
177.679	10.014	ITI	Fixation+	41.126	n/a	2	n/a	n/a	n/a	n/a	n/a	n/a	n/a	n/a	n/a	n/a	216.429	n/a
187.709	0.498	angry	Picture	40.612	n/a	2	6	1	n/a	101	81	3	n/a	n/a	n/a	n/a	226.459	AF01ANS.jpg
188.207	0.514	Blank	Blank	40.098	n/a	2	6	1	n/a	101	n/a	3	n/a	n/a	n/a	n/a	226.957	n/a
188.737	0.497	angry	Picture	39.584	n/a	2	6	2	n/a	102	120	3	n/a	n/a	n/a	n/a	227.488	AM35ANS.jpg
189.235	0.514	Blank	Blank	39.07	n/a	2	6	2	n/a	102	n/a	3	n/a	n/a	n/a	n/a	227.985	n/a
189.765	0.497	angry	Picture	38.556	n/a	2	6	3	n/a	103	114	3	n/a	n/a	n/a	n/a	228.515	AM22ANS.jpg
190.262	0.514	Blank	Blank	38.042	n/a	2	6	3	n/a	103	n/a	3	n/a	n/a	n/a	n/a	229.013	n/a
190.793	0.497	angry	Picture	37.528	n/a	2	6	4	n/a	104	109	3	n/a	n/a	n/a	n/a	229.543	AM10ANS.jpg
191.29	0.514	Blank	Blank	37.014	n/a	2	6	4	n/a	104	n/a	3	n/a	n/a	n/a	n/a	230.041	n/a
191.821	0.497	angry	Picture	36.5	n/a	2	6	5	n/a	105	96	3	n/a	n/a	n/a	n/a	230.571	AF26ANS.jpg
192.318	0.514	Blank	Blank	35.986	n/a	2	6	5	n/a	105	n/a	3	n/a	n/a	n/a	n/a	231.068	n/a
192.849	0.497	angry	Picture	35.473	n/a	2	6	6	n/a	106	82	3	n/a	n/a	n/a	n/a	231.599	AF03ANS.jpg
193.346	0.514	Blank	Blank	34.959	n/a	2	6	6	n/a	106	n/a	3	n/a	n/a	n/a	n/a	232.096	n/a
193.877	0.497	angry	Picture	34.445	n/a	2	6	7	n/a	107	97	3	n/a	n/a	n/a	n/a	232.627	BF28ANS.jpg
194.374	0.514	Blank	Blank	33.931	n/a	2	6	7	n/a	107	n/a	3	n/a	n/a	n/a	n/a	233.124	n/a
194.904	0.497	angry	Picture	33.417	n/a	2	6	8	n/a	108	115	3	n/a	n/a	n/a	n/a	233.655	AM23ANS.jpg
195.402	0.514	Blank	Blank	32.903	n/a	2	6	8	n/a	108	n/a	3	n/a	n/a	n/a	n/a	234.152	n/a
195.932	0.497	angry	Picture	32.389	n/a	2	6	9	n/a	109	91	3	n/a	n/a	n/a	n/a	234.683	AF20ANS.jpg
196.43	0.514	Blank	Blank	31.875	n/a	2	6	9	n/a	109	n/a	3	n/a	n/a	n/a	n/a	235.18	n/a
196.96	0.497	angry	Picture	31.361	n/a	2	6	10	n/a	110	87	3	n/a	n/a	n/a	n/a	235.71	BF11ANS.jpg
197.458	0.514	Blank	Blank	30.847	n/a	2	6	10	n/a	110	n/a	3	n/a	n/a	n/a	n/a	236.208	n/a
197.988	0.497	angry	Picture	30.333	n/a	2	6	11	n/a	111	85	3	n/a	n/a	n/a	n/a	236.738	BF07ANS.jpg
198.486	0.514	Blank	Blank	29.819	n/a	2	6	11	n/a	111	n/a	3	n/a	n/a	n/a	n/a	237.236	n/a
199.016	0.497	angry	Picture	29.305	n/a	2	6	12	n/a	112	110	3	n/a	n/a	n/a	n/a	237.766	AM11ANS.jpg
199.513	0.514	Blank	Blank	28.791	n/a	2	6	12	n/a	112	n/a	3	n/a	n/a	n/a	n/a	238.264	n/a
200.044	0.497	angry	Picture	28.277	n/a	2	6	13	n/a	113	111	3	n/a	n/a	n/a	n/a	238.794	BM12ANS.jpg
200.541	0.514	Blank	Blank	27.763	n/a	2	6	13	n/a	113	n/a	3	n/a	n/a	n/a	n/a	239.292	n/a
201.072	0.497	angry	Picture	27.249	n/a	2	6	14	n/a	114	103	3	n/a	n/a	n/a	n/a	239.822	AM04ANS.jpg
201.569	0.514	Blank	Blank	26.736	n/a	2	6	14	n/a	114	n/a	3	n/a	n/a	n/a	n/a	240.319	n/a
202.1	0.497	angry	Picture	26.222	n/a	2	6	15	n/a	115	101	3	n/a	n/a	n/a	n/a	240.85	AM01ANS.jpg
202.597	0.514	Blank	Blank	25.708	n/a	2	6	15	n/a	115	n/a	3	n/a	n/a	n/a	n/a	241.347	n/a
203.128	0.497	angry	Picture	25.194	n/a	2	6	16	n/a	116	104	3	n/a	n/a	n/a	n/a	241.878	BM05ANS.jpg
203.625	0.514	Blank	Blank	24.68	n/a	2	6	16	n/a	116	n/a	3	n/a	n/a	n/a	n/a	242.375	n/a
204.155	0.497	angry	Picture	24.166	n/a	2	6	17	n/a	117	107	3	n/a	n/a	n/a	n/a	242.906	BM08ANS.jpg
204.653	0.514	Blank	Blank	23.652	n/a	2	6	17	n/a	117	n/a	3	n/a	n/a	n/a	n/a	243.403	n/a
205.183	0.497	angry	Picture	23.138	n/a	2	6	18	n/a	118	98	3	n/a	n/a	n/a	n/a	243.934	BF29ANS.jpg
205.681	0.514	Blank	Blank	22.624	n/a	2	6	18	n/a	118	n/a	3	n/a	n/a	n/a	n/a	244.431	n/a
206.211	0.497	angry	Picture	22.11	n/a	2	6	19	n/a	119	99	3	n/a	n/a	n/a	n/a	244.961	AF31ANS.jpg
206.709	0.514	Blank	Blank	21.596	n/a	2	6	19	n/a	119	n/a	3	n/a	n/a	n/a	n/a	245.459	n/a
207.239	0.497	angry	Picture	21.082	n/a	2	6	20	n/a	120	108	3	n/a	n/a	n/a	n/a	245.989	AM09ANS.jpg
207.736	0.514	Blank	Blank	20.568	n/a	2	6	20	n/a	120	n/a	3	n/a	n/a	n/a	n/a	246.487	n/a
208.267	10.014	ITI	Fixation+	10.538	n/a	2	n/a	n/a	n/a	n/a	n/a	n/a	n/a	n/a	n/a	n/a	247.017	n/a
228.819	n/a	ConfirmRating	Rate	n/a	10.527	2	n/a	n/a	0	n/a	n/a	n/a	2	Angry	38	49	267.569	n/a
238.5	n/a	ConfirmRating	Rate	n/a	9.665	2	n/a	n/a	1	n/a	n/a	n/a	3	Angry	18	49	277.251	n/a
238.523	15.004	Rest	Picture	n/a	n/a	n/a	n/a	n/a	n/a	n/a	n/a	n/a	0	n/a	0	0	277.273	n/a
253.543	10.014	ITI	Fixation+	95.171	n/a	3	n/a	n/a	n/a	n/a	n/a	n/a	n/a	n/a	n/a	n/a	292.294	n/a
263.573	0.497	happy	Picture	94.658	n/a	3	7	1	n/a	1	46	2	n/a	n/a	n/a	n/a	302.324	AF09HAS.jpg
264.071	0.514	Blank	Blank	94.143	n/a	3	7	1	n/a	1	n/a	2	n/a	n/a	n/a	n/a	302.821	n/a
264.601	0.497	happy	Picture	93.63	n/a	3	7	2	n/a	2	69	2	n/a	n/a	n/a	n/a	303.351	AM10HAS.jpg
265.099	0.514	Blank	Blank	93.116	n/a	3	7	2	n/a	2	n/a	2	n/a	n/a	n/a	n/a	303.849	n/a
265.629	0.497	happy	Picture	92.602	n/a	3	7	3	n/a	3	71	2	n/a	n/a	n/a	n/a	304.379	BM12HAS.jpg
266.127	0.514	Blank	Blank	92.088	n/a	3	7	3	n/a	3	n/a	2	n/a	n/a	n/a	n/a	304.877	n/a
266.657	0.497	happy	Picture	91.574	n/a	3	7	4	n/a	4	51	2	n/a	n/a	n/a	n/a	305.407	AF20HAS.jpg
267.154	0.514	Blank	Blank	91.06	n/a	3	7	4	n/a	4	n/a	2	n/a	n/a	n/a	n/a	305.905	n/a
267.685	0.497	happy	Picture	90.546	n/a	3	7	5	n/a	5	67	2	n/a	n/a	n/a	n/a	306.435	BM08HAS.jpg
268.182	0.514	Blank	Blank	90.032	n/a	3	7	5	n/a	5	n/a	2	n/a	n/a	n/a	n/a	306.933	n/a
268.713	0.497	happy	Picture	89.518	n/a	3	7	6	n/a	6	60	2	n/a	n/a	n/a	n/a	307.463	AF32HAS.jpg
269.21	0.514	Blank	Blank	89.004	n/a	3	7	6	n/a	6	n/a	2	n/a	n/a	n/a	n/a	307.96	n/a
269.741	0.497	happy	Picture	88.49	n/a	3	7	7	n/a	7	42	2	n/a	n/a	n/a	n/a	308.491	AF03HAS.jpg
270.238	0.514	Blank	Blank	87.976	n/a	3	7	7	n/a	7	n/a	2	n/a	n/a	n/a	n/a	308.988	n/a
270.769	0.497	happy	Picture	87.462	n/a	3	7	8	n/a	8	55	2	n/a	n/a	n/a	n/a	309.519	AF25HAS.jpg
271.266	0.514	Blank	Blank	86.948	n/a	3	7	8	n/a	8	n/a	2	n/a	n/a	n/a	n/a	310.016	n/a
271.796	0.497	happy	Picture	86.434	n/a	3	7	9	n/a	9	72	2	n/a	n/a	n/a	n/a	310.547	AM14HAS.jpg
272.294	0.514	Blank	Blank	85.921	n/a	3	7	9	n/a	9	n/a	2	n/a	n/a	n/a	n/a	311.044	n/a
272.824	0.497	happy	Picture	85.407	n/a	3	7	10	n/a	10	63	2	n/a	n/a	n/a	n/a	311.575	AM04HAS.jpg
273.322	0.514	Blank	Blank	84.893	n/a	3	7	10	n/a	10	n/a	2	n/a	n/a	n/a	n/a	312.072	n/a
273.852	0.497	happy	Picture	84.379	n/a	3	7	11	n/a	11	58	2	n/a	n/a	n/a	n/a	312.602	BF29HAS.jpg
274.35	0.514	Blank	Blank	83.865	n/a	3	7	11	n/a	11	n/a	2	n/a	n/a	n/a	n/a	313.1	n/a
274.88	0.497	happy	Picture	83.351	n/a	3	7	12	n/a	12	48	2	n/a	n/a	n/a	n/a	313.63	AF14HAS.jpg
275.377	0.514	Blank	Blank	82.837	n/a	3	7	12	n/a	12	n/a	2	n/a	n/a	n/a	n/a	314.128	n/a
275.908	0.497	happy	Picture	82.323	n/a	3	7	13	n/a	13	66	2	n/a	n/a	n/a	n/a	314.658	BM07HAS.jpg
276.405	0.514	Blank	Blank	81.809	n/a	3	7	13	n/a	13	n/a	2	n/a	n/a	n/a	n/a	315.156	n/a
276.936	0.497	happy	Picture	81.295	n/a	3	7	14	n/a	14	70	2	n/a	n/a	n/a	n/a	315.686	BM11HAS.jpg
277.433	0.514	Blank	Blank	80.781	n/a	3	7	14	n/a	14	n/a	2	n/a	n/a	n/a	n/a	316.183	n/a
277.964	0.497	happy	Picture	80.267	n/a	3	7	15	n/a	15	43	2	n/a	n/a	n/a	n/a	316.714	BF04HAS.jpg
278.461	0.514	Blank	Blank	79.753	n/a	3	7	15	n/a	15	n/a	2	n/a	n/a	n/a	n/a	317.211	n/a
278.992	0.497	happy	Picture	79.239	n/a	3	7	16	n/a	16	49	2	n/a	n/a	n/a	n/a	317.742	AF17HAS.jpg
279.489	0.514	Blank	Blank	78.725	n/a	3	7	16	n/a	16	n/a	2	n/a	n/a	n/a	n/a	318.239	n/a
280.019	0.497	happy	Picture	78.211	n/a	3	7	17	n/a	17	75	2	n/a	n/a	n/a	n/a	318.77	AM23HAS.jpg
280.517	0.514	Blank	Blank	77.697	n/a	3	7	17	n/a	17	n/a	2	n/a	n/a	n/a	n/a	319.267	n/a
281.047	0.497	happy	Picture	77.183	n/a	3	7	18	n/a	18	80	2	n/a	n/a	n/a	n/a	319.798	BM35HAS.jpg
281.545	0.514	Blank	Blank	76.67	n/a	3	7	18	n/a	18	n/a	2	n/a	n/a	n/a	n/a	320.295	n/a
282.075	0.497	happy	Picture	76.156	n/a	3	7	19	n/a	19	76	2	n/a	n/a	n/a	n/a	320.825	BM24HAS.jpg
282.573	0.514	Blank	Blank	75.642	n/a	3	7	19	n/a	19	n/a	2	n/a	n/a	n/a	n/a	321.323	n/a
283.103	0.497	happy	Picture	75.128	n/a	3	7	20	n/a	20	74	2	n/a	n/a	n/a	n/a	321.853	AM22HAS.jpg
283.601	0.514	Blank	Blank	74.614	n/a	3	7	20	n/a	20	n/a	2	n/a	n/a	n/a	n/a	322.351	n/a
284.131	10.014	ITI	Fixation+	64.584	n/a	3	n/a	n/a	n/a	n/a	n/a	n/a	n/a	n/a	n/a	n/a	322.881	n/a
294.161	0.497	neutral	Picture	64.07	n/a	3	8	1	n/a	21	33	1	n/a	n/a	n/a	n/a	332.911	AM21NES.jpg
294.659	0.514	Blank	Blank	63.556	n/a	3	8	1	n/a	21	n/a	1	n/a	n/a	n/a	n/a	333.409	n/a
295.189	0.497	neutral	Picture	63.042	n/a	3	8	2	n/a	22	39	1	n/a	n/a	n/a	n/a	333.939	AM28NES.jpg
295.686	0.514	Blank	Blank	62.528	n/a	3	8	2	n/a	22	n/a	1	n/a	n/a	n/a	n/a	334.437	n/a
296.217	0.497	neutral	Picture	62.014	n/a	3	8	3	n/a	23	25	1	n/a	n/a	n/a	n/a	334.967	BM06NES.jpg
296.714	0.514	Blank	Blank	61.5	n/a	3	8	3	n/a	23	n/a	1	n/a	n/a	n/a	n/a	335.464	n/a
297.245	0.497	neutral	Picture	60.986	n/a	3	8	4	n/a	24	5	1	n/a	n/a	n/a	n/a	335.995	BF07NES.jpg
297.742	0.514	Blank	Blank	60.472	n/a	3	8	4	n/a	24	n/a	1	n/a	n/a	n/a	n/a	336.492	n/a
298.273	0.497	neutral	Picture	59.958	n/a	3	8	5	n/a	25	10	1	n/a	n/a	n/a	n/a	337.023	AF18NES.jpg
298.77	0.514	Blank	Blank	59.444	n/a	3	8	5	n/a	25	n/a	1	n/a	n/a	n/a	n/a	337.52	n/a
299.3	0.497	neutral	Picture	58.93	n/a	3	8	6	n/a	26	34	1	n/a	n/a	n/a	n/a	338.051	AM22NES.jpg
299.798	0.514	Blank	Blank	58.417	n/a	3	8	6	n/a	26	n/a	1	n/a	n/a	n/a	n/a	338.548	n/a
300.328	0.497	neutral	Picture	57.902	n/a	3	8	7	n/a	27	36	1	n/a	n/a	n/a	n/a	339.079	BM24NES.jpg
300.826	0.514	Blank	Blank	57.389	n/a	3	8	7	n/a	27	n/a	1	n/a	n/a	n/a	n/a	339.576	n/a
301.356	0.497	neutral	Picture	56.875	n/a	3	8	8	n/a	28	14	1	n/a	n/a	n/a	n/a	340.106	AF23NES.jpg
301.854	0.514	Blank	Blank	56.361	n/a	3	8	8	n/a	28	n/a	1	n/a	n/a	n/a	n/a	340.604	n/a
302.384	0.497	neutral	Picture	55.847	n/a	3	8	9	n/a	29	9	1	n/a	n/a	n/a	n/a	341.134	AF17NES.jpg
302.882	0.514	Blank	Blank	55.333	n/a	3	8	9	n/a	29	n/a	1	n/a	n/a	n/a	n/a	341.632	n/a
303.412	0.497	neutral	Picture	54.819	n/a	3	8	10	n/a	30	19	1	n/a	n/a	n/a	n/a	342.162	AF31NES.jpg
303.909	0.514	Blank	Blank	54.305	n/a	3	8	10	n/a	30	n/a	1	n/a	n/a	n/a	n/a	342.66	n/a
304.44	0.497	neutral	Picture	53.791	n/a	3	8	11	n/a	31	15	1	n/a	n/a	n/a	n/a	343.19	AF25NES.jpg
304.937	0.514	Blank	Blank	53.277	n/a	3	8	11	n/a	31	n/a	1	n/a	n/a	n/a	n/a	343.688	n/a
305.468	0.497	neutral	Picture	52.763	n/a	3	8	12	n/a	32	22	1	n/a	n/a	n/a	n/a	344.218	BM03NES.jpg
305.965	0.514	Blank	Blank	52.249	n/a	3	8	12	n/a	32	n/a	1	n/a	n/a	n/a	n/a	344.715	n/a
306.496	0.497	neutral	Picture	51.735	n/a	3	8	13	n/a	33	11	1	n/a	n/a	n/a	n/a	345.246	AF20NES.jpg
306.993	0.514	Blank	Blank	51.221	n/a	3	8	13	n/a	33	n/a	1	n/a	n/a	n/a	n/a	345.743	n/a
307.524	0.497	neutral	Picture	50.707	n/a	3	8	14	n/a	34	4	1	n/a	n/a	n/a	n/a	346.274	AF05NES.jpg
308.021	0.514	Blank	Blank	50.193	n/a	3	8	14	n/a	34	n/a	1	n/a	n/a	n/a	n/a	346.771	n/a
308.551	0.497	neutral	Picture	49.68	n/a	3	8	15	n/a	35	17	1	n/a	n/a	n/a	n/a	347.302	BF28NES.jpg
309.049	0.514	Blank	Blank	49.166	n/a	3	8	15	n/a	35	n/a	1	n/a	n/a	n/a	n/a	347.799	n/a
309.579	0.497	neutral	Picture	48.652	n/a	3	8	16	n/a	36	13	1	n/a	n/a	n/a	n/a	348.329	BF22NES.jpg
310.077	0.514	Blank	Blank	48.138	n/a	3	8	16	n/a	36	n/a	1	n/a	n/a	n/a	n/a	348.827	n/a
310.607	0.497	neutral	Picture	47.624	n/a	3	8	17	n/a	37	12	1	n/a	n/a	n/a	n/a	349.357	AF21NES.jpg
311.105	0.514	Blank	Blank	47.11	n/a	3	8	17	n/a	37	n/a	1	n/a	n/a	n/a	n/a	349.855	n/a
311.635	0.497	neutral	Picture	46.596	n/a	3	8	18	n/a	38	24	1	n/a	n/a	n/a	n/a	350.385	BM05NES.jpg
312.132	0.514	Blank	Blank	46.082	n/a	3	8	18	n/a	38	n/a	1	n/a	n/a	n/a	n/a	350.883	n/a
312.663	0.497	neutral	Picture	45.568	n/a	3	8	19	n/a	39	29	1	n/a	n/a	n/a	n/a	351.413	AM10NES.jpg
313.16	0.514	Blank	Blank	45.054	n/a	3	8	19	n/a	39	n/a	1	n/a	n/a	n/a	n/a	351.911	n/a
313.691	0.497	neutral	Picture	44.54	n/a	3	8	20	n/a	40	23	1	n/a	n/a	n/a	n/a	352.441	AM04NES.jpg
314.188	0.514	Blank	Blank	44.026	n/a	3	8	20	n/a	40	n/a	1	n/a	n/a	n/a	n/a	352.938	n/a
314.719	10.014	ITI	Fixation+	33.996	n/a	3	n/a	n/a	n/a	n/a	n/a	n/a	n/a	n/a	n/a	n/a	353.469	n/a
324.749	0.497	happy	Picture	33.482	n/a	3	9	1	n/a	41	62	2	n/a	n/a	n/a	n/a	363.499	BM03HAS.jpg
325.246	0.514	Blank	Blank	32.968	n/a	3	9	1	n/a	41	n/a	2	n/a	n/a	n/a	n/a	363.996	n/a
325.777	0.497	happy	Picture	32.454	n/a	3	9	2	n/a	42	52	2	n/a	n/a	n/a	n/a	364.527	AF21HAS.jpg
326.274	0.514	Blank	Blank	31.94	n/a	3	9	2	n/a	42	n/a	2	n/a	n/a	n/a	n/a	365.024	n/a
326.805	0.497	happy	Picture	31.426	n/a	3	9	3	n/a	43	44	2	n/a	n/a	n/a	n/a	365.555	AF05HAS.jpg
327.302	0.514	Blank	Blank	30.912	n/a	3	9	3	n/a	43	n/a	2	n/a	n/a	n/a	n/a	366.052	n/a
327.832	0.497	happy	Picture	30.399	n/a	3	9	4	n/a	44	53	2	n/a	n/a	n/a	n/a	366.583	BF22HAS.jpg
328.33	0.514	Blank	Blank	29.885	n/a	3	9	4	n/a	44	n/a	2	n/a	n/a	n/a	n/a	367.08	n/a
328.86	0.497	happy	Picture	29.371	n/a	3	9	5	n/a	45	54	2	n/a	n/a	n/a	n/a	367.611	AF23HAS.jpg
329.358	0.514	Blank	Blank	28.857	n/a	3	9	5	n/a	45	n/a	2	n/a	n/a	n/a	n/a	368.108	n/a
329.888	0.497	happy	Picture	28.343	n/a	3	9	6	n/a	46	68	2	n/a	n/a	n/a	n/a	368.638	AM09HAS.jpg
330.386	0.514	Blank	Blank	27.829	n/a	3	9	6	n/a	46	n/a	2	n/a	n/a	n/a	n/a	369.136	n/a
330.916	0.497	happy	Picture	27.315	n/a	3	9	7	n/a	47	64	2	n/a	n/a	n/a	n/a	369.666	BM05HAS.jpg
331.413	0.514	Blank	Blank	26.801	n/a	3	9	7	n/a	47	n/a	2	n/a	n/a	n/a	n/a	370.164	n/a
331.944	0.497	happy	Picture	26.287	n/a	3	9	8	n/a	48	59	2	n/a	n/a	n/a	n/a	370.694	AF31HAS.jpg
332.441	0.514	Blank	Blank	25.773	n/a	3	9	8	n/a	48	n/a	2	n/a	n/a	n/a	n/a	371.192	n/a
332.972	0.497	happy	Picture	25.259	n/a	3	9	9	n/a	49	41	2	n/a	n/a	n/a	n/a	371.722	AF01HAS.jpg
333.469	0.514	Blank	Blank	24.745	n/a	3	9	9	n/a	49	n/a	2	n/a	n/a	n/a	n/a	372.219	n/a
334.0	0.497	happy	Picture	24.231	n/a	3	9	10	n/a	50	73	2	n/a	n/a	n/a	n/a	372.75	AM21HAS.jpg
334.497	0.514	Blank	Blank	23.717	n/a	3	9	10	n/a	50	n/a	2	n/a	n/a	n/a	n/a	373.247	n/a
335.028	0.497	happy	Picture	23.203	n/a	3	9	11	n/a	51	65	2	n/a	n/a	n/a	n/a	373.778	BM06HAS.jpg
335.525	0.514	Blank	Blank	22.689	n/a	3	9	11	n/a	51	n/a	2	n/a	n/a	n/a	n/a	374.275	n/a
336.055	0.497	happy	Picture	22.175	n/a	3	9	12	n/a	52	56	2	n/a	n/a	n/a	n/a	374.806	AF26HAS.jpg
336.553	0.514	Blank	Blank	21.662	n/a	3	9	12	n/a	52	n/a	2	n/a	n/a	n/a	n/a	375.303	n/a
337.083	0.497	happy	Picture	21.148	n/a	3	9	13	n/a	53	45	2	n/a	n/a	n/a	n/a	375.834	BF07HAS.jpg
337.581	0.514	Blank	Blank	20.634	n/a	3	9	13	n/a	53	n/a	2	n/a	n/a	n/a	n/a	376.331	n/a
338.111	0.497	happy	Picture	20.12	n/a	3	9	14	n/a	54	78	2	n/a	n/a	n/a	n/a	376.861	BM26HAS.jpg
338.609	0.514	Blank	Blank	19.606	n/a	3	9	14	n/a	54	n/a	2	n/a	n/a	n/a	n/a	377.359	n/a
339.139	0.497	happy	Picture	19.092	n/a	3	9	15	n/a	55	50	2	n/a	n/a	n/a	n/a	377.889	AF18HAS.jpg
339.637	0.514	Blank	Blank	18.578	n/a	3	9	15	n/a	55	n/a	2	n/a	n/a	n/a	n/a	378.387	n/a
340.167	0.497	happy	Picture	18.064	n/a	3	9	16	n/a	56	47	2	n/a	n/a	n/a	n/a	378.917	BF11HAS.jpg
340.664	0.514	Blank	Blank	17.55	n/a	3	9	16	n/a	56	n/a	2	n/a	n/a	n/a	n/a	379.415	n/a
341.195	0.497	happy	Picture	17.036	n/a	3	9	17	n/a	57	77	2	n/a	n/a	n/a	n/a	379.945	BM25HAS.jpg
341.692	0.514	Blank	Blank	16.522	n/a	3	9	17	n/a	57	n/a	2	n/a	n/a	n/a	n/a	380.442	n/a
342.223	0.497	happy	Picture	16.008	n/a	3	9	18	n/a	58	57	2	n/a	n/a	n/a	n/a	380.973	BF28HAS.jpg
342.72	0.514	Blank	Blank	15.494	n/a	3	9	18	n/a	58	n/a	2	n/a	n/a	n/a	n/a	381.47	n/a
343.251	0.497	happy	Picture	14.98	n/a	3	9	19	n/a	59	61	2	n/a	n/a	n/a	n/a	382.001	AM01HAS.jpg
343.748	0.514	Blank	Blank	14.466	n/a	3	9	19	n/a	59	n/a	2	n/a	n/a	n/a	n/a	382.498	n/a
344.279	0.497	happy	Picture	13.952	n/a	3	9	20	n/a	60	79	2	n/a	n/a	n/a	n/a	383.029	BM28HAS.jpg
344.776	0.514	Blank	Blank	13.439	n/a	3	9	20	n/a	60	n/a	2	n/a	n/a	n/a	n/a	383.526	n/a
345.306	10.014	ITI	Fixation+	3.408	n/a	3	n/a	n/a	n/a	n/a	n/a	n/a	n/a	n/a	n/a	n/a	384.057	n/a
358.728	n/a	ConfirmRating	Rate	n/a	3.399	3	n/a	n/a	0	n/a	n/a	n/a	2	Happy	41	49	397.478	n/a
360.939	n/a	ConfirmRating	Rate	n/a	2.188	3	n/a	n/a	1	n/a	n/a	n/a	3	Happy	17	48	399.689	n/a
360.957	10.014	ITI	Fixation+	95.359	n/a	4	n/a	n/a	n/a	n/a	n/a	n/a	n/a	n/a	n/a	n/a	399.707	n/a
370.987	0.497	angry	Picture	94.845	n/a	4	10	1	n/a	61	119	3	n/a	n/a	n/a	n/a	409.737	BM28ANS.jpg
371.484	0.514	Blank	Blank	94.331	n/a	4	10	1	n/a	61	n/a	3	n/a	n/a	n/a	n/a	410.234	n/a
372.015	0.497	angry	Picture	93.817	n/a	4	10	2	n/a	62	100	3	n/a	n/a	n/a	n/a	410.765	AF32ANS.jpg
372.512	0.514	Blank	Blank	93.303	n/a	4	10	2	n/a	62	n/a	3	n/a	n/a	n/a	n/a	411.262	n/a
373.043	0.497	angry	Picture	92.789	n/a	4	10	3	n/a	63	118	3	n/a	n/a	n/a	n/a	411.793	BM26ANS.jpg
373.54	0.514	Blank	Blank	92.275	n/a	4	10	3	n/a	63	n/a	3	n/a	n/a	n/a	n/a	412.29	n/a
374.07	0.497	angry	Picture	91.761	n/a	4	10	4	n/a	64	89	3	n/a	n/a	n/a	n/a	412.821	AF17ANS.jpg
374.568	0.514	Blank	Blank	91.248	n/a	4	10	4	n/a	64	n/a	3	n/a	n/a	n/a	n/a	413.318	n/a
375.098	0.497	angry	Picture	90.734	n/a	4	10	5	n/a	65	116	3	n/a	n/a	n/a	n/a	413.849	BM24ANS.jpg
375.596	0.514	Blank	Blank	90.22	n/a	4	10	5	n/a	65	n/a	3	n/a	n/a	n/a	n/a	414.346	n/a
376.126	0.497	angry	Picture	89.706	n/a	4	10	6	n/a	66	105	3	n/a	n/a	n/a	n/a	414.876	BM06ANS.jpg
376.624	0.514	Blank	Blank	89.192	n/a	4	10	6	n/a	66	n/a	3	n/a	n/a	n/a	n/a	415.374	n/a
377.154	0.497	angry	Picture	88.678	n/a	4	10	7	n/a	67	106	3	n/a	n/a	n/a	n/a	415.904	AM07ANS.jpg
377.651	0.514	Blank	Blank	88.164	n/a	4	10	7	n/a	67	n/a	3	n/a	n/a	n/a	n/a	416.402	n/a
378.182	0.497	angry	Picture	87.65	n/a	4	10	8	n/a	68	94	3	n/a	n/a	n/a	n/a	416.932	AF23ANS.jpg
378.679	0.514	Blank	Blank	87.136	n/a	4	10	8	n/a	68	n/a	3	n/a	n/a	n/a	n/a	417.43	n/a
379.21	0.497	angry	Picture	86.622	n/a	4	10	9	n/a	69	117	3	n/a	n/a	n/a	n/a	417.96	BM25ANS.jpg
379.707	0.514	Blank	Blank	86.108	n/a	4	10	9	n/a	69	n/a	3	n/a	n/a	n/a	n/a	418.457	n/a
380.238	0.497	angry	Picture	85.594	n/a	4	10	10	n/a	70	90	3	n/a	n/a	n/a	n/a	418.988	AF18ANS.jpg
380.735	0.514	Blank	Blank	85.08	n/a	4	10	10	n/a	70	n/a	3	n/a	n/a	n/a	n/a	419.485	n/a
381.266	0.497	angry	Picture	84.566	n/a	4	10	11	n/a	71	83	3	n/a	n/a	n/a	n/a	420.016	BF04ANS.jpg
381.763	0.514	Blank	Blank	84.052	n/a	4	10	11	n/a	71	n/a	3	n/a	n/a	n/a	n/a	420.513	n/a
382.293	0.497	angry	Picture	83.538	n/a	4	10	12	n/a	72	112	3	n/a	n/a	n/a	n/a	421.044	AM14ANS.jpg
382.791	0.514	Blank	Blank	83.024	n/a	4	10	12	n/a	72	n/a	3	n/a	n/a	n/a	n/a	421.541	n/a
383.321	0.497	angry	Picture	82.511	n/a	4	10	13	n/a	73	102	3	n/a	n/a	n/a	n/a	422.072	BM03ANS.jpg
383.819	0.514	Blank	Blank	81.997	n/a	4	10	13	n/a	73	n/a	3	n/a	n/a	n/a	n/a	422.569	n/a
384.349	0.497	angry	Picture	81.483	n/a	4	10	14	n/a	74	95	3	n/a	n/a	n/a	n/a	423.099	AF25ANS.jpg
384.847	0.514	Blank	Blank	80.969	n/a	4	10	14	n/a	74	n/a	3	n/a	n/a	n/a	n/a	423.597	n/a
385.377	0.497	angry	Picture	80.455	n/a	4	10	15	n/a	75	113	3	n/a	n/a	n/a	n/a	424.127	AM21ANS.jpg
385.875	0.514	Blank	Blank	79.941	n/a	4	10	15	n/a	75	n/a	3	n/a	n/a	n/a	n/a	424.625	n/a
386.405	0.497	angry	Picture	79.427	n/a	4	10	16	n/a	76	88	3	n/a	n/a	n/a	n/a	425.155	AF14ANS.jpg
386.902	0.514	Blank	Blank	78.913	n/a	4	10	16	n/a	76	n/a	3	n/a	n/a	n/a	n/a	425.652	n/a
387.433	0.497	angry	Picture	78.399	n/a	4	10	17	n/a	77	93	3	n/a	n/a	n/a	n/a	426.183	BF22ANS.jpg
387.93	0.514	Blank	Blank	77.885	n/a	4	10	17	n/a	77	n/a	3	n/a	n/a	n/a	n/a	426.68	n/a
388.461	0.497	angry	Picture	77.371	n/a	4	10	18	n/a	78	86	3	n/a	n/a	n/a	n/a	427.211	AF09ANS.jpg
388.958	0.514	Blank	Blank	76.857	n/a	4	10	18	n/a	78	n/a	3	n/a	n/a	n/a	n/a	427.708	n/a
389.489	0.497	angry	Picture	76.343	n/a	4	10	19	n/a	79	92	3	n/a	n/a	n/a	n/a	428.239	AF21ANS.jpg
389.986	0.514	Blank	Blank	75.829	n/a	4	10	19	n/a	79	n/a	3	n/a	n/a	n/a	n/a	428.736	n/a
390.517	0.497	angry	Picture	75.315	n/a	4	10	20	n/a	80	84	3	n/a	n/a	n/a	n/a	429.267	AF05ANS.jpg
391.014	0.514	Blank	Blank	74.802	n/a	4	10	20	n/a	80	n/a	3	n/a	n/a	n/a	n/a	429.764	n/a
391.544	10.014	ITI	Fixation+	64.771	n/a	4	n/a	n/a	n/a	n/a	n/a	n/a	n/a	n/a	n/a	n/a	430.295	n/a
401.575	0.497	neutral	Picture	64.257	n/a	4	11	1	n/a	81	4	1	n/a	n/a	n/a	n/a	440.325	AF05NES.jpg
402.072	0.514	Blank	Blank	63.743	n/a	4	11	1	n/a	81	n/a	1	n/a	n/a	n/a	n/a	440.822	n/a
402.602	0.497	neutral	Picture	63.23	n/a	4	11	2	n/a	82	14	1	n/a	n/a	n/a	n/a	441.353	AF23NES.jpg
403.1	0.514	Blank	Blank	62.716	n/a	4	11	2	n/a	82	n/a	1	n/a	n/a	n/a	n/a	441.85	n/a
403.63	0.497	neutral	Picture	62.202	n/a	4	11	3	n/a	83	19	1	n/a	n/a	n/a	n/a	442.38	AF31NES.jpg
404.128	0.514	Blank	Blank	61.688	n/a	4	11	3	n/a	83	n/a	1	n/a	n/a	n/a	n/a	442.878	n/a
404.658	0.497	neutral	Picture	61.174	n/a	4	11	4	n/a	84	8	1	n/a	n/a	n/a	n/a	443.408	AF14NES.jpg
405.156	0.514	Blank	Blank	60.66	n/a	4	11	4	n/a	84	n/a	1	n/a	n/a	n/a	n/a	443.906	n/a
405.686	0.497	neutral	Picture	60.146	n/a	4	11	5	n/a	85	25	1	n/a	n/a	n/a	n/a	444.436	BM06NES.jpg
406.183	0.514	Blank	Blank	59.632	n/a	4	11	5	n/a	85	n/a	1	n/a	n/a	n/a	n/a	444.934	n/a
406.714	0.497	neutral	Picture	59.118	n/a	4	11	6	n/a	86	9	1	n/a	n/a	n/a	n/a	445.464	AF17NES.jpg
407.211	0.514	Blank	Blank	58.604	n/a	4	11	6	n/a	86	n/a	1	n/a	n/a	n/a	n/a	445.961	n/a
407.742	0.497	neutral	Picture	58.09	n/a	4	11	7	n/a	87	2	1	n/a	n/a	n/a	n/a	446.492	AF03NES.jpg
408.239	0.514	Blank	Blank	57.576	n/a	4	11	7	n/a	87	n/a	1	n/a	n/a	n/a	n/a	446.989	n/a
408.77	0.497	neutral	Picture	57.062	n/a	4	11	8	n/a	88	17	1	n/a	n/a	n/a	n/a	447.52	BF28NES.jpg
409.267	0.514	Blank	Blank	56.548	n/a	4	11	8	n/a	88	n/a	1	n/a	n/a	n/a	n/a	448.017	n/a
409.798	0.497	neutral	Picture	56.034	n/a	4	11	9	n/a	89	6	1	n/a	n/a	n/a	n/a	448.548	AF09NES.jpg
410.295	0.514	Blank	Blank	55.521	n/a	4	11	9	n/a	89	n/a	1	n/a	n/a	n/a	n/a	449.045	n/a
410.825	0.497	neutral	Picture	55.006	n/a	4	11	10	n/a	90	12	1	n/a	n/a	n/a	n/a	449.576	AF21NES.jpg
411.323	0.514	Blank	Blank	54.493	n/a	4	11	10	n/a	90	n/a	1	n/a	n/a	n/a	n/a	450.073	n/a
411.853	0.497	neutral	Picture	53.979	n/a	4	11	11	n/a	91	24	1	n/a	n/a	n/a	n/a	450.603	BM05NES.jpg
412.351	0.514	Blank	Blank	53.465	n/a	4	11	11	n/a	91	n/a	1	n/a	n/a	n/a	n/a	451.101	n/a
412.881	0.497	neutral	Picture	52.951	n/a	4	11	12	n/a	92	34	1	n/a	n/a	n/a	n/a	451.631	AM22NES.jpg
413.378	0.514	Blank	Blank	52.437	n/a	4	11	12	n/a	92	n/a	1	n/a	n/a	n/a	n/a	452.129	n/a
413.909	0.497	neutral	Picture	51.923	n/a	4	11	13	n/a	93	23	1	n/a	n/a	n/a	n/a	452.659	AM04NES.jpg
414.406	0.514	Blank	Blank	51.409	n/a	4	11	13	n/a	93	n/a	1	n/a	n/a	n/a	n/a	453.157	n/a
414.937	0.497	neutral	Picture	50.895	n/a	4	11	14	n/a	94	15	1	n/a	n/a	n/a	n/a	453.687	AF25NES.jpg
415.434	0.514	Blank	Blank	50.381	n/a	4	11	14	n/a	94	n/a	1	n/a	n/a	n/a	n/a	454.185	n/a
415.965	0.497	neutral	Picture	49.867	n/a	4	11	15	n/a	95	37	1	n/a	n/a	n/a	n/a	454.715	BM25NES.jpg
416.462	0.514	Blank	Blank	49.353	n/a	4	11	15	n/a	95	n/a	1	n/a	n/a	n/a	n/a	455.212	n/a
416.993	0.497	neutral	Picture	48.839	n/a	4	11	16	n/a	96	32	1	n/a	n/a	n/a	n/a	455.743	AM14NES.jpg
417.49	0.514	Blank	Blank	48.325	n/a	4	11	16	n/a	96	n/a	1	n/a	n/a	n/a	n/a	456.24	n/a
418.02	0.497	neutral	Picture	47.811	n/a	4	11	17	n/a	97	3	1	n/a	n/a	n/a	n/a	456.771	BF04NES.jpg
418.518	0.514	Blank	Blank	47.298	n/a	4	11	17	n/a	97	n/a	1	n/a	n/a	n/a	n/a	457.268	n/a
419.048	0.497	neutral	Picture	46.783	n/a	4	11	18	n/a	98	16	1	n/a	n/a	n/a	n/a	457.799	AF26NES.jpg
419.546	0.514	Blank	Blank	46.27	n/a	4	11	18	n/a	98	n/a	1	n/a	n/a	n/a	n/a	458.296	n/a
420.076	0.497	neutral	Picture	45.756	n/a	4	11	19	n/a	99	27	1	n/a	n/a	n/a	n/a	458.827	BM08NES.jpg
420.574	0.514	Blank	Blank	45.242	n/a	4	11	19	n/a	99	n/a	1	n/a	n/a	n/a	n/a	459.324	n/a
421.104	0.497	neutral	Picture	44.728	n/a	4	11	20	n/a	100	28	1	n/a	n/a	n/a	n/a	459.854	AM09NES.jpg
421.601	0.514	Blank	Blank	44.214	n/a	4	11	20	n/a	100	n/a	1	n/a	n/a	n/a	n/a	460.352	n/a
422.132	10.014	ITI	Fixation+	34.184	n/a	4	n/a	n/a	n/a	n/a	n/a	n/a	n/a	n/a	n/a	n/a	460.882	n/a
432.162	0.497	angry	Picture	33.67	n/a	4	12	1	n/a	101	81	3	n/a	n/a	n/a	n/a	470.912	AF01ANS.jpg
432.659	0.514	Blank	Blank	33.156	n/a	4	12	1	n/a	101	n/a	3	n/a	n/a	n/a	n/a	471.41	n/a
433.19	0.497	angry	Picture	32.642	n/a	4	12	2	n/a	102	120	3	n/a	n/a	n/a	n/a	471.94	AM35ANS.jpg
433.687	0.514	Blank	Blank	32.128	n/a	4	12	2	n/a	102	n/a	3	n/a	n/a	n/a	n/a	472.438	n/a
434.218	0.497	angry	Picture	31.614	n/a	4	12	3	n/a	103	114	3	n/a	n/a	n/a	n/a	472.968	AM22ANS.jpg
434.715	0.514	Blank	Blank	31.1	n/a	4	12	3	n/a	103	n/a	3	n/a	n/a	n/a	n/a	473.466	n/a
435.246	0.497	angry	Picture	30.586	n/a	4	12	4	n/a	104	109	3	n/a	n/a	n/a	n/a	473.996	AM10ANS.jpg
435.743	0.514	Blank	Blank	30.072	n/a	4	12	4	n/a	104	n/a	3	n/a	n/a	n/a	n/a	474.493	n/a
436.274	0.497	angry	Picture	29.558	n/a	4	12	5	n/a	105	96	3	n/a	n/a	n/a	n/a	475.024	AF26ANS.jpg
436.771	0.514	Blank	Blank	29.044	n/a	4	12	5	n/a	105	n/a	3	n/a	n/a	n/a	n/a	475.521	n/a
437.302	0.497	angry	Picture	28.53	n/a	4	12	6	n/a	106	82	3	n/a	n/a	n/a	n/a	476.052	AF03ANS.jpg
437.799	0.514	Blank	Blank	28.016	n/a	4	12	6	n/a	106	n/a	3	n/a	n/a	n/a	n/a	476.549	n/a
438.329	0.497	angry	Picture	27.502	n/a	4	12	7	n/a	107	97	3	n/a	n/a	n/a	n/a	477.08	BF28ANS.jpg
438.827	0.514	Blank	Blank	26.989	n/a	4	12	7	n/a	107	n/a	3	n/a	n/a	n/a	n/a	477.577	n/a
439.357	0.497	angry	Picture	26.475	n/a	4	12	8	n/a	108	115	3	n/a	n/a	n/a	n/a	478.108	AM23ANS.jpg
439.855	0.514	Blank	Blank	25.961	n/a	4	12	8	n/a	108	n/a	3	n/a	n/a	n/a	n/a	478.605	n/a
440.385	0.497	angry	Picture	25.447	n/a	4	12	9	n/a	109	91	3	n/a	n/a	n/a	n/a	479.135	AF20ANS.jpg
440.883	0.514	Blank	Blank	24.933	n/a	4	12	9	n/a	109	n/a	3	n/a	n/a	n/a	n/a	479.633	n/a
441.413	0.497	angry	Picture	24.419	n/a	4	12	10	n/a	110	87	3	n/a	n/a	n/a	n/a	480.163	BF11ANS.jpg
441.91	0.514	Blank	Blank	23.905	n/a	4	12	10	n/a	110	n/a	3	n/a	n/a	n/a	n/a	480.661	n/a
442.441	0.497	angry	Picture	23.391	n/a	4	12	11	n/a	111	85	3	n/a	n/a	n/a	n/a	481.191	BF07ANS.jpg
442.938	0.514	Blank	Blank	22.877	n/a	4	12	11	n/a	111	n/a	3	n/a	n/a	n/a	n/a	481.688	n/a
443.469	0.497	angry	Picture	22.363	n/a	4	12	12	n/a	112	110	3	n/a	n/a	n/a	n/a	482.219	AM11ANS.jpg
443.966	0.514	Blank	Blank	21.849	n/a	4	12	12	n/a	112	n/a	3	n/a	n/a	n/a	n/a	482.716	n/a
444.497	0.497	angry	Picture	21.335	n/a	4	12	13	n/a	113	111	3	n/a	n/a	n/a	n/a	483.247	BM12ANS.jpg
444.994	0.514	Blank	Blank	20.821	n/a	4	12	13	n/a	113	n/a	3	n/a	n/a	n/a	n/a	483.744	n/a
445.525	0.497	angry	Picture	20.307	n/a	4	12	14	n/a	114	103	3	n/a	n/a	n/a	n/a	484.275	AM04ANS.jpg
446.022	0.514	Blank	Blank	19.793	n/a	4	12	14	n/a	114	n/a	3	n/a	n/a	n/a	n/a	484.772	n/a
446.553	0.497	angry	Picture	19.279	n/a	4	12	15	n/a	115	101	3	n/a	n/a	n/a	n/a	485.303	AM01ANS.jpg
447.05	0.514	Blank	Blank	18.765	n/a	4	12	15	n/a	115	n/a	3	n/a	n/a	n/a	n/a	485.8	n/a
447.58	0.497	angry	Picture	18.252	n/a	4	12	16	n/a	116	104	3	n/a	n/a	n/a	n/a	486.33	BM05ANS.jpg
448.078	0.514	Blank	Blank	17.738	n/a	4	12	16	n/a	116	n/a	3	n/a	n/a	n/a	n/a	486.828	n/a
448.608	0.497	angry	Picture	17.224	n/a	4	12	17	n/a	117	107	3	n/a	n/a	n/a	n/a	487.358	BM08ANS.jpg
449.106	0.514	Blank	Blank	16.71	n/a	4	12	17	n/a	117	n/a	3	n/a	n/a	n/a	n/a	487.856	n/a
449.636	0.497	angry	Picture	16.196	n/a	4	12	18	n/a	118	98	3	n/a	n/a	n/a	n/a	488.386	BF29ANS.jpg
450.133	0.514	Blank	Blank	15.682	n/a	4	12	18	n/a	118	n/a	3	n/a	n/a	n/a	n/a	488.884	n/a
450.664	0.497	angry	Picture	15.168	n/a	4	12	19	n/a	119	99	3	n/a	n/a	n/a	n/a	489.414	AF31ANS.jpg
451.161	0.514	Blank	Blank	14.654	n/a	4	12	19	n/a	119	n/a	3	n/a	n/a	n/a	n/a	489.911	n/a
451.692	0.497	angry	Picture	14.14	n/a	4	12	20	n/a	120	108	3	n/a	n/a	n/a	n/a	490.442	AM09ANS.jpg
452.189	0.514	Blank	Blank	13.626	n/a	4	12	20	n/a	120	n/a	3	n/a	n/a	n/a	n/a	490.939	n/a
452.72	10.014	ITI	Fixation+	3.596	n/a	4	n/a	n/a	n/a	n/a	n/a	n/a	n/a	n/a	n/a	n/a	491.47	n/a
466.329	n/a	ConfirmRating	Rate	n/a	3.581	4	n/a	n/a	0	n/a	n/a	n/a	2	Angry	38	49	505.079	n/a
473.58	n/a	ConfirmRating	Rate	n/a	7.245	4	n/a	n/a	1	n/a	n/a	n/a	3	Angry	18	48	512.33	n/a
