onset	duration	trial_type	event_type	trial_number	condition	picture_number	time_until_response	response_time	unpleasantness_rating	onset_uncorrected
0.007	4.841	ITI	Fixation+	0	Pain	n/a	12.359	n/a	n/a	25.46
4.864	3.498	Pic2	Picture	0	Pain	7	8.844	n/a	n/a	30.317
8.363	2.006	Blank	Blank	0	Pain	n/a	6.838	n/a	n/a	33.815
17.206	n/a	ConfirmRating	Rate	0	Pain	7	n/a	6.322	34	42.659
17.232	4.228	ITI	Fixation+	1	Pain	n/a	10.706	n/a	n/a	42.685
21.476	3.498	Pic2	Picture	1	Pain	15	7.192	n/a	n/a	46.929
24.974	2.006	Blank	Blank	1	Pain	n/a	5.186	n/a	n/a	50.427
32.166	n/a	ConfirmRating	Rate	1	Pain	15	n/a	4.669	64	57.619
32.186	5.156	ITI	Fixation+	2	No_Pain	n/a	16.541	n/a	n/a	57.639
37.359	3.498	Pic2	Picture	2	No_Pain	34	13.026	n/a	n/a	62.812
40.857	2.006	Blank	Blank	2	No_Pain	n/a	11.02	n/a	n/a	66.31
53.883	n/a	ConfirmRating	Rate	2	No_Pain	34	n/a	10.503	18	79.335
53.904	4.41	ITI	Fixation+	3	No_Pain	n/a	16.387	n/a	n/a	79.357
58.331	3.498	Pic2	Picture	3	No_Pain	35	12.872	n/a	n/a	83.784
61.829	2.006	Blank	Blank	3	No_Pain	n/a	10.866	n/a	n/a	87.282
74.701	n/a	ConfirmRating	Rate	3	No_Pain	35	n/a	10.35	37	100.154
74.727	4.377	ITI	Fixation+	4	Pain	n/a	26.053	n/a	n/a	100.18
79.121	3.498	Pic2	Picture	4	Pain	6	22.538	n/a	n/a	104.573
82.619	2.006	Blank	Blank	4	Pain	n/a	20.532	n/a	n/a	108.072
105.157	n/a	ConfirmRating	Rate	4	Pain	6	n/a	20.015	28	130.61
105.183	5.968	ITI	Fixation+	5	No_Pain	n/a	33.651	n/a	n/a	130.635
111.167	3.498	Pic2	Picture	5	No_Pain	29	30.137	n/a	n/a	136.62
114.666	2.006	Blank	Blank	5	No_Pain	n/a	28.131	n/a	n/a	140.118
144.802	n/a	ConfirmRating	Rate	5	No_Pain	29	n/a	27.614	3	170.255
144.822	4.907	ITI	Fixation+	6	No_Pain	n/a	12.895	n/a	n/a	170.275
149.746	3.498	Pic2	Picture	6	No_Pain	39	9.381	n/a	n/a	175.199
153.244	2.006	Blank	Blank	6	No_Pain	n/a	7.374	n/a	n/a	178.697
162.625	n/a	ConfirmRating	Rate	6	No_Pain	39	n/a	6.858	7	188.077
162.644	5.487	ITI	Fixation+	7	Pain	n/a	19.435	n/a	n/a	188.097
168.149	3.498	Pic2	Picture	7	Pain	9	15.921	n/a	n/a	193.601
171.647	2.006	Blank	Blank	7	Pain	n/a	13.915	n/a	n/a	197.099
187.567	n/a	ConfirmRating	Rate	7	Pain	9	n/a	13.399	20	213.02
187.595	5.372	ITI	Fixation+	8	Pain	n/a	8.971	n/a	n/a	213.048
192.984	3.498	Pic2	Picture	8	Pain	14	5.457	n/a	n/a	218.436
196.482	2.006	Blank	Blank	8	Pain	n/a	3.451	n/a	n/a	221.934
201.938	n/a	ConfirmRating	Rate	8	Pain	14	n/a	2.934	10	227.391
201.969	5.454	ITI	Fixation+	9	No_Pain	n/a	23.107	n/a	n/a	227.422
207.44	3.498	Pic2	Picture	9	No_Pain	27	19.592	n/a	n/a	232.893
210.938	2.006	Blank	Blank	9	No_Pain	n/a	17.586	n/a	n/a	236.391
230.531	n/a	ConfirmRating	Rate	9	No_Pain	27	n/a	17.07	4	255.983
230.551	4.393	ITI	Fixation+	10	Pain	n/a	9.851	n/a	n/a	256.004
234.961	3.498	Pic2	Picture	10	Pain	20	6.336	n/a	n/a	260.414
238.459	2.006	Blank	Blank	10	Pain	n/a	4.33	n/a	n/a	263.912
244.795	n/a	ConfirmRating	Rate	10	Pain	20	n/a	3.814	6	270.248
244.825	4.393	ITI	Fixation+	11	No_Pain	n/a	26.97	n/a	n/a	270.278
249.235	3.498	Pic2	Picture	11	No_Pain	40	23.455	n/a	n/a	274.688
252.733	2.006	Blank	Blank	11	No_Pain	n/a	21.449	n/a	n/a	278.186
276.189	n/a	ConfirmRating	Rate	11	No_Pain	40	n/a	20.933	7	301.641
276.209	5.255	ITI	Fixation+	12	No_Pain	n/a	28.049	n/a	n/a	301.661
281.481	3.498	Pic2	Picture	12	No_Pain	33	24.534	n/a	n/a	306.933
284.979	2.006	Blank	Blank	12	No_Pain	n/a	22.528	n/a	n/a	310.432
309.513	n/a	ConfirmRating	Rate	12	No_Pain	33	n/a	22.011	26	334.966
309.532	4.41	ITI	Fixation+	13	Pain	n/a	14.954	n/a	n/a	334.985
313.959	3.498	Pic2	Picture	13	Pain	18	11.439	n/a	n/a	339.411
317.457	2.006	Blank	Blank	13	Pain	n/a	9.433	n/a	n/a	342.909
328.896	n/a	ConfirmRating	Rate	13	Pain	18	n/a	8.916	19	354.349
328.913	5.769	ITI	Fixation+	14	No_Pain	n/a	13.47	n/a	n/a	354.365
334.699	3.498	Pic2	Picture	14	No_Pain	31	9.956	n/a	n/a	360.151
338.197	2.006	Blank	Blank	14	No_Pain	n/a	7.95	n/a	n/a	363.649
348.152	n/a	ConfirmRating	Rate	14	No_Pain	31	n/a	7.433	5	373.605
348.177	5.239	ITI	Fixation+	15	Pain	n/a	20.642	n/a	n/a	373.63
353.433	3.498	Pic2	Picture	15	Pain	17	17.127	n/a	n/a	378.885
356.931	2.006	Blank	Blank	15	Pain	n/a	15.121	n/a	n/a	382.383
374.058	n/a	ConfirmRating	Rate	15	Pain	17	n/a	14.604	33	399.511
374.09	4.841	ITI	Fixation+	16	Pain	n/a	8.923	n/a	n/a	399.542
378.947	3.498	Pic2	Picture	16	Pain	11	5.408	n/a	n/a	404.4
382.445	2.006	Blank	Blank	16	Pain	n/a	3.402	n/a	n/a	407.898
387.854	n/a	ConfirmRating	Rate	16	Pain	11	n/a	2.886	38	413.306
387.883	4.841	ITI	Fixation+	17	No_Pain	n/a	25.447	n/a	n/a	413.336
392.741	3.498	Pic2	Picture	17	No_Pain	36	21.932	n/a	n/a	418.193
396.239	2.006	Blank	Blank	17	No_Pain	n/a	19.926	n/a	n/a	421.692
418.171	n/a	ConfirmRating	Rate	17	No_Pain	36	n/a	19.409	8	443.624
418.189	4.675	ITI	Fixation+	18	Pain	n/a	8.307	n/a	n/a	443.642
422.881	3.498	Pic2	Picture	18	Pain	10	4.792	n/a	n/a	448.334
426.379	2.006	Blank	Blank	18	Pain	n/a	2.786	n/a	n/a	451.832
431.171	n/a	ConfirmRating	Rate	18	Pain	10	n/a	2.269	20	456.624
431.204	4.062	ITI	Fixation+	19	No_Pain	n/a	23.722	n/a	n/a	456.656
435.282	3.498	Pic2	Picture	19	No_Pain	23	20.207	n/a	n/a	460.735
438.78	2.006	Blank	Blank	19	No_Pain	n/a	18.201	n/a	n/a	464.233
458.987	n/a	ConfirmRating	Rate	19	No_Pain	23	n/a	17.685	31	484.44
459.006	15.004	Rest	n/a	19	n/a	n/a	-15.023	n/a	n/a	484.459
474.026	5.123	ITI	Fixation+	20	Pain	n/a	16.734	n/a	n/a	499.479
479.166	3.498	Pic2	Picture	20	Pain	1	13.219	n/a	n/a	504.618
482.664	2.006	Blank	Blank	20	Pain	n/a	11.213	n/a	n/a	508.117
495.883	n/a	ConfirmRating	Rate	20	Pain	1	n/a	10.696	22	521.335
495.91	4.559	ITI	Fixation+	21	Pain	n/a	9.683	n/a	n/a	521.363
500.486	3.498	Pic2	Picture	21	Pain	8	6.168	n/a	n/a	525.939
503.984	2.006	Blank	Blank	21	Pain	n/a	4.162	n/a	n/a	529.437
510.152	n/a	ConfirmRating	Rate	21	Pain	8	n/a	3.646	26	535.605
510.185	5.488	ITI	Fixation+	22	No_Pain	n/a	8.139	n/a	n/a	535.637
515.689	3.498	Pic2	Picture	22	No_Pain	22	4.624	n/a	n/a	541.141
519.187	2.006	Blank	Blank	22	No_Pain	n/a	2.618	n/a	n/a	544.639
523.811	n/a	ConfirmRating	Rate	22	No_Pain	22	n/a	2.101	7	549.264
523.829	5.305	ITI	Fixation+	23	Pain	n/a	6.693	n/a	n/a	549.282
529.151	3.498	Pic2	Picture	23	Pain	16	3.178	n/a	n/a	554.603
532.649	2.006	Blank	Blank	23	Pain	n/a	1.172	n/a	n/a	558.101
535.827	n/a	ConfirmRating	Rate	23	Pain	16	n/a	0.655	17	561.28
535.848	5.04	ITI	Fixation+	24	No_Pain	n/a	16.452	n/a	n/a	561.301
540.905	3.498	Pic2	Picture	24	No_Pain	38	12.937	n/a	n/a	566.358
544.403	2.006	Blank	Blank	24	No_Pain	n/a	10.931	n/a	n/a	569.856
557.34	n/a	ConfirmRating	Rate	24	No_Pain	38	n/a	10.415	6	582.793
557.368	4.742	ITI	Fixation+	25	No_Pain	n/a	25.499	n/a	n/a	582.82
562.126	3.498	Pic2	Picture	25	No_Pain	21	21.984	n/a	n/a	587.578
565.624	2.006	Blank	Blank	25	No_Pain	n/a	19.978	n/a	n/a	591.077
587.608	n/a	ConfirmRating	Rate	25	No_Pain	21	n/a	19.461	20	613.061
587.64	4.858	ITI	Fixation+	26	Pain	n/a	10.942	n/a	n/a	613.093
592.515	3.498	Pic2	Picture	26	Pain	5	7.427	n/a	n/a	617.967
596.013	2.006	Blank	Blank	26	Pain	n/a	5.421	n/a	n/a	621.465
603.44	n/a	ConfirmRating	Rate	26	Pain	5	n/a	4.904	37	628.892
603.457	5.023	ITI	Fixation+	27	No_Pain	n/a	29.825	n/a	n/a	628.909
608.496	3.498	Pic2	Picture	27	No_Pain	32	26.31	n/a	n/a	633.949
611.995	2.006	Blank	Blank	27	No_Pain	n/a	24.304	n/a	n/a	637.447
638.305	n/a	ConfirmRating	Rate	27	No_Pain	32	n/a	23.787	14	663.758
638.322	5.173	ITI	Fixation+	28	Pain	n/a	22.102	n/a	n/a	663.774
643.511	3.498	Pic2	Picture	28	Pain	13	18.588	n/a	n/a	668.963
647.009	2.006	Blank	Blank	28	Pain	n/a	16.582	n/a	n/a	672.462
665.596	n/a	ConfirmRating	Rate	28	Pain	13	n/a	16.065	18	691.049
665.627	4.907	ITI	Fixation+	29	No_Pain	n/a	12.274	n/a	n/a	691.08
670.551	3.498	Pic2	Picture	29	No_Pain	28	8.759	n/a	n/a	696.004
674.049	2.006	Blank	Blank	29	No_Pain	n/a	6.753	n/a	n/a	699.502
682.808	n/a	ConfirmRating	Rate	29	No_Pain	28	n/a	6.236	7	708.261
682.836	4.874	ITI	Fixation+	30	Pain	n/a	12.571	n/a	n/a	708.288
687.726	3.498	Pic2	Picture	30	Pain	4	9.056	n/a	n/a	713.179
691.224	2.006	Blank	Blank	30	Pain	n/a	7.05	n/a	n/a	716.677
700.281	n/a	ConfirmRating	Rate	30	Pain	4	n/a	6.534	32	725.734
700.31	5.239	ITI	Fixation+	31	No_Pain	n/a	9.448	n/a	n/a	725.762
705.565	3.498	Pic2	Picture	31	No_Pain	30	5.933	n/a	n/a	731.018
709.063	2.006	Blank	Blank	31	No_Pain	n/a	3.927	n/a	n/a	734.516
714.997	n/a	ConfirmRating	Rate	31	No_Pain	30	n/a	3.411	18	740.449
715.015	4.078	ITI	Fixation+	32	Pain	n/a	6.701	n/a	n/a	740.468
719.11	3.498	Pic2	Picture	32	Pain	3	3.187	n/a	n/a	744.563
722.608	2.006	Blank	Blank	32	Pain	n/a	1.18	n/a	n/a	748.061
725.794	n/a	ConfirmRating	Rate	32	Pain	3	n/a	0.664	12	751.247
725.824	4.609	ITI	Fixation+	33	Pain	n/a	9.388	n/a	n/a	751.277
730.45	3.498	Pic2	Picture	33	Pain	12	5.873	n/a	n/a	755.903
733.948	2.006	Blank	Blank	33	Pain	n/a	3.867	n/a	n/a	759.401
739.821	n/a	ConfirmRating	Rate	33	Pain	12	n/a	3.35	70	765.274
739.85	5.355	ITI	Fixation+	34	No_Pain	n/a	29.414	n/a	n/a	765.303
745.221	3.498	Pic2	Picture	34	No_Pain	26	25.899	n/a	n/a	770.674
748.72	2.006	Blank	Blank	34	No_Pain	n/a	23.893	n/a	n/a	774.172
774.618	n/a	ConfirmRating	Rate	34	No_Pain	26	n/a	23.377	20	800.071
774.649	5.189	ITI	Fixation+	35	Pain	n/a	n/a	n/a	n/a	800.101
779.854	3.498	Pic2	Picture	35	Pain	n/a	n/a	n/a	n/a	805.307
783.352	2.006	Blank	Blank	35	Pain	n/a	n/a	n/a	n/a	808.805
