onset	duration	trial_type	event_type	trial_number	condition	picture_number	time_until_response	response_time	unpleasantness_rating	onset_uncorrected
0.011	5.023	ITI	Fixation+	0	Pain	n/a	10.031	n/a	n/a	30.168
5.051	3.498	Pic2	Picture	0	Pain	7	6.517	n/a	n/a	35.208
8.549	2.006	Blank	Blank	0	Pain	n/a	4.511	n/a	n/a	38.706
15.066	n/a	ConfirmRating	Rate	0	Pain	7	n/a	3.994	18	45.222
15.098	5.537	ITI	Fixation+	1	Pain	n/a	9.402	n/a	n/a	45.255
20.652	3.498	Pic2	Picture	1	Pain	15	5.888	n/a	n/a	50.808
24.15	2.006	Blank	Blank	1	Pain	n/a	3.882	n/a	n/a	54.306
30.038	n/a	ConfirmRating	Rate	1	Pain	15	n/a	3.365	6	60.194
30.068	4.957	ITI	Fixation+	2	No_Pain	n/a	7.544	n/a	n/a	60.225
35.042	3.498	Pic2	Picture	2	No_Pain	34	4.029	n/a	n/a	65.199
38.54	2.006	Blank	Blank	2	No_Pain	n/a	2.023	n/a	n/a	68.697
42.569	n/a	ConfirmRating	Rate	2	No_Pain	34	n/a	1.506	2	72.726
42.602	5.454	ITI	Fixation+	3	No_Pain	n/a	7.897	n/a	n/a	72.758
48.073	3.498	Pic2	Picture	3	No_Pain	35	4.382	n/a	n/a	78.23
51.571	2.006	Blank	Blank	3	No_Pain	n/a	2.376	n/a	n/a	81.728
55.953	n/a	ConfirmRating	Rate	3	No_Pain	35	n/a	1.859	0	86.11
55.981	4.775	ITI	Fixation+	4	Pain	n/a	7.924	n/a	n/a	86.138
60.772	3.498	Pic2	Picture	4	Pain	6	4.41	n/a	n/a	90.929
64.27	2.006	Blank	Blank	4	Pain	n/a	2.404	n/a	n/a	94.427
68.68	n/a	ConfirmRating	Rate	4	Pain	6	n/a	1.887	8	98.837
68.697	4.178	ITI	Fixation+	5	No_Pain	n/a	7.19	n/a	n/a	98.853
72.891	3.498	Pic2	Picture	5	No_Pain	29	3.675	n/a	n/a	103.048
76.389	2.006	Blank	Blank	5	No_Pain	n/a	1.669	n/a	n/a	106.546
80.065	n/a	ConfirmRating	Rate	5	No_Pain	29	n/a	1.153	0	110.221
80.086	5.222	ITI	Fixation+	6	No_Pain	n/a	7.926	n/a	n/a	110.243
85.325	3.498	Pic2	Picture	6	No_Pain	39	4.411	n/a	n/a	115.482
88.823	2.006	Blank	Blank	6	No_Pain	n/a	2.405	n/a	n/a	118.98
93.234	n/a	ConfirmRating	Rate	6	No_Pain	39	n/a	1.889	0	123.391
93.266	5.173	ITI	Fixation+	7	Pain	n/a	9.723	n/a	n/a	123.423
98.456	3.498	Pic2	Picture	7	Pain	9	6.208	n/a	n/a	128.612
101.954	2.006	Blank	Blank	7	Pain	n/a	4.202	n/a	n/a	132.11
108.162	n/a	ConfirmRating	Rate	7	Pain	9	n/a	3.686	3	138.319
108.187	4.609	ITI	Fixation+	8	Pain	n/a	10.872	n/a	n/a	138.344
112.813	3.498	Pic2	Picture	8	Pain	14	7.357	n/a	n/a	142.969
116.311	2.006	Blank	Blank	8	Pain	n/a	5.351	n/a	n/a	146.467
123.668	n/a	ConfirmRating	Rate	8	Pain	14	n/a	4.834	5	153.825
123.688	4.045	ITI	Fixation+	9	No_Pain	n/a	7.494	n/a	n/a	153.845
127.75	3.498	Pic2	Picture	9	No_Pain	27	3.98	n/a	n/a	157.907
131.248	2.006	Blank	Blank	9	No_Pain	n/a	1.974	n/a	n/a	161.405
135.228	n/a	ConfirmRating	Rate	9	No_Pain	27	n/a	1.457	0	165.384
135.26	4.576	ITI	Fixation+	10	Pain	n/a	10.028	n/a	n/a	165.417
139.852	3.498	Pic2	Picture	10	Pain	20	6.514	n/a	n/a	170.009
143.351	2.006	Blank	Blank	10	Pain	n/a	4.508	n/a	n/a	173.507
149.864	n/a	ConfirmRating	Rate	10	Pain	20	n/a	3.992	7	180.021
149.883	5.819	ITI	Fixation+	11	No_Pain	n/a	7.314	n/a	n/a	180.039
155.718	3.498	Pic2	Picture	11	No_Pain	40	3.8	n/a	n/a	185.875
159.216	2.006	Blank	Blank	11	No_Pain	n/a	1.794	n/a	n/a	189.373
163.016	n/a	ConfirmRating	Rate	11	No_Pain	40	n/a	1.277	0	193.173
163.046	5.09	ITI	Fixation+	12	No_Pain	n/a	7.365	n/a	n/a	193.203
168.152	3.498	Pic2	Picture	12	No_Pain	33	3.85	n/a	n/a	198.309
171.65	2.006	Blank	Blank	12	No_Pain	n/a	1.844	n/a	n/a	201.807
175.501	n/a	ConfirmRating	Rate	12	No_Pain	33	n/a	1.328	0	205.657
175.53	5.139	ITI	Fixation+	13	Pain	n/a	8.825	n/a	n/a	205.686
180.686	3.498	Pic2	Picture	13	Pain	18	5.311	n/a	n/a	210.843
184.184	2.006	Blank	Blank	13	Pain	n/a	3.305	n/a	n/a	214.341
189.494	n/a	ConfirmRating	Rate	13	Pain	18	n/a	2.788	6	219.651
189.522	4.161	ITI	Fixation+	14	No_Pain	n/a	7.176	n/a	n/a	219.679
193.7	3.498	Pic2	Picture	14	No_Pain	31	3.661	n/a	n/a	223.857
197.198	2.006	Blank	Blank	14	No_Pain	n/a	1.655	n/a	n/a	227.355
200.859	n/a	ConfirmRating	Rate	14	No_Pain	31	n/a	1.139	0	231.016
200.879	5.056	ITI	Fixation+	15	Pain	n/a	7.43	n/a	n/a	231.035
205.952	3.498	Pic2	Picture	15	Pain	17	3.915	n/a	n/a	236.108
209.45	2.006	Blank	Blank	15	Pain	n/a	1.909	n/a	n/a	239.607
213.365	n/a	ConfirmRating	Rate	15	Pain	17	n/a	1.392	9	243.522
213.396	5.885	ITI	Fixation+	16	Pain	n/a	10.754	n/a	n/a	243.552
219.298	3.498	Pic2	Picture	16	Pain	11	7.239	n/a	n/a	249.454
222.796	2.006	Blank	Blank	16	Pain	n/a	5.233	n/a	n/a	252.952
230.035	n/a	ConfirmRating	Rate	16	Pain	11	n/a	4.716	2	260.192
230.057	5.139	ITI	Fixation+	17	No_Pain	n/a	6.283	n/a	n/a	260.214
235.213	3.498	Pic2	Picture	17	No_Pain	36	2.768	n/a	n/a	265.37
238.711	2.006	Blank	Blank	17	No_Pain	n/a	0.762	n/a	n/a	268.868
241.48	n/a	ConfirmRating	Rate	17	No_Pain	36	n/a	0.246	0	271.636
241.496	5.753	ITI	Fixation+	18	Pain	n/a	8.844	n/a	n/a	271.653
247.266	3.498	Pic2	Picture	18	Pain	10	5.329	n/a	n/a	277.423
250.764	2.006	Blank	Blank	18	Pain	n/a	3.323	n/a	n/a	280.921
256.093	n/a	ConfirmRating	Rate	18	Pain	10	n/a	2.807	0	286.25
256.119	4.211	ITI	Fixation+	19	No_Pain	n/a	6.8	n/a	n/a	286.276
260.346	3.498	Pic2	Picture	19	No_Pain	23	3.286	n/a	n/a	290.503
263.844	2.006	Blank	Blank	19	No_Pain	n/a	1.28	n/a	n/a	294.001
267.13	n/a	ConfirmRating	Rate	19	No_Pain	23	n/a	0.763	0	297.287
267.16	15.004	Rest	n/a	19	n/a	n/a	-15.034	n/a	n/a	297.317
282.181	4.659	ITI	Fixation+	20	Pain	n/a	8.367	n/a	n/a	312.337
286.856	3.498	Pic2	Picture	20	Pain	1	4.853	n/a	n/a	317.012
290.354	2.006	Blank	Blank	20	Pain	n/a	2.847	n/a	n/a	320.51
295.207	n/a	ConfirmRating	Rate	20	Pain	1	n/a	2.33	8	325.363
295.228	4.642	ITI	Fixation+	21	Pain	n/a	7.386	n/a	n/a	325.385
299.887	3.498	Pic2	Picture	21	Pain	8	3.872	n/a	n/a	330.043
303.385	2.006	Blank	Blank	21	Pain	n/a	1.866	n/a	n/a	333.541
307.256	n/a	ConfirmRating	Rate	21	Pain	8	n/a	1.349	5	337.413
307.281	6.002	ITI	Fixation+	22	No_Pain	n/a	6.79	n/a	n/a	337.437
313.299	3.498	Pic2	Picture	22	No_Pain	22	3.275	n/a	n/a	343.455
316.797	2.006	Blank	Blank	22	No_Pain	n/a	1.269	n/a	n/a	346.954
320.072	n/a	ConfirmRating	Rate	22	No_Pain	22	n/a	0.752	0	350.229
320.096	5.886	ITI	Fixation+	23	Pain	n/a	7.776	n/a	n/a	350.253
325.998	3.498	Pic2	Picture	23	Pain	16	4.262	n/a	n/a	356.155
329.496	2.006	Blank	Blank	23	Pain	n/a	2.256	n/a	n/a	359.653
333.758	n/a	ConfirmRating	Rate	23	Pain	16	n/a	1.739	6	363.915
333.79	4.46	ITI	Fixation+	24	No_Pain	n/a	6.908	n/a	n/a	363.947
338.266	3.498	Pic2	Picture	24	No_Pain	38	3.393	n/a	n/a	368.423
341.764	2.006	Blank	Blank	24	No_Pain	n/a	1.387	n/a	n/a	371.921
345.158	n/a	ConfirmRating	Rate	24	No_Pain	38	n/a	0.871	0	375.314
345.18	5.604	ITI	Fixation+	25	No_Pain	n/a	6.783	n/a	n/a	375.336
350.8	3.498	Pic2	Picture	25	No_Pain	21	3.268	n/a	n/a	380.957
354.298	2.006	Blank	Blank	25	No_Pain	n/a	1.262	n/a	n/a	384.455
357.566	n/a	ConfirmRating	Rate	25	No_Pain	21	n/a	0.746	0	387.723
357.597	6.002	ITI	Fixation+	26	Pain	n/a	10.911	n/a	n/a	387.754
363.615	3.498	Pic2	Picture	26	Pain	5	7.396	n/a	n/a	393.772
367.113	2.006	Blank	Blank	26	Pain	n/a	5.39	n/a	n/a	397.27
374.509	n/a	ConfirmRating	Rate	26	Pain	5	n/a	4.873	8	404.666
374.541	5.935	ITI	Fixation+	27	No_Pain	n/a	6.675	n/a	n/a	404.697
380.492	3.498	Pic2	Picture	27	No_Pain	32	3.161	n/a	n/a	410.649
383.99	2.006	Blank	Blank	27	No_Pain	n/a	1.155	n/a	n/a	414.147
387.151	n/a	ConfirmRating	Rate	27	No_Pain	32	n/a	0.638	0	417.308
387.173	4.029	ITI	Fixation+	28	Pain	n/a	7.02	n/a	n/a	417.33
391.219	3.498	Pic2	Picture	28	Pain	13	3.505	n/a	n/a	421.375
394.717	2.006	Blank	Blank	28	Pain	n/a	1.499	n/a	n/a	424.873
398.222	n/a	ConfirmRating	Rate	28	Pain	13	n/a	0.982	2	428.378
398.248	5.935	ITI	Fixation+	29	No_Pain	n/a	7.708	n/a	n/a	428.405
404.2	3.498	Pic2	Picture	29	No_Pain	28	4.194	n/a	n/a	434.356
407.698	2.006	Blank	Blank	29	No_Pain	n/a	2.188	n/a	n/a	437.854
411.891	n/a	ConfirmRating	Rate	29	No_Pain	28	n/a	1.671	0	442.048
411.909	4.36	ITI	Fixation+	30	Pain	n/a	13.395	n/a	n/a	442.065
416.286	3.498	Pic2	Picture	30	Pain	4	9.88	n/a	n/a	446.442
419.784	2.006	Blank	Blank	30	Pain	n/a	7.875	n/a	n/a	449.94
429.664	n/a	ConfirmRating	Rate	30	Pain	4	n/a	7.357	9	459.821
429.681	5.305	ITI	Fixation+	31	No_Pain	n/a	7.486	n/a	n/a	459.838
435.003	3.498	Pic2	Picture	31	No_Pain	30	3.972	n/a	n/a	465.16
438.501	2.006	Blank	Blank	31	No_Pain	n/a	1.966	n/a	n/a	468.658
442.473	n/a	ConfirmRating	Rate	31	No_Pain	30	n/a	1.449	0	472.63
442.497	4.46	ITI	Fixation+	32	Pain	n/a	9.6	n/a	n/a	472.653
446.973	3.498	Pic2	Picture	32	Pain	3	6.086	n/a	n/a	477.13
450.471	2.006	Blank	Blank	32	Pain	n/a	4.08	n/a	n/a	480.628
456.557	n/a	ConfirmRating	Rate	32	Pain	3	n/a	3.563	5	486.713
456.588	4.99	ITI	Fixation+	33	Pain	n/a	8.633	n/a	n/a	486.745
461.595	3.498	Pic2	Picture	33	Pain	12	5.118	n/a	n/a	491.752
465.093	2.006	Blank	Blank	33	Pain	n/a	3.112	n/a	n/a	495.25
470.211	n/a	ConfirmRating	Rate	33	Pain	12	n/a	2.596	5	500.368
470.233	5.372	ITI	Fixation+	34	No_Pain	n/a	9.362	n/a	n/a	500.389
475.621	3.498	Pic2	Picture	34	No_Pain	26	5.847	n/a	n/a	505.777
479.119	2.006	Blank	Blank	34	No_Pain	n/a	3.841	n/a	n/a	509.276
484.966	n/a	ConfirmRating	Rate	34	No_Pain	26	n/a	3.324	1	515.123
484.988	4.559	ITI	Fixation+	35	Pain	n/a	7.42	n/a	n/a	515.144
489.563	3.498	Pic2	Picture	35	Pain	2	3.905	n/a	n/a	519.72
493.062	2.006	Blank	Blank	35	Pain	n/a	1.899	n/a	n/a	523.218
496.967	n/a	ConfirmRating	Rate	35	Pain	2	n/a	1.383	7	527.124
496.991	5.819	ITI	Fixation+	36	No_Pain	n/a	8.927	n/a	n/a	527.147
502.826	3.498	Pic2	Picture	36	No_Pain	37	5.412	n/a	n/a	532.983
506.324	2.006	Blank	Blank	36	No_Pain	n/a	3.406	n/a	n/a	536.481
511.737	n/a	ConfirmRating	Rate	36	No_Pain	37	n/a	2.89	0	541.893
511.762	4.344	ITI	Fixation+	37	Pain	n/a	7.675	n/a	n/a	541.919
516.122	3.498	Pic2	Picture	37	Pain	19	4.161	n/a	n/a	546.279
519.621	2.006	Blank	Blank	37	Pain	n/a	2.155	n/a	n/a	549.777
523.781	n/a	ConfirmRating	Rate	37	Pain	19	n/a	1.639	4	553.938
523.798	4.145	ITI	Fixation+	38	No_Pain	n/a	7.05	n/a	n/a	553.955
527.96	3.498	Pic2	Picture	38	No_Pain	25	3.535	n/a	n/a	558.116
531.458	2.006	Blank	Blank	38	No_Pain	n/a	1.529	n/a	n/a	561.615
534.993	n/a	ConfirmRating	Rate	38	No_Pain	25	n/a	1.012	0	565.15
535.022	4.344	ITI	Fixation+	39	No_Pain	n/a	7.957	n/a	n/a	565.179
539.382	3.498	Pic2	Picture	39	No_Pain	24	4.442	n/a	n/a	569.539
542.88	2.006	Blank	Blank	39	No_Pain	n/a	2.436	n/a	n/a	573.037
547.323	n/a	ConfirmRating	Rate	39	No_Pain	24	n/a	1.92	0	577.48
