onset	duration	trial_type	event_type	time_until_response	response_time	trial_number	block_num_within_trial	image_seq_num_within_block	question_seq_num_within_block	image_seq_num	picture_number	condition	question_type	block_type	rating	rating_computed	onset_uncorrected	KDEV_imagefile
0.015	10.014	ITI	Fixation+	102.661	n/a	1	n/a	n/a	n/a	n/a	n/a	n/a	n/a	n/a	n/a	n/a	28.444	n/a
10.045	0.497	angry	Picture	102.147	n/a	1	1	1	n/a	1	108	3	n/a	n/a	n/a	n/a	38.474	AM09ANS.jpg
10.542	0.514	Blank	Blank	101.633	n/a	1	1	1	n/a	1	n/a	3	n/a	n/a	n/a	n/a	38.972	n/a
11.073	0.497	angry	Picture	101.119	n/a	1	1	2	n/a	2	99	3	n/a	n/a	n/a	n/a	39.502	AF31ANS.jpg
11.57	0.514	Blank	Blank	100.605	n/a	1	1	2	n/a	2	n/a	3	n/a	n/a	n/a	n/a	39.999	n/a
12.101	0.497	angry	Picture	100.091	n/a	1	1	3	n/a	3	98	3	n/a	n/a	n/a	n/a	40.53	BF29ANS.jpg
12.598	0.514	Blank	Blank	99.577	n/a	1	1	3	n/a	3	n/a	3	n/a	n/a	n/a	n/a	41.027	n/a
13.129	0.497	angry	Picture	99.063	n/a	1	1	4	n/a	4	107	3	n/a	n/a	n/a	n/a	41.558	BM08ANS.jpg
13.626	0.514	Blank	Blank	98.549	n/a	1	1	4	n/a	4	n/a	3	n/a	n/a	n/a	n/a	42.055	n/a
14.157	0.497	angry	Picture	98.035	n/a	1	1	5	n/a	5	104	3	n/a	n/a	n/a	n/a	42.586	BM05ANS.jpg
14.654	0.514	Blank	Blank	97.522	n/a	1	1	5	n/a	5	n/a	3	n/a	n/a	n/a	n/a	43.083	n/a
15.184	0.497	angry	Picture	97.008	n/a	1	1	6	n/a	6	101	3	n/a	n/a	n/a	n/a	43.614	AM01ANS.jpg
15.682	0.514	Blank	Blank	96.494	n/a	1	1	6	n/a	6	n/a	3	n/a	n/a	n/a	n/a	44.111	n/a
16.212	0.497	angry	Picture	95.98	n/a	1	1	7	n/a	7	103	3	n/a	n/a	n/a	n/a	44.642	AM04ANS.jpg
16.71	0.514	Blank	Blank	95.466	n/a	1	1	7	n/a	7	n/a	3	n/a	n/a	n/a	n/a	45.139	n/a
17.24	0.497	angry	Picture	94.952	n/a	1	1	8	n/a	8	111	3	n/a	n/a	n/a	n/a	45.669	BM12ANS.jpg
17.738	0.514	Blank	Blank	94.438	n/a	1	1	8	n/a	8	n/a	3	n/a	n/a	n/a	n/a	46.167	n/a
18.268	0.497	angry	Picture	93.924	n/a	1	1	9	n/a	9	110	3	n/a	n/a	n/a	n/a	46.697	AM11ANS.jpg
18.765	0.514	Blank	Blank	93.41	n/a	1	1	9	n/a	9	n/a	3	n/a	n/a	n/a	n/a	47.195	n/a
19.296	0.497	angry	Picture	92.896	n/a	1	1	10	n/a	10	85	3	n/a	n/a	n/a	n/a	47.725	BF07ANS.jpg
19.793	0.514	Blank	Blank	92.382	n/a	1	1	10	n/a	10	n/a	3	n/a	n/a	n/a	n/a	48.223	n/a
20.324	0.497	angry	Picture	91.868	n/a	1	1	11	n/a	11	87	3	n/a	n/a	n/a	n/a	48.753	BF11ANS.jpg
20.821	0.514	Blank	Blank	91.354	n/a	1	1	11	n/a	11	n/a	3	n/a	n/a	n/a	n/a	49.251	n/a
21.352	0.497	angry	Picture	90.84	n/a	1	1	12	n/a	12	91	3	n/a	n/a	n/a	n/a	49.781	AF20ANS.jpg
21.849	0.514	Blank	Blank	90.326	n/a	1	1	12	n/a	12	n/a	3	n/a	n/a	n/a	n/a	50.278	n/a
22.38	0.497	angry	Picture	89.812	n/a	1	1	13	n/a	13	115	3	n/a	n/a	n/a	n/a	50.809	AM23ANS.jpg
22.877	0.514	Blank	Blank	89.298	n/a	1	1	13	n/a	13	n/a	3	n/a	n/a	n/a	n/a	51.306	n/a
23.408	0.497	angry	Picture	88.784	n/a	1	1	14	n/a	14	97	3	n/a	n/a	n/a	n/a	51.837	BF28ANS.jpg
23.905	0.514	Blank	Blank	88.271	n/a	1	1	14	n/a	14	n/a	3	n/a	n/a	n/a	n/a	52.334	n/a
24.435	0.497	angry	Picture	87.757	n/a	1	1	15	n/a	15	82	3	n/a	n/a	n/a	n/a	52.865	AF03ANS.jpg
24.933	0.514	Blank	Blank	87.243	n/a	1	1	15	n/a	15	n/a	3	n/a	n/a	n/a	n/a	53.362	n/a
25.463	0.497	angry	Picture	86.729	n/a	1	1	16	n/a	16	96	3	n/a	n/a	n/a	n/a	53.893	AF26ANS.jpg
25.961	0.514	Blank	Blank	86.215	n/a	1	1	16	n/a	16	n/a	3	n/a	n/a	n/a	n/a	54.39	n/a
26.491	0.497	angry	Picture	85.701	n/a	1	1	17	n/a	17	109	3	n/a	n/a	n/a	n/a	54.92	AM10ANS.jpg
26.989	0.514	Blank	Blank	85.187	n/a	1	1	17	n/a	17	n/a	3	n/a	n/a	n/a	n/a	55.418	n/a
27.519	0.497	angry	Picture	84.673	n/a	1	1	18	n/a	18	114	3	n/a	n/a	n/a	n/a	55.948	AM22ANS.jpg
28.017	0.514	Blank	Blank	84.159	n/a	1	1	18	n/a	18	n/a	3	n/a	n/a	n/a	n/a	56.446	n/a
28.547	0.497	angry	Picture	83.645	n/a	1	1	19	n/a	19	120	3	n/a	n/a	n/a	n/a	56.976	AM35ANS.jpg
29.044	0.514	Blank	Blank	83.131	n/a	1	1	19	n/a	19	n/a	3	n/a	n/a	n/a	n/a	57.474	n/a
29.575	0.497	angry	Picture	82.617	n/a	1	1	20	n/a	20	81	3	n/a	n/a	n/a	n/a	58.004	AF01ANS.jpg
30.072	0.514	Blank	Blank	82.103	n/a	1	1	20	n/a	20	n/a	3	n/a	n/a	n/a	n/a	58.502	n/a
30.603	10.014	ITI	Fixation+	72.073	n/a	1	n/a	n/a	n/a	n/a	n/a	n/a	n/a	n/a	n/a	n/a	59.032	n/a
40.633	0.497	neutral	Picture	71.559	n/a	1	2	1	n/a	21	28	1	n/a	n/a	n/a	n/a	69.062	AM09NES.jpg
41.13	0.514	Blank	Blank	71.045	n/a	1	2	1	n/a	21	n/a	1	n/a	n/a	n/a	n/a	69.56	n/a
41.661	0.497	neutral	Picture	70.531	n/a	1	2	2	n/a	22	27	1	n/a	n/a	n/a	n/a	70.09	BM08NES.jpg
42.158	0.514	Blank	Blank	70.017	n/a	1	2	2	n/a	22	n/a	1	n/a	n/a	n/a	n/a	70.588	n/a
42.689	0.497	neutral	Picture	69.503	n/a	1	2	3	n/a	23	16	1	n/a	n/a	n/a	n/a	71.118	AF26NES.jpg
43.186	0.514	Blank	Blank	68.989	n/a	1	2	3	n/a	23	n/a	1	n/a	n/a	n/a	n/a	71.615	n/a
43.717	0.497	neutral	Picture	68.475	n/a	1	2	4	n/a	24	3	1	n/a	n/a	n/a	n/a	72.146	BF04NES.jpg
44.214	0.514	Blank	Blank	67.961	n/a	1	2	4	n/a	24	n/a	1	n/a	n/a	n/a	n/a	72.643	n/a
44.745	0.497	neutral	Picture	67.447	n/a	1	2	5	n/a	25	32	1	n/a	n/a	n/a	n/a	73.174	AM14NES.jpg
45.242	0.514	Blank	Blank	66.934	n/a	1	2	5	n/a	25	n/a	1	n/a	n/a	n/a	n/a	73.671	n/a
45.773	0.497	neutral	Picture	66.42	n/a	1	2	6	n/a	26	37	1	n/a	n/a	n/a	n/a	74.202	BM25NES.jpg
46.27	0.514	Blank	Blank	65.906	n/a	1	2	6	n/a	26	n/a	1	n/a	n/a	n/a	n/a	74.699	n/a
46.8	0.497	neutral	Picture	65.392	n/a	1	2	7	n/a	27	15	1	n/a	n/a	n/a	n/a	75.23	AF25NES.jpg
47.298	0.514	Blank	Blank	64.878	n/a	1	2	7	n/a	27	n/a	1	n/a	n/a	n/a	n/a	75.727	n/a
47.828	0.497	neutral	Picture	64.364	n/a	1	2	8	n/a	28	23	1	n/a	n/a	n/a	n/a	76.257	AM04NES.jpg
48.326	0.514	Blank	Blank	63.85	n/a	1	2	8	n/a	28	n/a	1	n/a	n/a	n/a	n/a	76.755	n/a
48.856	0.497	neutral	Picture	63.336	n/a	1	2	9	n/a	29	34	1	n/a	n/a	n/a	n/a	77.285	AM22NES.jpg
49.354	0.514	Blank	Blank	62.822	n/a	1	2	9	n/a	29	n/a	1	n/a	n/a	n/a	n/a	77.783	n/a
49.884	0.497	neutral	Picture	62.308	n/a	1	2	10	n/a	30	24	1	n/a	n/a	n/a	n/a	78.313	BM05NES.jpg
50.381	0.514	Blank	Blank	61.794	n/a	1	2	10	n/a	30	n/a	1	n/a	n/a	n/a	n/a	78.811	n/a
50.912	0.497	neutral	Picture	61.28	n/a	1	2	11	n/a	31	12	1	n/a	n/a	n/a	n/a	79.341	AF21NES.jpg
51.409	0.514	Blank	Blank	60.766	n/a	1	2	11	n/a	31	n/a	1	n/a	n/a	n/a	n/a	79.838	n/a
51.94	0.497	neutral	Picture	60.252	n/a	1	2	12	n/a	32	6	1	n/a	n/a	n/a	n/a	80.369	AF09NES.jpg
52.437	0.514	Blank	Blank	59.738	n/a	1	2	12	n/a	32	n/a	1	n/a	n/a	n/a	n/a	80.866	n/a
52.968	0.497	neutral	Picture	59.224	n/a	1	2	13	n/a	33	17	1	n/a	n/a	n/a	n/a	81.397	BF28NES.jpg
53.465	0.514	Blank	Blank	58.71	n/a	1	2	13	n/a	33	n/a	1	n/a	n/a	n/a	n/a	81.894	n/a
53.996	0.497	neutral	Picture	58.196	n/a	1	2	14	n/a	34	2	1	n/a	n/a	n/a	n/a	82.425	AF03NES.jpg
54.493	0.514	Blank	Blank	57.683	n/a	1	2	14	n/a	34	n/a	1	n/a	n/a	n/a	n/a	82.922	n/a
55.023	0.497	neutral	Picture	57.169	n/a	1	2	15	n/a	35	9	1	n/a	n/a	n/a	n/a	83.453	AF17NES.jpg
55.521	0.514	Blank	Blank	56.655	n/a	1	2	15	n/a	35	n/a	1	n/a	n/a	n/a	n/a	83.95	n/a
56.051	0.497	neutral	Picture	56.141	n/a	1	2	16	n/a	36	25	1	n/a	n/a	n/a	n/a	84.481	BM06NES.jpg
56.549	0.514	Blank	Blank	55.627	n/a	1	2	16	n/a	36	n/a	1	n/a	n/a	n/a	n/a	84.978	n/a
57.079	0.497	neutral	Picture	55.113	n/a	1	2	17	n/a	37	8	1	n/a	n/a	n/a	n/a	85.508	AF14NES.jpg
57.577	0.514	Blank	Blank	54.599	n/a	1	2	17	n/a	37	n/a	1	n/a	n/a	n/a	n/a	86.006	n/a
58.107	0.497	neutral	Picture	54.085	n/a	1	2	18	n/a	38	19	1	n/a	n/a	n/a	n/a	86.536	AF31NES.jpg
58.605	0.514	Blank	Blank	53.571	n/a	1	2	18	n/a	38	n/a	1	n/a	n/a	n/a	n/a	87.034	n/a
59.135	0.497	neutral	Picture	53.057	n/a	1	2	19	n/a	39	14	1	n/a	n/a	n/a	n/a	87.564	AF23NES.jpg
59.632	0.514	Blank	Blank	52.543	n/a	1	2	19	n/a	39	n/a	1	n/a	n/a	n/a	n/a	88.062	n/a
60.163	0.497	neutral	Picture	52.029	n/a	1	2	20	n/a	40	4	1	n/a	n/a	n/a	n/a	88.592	AF05NES.jpg
60.66	0.514	Blank	Blank	51.515	n/a	1	2	20	n/a	40	n/a	1	n/a	n/a	n/a	n/a	89.09	n/a
61.191	10.014	ITI	Fixation+	41.485	n/a	1	n/a	n/a	n/a	n/a	n/a	n/a	n/a	n/a	n/a	n/a	89.62	n/a
71.221	0.497	angry	Picture	40.971	n/a	1	3	1	n/a	41	84	3	n/a	n/a	n/a	n/a	99.65	AF05ANS.jpg
71.718	0.514	Blank	Blank	40.457	n/a	1	3	1	n/a	41	n/a	3	n/a	n/a	n/a	n/a	100.148	n/a
72.249	0.497	angry	Picture	39.943	n/a	1	3	2	n/a	42	92	3	n/a	n/a	n/a	n/a	100.678	AF21ANS.jpg
72.746	0.514	Blank	Blank	39.429	n/a	1	3	2	n/a	42	n/a	3	n/a	n/a	n/a	n/a	101.175	n/a
73.277	0.497	angry	Picture	38.915	n/a	1	3	3	n/a	43	86	3	n/a	n/a	n/a	n/a	101.706	AF09ANS.jpg
73.774	0.514	Blank	Blank	38.401	n/a	1	3	3	n/a	43	n/a	3	n/a	n/a	n/a	n/a	102.203	n/a
74.305	0.497	angry	Picture	37.887	n/a	1	3	4	n/a	44	93	3	n/a	n/a	n/a	n/a	102.734	BF22ANS.jpg
74.802	0.514	Blank	Blank	37.373	n/a	1	3	4	n/a	44	n/a	3	n/a	n/a	n/a	n/a	103.231	n/a
75.333	0.497	angry	Picture	36.859	n/a	1	3	5	n/a	45	88	3	n/a	n/a	n/a	n/a	103.762	AF14ANS.jpg
75.83	0.514	Blank	Blank	36.346	n/a	1	3	5	n/a	45	n/a	3	n/a	n/a	n/a	n/a	104.259	n/a
76.361	0.497	angry	Picture	35.832	n/a	1	3	6	n/a	46	113	3	n/a	n/a	n/a	n/a	104.79	AM21ANS.jpg
76.858	0.514	Blank	Blank	35.318	n/a	1	3	6	n/a	46	n/a	3	n/a	n/a	n/a	n/a	105.287	n/a
77.388	0.497	angry	Picture	34.804	n/a	1	3	7	n/a	47	95	3	n/a	n/a	n/a	n/a	105.818	AF25ANS.jpg
77.886	0.514	Blank	Blank	34.29	n/a	1	3	7	n/a	47	n/a	3	n/a	n/a	n/a	n/a	106.315	n/a
78.416	0.497	angry	Picture	33.776	n/a	1	3	8	n/a	48	102	3	n/a	n/a	n/a	n/a	106.846	BM03ANS.jpg
78.914	0.514	Blank	Blank	33.262	n/a	1	3	8	n/a	48	n/a	3	n/a	n/a	n/a	n/a	107.343	n/a
79.444	0.497	angry	Picture	32.748	n/a	1	3	9	n/a	49	112	3	n/a	n/a	n/a	n/a	107.873	AM14ANS.jpg
79.942	0.514	Blank	Blank	32.234	n/a	1	3	9	n/a	49	n/a	3	n/a	n/a	n/a	n/a	108.371	n/a
80.472	0.497	angry	Picture	31.72	n/a	1	3	10	n/a	50	83	3	n/a	n/a	n/a	n/a	108.901	BF04ANS.jpg
80.97	0.514	Blank	Blank	31.206	n/a	1	3	10	n/a	50	n/a	3	n/a	n/a	n/a	n/a	109.399	n/a
81.5	0.497	angry	Picture	30.692	n/a	1	3	11	n/a	51	90	3	n/a	n/a	n/a	n/a	109.929	AF18ANS.jpg
81.997	0.514	Blank	Blank	30.178	n/a	1	3	11	n/a	51	n/a	3	n/a	n/a	n/a	n/a	110.427	n/a
82.528	0.497	angry	Picture	29.664	n/a	1	3	12	n/a	52	117	3	n/a	n/a	n/a	n/a	110.957	BM25ANS.jpg
83.025	0.514	Blank	Blank	29.15	n/a	1	3	12	n/a	52	n/a	3	n/a	n/a	n/a	n/a	111.454	n/a
83.556	0.497	angry	Picture	28.636	n/a	1	3	13	n/a	53	94	3	n/a	n/a	n/a	n/a	111.985	AF23ANS.jpg
84.053	0.514	Blank	Blank	28.122	n/a	1	3	13	n/a	53	n/a	3	n/a	n/a	n/a	n/a	112.482	n/a
84.584	0.497	angry	Picture	27.608	n/a	1	3	14	n/a	54	106	3	n/a	n/a	n/a	n/a	113.013	AM07ANS.jpg
85.081	0.514	Blank	Blank	27.094	n/a	1	3	14	n/a	54	n/a	3	n/a	n/a	n/a	n/a	113.51	n/a
85.612	0.497	angry	Picture	26.581	n/a	1	3	15	n/a	55	105	3	n/a	n/a	n/a	n/a	114.041	BM06ANS.jpg
86.109	0.514	Blank	Blank	26.067	n/a	1	3	15	n/a	55	n/a	3	n/a	n/a	n/a	n/a	114.538	n/a
86.639	0.497	angry	Picture	25.553	n/a	1	3	16	n/a	56	116	3	n/a	n/a	n/a	n/a	115.069	BM24ANS.jpg
87.137	0.514	Blank	Blank	25.039	n/a	1	3	16	n/a	56	n/a	3	n/a	n/a	n/a	n/a	115.566	n/a
87.667	0.497	angry	Picture	24.525	n/a	1	3	17	n/a	57	89	3	n/a	n/a	n/a	n/a	116.097	AF17ANS.jpg
88.165	0.514	Blank	Blank	24.011	n/a	1	3	17	n/a	57	n/a	3	n/a	n/a	n/a	n/a	116.594	n/a
88.695	0.497	angry	Picture	23.497	n/a	1	3	18	n/a	58	118	3	n/a	n/a	n/a	n/a	117.124	BM26ANS.jpg
89.193	0.514	Blank	Blank	22.983	n/a	1	3	18	n/a	58	n/a	3	n/a	n/a	n/a	n/a	117.622	n/a
89.723	0.497	angry	Picture	22.469	n/a	1	3	19	n/a	59	100	3	n/a	n/a	n/a	n/a	118.152	AF32ANS.jpg
90.22	0.514	Blank	Blank	21.955	n/a	1	3	19	n/a	59	n/a	3	n/a	n/a	n/a	n/a	118.65	n/a
90.751	0.497	angry	Picture	21.441	n/a	1	3	20	n/a	60	119	3	n/a	n/a	n/a	n/a	119.18	BM28ANS.jpg
91.248	0.514	Blank	Blank	20.927	n/a	1	3	20	n/a	60	n/a	3	n/a	n/a	n/a	n/a	119.678	n/a
91.779	10.014	ITI	Fixation+	10.897	n/a	1	n/a	n/a	n/a	n/a	n/a	n/a	n/a	n/a	n/a	n/a	120.208	n/a
112.689	n/a	ConfirmRating	Rate	n/a	10.859	1	n/a	n/a	0	n/a	n/a	n/a	2	Angry	28	49	141.119	n/a
115.999	n/a	ConfirmRating	Rate	n/a	3.282	1	n/a	n/a	1	n/a	n/a	n/a	3	Angry	31	47	144.429	n/a
116.017	10.014	ITI	Fixation+	95.279	n/a	2	n/a	n/a	n/a	n/a	n/a	n/a	n/a	n/a	n/a	n/a	144.446	n/a
126.047	0.497	happy	Picture	94.765	n/a	2	4	1	n/a	61	79	2	n/a	n/a	n/a	n/a	154.477	BM28HAS.jpg
126.545	0.514	Blank	Blank	94.251	n/a	2	4	1	n/a	61	n/a	2	n/a	n/a	n/a	n/a	154.974	n/a
127.075	0.497	happy	Picture	93.737	n/a	2	4	2	n/a	62	61	2	n/a	n/a	n/a	n/a	155.505	AM01HAS.jpg
127.573	0.514	Blank	Blank	93.223	n/a	2	4	2	n/a	62	n/a	2	n/a	n/a	n/a	n/a	156.002	n/a
128.103	0.497	happy	Picture	92.709	n/a	2	4	3	n/a	63	57	2	n/a	n/a	n/a	n/a	156.532	BF28HAS.jpg
128.601	0.514	Blank	Blank	92.195	n/a	2	4	3	n/a	63	n/a	2	n/a	n/a	n/a	n/a	157.03	n/a
129.131	0.497	happy	Picture	91.681	n/a	2	4	4	n/a	64	77	2	n/a	n/a	n/a	n/a	157.56	BM25HAS.jpg
129.628	0.514	Blank	Blank	91.167	n/a	2	4	4	n/a	64	n/a	2	n/a	n/a	n/a	n/a	158.058	n/a
130.159	0.497	happy	Picture	90.653	n/a	2	4	5	n/a	65	47	2	n/a	n/a	n/a	n/a	158.588	BF11HAS.jpg
130.656	0.514	Blank	Blank	90.139	n/a	2	4	5	n/a	65	n/a	2	n/a	n/a	n/a	n/a	159.085	n/a
131.187	0.497	happy	Picture	89.625	n/a	2	4	6	n/a	66	50	2	n/a	n/a	n/a	n/a	159.616	AF18HAS.jpg
131.684	0.514	Blank	Blank	89.111	n/a	2	4	6	n/a	66	n/a	2	n/a	n/a	n/a	n/a	160.113	n/a
132.215	0.497	happy	Picture	88.597	n/a	2	4	7	n/a	67	78	2	n/a	n/a	n/a	n/a	160.644	BM26HAS.jpg
132.712	0.514	Blank	Blank	88.083	n/a	2	4	7	n/a	67	n/a	2	n/a	n/a	n/a	n/a	161.141	n/a
133.243	0.497	happy	Picture	87.569	n/a	2	4	8	n/a	68	45	2	n/a	n/a	n/a	n/a	161.672	BF07HAS.jpg
133.74	0.514	Blank	Blank	87.055	n/a	2	4	8	n/a	68	n/a	2	n/a	n/a	n/a	n/a	162.169	n/a
134.27	0.497	happy	Picture	86.541	n/a	2	4	9	n/a	69	56	2	n/a	n/a	n/a	n/a	162.7	AF26HAS.jpg
134.768	0.514	Blank	Blank	86.028	n/a	2	4	9	n/a	69	n/a	2	n/a	n/a	n/a	n/a	163.197	n/a
135.298	0.497	happy	Picture	85.514	n/a	2	4	10	n/a	70	65	2	n/a	n/a	n/a	n/a	163.728	BM06HAS.jpg
135.796	0.514	Blank	Blank	85.0	n/a	2	4	10	n/a	70	n/a	2	n/a	n/a	n/a	n/a	164.225	n/a
136.326	0.497	happy	Picture	84.486	n/a	2	4	11	n/a	71	73	2	n/a	n/a	n/a	n/a	164.756	AM21HAS.jpg
136.824	0.514	Blank	Blank	83.972	n/a	2	4	11	n/a	71	n/a	2	n/a	n/a	n/a	n/a	165.253	n/a
137.354	0.497	happy	Picture	83.458	n/a	2	4	12	n/a	72	41	2	n/a	n/a	n/a	n/a	165.783	AF01HAS.jpg
137.852	0.514	Blank	Blank	82.944	n/a	2	4	12	n/a	72	n/a	2	n/a	n/a	n/a	n/a	166.281	n/a
138.382	0.497	happy	Picture	82.43	n/a	2	4	13	n/a	73	59	2	n/a	n/a	n/a	n/a	166.811	AF31HAS.jpg
138.879	0.514	Blank	Blank	81.916	n/a	2	4	13	n/a	73	n/a	2	n/a	n/a	n/a	n/a	167.309	n/a
139.41	0.497	happy	Picture	81.402	n/a	2	4	14	n/a	74	64	2	n/a	n/a	n/a	n/a	167.839	BM05HAS.jpg
139.907	0.514	Blank	Blank	80.888	n/a	2	4	14	n/a	74	n/a	2	n/a	n/a	n/a	n/a	168.337	n/a
140.438	0.497	happy	Picture	80.374	n/a	2	4	15	n/a	75	68	2	n/a	n/a	n/a	n/a	168.867	AM09HAS.jpg
140.935	0.514	Blank	Blank	79.86	n/a	2	4	15	n/a	75	n/a	2	n/a	n/a	n/a	n/a	169.364	n/a
141.466	0.497	happy	Picture	79.346	n/a	2	4	16	n/a	76	54	2	n/a	n/a	n/a	n/a	169.895	AF23HAS.jpg
141.963	0.514	Blank	Blank	78.832	n/a	2	4	16	n/a	76	n/a	2	n/a	n/a	n/a	n/a	170.392	n/a
142.494	0.497	happy	Picture	78.318	n/a	2	4	17	n/a	77	53	2	n/a	n/a	n/a	n/a	170.923	BF22HAS.jpg
142.991	0.514	Blank	Blank	77.804	n/a	2	4	17	n/a	77	n/a	2	n/a	n/a	n/a	n/a	171.42	n/a
143.522	0.497	happy	Picture	77.29	n/a	2	4	18	n/a	78	44	2	n/a	n/a	n/a	n/a	171.951	AF05HAS.jpg
144.019	0.514	Blank	Blank	76.776	n/a	2	4	18	n/a	78	n/a	2	n/a	n/a	n/a	n/a	172.448	n/a
144.549	0.497	happy	Picture	76.263	n/a	2	4	19	n/a	79	52	2	n/a	n/a	n/a	n/a	172.979	AF21HAS.jpg
145.047	0.514	Blank	Blank	75.749	n/a	2	4	19	n/a	79	n/a	2	n/a	n/a	n/a	n/a	173.476	n/a
145.577	0.497	happy	Picture	75.235	n/a	2	4	20	n/a	80	62	2	n/a	n/a	n/a	n/a	174.006	BM03HAS.jpg
146.075	0.514	Blank	Blank	74.721	n/a	2	4	20	n/a	80	n/a	2	n/a	n/a	n/a	n/a	174.504	n/a
146.605	10.014	ITI	Fixation+	64.69	n/a	2	n/a	n/a	n/a	n/a	n/a	n/a	n/a	n/a	n/a	n/a	175.034	n/a
156.635	0.497	neutral	Picture	64.177	n/a	2	5	1	n/a	81	23	1	n/a	n/a	n/a	n/a	185.065	AM04NES.jpg
157.133	0.514	Blank	Blank	63.663	n/a	2	5	1	n/a	81	n/a	1	n/a	n/a	n/a	n/a	185.562	n/a
157.663	0.497	neutral	Picture	63.149	n/a	2	5	2	n/a	82	29	1	n/a	n/a	n/a	n/a	186.093	AM10NES.jpg
158.161	0.514	Blank	Blank	62.635	n/a	2	5	2	n/a	82	n/a	1	n/a	n/a	n/a	n/a	186.59	n/a
158.691	0.497	neutral	Picture	62.121	n/a	2	5	3	n/a	83	24	1	n/a	n/a	n/a	n/a	187.12	BM05NES.jpg
159.189	0.514	Blank	Blank	61.607	n/a	2	5	3	n/a	83	n/a	1	n/a	n/a	n/a	n/a	187.618	n/a
159.719	0.497	neutral	Picture	61.093	n/a	2	5	4	n/a	84	12	1	n/a	n/a	n/a	n/a	188.148	AF21NES.jpg
160.216	0.514	Blank	Blank	60.579	n/a	2	5	4	n/a	84	n/a	1	n/a	n/a	n/a	n/a	188.646	n/a
160.747	0.497	neutral	Picture	60.065	n/a	2	5	5	n/a	85	13	1	n/a	n/a	n/a	n/a	189.176	BF22NES.jpg
161.244	0.514	Blank	Blank	59.551	n/a	2	5	5	n/a	85	n/a	1	n/a	n/a	n/a	n/a	189.674	n/a
161.775	0.497	neutral	Picture	59.037	n/a	2	5	6	n/a	86	17	1	n/a	n/a	n/a	n/a	190.204	BF28NES.jpg
162.272	0.514	Blank	Blank	58.523	n/a	2	5	6	n/a	86	n/a	1	n/a	n/a	n/a	n/a	190.702	n/a
162.803	0.497	neutral	Picture	58.009	n/a	2	5	7	n/a	87	4	1	n/a	n/a	n/a	n/a	191.232	AF05NES.jpg
163.3	0.514	Blank	Blank	57.495	n/a	2	5	7	n/a	87	n/a	1	n/a	n/a	n/a	n/a	191.729	n/a
163.831	0.497	neutral	Picture	56.981	n/a	2	5	8	n/a	88	11	1	n/a	n/a	n/a	n/a	192.26	AF20NES.jpg
164.328	0.514	Blank	Blank	56.467	n/a	2	5	8	n/a	88	n/a	1	n/a	n/a	n/a	n/a	192.757	n/a
164.859	0.497	neutral	Picture	55.953	n/a	2	5	9	n/a	89	22	1	n/a	n/a	n/a	n/a	193.288	BM03NES.jpg
165.356	0.514	Blank	Blank	55.439	n/a	2	5	9	n/a	89	n/a	1	n/a	n/a	n/a	n/a	193.785	n/a
165.886	0.497	neutral	Picture	54.926	n/a	2	5	10	n/a	90	15	1	n/a	n/a	n/a	n/a	194.316	AF25NES.jpg
166.384	0.514	Blank	Blank	54.412	n/a	2	5	10	n/a	90	n/a	1	n/a	n/a	n/a	n/a	194.813	n/a
166.914	0.497	neutral	Picture	53.898	n/a	2	5	11	n/a	91	19	1	n/a	n/a	n/a	n/a	195.344	AF31NES.jpg
167.412	0.514	Blank	Blank	53.384	n/a	2	5	11	n/a	91	n/a	1	n/a	n/a	n/a	n/a	195.841	n/a
167.942	0.497	neutral	Picture	52.87	n/a	2	5	12	n/a	92	9	1	n/a	n/a	n/a	n/a	196.371	AF17NES.jpg
168.44	0.514	Blank	Blank	52.356	n/a	2	5	12	n/a	92	n/a	1	n/a	n/a	n/a	n/a	196.869	n/a
168.97	0.497	neutral	Picture	51.842	n/a	2	5	13	n/a	93	14	1	n/a	n/a	n/a	n/a	197.399	AF23NES.jpg
169.468	0.514	Blank	Blank	51.328	n/a	2	5	13	n/a	93	n/a	1	n/a	n/a	n/a	n/a	197.897	n/a
169.998	0.497	neutral	Picture	50.814	n/a	2	5	14	n/a	94	36	1	n/a	n/a	n/a	n/a	198.427	BM24NES.jpg
170.495	0.514	Blank	Blank	50.3	n/a	2	5	14	n/a	94	n/a	1	n/a	n/a	n/a	n/a	198.925	n/a
171.026	0.497	neutral	Picture	49.786	n/a	2	5	15	n/a	95	34	1	n/a	n/a	n/a	n/a	199.455	AM22NES.jpg
171.523	0.514	Blank	Blank	49.272	n/a	2	5	15	n/a	95	n/a	1	n/a	n/a	n/a	n/a	199.952	n/a
172.054	0.497	neutral	Picture	48.758	n/a	2	5	16	n/a	96	10	1	n/a	n/a	n/a	n/a	200.483	AF18NES.jpg
172.551	0.514	Blank	Blank	48.244	n/a	2	5	16	n/a	96	n/a	1	n/a	n/a	n/a	n/a	200.98	n/a
173.082	0.497	neutral	Picture	47.73	n/a	2	5	17	n/a	97	5	1	n/a	n/a	n/a	n/a	201.511	BF07NES.jpg
173.579	0.514	Blank	Blank	47.216	n/a	2	5	17	n/a	97	n/a	1	n/a	n/a	n/a	n/a	202.008	n/a
174.11	0.497	neutral	Picture	46.702	n/a	2	5	18	n/a	98	25	1	n/a	n/a	n/a	n/a	202.539	BM06NES.jpg
174.607	0.514	Blank	Blank	46.188	n/a	2	5	18	n/a	98	n/a	1	n/a	n/a	n/a	n/a	203.036	n/a
175.137	0.497	neutral	Picture	45.675	n/a	2	5	19	n/a	99	39	1	n/a	n/a	n/a	n/a	203.567	AM28NES.jpg
175.635	0.514	Blank	Blank	45.161	n/a	2	5	19	n/a	99	n/a	1	n/a	n/a	n/a	n/a	204.064	n/a
176.165	0.497	neutral	Picture	44.647	n/a	2	5	20	n/a	100	33	1	n/a	n/a	n/a	n/a	204.595	AM21NES.jpg
176.663	0.514	Blank	Blank	44.133	n/a	2	5	20	n/a	100	n/a	1	n/a	n/a	n/a	n/a	205.092	n/a
177.193	10.014	ITI	Fixation+	34.102	n/a	2	n/a	n/a	n/a	n/a	n/a	n/a	n/a	n/a	n/a	n/a	205.622	n/a
187.224	0.497	happy	Picture	33.589	n/a	2	6	1	n/a	101	74	2	n/a	n/a	n/a	n/a	215.653	AM22HAS.jpg
187.721	0.514	Blank	Blank	33.075	n/a	2	6	1	n/a	101	n/a	2	n/a	n/a	n/a	n/a	216.15	n/a
188.251	0.497	happy	Picture	32.561	n/a	2	6	2	n/a	102	76	2	n/a	n/a	n/a	n/a	216.681	BM24HAS.jpg
188.749	0.514	Blank	Blank	32.047	n/a	2	6	2	n/a	102	n/a	2	n/a	n/a	n/a	n/a	217.178	n/a
189.279	0.497	happy	Picture	31.533	n/a	2	6	3	n/a	103	80	2	n/a	n/a	n/a	n/a	217.708	BM35HAS.jpg
189.777	0.514	Blank	Blank	31.019	n/a	2	6	3	n/a	103	n/a	2	n/a	n/a	n/a	n/a	218.206	n/a
190.307	0.497	happy	Picture	30.505	n/a	2	6	4	n/a	104	75	2	n/a	n/a	n/a	n/a	218.736	AM23HAS.jpg
190.804	0.514	Blank	Blank	29.991	n/a	2	6	4	n/a	104	n/a	2	n/a	n/a	n/a	n/a	219.234	n/a
191.335	0.497	happy	Picture	29.477	n/a	2	6	5	n/a	105	49	2	n/a	n/a	n/a	n/a	219.764	AF17HAS.jpg
191.832	0.514	Blank	Blank	28.963	n/a	2	6	5	n/a	105	n/a	2	n/a	n/a	n/a	n/a	220.262	n/a
192.363	0.497	happy	Picture	28.449	n/a	2	6	6	n/a	106	43	2	n/a	n/a	n/a	n/a	220.792	BF04HAS.jpg
192.86	0.514	Blank	Blank	27.935	n/a	2	6	6	n/a	106	n/a	2	n/a	n/a	n/a	n/a	221.29	n/a
193.391	0.497	happy	Picture	27.421	n/a	2	6	7	n/a	107	70	2	n/a	n/a	n/a	n/a	221.82	BM11HAS.jpg
193.888	0.514	Blank	Blank	26.907	n/a	2	6	7	n/a	107	n/a	2	n/a	n/a	n/a	n/a	222.317	n/a
194.419	0.497	happy	Picture	26.393	n/a	2	6	8	n/a	108	66	2	n/a	n/a	n/a	n/a	222.848	BM07HAS.jpg
194.916	0.514	Blank	Blank	25.879	n/a	2	6	8	n/a	108	n/a	2	n/a	n/a	n/a	n/a	223.345	n/a
195.447	0.497	happy	Picture	25.365	n/a	2	6	9	n/a	109	48	2	n/a	n/a	n/a	n/a	223.876	AF14HAS.jpg
195.944	0.514	Blank	Blank	24.851	n/a	2	6	9	n/a	109	n/a	2	n/a	n/a	n/a	n/a	224.373	n/a
196.474	0.497	happy	Picture	24.338	n/a	2	6	10	n/a	110	58	2	n/a	n/a	n/a	n/a	224.904	BF29HAS.jpg
196.972	0.514	Blank	Blank	23.824	n/a	2	6	10	n/a	110	n/a	2	n/a	n/a	n/a	n/a	225.401	n/a
197.502	0.497	happy	Picture	23.31	n/a	2	6	11	n/a	111	63	2	n/a	n/a	n/a	n/a	225.932	AM04HAS.jpg
198.0	0.514	Blank	Blank	22.796	n/a	2	6	11	n/a	111	n/a	2	n/a	n/a	n/a	n/a	226.429	n/a
198.53	0.497	happy	Picture	22.282	n/a	2	6	12	n/a	112	72	2	n/a	n/a	n/a	n/a	226.959	AM14HAS.jpg
199.028	0.514	Blank	Blank	21.768	n/a	2	6	12	n/a	112	n/a	2	n/a	n/a	n/a	n/a	227.457	n/a
199.558	0.497	happy	Picture	21.254	n/a	2	6	13	n/a	113	55	2	n/a	n/a	n/a	n/a	227.987	AF25HAS.jpg
200.055	0.514	Blank	Blank	20.74	n/a	2	6	13	n/a	113	n/a	2	n/a	n/a	n/a	n/a	228.485	n/a
200.586	0.497	happy	Picture	20.226	n/a	2	6	14	n/a	114	42	2	n/a	n/a	n/a	n/a	229.015	AF03HAS.jpg
201.083	0.514	Blank	Blank	19.712	n/a	2	6	14	n/a	114	n/a	2	n/a	n/a	n/a	n/a	229.513	n/a
201.614	0.497	happy	Picture	19.198	n/a	2	6	15	n/a	115	60	2	n/a	n/a	n/a	n/a	230.043	AF32HAS.jpg
202.111	0.514	Blank	Blank	18.684	n/a	2	6	15	n/a	115	n/a	2	n/a	n/a	n/a	n/a	230.541	n/a
202.642	0.497	happy	Picture	18.17	n/a	2	6	16	n/a	116	67	2	n/a	n/a	n/a	n/a	231.071	BM08HAS.jpg
203.139	0.514	Blank	Blank	17.656	n/a	2	6	16	n/a	116	n/a	2	n/a	n/a	n/a	n/a	231.568	n/a
203.67	0.497	happy	Picture	17.142	n/a	2	6	17	n/a	117	51	2	n/a	n/a	n/a	n/a	232.099	AF20HAS.jpg
204.167	0.514	Blank	Blank	16.628	n/a	2	6	17	n/a	117	n/a	2	n/a	n/a	n/a	n/a	232.596	n/a
204.698	0.497	happy	Picture	16.114	n/a	2	6	18	n/a	118	71	2	n/a	n/a	n/a	n/a	233.127	BM12HAS.jpg
205.195	0.514	Blank	Blank	15.6	n/a	2	6	18	n/a	118	n/a	2	n/a	n/a	n/a	n/a	233.624	n/a
205.725	0.497	happy	Picture	15.087	n/a	2	6	19	n/a	119	69	2	n/a	n/a	n/a	n/a	234.155	AM10HAS.jpg
206.223	0.514	Blank	Blank	14.573	n/a	2	6	19	n/a	119	n/a	2	n/a	n/a	n/a	n/a	234.652	n/a
206.753	0.497	happy	Picture	14.059	n/a	2	6	20	n/a	120	46	2	n/a	n/a	n/a	n/a	235.183	AF09HAS.jpg
207.251	0.514	Blank	Blank	13.545	n/a	2	6	20	n/a	120	n/a	2	n/a	n/a	n/a	n/a	235.68	n/a
207.781	10.014	ITI	Fixation+	3.514	n/a	2	n/a	n/a	n/a	n/a	n/a	n/a	n/a	n/a	n/a	n/a	236.21	n/a
221.309	n/a	ConfirmRating	Rate	n/a	3.498	2	n/a	n/a	0	n/a	n/a	n/a	2	Happy	69	52	249.739	n/a
228.11	n/a	ConfirmRating	Rate	n/a	6.797	2	n/a	n/a	1	n/a	n/a	n/a	3	Happy	28	47	256.539	n/a
228.14	15.004	Rest	Picture	n/a	n/a	n/a	n/a	n/a	n/a	n/a	n/a	n/a	0	n/a	0	0	256.569	n/a
243.161	10.014	ITI	Fixation+	95.899	n/a	3	n/a	n/a	n/a	n/a	n/a	n/a	n/a	n/a	n/a	n/a	271.59	n/a
253.191	0.497	angry	Picture	95.385	n/a	3	7	1	n/a	1	108	3	n/a	n/a	n/a	n/a	281.62	AM09ANS.jpg
253.688	0.514	Blank	Blank	94.871	n/a	3	7	1	n/a	1	n/a	3	n/a	n/a	n/a	n/a	282.117	n/a
254.219	0.497	angry	Picture	94.357	n/a	3	7	2	n/a	2	99	3	n/a	n/a	n/a	n/a	282.648	AF31ANS.jpg
254.716	0.514	Blank	Blank	93.843	n/a	3	7	2	n/a	2	n/a	3	n/a	n/a	n/a	n/a	283.145	n/a
255.247	0.497	angry	Picture	93.329	n/a	3	7	3	n/a	3	98	3	n/a	n/a	n/a	n/a	283.676	BF29ANS.jpg
255.744	0.514	Blank	Blank	92.815	n/a	3	7	3	n/a	3	n/a	3	n/a	n/a	n/a	n/a	284.173	n/a
256.275	0.497	angry	Picture	92.301	n/a	3	7	4	n/a	4	107	3	n/a	n/a	n/a	n/a	284.704	BM08ANS.jpg
256.772	0.514	Blank	Blank	91.787	n/a	3	7	4	n/a	4	n/a	3	n/a	n/a	n/a	n/a	285.201	n/a
257.302	0.497	angry	Picture	91.273	n/a	3	7	5	n/a	5	104	3	n/a	n/a	n/a	n/a	285.732	BM05ANS.jpg
257.8	0.514	Blank	Blank	90.759	n/a	3	7	5	n/a	5	n/a	3	n/a	n/a	n/a	n/a	286.229	n/a
258.33	0.497	angry	Picture	90.245	n/a	3	7	6	n/a	6	101	3	n/a	n/a	n/a	n/a	286.76	AM01ANS.jpg
258.828	0.514	Blank	Blank	89.731	n/a	3	7	6	n/a	6	n/a	3	n/a	n/a	n/a	n/a	287.257	n/a
259.358	0.497	angry	Picture	89.217	n/a	3	7	7	n/a	7	103	3	n/a	n/a	n/a	n/a	287.787	AM04ANS.jpg
259.856	0.514	Blank	Blank	88.704	n/a	3	7	7	n/a	7	n/a	3	n/a	n/a	n/a	n/a	288.285	n/a
260.386	0.497	angry	Picture	88.19	n/a	3	7	8	n/a	8	111	3	n/a	n/a	n/a	n/a	288.815	BM12ANS.jpg
260.883	0.514	Blank	Blank	87.676	n/a	3	7	8	n/a	8	n/a	3	n/a	n/a	n/a	n/a	289.313	n/a
261.414	0.497	angry	Picture	87.162	n/a	3	7	9	n/a	9	110	3	n/a	n/a	n/a	n/a	289.843	AM11ANS.jpg
261.911	0.514	Blank	Blank	86.648	n/a	3	7	9	n/a	9	n/a	3	n/a	n/a	n/a	n/a	290.341	n/a
262.442	0.497	angry	Picture	86.134	n/a	3	7	10	n/a	10	85	3	n/a	n/a	n/a	n/a	290.871	BF07ANS.jpg
262.939	0.514	Blank	Blank	85.62	n/a	3	7	10	n/a	10	n/a	3	n/a	n/a	n/a	n/a	291.368	n/a
263.47	0.497	angry	Picture	85.106	n/a	3	7	11	n/a	11	87	3	n/a	n/a	n/a	n/a	291.899	BF11ANS.jpg
263.967	0.514	Blank	Blank	84.592	n/a	3	7	11	n/a	11	n/a	3	n/a	n/a	n/a	n/a	292.396	n/a
264.498	0.497	angry	Picture	84.078	n/a	3	7	12	n/a	12	91	3	n/a	n/a	n/a	n/a	292.927	AF20ANS.jpg
264.995	0.514	Blank	Blank	83.564	n/a	3	7	12	n/a	12	n/a	3	n/a	n/a	n/a	n/a	293.424	n/a
265.526	0.497	angry	Picture	83.05	n/a	3	7	13	n/a	13	115	3	n/a	n/a	n/a	n/a	293.955	AM23ANS.jpg
266.023	0.514	Blank	Blank	82.536	n/a	3	7	13	n/a	13	n/a	3	n/a	n/a	n/a	n/a	294.452	n/a
266.553	0.497	angry	Picture	82.022	n/a	3	7	14	n/a	14	97	3	n/a	n/a	n/a	n/a	294.983	BF28ANS.jpg
267.051	0.514	Blank	Blank	81.508	n/a	3	7	14	n/a	14	n/a	3	n/a	n/a	n/a	n/a	295.48	n/a
267.581	0.497	angry	Picture	80.994	n/a	3	7	15	n/a	15	82	3	n/a	n/a	n/a	n/a	296.01	AF03ANS.jpg
268.079	0.514	Blank	Blank	80.48	n/a	3	7	15	n/a	15	n/a	3	n/a	n/a	n/a	n/a	296.508	n/a
268.609	0.497	angry	Picture	79.966	n/a	3	7	16	n/a	16	96	3	n/a	n/a	n/a	n/a	297.038	AF26ANS.jpg
269.107	0.514	Blank	Blank	79.452	n/a	3	7	16	n/a	16	n/a	3	n/a	n/a	n/a	n/a	297.536	n/a
269.637	0.497	angry	Picture	78.939	n/a	3	7	17	n/a	17	109	3	n/a	n/a	n/a	n/a	298.066	AM10ANS.jpg
270.134	0.514	Blank	Blank	78.425	n/a	3	7	17	n/a	17	n/a	3	n/a	n/a	n/a	n/a	298.564	n/a
270.665	0.497	angry	Picture	77.911	n/a	3	7	18	n/a	18	114	3	n/a	n/a	n/a	n/a	299.094	AM22ANS.jpg
271.162	0.514	Blank	Blank	77.397	n/a	3	7	18	n/a	18	n/a	3	n/a	n/a	n/a	n/a	299.591	n/a
271.693	0.497	angry	Picture	76.883	n/a	3	7	19	n/a	19	120	3	n/a	n/a	n/a	n/a	300.122	AM35ANS.jpg
272.19	0.514	Blank	Blank	76.369	n/a	3	7	19	n/a	19	n/a	3	n/a	n/a	n/a	n/a	300.619	n/a
272.721	0.497	angry	Picture	75.855	n/a	3	7	20	n/a	20	81	3	n/a	n/a	n/a	n/a	301.15	AF01ANS.jpg
273.218	0.514	Blank	Blank	75.341	n/a	3	7	20	n/a	20	n/a	3	n/a	n/a	n/a	n/a	301.647	n/a
273.749	10.014	ITI	Fixation+	65.311	n/a	3	n/a	n/a	n/a	n/a	n/a	n/a	n/a	n/a	n/a	n/a	302.178	n/a
283.779	0.497	neutral	Picture	64.797	n/a	3	8	1	n/a	21	28	1	n/a	n/a	n/a	n/a	312.208	AM09NES.jpg
284.276	0.514	Blank	Blank	64.283	n/a	3	8	1	n/a	21	n/a	1	n/a	n/a	n/a	n/a	312.705	n/a
284.807	0.497	neutral	Picture	63.769	n/a	3	8	2	n/a	22	27	1	n/a	n/a	n/a	n/a	313.236	BM08NES.jpg
285.304	0.514	Blank	Blank	63.255	n/a	3	8	2	n/a	22	n/a	1	n/a	n/a	n/a	n/a	313.733	n/a
285.835	0.497	neutral	Picture	62.741	n/a	3	8	3	n/a	23	16	1	n/a	n/a	n/a	n/a	314.264	AF26NES.jpg
286.332	0.514	Blank	Blank	62.227	n/a	3	8	3	n/a	23	n/a	1	n/a	n/a	n/a	n/a	314.761	n/a
286.863	0.497	neutral	Picture	61.713	n/a	3	8	4	n/a	24	3	1	n/a	n/a	n/a	n/a	315.292	BF04NES.jpg
287.36	0.514	Blank	Blank	61.199	n/a	3	8	4	n/a	24	n/a	1	n/a	n/a	n/a	n/a	315.789	n/a
287.89	0.497	neutral	Picture	60.685	n/a	3	8	5	n/a	25	32	1	n/a	n/a	n/a	n/a	316.32	AM14NES.jpg
288.388	0.514	Blank	Blank	60.171	n/a	3	8	5	n/a	25	n/a	1	n/a	n/a	n/a	n/a	316.817	n/a
288.918	0.497	neutral	Picture	59.657	n/a	3	8	6	n/a	26	37	1	n/a	n/a	n/a	n/a	317.348	BM25NES.jpg
289.416	0.514	Blank	Blank	59.143	n/a	3	8	6	n/a	26	n/a	1	n/a	n/a	n/a	n/a	317.845	n/a
289.946	0.497	neutral	Picture	58.63	n/a	3	8	7	n/a	27	15	1	n/a	n/a	n/a	n/a	318.375	AF25NES.jpg
290.444	0.514	Blank	Blank	58.115	n/a	3	8	7	n/a	27	n/a	1	n/a	n/a	n/a	n/a	318.873	n/a
290.974	0.497	neutral	Picture	57.602	n/a	3	8	8	n/a	28	23	1	n/a	n/a	n/a	n/a	319.403	AM04NES.jpg
291.471	0.514	Blank	Blank	57.088	n/a	3	8	8	n/a	28	n/a	1	n/a	n/a	n/a	n/a	319.901	n/a
292.002	0.497	neutral	Picture	56.574	n/a	3	8	9	n/a	29	34	1	n/a	n/a	n/a	n/a	320.431	AM22NES.jpg
292.499	0.514	Blank	Blank	56.06	n/a	3	8	9	n/a	29	n/a	1	n/a	n/a	n/a	n/a	320.928	n/a
293.03	0.497	neutral	Picture	55.546	n/a	3	8	10	n/a	30	24	1	n/a	n/a	n/a	n/a	321.459	BM05NES.jpg
293.527	0.514	Blank	Blank	55.032	n/a	3	8	10	n/a	30	n/a	1	n/a	n/a	n/a	n/a	321.956	n/a
294.058	0.497	neutral	Picture	54.518	n/a	3	8	11	n/a	31	12	1	n/a	n/a	n/a	n/a	322.487	AF21NES.jpg
294.555	0.514	Blank	Blank	54.004	n/a	3	8	11	n/a	31	n/a	1	n/a	n/a	n/a	n/a	322.984	n/a
295.086	0.497	neutral	Picture	53.49	n/a	3	8	12	n/a	32	6	1	n/a	n/a	n/a	n/a	323.515	AF09NES.jpg
295.583	0.514	Blank	Blank	52.976	n/a	3	8	12	n/a	32	n/a	1	n/a	n/a	n/a	n/a	324.012	n/a
296.114	0.497	neutral	Picture	52.462	n/a	3	8	13	n/a	33	17	1	n/a	n/a	n/a	n/a	324.543	BF28NES.jpg
296.611	0.514	Blank	Blank	51.948	n/a	3	8	13	n/a	33	n/a	1	n/a	n/a	n/a	n/a	325.04	n/a
297.141	0.497	neutral	Picture	51.434	n/a	3	8	14	n/a	34	2	1	n/a	n/a	n/a	n/a	325.571	AF03NES.jpg
297.639	0.514	Blank	Blank	50.92	n/a	3	8	14	n/a	34	n/a	1	n/a	n/a	n/a	n/a	326.068	n/a
298.169	0.497	neutral	Picture	50.406	n/a	3	8	15	n/a	35	9	1	n/a	n/a	n/a	n/a	326.599	AF17NES.jpg
298.667	0.514	Blank	Blank	49.892	n/a	3	8	15	n/a	35	n/a	1	n/a	n/a	n/a	n/a	327.096	n/a
299.197	0.497	neutral	Picture	49.379	n/a	3	8	16	n/a	36	25	1	n/a	n/a	n/a	n/a	327.626	BM06NES.jpg
299.695	0.514	Blank	Blank	48.865	n/a	3	8	16	n/a	36	n/a	1	n/a	n/a	n/a	n/a	328.124	n/a
300.225	0.497	neutral	Picture	48.351	n/a	3	8	17	n/a	37	8	1	n/a	n/a	n/a	n/a	328.654	AF14NES.jpg
300.722	0.514	Blank	Blank	47.837	n/a	3	8	17	n/a	37	n/a	1	n/a	n/a	n/a	n/a	329.152	n/a
301.253	0.497	neutral	Picture	47.323	n/a	3	8	18	n/a	38	19	1	n/a	n/a	n/a	n/a	329.682	AF31NES.jpg
301.75	0.514	Blank	Blank	46.809	n/a	3	8	18	n/a	38	n/a	1	n/a	n/a	n/a	n/a	330.18	n/a
302.281	0.497	neutral	Picture	46.295	n/a	3	8	19	n/a	39	14	1	n/a	n/a	n/a	n/a	330.71	AF23NES.jpg
302.778	0.514	Blank	Blank	45.781	n/a	3	8	19	n/a	39	n/a	1	n/a	n/a	n/a	n/a	331.207	n/a
303.309	0.497	neutral	Picture	45.267	n/a	3	8	20	n/a	40	4	1	n/a	n/a	n/a	n/a	331.738	AF05NES.jpg
303.806	0.514	Blank	Blank	44.753	n/a	3	8	20	n/a	40	n/a	1	n/a	n/a	n/a	n/a	332.235	n/a
304.337	10.014	ITI	Fixation+	34.723	n/a	3	n/a	n/a	n/a	n/a	n/a	n/a	n/a	n/a	n/a	n/a	332.766	n/a
314.367	0.497	angry	Picture	34.209	n/a	3	9	1	n/a	41	84	3	n/a	n/a	n/a	n/a	342.796	AF05ANS.jpg
314.864	0.514	Blank	Blank	33.695	n/a	3	9	1	n/a	41	n/a	3	n/a	n/a	n/a	n/a	343.293	n/a
315.395	0.497	angry	Picture	33.181	n/a	3	9	2	n/a	42	92	3	n/a	n/a	n/a	n/a	343.824	AF21ANS.jpg
315.892	0.514	Blank	Blank	32.667	n/a	3	9	2	n/a	42	n/a	3	n/a	n/a	n/a	n/a	344.321	n/a
316.423	0.497	angry	Picture	32.153	n/a	3	9	3	n/a	43	86	3	n/a	n/a	n/a	n/a	344.852	AF09ANS.jpg
316.92	0.514	Blank	Blank	31.639	n/a	3	9	3	n/a	43	n/a	3	n/a	n/a	n/a	n/a	345.349	n/a
317.451	0.497	angry	Picture	31.125	n/a	3	9	4	n/a	44	93	3	n/a	n/a	n/a	n/a	345.88	BF22ANS.jpg
317.948	0.514	Blank	Blank	30.611	n/a	3	9	4	n/a	44	n/a	3	n/a	n/a	n/a	n/a	346.377	n/a
318.478	0.497	angry	Picture	30.097	n/a	3	9	5	n/a	45	88	3	n/a	n/a	n/a	n/a	346.908	AF14ANS.jpg
318.976	0.514	Blank	Blank	29.583	n/a	3	9	5	n/a	45	n/a	3	n/a	n/a	n/a	n/a	347.405	n/a
319.506	0.497	angry	Picture	29.069	n/a	3	9	6	n/a	46	113	3	n/a	n/a	n/a	n/a	347.935	AM21ANS.jpg
320.004	0.514	Blank	Blank	28.555	n/a	3	9	6	n/a	46	n/a	3	n/a	n/a	n/a	n/a	348.433	n/a
320.534	0.497	angry	Picture	28.041	n/a	3	9	7	n/a	47	95	3	n/a	n/a	n/a	n/a	348.963	AF25ANS.jpg
321.032	0.514	Blank	Blank	27.528	n/a	3	9	7	n/a	47	n/a	3	n/a	n/a	n/a	n/a	349.461	n/a
321.562	0.497	angry	Picture	27.014	n/a	3	9	8	n/a	48	102	3	n/a	n/a	n/a	n/a	349.991	BM03ANS.jpg
322.059	0.514	Blank	Blank	26.5	n/a	3	9	8	n/a	48	n/a	3	n/a	n/a	n/a	n/a	350.489	n/a
322.59	0.497	angry	Picture	25.986	n/a	3	9	9	n/a	49	112	3	n/a	n/a	n/a	n/a	351.019	AM14ANS.jpg
323.087	0.514	Blank	Blank	25.472	n/a	3	9	9	n/a	49	n/a	3	n/a	n/a	n/a	n/a	351.517	n/a
323.618	0.497	angry	Picture	24.958	n/a	3	9	10	n/a	50	83	3	n/a	n/a	n/a	n/a	352.047	BF04ANS.jpg
324.115	0.514	Blank	Blank	24.444	n/a	3	9	10	n/a	50	n/a	3	n/a	n/a	n/a	n/a	352.544	n/a
324.646	0.497	angry	Picture	23.93	n/a	3	9	11	n/a	51	90	3	n/a	n/a	n/a	n/a	353.075	AF18ANS.jpg
325.143	0.514	Blank	Blank	23.416	n/a	3	9	11	n/a	51	n/a	3	n/a	n/a	n/a	n/a	353.572	n/a
325.674	0.497	angry	Picture	22.902	n/a	3	9	12	n/a	52	117	3	n/a	n/a	n/a	n/a	354.103	BM25ANS.jpg
326.171	0.514	Blank	Blank	22.388	n/a	3	9	12	n/a	52	n/a	3	n/a	n/a	n/a	n/a	354.6	n/a
326.702	0.497	angry	Picture	21.874	n/a	3	9	13	n/a	53	94	3	n/a	n/a	n/a	n/a	355.131	AF23ANS.jpg
327.199	0.514	Blank	Blank	21.36	n/a	3	9	13	n/a	53	n/a	3	n/a	n/a	n/a	n/a	355.628	n/a
327.729	0.497	angry	Picture	20.846	n/a	3	9	14	n/a	54	106	3	n/a	n/a	n/a	n/a	356.159	AM07ANS.jpg
328.227	0.514	Blank	Blank	20.332	n/a	3	9	14	n/a	54	n/a	3	n/a	n/a	n/a	n/a	356.656	n/a
328.757	0.497	angry	Picture	19.818	n/a	3	9	15	n/a	55	105	3	n/a	n/a	n/a	n/a	357.187	BM06ANS.jpg
329.255	0.514	Blank	Blank	19.304	n/a	3	9	15	n/a	55	n/a	3	n/a	n/a	n/a	n/a	357.684	n/a
329.785	0.497	angry	Picture	18.79	n/a	3	9	16	n/a	56	116	3	n/a	n/a	n/a	n/a	358.214	BM24ANS.jpg
330.283	0.514	Blank	Blank	18.277	n/a	3	9	16	n/a	56	n/a	3	n/a	n/a	n/a	n/a	358.712	n/a
330.813	0.497	angry	Picture	17.762	n/a	3	9	17	n/a	57	89	3	n/a	n/a	n/a	n/a	359.242	AF17ANS.jpg
331.311	0.514	Blank	Blank	17.249	n/a	3	9	17	n/a	57	n/a	3	n/a	n/a	n/a	n/a	359.74	n/a
331.841	0.497	angry	Picture	16.735	n/a	3	9	18	n/a	58	118	3	n/a	n/a	n/a	n/a	360.27	BM26ANS.jpg
332.338	0.514	Blank	Blank	16.221	n/a	3	9	18	n/a	58	n/a	3	n/a	n/a	n/a	n/a	360.767	n/a
332.869	0.497	angry	Picture	15.707	n/a	3	9	19	n/a	59	100	3	n/a	n/a	n/a	n/a	361.298	AF32ANS.jpg
333.366	0.514	Blank	Blank	15.193	n/a	3	9	19	n/a	59	n/a	3	n/a	n/a	n/a	n/a	361.795	n/a
333.897	0.497	angry	Picture	14.679	n/a	3	9	20	n/a	60	119	3	n/a	n/a	n/a	n/a	362.326	BM28ANS.jpg
334.394	0.514	Blank	Blank	14.165	n/a	3	9	20	n/a	60	n/a	3	n/a	n/a	n/a	n/a	362.823	n/a
334.925	10.014	ITI	Fixation+	4.135	n/a	3	n/a	n/a	n/a	n/a	n/a	n/a	n/a	n/a	n/a	n/a	363.354	n/a
349.073	n/a	ConfirmRating	Rate	n/a	4.128	3	n/a	n/a	0	n/a	n/a	n/a	2	Angry	19	45	377.502	n/a
353.304	n/a	ConfirmRating	Rate	n/a	4.211	3	n/a	n/a	1	n/a	n/a	n/a	3	Angry	67	52	381.733	n/a
353.327	10.014	ITI	Fixation+	94.89	n/a	4	n/a	n/a	n/a	n/a	n/a	n/a	n/a	n/a	n/a	n/a	381.756	n/a
363.357	0.497	happy	Picture	94.376	n/a	4	10	1	n/a	61	79	2	n/a	n/a	n/a	n/a	391.787	BM28HAS.jpg
363.855	0.514	Blank	Blank	93.862	n/a	4	10	1	n/a	61	n/a	2	n/a	n/a	n/a	n/a	392.284	n/a
364.385	0.497	happy	Picture	93.348	n/a	4	10	2	n/a	62	61	2	n/a	n/a	n/a	n/a	392.815	AM01HAS.jpg
364.883	0.514	Blank	Blank	92.834	n/a	4	10	2	n/a	62	n/a	2	n/a	n/a	n/a	n/a	393.312	n/a
365.413	0.497	happy	Picture	92.32	n/a	4	10	3	n/a	63	57	2	n/a	n/a	n/a	n/a	393.842	BF28HAS.jpg
365.911	0.514	Blank	Blank	91.806	n/a	4	10	3	n/a	63	n/a	2	n/a	n/a	n/a	n/a	394.34	n/a
366.441	0.497	happy	Picture	91.293	n/a	4	10	4	n/a	64	77	2	n/a	n/a	n/a	n/a	394.87	BM25HAS.jpg
366.938	0.514	Blank	Blank	90.779	n/a	4	10	4	n/a	64	n/a	2	n/a	n/a	n/a	n/a	395.368	n/a
367.469	0.497	happy	Picture	90.265	n/a	4	10	5	n/a	65	47	2	n/a	n/a	n/a	n/a	395.898	BF11HAS.jpg
367.966	0.514	Blank	Blank	89.751	n/a	4	10	5	n/a	65	n/a	2	n/a	n/a	n/a	n/a	396.396	n/a
368.497	0.497	happy	Picture	89.237	n/a	4	10	6	n/a	66	50	2	n/a	n/a	n/a	n/a	396.926	AF18HAS.jpg
368.994	0.514	Blank	Blank	88.723	n/a	4	10	6	n/a	66	n/a	2	n/a	n/a	n/a	n/a	397.423	n/a
369.525	0.497	happy	Picture	88.209	n/a	4	10	7	n/a	67	78	2	n/a	n/a	n/a	n/a	397.954	BM26HAS.jpg
370.022	0.514	Blank	Blank	87.695	n/a	4	10	7	n/a	67	n/a	2	n/a	n/a	n/a	n/a	398.451	n/a
370.553	0.497	happy	Picture	87.181	n/a	4	10	8	n/a	68	45	2	n/a	n/a	n/a	n/a	398.982	BF07HAS.jpg
371.05	0.514	Blank	Blank	86.667	n/a	4	10	8	n/a	68	n/a	2	n/a	n/a	n/a	n/a	399.479	n/a
371.581	0.497	happy	Picture	86.153	n/a	4	10	9	n/a	69	56	2	n/a	n/a	n/a	n/a	400.01	AF26HAS.jpg
372.078	0.514	Blank	Blank	85.639	n/a	4	10	9	n/a	69	n/a	2	n/a	n/a	n/a	n/a	400.507	n/a
372.608	0.497	happy	Picture	85.125	n/a	4	10	10	n/a	70	65	2	n/a	n/a	n/a	n/a	401.038	BM06HAS.jpg
373.106	0.514	Blank	Blank	84.611	n/a	4	10	10	n/a	70	n/a	2	n/a	n/a	n/a	n/a	401.535	n/a
373.636	0.497	happy	Picture	84.097	n/a	4	10	11	n/a	71	73	2	n/a	n/a	n/a	n/a	402.065	AM21HAS.jpg
374.134	0.514	Blank	Blank	83.583	n/a	4	10	11	n/a	71	n/a	2	n/a	n/a	n/a	n/a	402.563	n/a
374.664	0.497	happy	Picture	83.069	n/a	4	10	12	n/a	72	41	2	n/a	n/a	n/a	n/a	403.093	AF01HAS.jpg
375.162	0.514	Blank	Blank	82.555	n/a	4	10	12	n/a	72	n/a	2	n/a	n/a	n/a	n/a	403.591	n/a
375.692	0.497	happy	Picture	82.041	n/a	4	10	13	n/a	73	59	2	n/a	n/a	n/a	n/a	404.121	AF31HAS.jpg
376.19	0.514	Blank	Blank	81.528	n/a	4	10	13	n/a	73	n/a	2	n/a	n/a	n/a	n/a	404.619	n/a
376.72	0.497	happy	Picture	81.014	n/a	4	10	14	n/a	74	64	2	n/a	n/a	n/a	n/a	405.149	BM05HAS.jpg
377.217	0.514	Blank	Blank	80.5	n/a	4	10	14	n/a	74	n/a	2	n/a	n/a	n/a	n/a	405.647	n/a
377.748	0.497	happy	Picture	79.986	n/a	4	10	15	n/a	75	68	2	n/a	n/a	n/a	n/a	406.177	AM09HAS.jpg
378.245	0.514	Blank	Blank	79.472	n/a	4	10	15	n/a	75	n/a	2	n/a	n/a	n/a	n/a	406.674	n/a
378.776	0.497	happy	Picture	78.958	n/a	4	10	16	n/a	76	54	2	n/a	n/a	n/a	n/a	407.205	AF23HAS.jpg
379.273	0.514	Blank	Blank	78.444	n/a	4	10	16	n/a	76	n/a	2	n/a	n/a	n/a	n/a	407.702	n/a
379.804	0.497	happy	Picture	77.93	n/a	4	10	17	n/a	77	53	2	n/a	n/a	n/a	n/a	408.233	BF22HAS.jpg
380.301	0.514	Blank	Blank	77.416	n/a	4	10	17	n/a	77	n/a	2	n/a	n/a	n/a	n/a	408.73	n/a
380.832	0.497	happy	Picture	76.902	n/a	4	10	18	n/a	78	44	2	n/a	n/a	n/a	n/a	409.261	AF05HAS.jpg
381.329	0.514	Blank	Blank	76.388	n/a	4	10	18	n/a	78	n/a	2	n/a	n/a	n/a	n/a	409.758	n/a
381.859	0.497	happy	Picture	75.874	n/a	4	10	19	n/a	79	52	2	n/a	n/a	n/a	n/a	410.289	AF21HAS.jpg
382.357	0.514	Blank	Blank	75.36	n/a	4	10	19	n/a	79	n/a	2	n/a	n/a	n/a	n/a	410.786	n/a
382.887	0.497	happy	Picture	74.846	n/a	4	10	20	n/a	80	62	2	n/a	n/a	n/a	n/a	411.317	BM03HAS.jpg
383.385	0.514	Blank	Blank	74.332	n/a	4	10	20	n/a	80	n/a	2	n/a	n/a	n/a	n/a	411.814	n/a
383.915	10.014	ITI	Fixation+	64.302	n/a	4	n/a	n/a	n/a	n/a	n/a	n/a	n/a	n/a	n/a	n/a	412.344	n/a
393.945	0.497	neutral	Picture	63.788	n/a	4	11	1	n/a	81	23	1	n/a	n/a	n/a	n/a	422.375	AM04NES.jpg
394.443	0.514	Blank	Blank	63.274	n/a	4	11	1	n/a	81	n/a	1	n/a	n/a	n/a	n/a	422.872	n/a
394.973	0.497	neutral	Picture	62.76	n/a	4	11	2	n/a	82	29	1	n/a	n/a	n/a	n/a	423.402	AM10NES.jpg
395.471	0.514	Blank	Blank	62.246	n/a	4	11	2	n/a	82	n/a	1	n/a	n/a	n/a	n/a	423.9	n/a
396.001	0.497	neutral	Picture	61.732	n/a	4	11	3	n/a	83	24	1	n/a	n/a	n/a	n/a	424.43	BM05NES.jpg
396.499	0.514	Blank	Blank	61.218	n/a	4	11	3	n/a	83	n/a	1	n/a	n/a	n/a	n/a	424.928	n/a
397.029	0.497	neutral	Picture	60.704	n/a	4	11	4	n/a	84	12	1	n/a	n/a	n/a	n/a	425.458	AF21NES.jpg
397.526	0.514	Blank	Blank	60.191	n/a	4	11	4	n/a	84	n/a	1	n/a	n/a	n/a	n/a	425.956	n/a
398.057	0.497	neutral	Picture	59.676	n/a	4	11	5	n/a	85	13	1	n/a	n/a	n/a	n/a	426.486	BF22NES.jpg
398.554	0.514	Blank	Blank	59.163	n/a	4	11	5	n/a	85	n/a	1	n/a	n/a	n/a	n/a	426.984	n/a
399.085	0.497	neutral	Picture	58.649	n/a	4	11	6	n/a	86	17	1	n/a	n/a	n/a	n/a	427.514	BF28NES.jpg
399.582	0.514	Blank	Blank	58.135	n/a	4	11	6	n/a	86	n/a	1	n/a	n/a	n/a	n/a	428.011	n/a
400.113	0.497	neutral	Picture	57.621	n/a	4	11	7	n/a	87	4	1	n/a	n/a	n/a	n/a	428.542	AF05NES.jpg
400.61	0.514	Blank	Blank	57.107	n/a	4	11	7	n/a	87	n/a	1	n/a	n/a	n/a	n/a	429.039	n/a
401.141	0.497	neutral	Picture	56.593	n/a	4	11	8	n/a	88	11	1	n/a	n/a	n/a	n/a	429.57	AF20NES.jpg
401.638	0.514	Blank	Blank	56.079	n/a	4	11	8	n/a	88	n/a	1	n/a	n/a	n/a	n/a	430.067	n/a
402.169	0.497	neutral	Picture	55.565	n/a	4	11	9	n/a	89	22	1	n/a	n/a	n/a	n/a	430.598	BM03NES.jpg
402.666	0.514	Blank	Blank	55.051	n/a	4	11	9	n/a	89	n/a	1	n/a	n/a	n/a	n/a	431.095	n/a
403.196	0.497	neutral	Picture	54.537	n/a	4	11	10	n/a	90	15	1	n/a	n/a	n/a	n/a	431.626	AF25NES.jpg
403.694	0.514	Blank	Blank	54.023	n/a	4	11	10	n/a	90	n/a	1	n/a	n/a	n/a	n/a	432.123	n/a
404.224	0.497	neutral	Picture	53.509	n/a	4	11	11	n/a	91	19	1	n/a	n/a	n/a	n/a	432.654	AF31NES.jpg
404.722	0.514	Blank	Blank	52.995	n/a	4	11	11	n/a	91	n/a	1	n/a	n/a	n/a	n/a	433.151	n/a
405.252	0.497	neutral	Picture	52.481	n/a	4	11	12	n/a	92	9	1	n/a	n/a	n/a	n/a	433.681	AF17NES.jpg
405.75	0.514	Blank	Blank	51.967	n/a	4	11	12	n/a	92	n/a	1	n/a	n/a	n/a	n/a	434.179	n/a
406.28	0.497	neutral	Picture	51.453	n/a	4	11	13	n/a	93	14	1	n/a	n/a	n/a	n/a	434.709	AF23NES.jpg
406.778	0.514	Blank	Blank	50.94	n/a	4	11	13	n/a	93	n/a	1	n/a	n/a	n/a	n/a	435.207	n/a
407.308	0.497	neutral	Picture	50.425	n/a	4	11	14	n/a	94	36	1	n/a	n/a	n/a	n/a	435.737	BM24NES.jpg
407.805	0.514	Blank	Blank	49.912	n/a	4	11	14	n/a	94	n/a	1	n/a	n/a	n/a	n/a	436.235	n/a
408.336	0.497	neutral	Picture	49.398	n/a	4	11	15	n/a	95	34	1	n/a	n/a	n/a	n/a	436.765	AM22NES.jpg
408.833	0.514	Blank	Blank	48.884	n/a	4	11	15	n/a	95	n/a	1	n/a	n/a	n/a	n/a	437.262	n/a
409.364	0.497	neutral	Picture	48.37	n/a	4	11	16	n/a	96	10	1	n/a	n/a	n/a	n/a	437.793	AF18NES.jpg
409.861	0.514	Blank	Blank	47.856	n/a	4	11	16	n/a	96	n/a	1	n/a	n/a	n/a	n/a	438.29	n/a
410.392	0.497	neutral	Picture	47.342	n/a	4	11	17	n/a	97	5	1	n/a	n/a	n/a	n/a	438.821	BF07NES.jpg
410.889	0.514	Blank	Blank	46.828	n/a	4	11	17	n/a	97	n/a	1	n/a	n/a	n/a	n/a	439.318	n/a
411.42	0.497	neutral	Picture	46.314	n/a	4	11	18	n/a	98	25	1	n/a	n/a	n/a	n/a	439.849	BM06NES.jpg
411.917	0.514	Blank	Blank	45.8	n/a	4	11	18	n/a	98	n/a	1	n/a	n/a	n/a	n/a	440.346	n/a
412.448	0.497	neutral	Picture	45.286	n/a	4	11	19	n/a	99	39	1	n/a	n/a	n/a	n/a	440.877	AM28NES.jpg
412.945	0.514	Blank	Blank	44.772	n/a	4	11	19	n/a	99	n/a	1	n/a	n/a	n/a	n/a	441.374	n/a
413.475	0.497	neutral	Picture	44.258	n/a	4	11	20	n/a	100	33	1	n/a	n/a	n/a	n/a	441.904	AM21NES.jpg
413.973	0.514	Blank	Blank	43.744	n/a	4	11	20	n/a	100	n/a	1	n/a	n/a	n/a	n/a	442.402	n/a
414.503	10.014	ITI	Fixation+	33.714	n/a	4	n/a	n/a	n/a	n/a	n/a	n/a	n/a	n/a	n/a	n/a	442.932	n/a
424.534	0.497	happy	Picture	33.2	n/a	4	12	1	n/a	101	74	2	n/a	n/a	n/a	n/a	452.963	AM22HAS.jpg
425.031	0.514	Blank	Blank	32.686	n/a	4	12	1	n/a	101	n/a	2	n/a	n/a	n/a	n/a	453.46	n/a
425.561	0.497	happy	Picture	32.172	n/a	4	12	2	n/a	102	76	2	n/a	n/a	n/a	n/a	453.99	BM24HAS.jpg
426.059	0.514	Blank	Blank	31.658	n/a	4	12	2	n/a	102	n/a	2	n/a	n/a	n/a	n/a	454.488	n/a
426.589	0.497	happy	Picture	31.144	n/a	4	12	3	n/a	103	80	2	n/a	n/a	n/a	n/a	455.018	BM35HAS.jpg
427.087	0.514	Blank	Blank	30.63	n/a	4	12	3	n/a	103	n/a	2	n/a	n/a	n/a	n/a	455.516	n/a
427.617	0.497	happy	Picture	30.116	n/a	4	12	4	n/a	104	75	2	n/a	n/a	n/a	n/a	456.046	AM23HAS.jpg
428.115	0.514	Blank	Blank	29.603	n/a	4	12	4	n/a	104	n/a	2	n/a	n/a	n/a	n/a	456.544	n/a
428.645	0.497	happy	Picture	29.088	n/a	4	12	5	n/a	105	49	2	n/a	n/a	n/a	n/a	457.074	AF17HAS.jpg
429.142	0.514	Blank	Blank	28.575	n/a	4	12	5	n/a	105	n/a	2	n/a	n/a	n/a	n/a	457.572	n/a
429.673	0.497	happy	Picture	28.061	n/a	4	12	6	n/a	106	43	2	n/a	n/a	n/a	n/a	458.102	BF04HAS.jpg
430.17	0.514	Blank	Blank	27.547	n/a	4	12	6	n/a	106	n/a	2	n/a	n/a	n/a	n/a	458.599	n/a
430.701	0.497	happy	Picture	27.033	n/a	4	12	7	n/a	107	70	2	n/a	n/a	n/a	n/a	459.13	BM11HAS.jpg
431.198	0.514	Blank	Blank	26.519	n/a	4	12	7	n/a	107	n/a	2	n/a	n/a	n/a	n/a	459.627	n/a
431.729	0.497	happy	Picture	26.005	n/a	4	12	8	n/a	108	66	2	n/a	n/a	n/a	n/a	460.158	BM07HAS.jpg
432.226	0.514	Blank	Blank	25.491	n/a	4	12	8	n/a	108	n/a	2	n/a	n/a	n/a	n/a	460.655	n/a
432.757	0.497	happy	Picture	24.977	n/a	4	12	9	n/a	109	48	2	n/a	n/a	n/a	n/a	461.186	AF14HAS.jpg
433.254	0.514	Blank	Blank	24.463	n/a	4	12	9	n/a	109	n/a	2	n/a	n/a	n/a	n/a	461.683	n/a
433.785	0.497	happy	Picture	23.949	n/a	4	12	10	n/a	110	58	2	n/a	n/a	n/a	n/a	462.214	BF29HAS.jpg
434.282	0.514	Blank	Blank	23.435	n/a	4	12	10	n/a	110	n/a	2	n/a	n/a	n/a	n/a	462.711	n/a
434.812	0.497	happy	Picture	22.921	n/a	4	12	11	n/a	111	63	2	n/a	n/a	n/a	n/a	463.242	AM04HAS.jpg
435.31	0.514	Blank	Blank	22.407	n/a	4	12	11	n/a	111	n/a	2	n/a	n/a	n/a	n/a	463.739	n/a
435.84	0.497	happy	Picture	21.893	n/a	4	12	12	n/a	112	72	2	n/a	n/a	n/a	n/a	464.269	AM14HAS.jpg
436.338	0.514	Blank	Blank	21.379	n/a	4	12	12	n/a	112	n/a	2	n/a	n/a	n/a	n/a	464.767	n/a
436.868	0.497	happy	Picture	20.865	n/a	4	12	13	n/a	113	55	2	n/a	n/a	n/a	n/a	465.297	AF25HAS.jpg
437.365	0.514	Blank	Blank	20.352	n/a	4	12	13	n/a	113	n/a	2	n/a	n/a	n/a	n/a	465.795	n/a
437.896	0.497	happy	Picture	19.837	n/a	4	12	14	n/a	114	42	2	n/a	n/a	n/a	n/a	466.325	AF03HAS.jpg
438.393	0.514	Blank	Blank	19.324	n/a	4	12	14	n/a	114	n/a	2	n/a	n/a	n/a	n/a	466.823	n/a
438.924	0.497	happy	Picture	18.81	n/a	4	12	15	n/a	115	60	2	n/a	n/a	n/a	n/a	467.353	AF32HAS.jpg
439.421	0.514	Blank	Blank	18.296	n/a	4	12	15	n/a	115	n/a	2	n/a	n/a	n/a	n/a	467.851	n/a
439.952	0.497	happy	Picture	17.782	n/a	4	12	16	n/a	116	67	2	n/a	n/a	n/a	n/a	468.381	BM08HAS.jpg
440.449	0.514	Blank	Blank	17.268	n/a	4	12	16	n/a	116	n/a	2	n/a	n/a	n/a	n/a	468.878	n/a
440.98	0.497	happy	Picture	16.754	n/a	4	12	17	n/a	117	51	2	n/a	n/a	n/a	n/a	469.409	AF20HAS.jpg
441.477	0.514	Blank	Blank	16.24	n/a	4	12	17	n/a	117	n/a	2	n/a	n/a	n/a	n/a	469.906	n/a
442.008	0.497	happy	Picture	15.726	n/a	4	12	18	n/a	118	71	2	n/a	n/a	n/a	n/a	470.437	BM12HAS.jpg
442.505	0.514	Blank	Blank	15.212	n/a	4	12	18	n/a	118	n/a	2	n/a	n/a	n/a	n/a	470.934	n/a
443.036	0.497	happy	Picture	14.698	n/a	4	12	19	n/a	119	69	2	n/a	n/a	n/a	n/a	471.465	AM10HAS.jpg
443.533	0.514	Blank	Blank	14.184	n/a	4	12	19	n/a	119	n/a	2	n/a	n/a	n/a	n/a	471.962	n/a
444.063	0.497	happy	Picture	13.67	n/a	4	12	20	n/a	120	46	2	n/a	n/a	n/a	n/a	472.493	AF09HAS.jpg
444.561	0.514	Blank	Blank	13.156	n/a	4	12	20	n/a	120	n/a	2	n/a	n/a	n/a	n/a	472.99	n/a
445.091	10.014	ITI	Fixation+	3.126	n/a	4	n/a	n/a	n/a	n/a	n/a	n/a	n/a	n/a	n/a	n/a	473.521	n/a
458.231	n/a	ConfirmRating	Rate	n/a	3.117	4	n/a	n/a	0	n/a	n/a	n/a	2	Happy	80	54	486.66	n/a
462.43	n/a	ConfirmRating	Rate	n/a	4.178	4	n/a	n/a	1	n/a	n/a	n/a	3	Happy	17	45	490.859	n/a
