onset	duration	trial_type	event_type	time_until_response	response_time	trial_number	block_num_within_trial	image_seq_num_within_block	question_seq_num_within_block	image_seq_num	picture_number	condition	question_type	block_type	rating	rating_computed	onset_uncorrected	KDEV_imagefile
0.01	10.014	ITI	Fixation+	96.496	n/a	1	n/a	n/a	n/a	n/a	n/a	n/a	n/a	n/a	n/a	n/a	32.589	n/a
10.04	0.497	happy	Picture	95.982	n/a	1	1	1	n/a	1	46	2	n/a	n/a	n/a	n/a	42.619	AF09HAS.jpg
10.537	0.514	Blank	Blank	95.468	n/a	1	1	1	n/a	1	n/a	2	n/a	n/a	n/a	n/a	43.116	n/a
11.068	0.497	happy	Picture	94.954	n/a	1	1	2	n/a	2	69	2	n/a	n/a	n/a	n/a	43.647	AM10HAS.jpg
11.565	0.514	Blank	Blank	94.44	n/a	1	1	2	n/a	2	n/a	2	n/a	n/a	n/a	n/a	44.144	n/a
12.096	0.497	happy	Picture	93.926	n/a	1	1	3	n/a	3	71	2	n/a	n/a	n/a	n/a	44.675	BM12HAS.jpg
12.593	0.514	Blank	Blank	93.412	n/a	1	1	3	n/a	3	n/a	2	n/a	n/a	n/a	n/a	45.172	n/a
13.124	0.497	happy	Picture	92.898	n/a	1	1	4	n/a	4	51	2	n/a	n/a	n/a	n/a	45.703	AF20HAS.jpg
13.621	0.514	Blank	Blank	92.384	n/a	1	1	4	n/a	4	n/a	2	n/a	n/a	n/a	n/a	46.2	n/a
14.152	0.497	happy	Picture	91.87	n/a	1	1	5	n/a	5	67	2	n/a	n/a	n/a	n/a	46.73	BM08HAS.jpg
14.649	0.514	Blank	Blank	91.356	n/a	1	1	5	n/a	5	n/a	2	n/a	n/a	n/a	n/a	47.228	n/a
15.18	0.497	happy	Picture	90.842	n/a	1	1	6	n/a	6	60	2	n/a	n/a	n/a	n/a	47.758	AF32HAS.jpg
15.677	0.514	Blank	Blank	90.329	n/a	1	1	6	n/a	6	n/a	2	n/a	n/a	n/a	n/a	48.256	n/a
16.207	0.497	happy	Picture	89.815	n/a	1	1	7	n/a	7	42	2	n/a	n/a	n/a	n/a	48.786	AF03HAS.jpg
16.705	0.514	Blank	Blank	89.301	n/a	1	1	7	n/a	7	n/a	2	n/a	n/a	n/a	n/a	49.284	n/a
17.235	0.497	happy	Picture	88.787	n/a	1	1	8	n/a	8	55	2	n/a	n/a	n/a	n/a	49.814	AF25HAS.jpg
17.733	0.514	Blank	Blank	88.273	n/a	1	1	8	n/a	8	n/a	2	n/a	n/a	n/a	n/a	50.312	n/a
18.263	0.497	happy	Picture	87.759	n/a	1	1	9	n/a	9	72	2	n/a	n/a	n/a	n/a	50.842	AM14HAS.jpg
18.761	0.514	Blank	Blank	87.245	n/a	1	1	9	n/a	9	n/a	2	n/a	n/a	n/a	n/a	51.339	n/a
19.291	0.497	happy	Picture	86.731	n/a	1	1	10	n/a	10	63	2	n/a	n/a	n/a	n/a	51.87	AM04HAS.jpg
19.788	0.514	Blank	Blank	86.217	n/a	1	1	10	n/a	10	n/a	2	n/a	n/a	n/a	n/a	52.367	n/a
20.319	0.497	happy	Picture	85.703	n/a	1	1	11	n/a	11	58	2	n/a	n/a	n/a	n/a	52.898	BF29HAS.jpg
20.816	0.514	Blank	Blank	85.189	n/a	1	1	11	n/a	11	n/a	2	n/a	n/a	n/a	n/a	53.395	n/a
21.347	0.497	happy	Picture	84.675	n/a	1	1	12	n/a	12	48	2	n/a	n/a	n/a	n/a	53.926	AF14HAS.jpg
21.844	0.514	Blank	Blank	84.161	n/a	1	1	12	n/a	12	n/a	2	n/a	n/a	n/a	n/a	54.423	n/a
22.375	0.497	happy	Picture	83.647	n/a	1	1	13	n/a	13	66	2	n/a	n/a	n/a	n/a	54.954	BM07HAS.jpg
22.872	0.514	Blank	Blank	83.133	n/a	1	1	13	n/a	13	n/a	2	n/a	n/a	n/a	n/a	55.451	n/a
23.403	0.497	happy	Picture	82.619	n/a	1	1	14	n/a	14	70	2	n/a	n/a	n/a	n/a	55.981	BM11HAS.jpg
23.9	0.514	Blank	Blank	82.105	n/a	1	1	14	n/a	14	n/a	2	n/a	n/a	n/a	n/a	56.479	n/a
24.431	0.497	happy	Picture	81.591	n/a	1	1	15	n/a	15	43	2	n/a	n/a	n/a	n/a	57.009	BF04HAS.jpg
24.928	0.514	Blank	Blank	81.078	n/a	1	1	15	n/a	15	n/a	2	n/a	n/a	n/a	n/a	57.507	n/a
25.458	0.497	happy	Picture	80.564	n/a	1	1	16	n/a	16	49	2	n/a	n/a	n/a	n/a	58.037	AF17HAS.jpg
25.956	0.514	Blank	Blank	80.05	n/a	1	1	16	n/a	16	n/a	2	n/a	n/a	n/a	n/a	58.535	n/a
26.486	0.497	happy	Picture	79.536	n/a	1	1	17	n/a	17	75	2	n/a	n/a	n/a	n/a	59.065	AM23HAS.jpg
26.984	0.514	Blank	Blank	79.022	n/a	1	1	17	n/a	17	n/a	2	n/a	n/a	n/a	n/a	59.563	n/a
27.514	0.497	happy	Picture	78.508	n/a	1	1	18	n/a	18	80	2	n/a	n/a	n/a	n/a	60.093	BM35HAS.jpg
28.012	0.514	Blank	Blank	77.994	n/a	1	1	18	n/a	18	n/a	2	n/a	n/a	n/a	n/a	60.59	n/a
28.542	0.497	happy	Picture	77.48	n/a	1	1	19	n/a	19	76	2	n/a	n/a	n/a	n/a	61.121	BM24HAS.jpg
29.039	0.514	Blank	Blank	76.966	n/a	1	1	19	n/a	19	n/a	2	n/a	n/a	n/a	n/a	61.618	n/a
29.57	0.497	happy	Picture	76.452	n/a	1	1	20	n/a	20	74	2	n/a	n/a	n/a	n/a	62.149	AM22HAS.jpg
30.067	0.514	Blank	Blank	75.938	n/a	1	1	20	n/a	20	n/a	2	n/a	n/a	n/a	n/a	62.646	n/a
30.598	10.014	ITI	Fixation+	65.908	n/a	1	n/a	n/a	n/a	n/a	n/a	n/a	n/a	n/a	n/a	n/a	63.177	n/a
40.628	0.497	neutral	Picture	65.394	n/a	1	2	1	n/a	21	33	1	n/a	n/a	n/a	n/a	73.207	AM21NES.jpg
41.125	0.514	Blank	Blank	64.88	n/a	1	2	1	n/a	21	n/a	1	n/a	n/a	n/a	n/a	73.704	n/a
41.656	0.497	neutral	Picture	64.366	n/a	1	2	2	n/a	22	39	1	n/a	n/a	n/a	n/a	74.235	AM28NES.jpg
42.153	0.514	Blank	Blank	63.852	n/a	1	2	2	n/a	22	n/a	1	n/a	n/a	n/a	n/a	74.732	n/a
42.684	0.497	neutral	Picture	63.338	n/a	1	2	3	n/a	23	25	1	n/a	n/a	n/a	n/a	75.263	BM06NES.jpg
43.181	0.514	Blank	Blank	62.824	n/a	1	2	3	n/a	23	n/a	1	n/a	n/a	n/a	n/a	75.76	n/a
43.712	0.497	neutral	Picture	62.31	n/a	1	2	4	n/a	24	5	1	n/a	n/a	n/a	n/a	76.291	BF07NES.jpg
44.209	0.514	Blank	Blank	61.796	n/a	1	2	4	n/a	24	n/a	1	n/a	n/a	n/a	n/a	76.788	n/a
44.74	0.497	neutral	Picture	61.282	n/a	1	2	5	n/a	25	10	1	n/a	n/a	n/a	n/a	77.319	AF18NES.jpg
45.237	0.514	Blank	Blank	60.768	n/a	1	2	5	n/a	25	n/a	1	n/a	n/a	n/a	n/a	77.816	n/a
45.768	0.497	neutral	Picture	60.254	n/a	1	2	6	n/a	26	34	1	n/a	n/a	n/a	n/a	78.346	AM22NES.jpg
46.265	0.514	Blank	Blank	59.741	n/a	1	2	6	n/a	26	n/a	1	n/a	n/a	n/a	n/a	78.844	n/a
46.795	0.497	neutral	Picture	59.227	n/a	1	2	7	n/a	27	36	1	n/a	n/a	n/a	n/a	79.374	BM24NES.jpg
47.293	0.514	Blank	Blank	58.713	n/a	1	2	7	n/a	27	n/a	1	n/a	n/a	n/a	n/a	79.872	n/a
47.823	0.497	neutral	Picture	58.199	n/a	1	2	8	n/a	28	14	1	n/a	n/a	n/a	n/a	80.402	AF23NES.jpg
48.321	0.514	Blank	Blank	57.685	n/a	1	2	8	n/a	28	n/a	1	n/a	n/a	n/a	n/a	80.9	n/a
48.851	0.497	neutral	Picture	57.171	n/a	1	2	9	n/a	29	9	1	n/a	n/a	n/a	n/a	81.43	AF17NES.jpg
49.349	0.514	Blank	Blank	56.657	n/a	1	2	9	n/a	29	n/a	1	n/a	n/a	n/a	n/a	81.927	n/a
49.879	0.497	neutral	Picture	56.143	n/a	1	2	10	n/a	30	19	1	n/a	n/a	n/a	n/a	82.458	AF31NES.jpg
50.376	0.514	Blank	Blank	55.629	n/a	1	2	10	n/a	30	n/a	1	n/a	n/a	n/a	n/a	82.955	n/a
50.907	0.497	neutral	Picture	55.115	n/a	1	2	11	n/a	31	15	1	n/a	n/a	n/a	n/a	83.486	AF25NES.jpg
51.404	0.514	Blank	Blank	54.601	n/a	1	2	11	n/a	31	n/a	1	n/a	n/a	n/a	n/a	83.983	n/a
51.935	0.497	neutral	Picture	54.087	n/a	1	2	12	n/a	32	22	1	n/a	n/a	n/a	n/a	84.514	BM03NES.jpg
52.432	0.514	Blank	Blank	53.573	n/a	1	2	12	n/a	32	n/a	1	n/a	n/a	n/a	n/a	85.011	n/a
52.963	0.497	neutral	Picture	53.059	n/a	1	2	13	n/a	33	11	1	n/a	n/a	n/a	n/a	85.542	AF20NES.jpg
53.46	0.514	Blank	Blank	52.545	n/a	1	2	13	n/a	33	n/a	1	n/a	n/a	n/a	n/a	86.039	n/a
53.991	0.497	neutral	Picture	52.031	n/a	1	2	14	n/a	34	4	1	n/a	n/a	n/a	n/a	86.57	AF05NES.jpg
54.488	0.514	Blank	Blank	51.517	n/a	1	2	14	n/a	34	n/a	1	n/a	n/a	n/a	n/a	87.067	n/a
55.018	0.497	neutral	Picture	51.003	n/a	1	2	15	n/a	35	17	1	n/a	n/a	n/a	n/a	87.597	BF28NES.jpg
55.516	0.514	Blank	Blank	50.49	n/a	1	2	15	n/a	35	n/a	1	n/a	n/a	n/a	n/a	88.095	n/a
56.046	0.497	neutral	Picture	49.976	n/a	1	2	16	n/a	36	13	1	n/a	n/a	n/a	n/a	88.625	BF22NES.jpg
56.544	0.514	Blank	Blank	49.462	n/a	1	2	16	n/a	36	n/a	1	n/a	n/a	n/a	n/a	89.123	n/a
57.074	0.497	neutral	Picture	48.948	n/a	1	2	17	n/a	37	12	1	n/a	n/a	n/a	n/a	89.653	AF21NES.jpg
57.572	0.514	Blank	Blank	48.434	n/a	1	2	17	n/a	37	n/a	1	n/a	n/a	n/a	n/a	90.151	n/a
58.102	0.497	neutral	Picture	47.92	n/a	1	2	18	n/a	38	24	1	n/a	n/a	n/a	n/a	90.681	BM05NES.jpg
58.6	0.514	Blank	Blank	47.406	n/a	1	2	18	n/a	38	n/a	1	n/a	n/a	n/a	n/a	91.178	n/a
59.13	0.497	neutral	Picture	46.892	n/a	1	2	19	n/a	39	29	1	n/a	n/a	n/a	n/a	91.709	AM10NES.jpg
59.628	0.514	Blank	Blank	46.378	n/a	1	2	19	n/a	39	n/a	1	n/a	n/a	n/a	n/a	92.206	n/a
60.158	0.497	neutral	Picture	45.864	n/a	1	2	20	n/a	40	23	1	n/a	n/a	n/a	n/a	92.737	AM04NES.jpg
60.655	0.514	Blank	Blank	45.35	n/a	1	2	20	n/a	40	n/a	1	n/a	n/a	n/a	n/a	93.234	n/a
61.186	10.014	ITI	Fixation+	35.32	n/a	1	n/a	n/a	n/a	n/a	n/a	n/a	n/a	n/a	n/a	n/a	93.765	n/a
71.216	0.497	happy	Picture	34.806	n/a	1	3	1	n/a	41	62	2	n/a	n/a	n/a	n/a	103.795	BM03HAS.jpg
71.714	0.514	Blank	Blank	34.292	n/a	1	3	1	n/a	41	n/a	2	n/a	n/a	n/a	n/a	104.292	n/a
72.244	0.497	happy	Picture	33.778	n/a	1	3	2	n/a	42	52	2	n/a	n/a	n/a	n/a	104.823	AF21HAS.jpg
72.741	0.514	Blank	Blank	33.264	n/a	1	3	2	n/a	42	n/a	2	n/a	n/a	n/a	n/a	105.32	n/a
73.272	0.497	happy	Picture	32.75	n/a	1	3	3	n/a	43	44	2	n/a	n/a	n/a	n/a	105.851	AF05HAS.jpg
73.769	0.514	Blank	Blank	32.236	n/a	1	3	3	n/a	43	n/a	2	n/a	n/a	n/a	n/a	106.348	n/a
74.3	0.497	happy	Picture	31.722	n/a	1	3	4	n/a	44	53	2	n/a	n/a	n/a	n/a	106.879	BF22HAS.jpg
74.797	0.514	Blank	Blank	31.208	n/a	1	3	4	n/a	44	n/a	2	n/a	n/a	n/a	n/a	107.376	n/a
75.328	0.497	happy	Picture	30.694	n/a	1	3	5	n/a	45	54	2	n/a	n/a	n/a	n/a	107.906	AF23HAS.jpg
75.825	0.514	Blank	Blank	30.18	n/a	1	3	5	n/a	45	n/a	2	n/a	n/a	n/a	n/a	108.404	n/a
76.356	0.497	happy	Picture	29.666	n/a	1	3	6	n/a	46	68	2	n/a	n/a	n/a	n/a	108.934	AM09HAS.jpg
76.853	0.514	Blank	Blank	29.153	n/a	1	3	6	n/a	46	n/a	2	n/a	n/a	n/a	n/a	109.432	n/a
77.383	0.497	happy	Picture	28.639	n/a	1	3	7	n/a	47	64	2	n/a	n/a	n/a	n/a	109.962	BM05HAS.jpg
77.881	0.514	Blank	Blank	28.125	n/a	1	3	7	n/a	47	n/a	2	n/a	n/a	n/a	n/a	110.46	n/a
78.411	0.497	happy	Picture	27.611	n/a	1	3	8	n/a	48	59	2	n/a	n/a	n/a	n/a	110.99	AF31HAS.jpg
78.909	0.514	Blank	Blank	27.097	n/a	1	3	8	n/a	48	n/a	2	n/a	n/a	n/a	n/a	111.487	n/a
79.439	0.497	happy	Picture	26.583	n/a	1	3	9	n/a	49	41	2	n/a	n/a	n/a	n/a	112.018	AF01HAS.jpg
79.937	0.514	Blank	Blank	26.069	n/a	1	3	9	n/a	49	n/a	2	n/a	n/a	n/a	n/a	112.516	n/a
80.467	0.497	happy	Picture	25.555	n/a	1	3	10	n/a	50	73	2	n/a	n/a	n/a	n/a	113.046	AM21HAS.jpg
80.965	0.514	Blank	Blank	25.041	n/a	1	3	10	n/a	50	n/a	2	n/a	n/a	n/a	n/a	113.543	n/a
81.495	0.497	happy	Picture	24.527	n/a	1	3	11	n/a	51	65	2	n/a	n/a	n/a	n/a	114.074	BM06HAS.jpg
81.992	0.514	Blank	Blank	24.013	n/a	1	3	11	n/a	51	n/a	2	n/a	n/a	n/a	n/a	114.571	n/a
82.523	0.497	happy	Picture	23.499	n/a	1	3	12	n/a	52	56	2	n/a	n/a	n/a	n/a	115.102	AF26HAS.jpg
83.02	0.514	Blank	Blank	22.985	n/a	1	3	12	n/a	52	n/a	2	n/a	n/a	n/a	n/a	115.599	n/a
83.551	0.497	happy	Picture	22.471	n/a	1	3	13	n/a	53	45	2	n/a	n/a	n/a	n/a	116.13	BF07HAS.jpg
84.048	0.514	Blank	Blank	21.957	n/a	1	3	13	n/a	53	n/a	2	n/a	n/a	n/a	n/a	116.627	n/a
84.579	0.497	happy	Picture	21.443	n/a	1	3	14	n/a	54	78	2	n/a	n/a	n/a	n/a	117.158	BM26HAS.jpg
85.076	0.514	Blank	Blank	20.929	n/a	1	3	14	n/a	54	n/a	2	n/a	n/a	n/a	n/a	117.655	n/a
85.607	0.497	happy	Picture	20.415	n/a	1	3	15	n/a	55	50	2	n/a	n/a	n/a	n/a	118.185	AF18HAS.jpg
86.104	0.514	Blank	Blank	19.901	n/a	1	3	15	n/a	55	n/a	2	n/a	n/a	n/a	n/a	118.683	n/a
86.634	0.497	happy	Picture	19.388	n/a	1	3	16	n/a	56	47	2	n/a	n/a	n/a	n/a	119.213	BF11HAS.jpg
87.132	0.514	Blank	Blank	18.874	n/a	1	3	16	n/a	56	n/a	2	n/a	n/a	n/a	n/a	119.711	n/a
87.662	0.497	happy	Picture	18.36	n/a	1	3	17	n/a	57	77	2	n/a	n/a	n/a	n/a	120.241	BM25HAS.jpg
88.16	0.514	Blank	Blank	17.846	n/a	1	3	17	n/a	57	n/a	2	n/a	n/a	n/a	n/a	120.739	n/a
88.69	0.497	happy	Picture	17.332	n/a	1	3	18	n/a	58	57	2	n/a	n/a	n/a	n/a	121.269	BF28HAS.jpg
89.188	0.514	Blank	Blank	16.818	n/a	1	3	18	n/a	58	n/a	2	n/a	n/a	n/a	n/a	121.766	n/a
89.718	0.497	happy	Picture	16.304	n/a	1	3	19	n/a	59	61	2	n/a	n/a	n/a	n/a	122.297	AM01HAS.jpg
90.215	0.514	Blank	Blank	15.79	n/a	1	3	19	n/a	59	n/a	2	n/a	n/a	n/a	n/a	122.794	n/a
90.746	0.497	happy	Picture	15.276	n/a	1	3	20	n/a	60	79	2	n/a	n/a	n/a	n/a	123.325	BM28HAS.jpg
91.243	0.514	Blank	Blank	14.762	n/a	1	3	20	n/a	60	n/a	2	n/a	n/a	n/a	n/a	123.822	n/a
91.774	10.014	ITI	Fixation+	4.732	n/a	1	n/a	n/a	n/a	n/a	n/a	n/a	n/a	n/a	n/a	n/a	124.353	n/a
106.519	n/a	ConfirmRating	Rate	n/a	4.725	1	n/a	n/a	0	n/a	n/a	n/a	2	Happy	77	53	139.098	n/a
111.436	n/a	ConfirmRating	Rate	n/a	4.891	1	n/a	n/a	1	n/a	n/a	n/a	3	Happy	32	49	144.015	n/a
111.453	10.014	ITI	Fixation+	98.776	n/a	2	n/a	n/a	n/a	n/a	n/a	n/a	n/a	n/a	n/a	n/a	144.032	n/a
121.483	0.497	angry	Picture	98.262	n/a	2	4	1	n/a	61	119	3	n/a	n/a	n/a	n/a	154.062	BM28ANS.jpg
121.981	0.514	Blank	Blank	97.748	n/a	2	4	1	n/a	61	n/a	3	n/a	n/a	n/a	n/a	154.56	n/a
122.511	0.497	angry	Picture	97.234	n/a	2	4	2	n/a	62	100	3	n/a	n/a	n/a	n/a	155.09	AF32ANS.jpg
123.008	0.514	Blank	Blank	96.72	n/a	2	4	2	n/a	62	n/a	3	n/a	n/a	n/a	n/a	155.587	n/a
123.539	0.497	angry	Picture	96.206	n/a	2	4	3	n/a	63	118	3	n/a	n/a	n/a	n/a	156.118	BM26ANS.jpg
124.036	0.514	Blank	Blank	95.692	n/a	2	4	3	n/a	63	n/a	3	n/a	n/a	n/a	n/a	156.615	n/a
124.567	0.497	angry	Picture	95.178	n/a	2	4	4	n/a	64	89	3	n/a	n/a	n/a	n/a	157.146	AF17ANS.jpg
125.064	0.514	Blank	Blank	94.664	n/a	2	4	4	n/a	64	n/a	3	n/a	n/a	n/a	n/a	157.643	n/a
125.595	0.497	angry	Picture	94.15	n/a	2	4	5	n/a	65	116	3	n/a	n/a	n/a	n/a	158.174	BM24ANS.jpg
126.092	0.514	Blank	Blank	93.636	n/a	2	4	5	n/a	65	n/a	3	n/a	n/a	n/a	n/a	158.671	n/a
126.623	0.497	angry	Picture	93.122	n/a	2	4	6	n/a	66	105	3	n/a	n/a	n/a	n/a	159.202	BM06ANS.jpg
127.12	0.514	Blank	Blank	92.608	n/a	2	4	6	n/a	66	n/a	3	n/a	n/a	n/a	n/a	159.699	n/a
127.651	0.497	angry	Picture	92.094	n/a	2	4	7	n/a	67	106	3	n/a	n/a	n/a	n/a	160.23	AM07ANS.jpg
128.148	0.514	Blank	Blank	91.58	n/a	2	4	7	n/a	67	n/a	3	n/a	n/a	n/a	n/a	160.727	n/a
128.678	0.497	angry	Picture	91.066	n/a	2	4	8	n/a	68	94	3	n/a	n/a	n/a	n/a	161.257	AF23ANS.jpg
129.176	0.514	Blank	Blank	90.552	n/a	2	4	8	n/a	68	n/a	3	n/a	n/a	n/a	n/a	161.755	n/a
129.706	0.497	angry	Picture	90.038	n/a	2	4	9	n/a	69	117	3	n/a	n/a	n/a	n/a	162.285	BM25ANS.jpg
130.204	0.514	Blank	Blank	89.524	n/a	2	4	9	n/a	69	n/a	3	n/a	n/a	n/a	n/a	162.783	n/a
130.734	0.497	angry	Picture	89.011	n/a	2	4	10	n/a	70	90	3	n/a	n/a	n/a	n/a	163.313	AF18ANS.jpg
131.232	0.514	Blank	Blank	88.497	n/a	2	4	10	n/a	70	n/a	3	n/a	n/a	n/a	n/a	163.81	n/a
131.762	0.497	angry	Picture	87.983	n/a	2	4	11	n/a	71	83	3	n/a	n/a	n/a	n/a	164.341	BF04ANS.jpg
132.26	0.514	Blank	Blank	87.469	n/a	2	4	11	n/a	71	n/a	3	n/a	n/a	n/a	n/a	164.838	n/a
132.79	0.497	angry	Picture	86.955	n/a	2	4	12	n/a	72	112	3	n/a	n/a	n/a	n/a	165.369	AM14ANS.jpg
133.287	0.514	Blank	Blank	86.441	n/a	2	4	12	n/a	72	n/a	3	n/a	n/a	n/a	n/a	165.866	n/a
133.818	0.497	angry	Picture	85.927	n/a	2	4	13	n/a	73	102	3	n/a	n/a	n/a	n/a	166.397	BM03ANS.jpg
134.315	0.514	Blank	Blank	85.413	n/a	2	4	13	n/a	73	n/a	3	n/a	n/a	n/a	n/a	166.894	n/a
134.846	0.497	angry	Picture	84.899	n/a	2	4	14	n/a	74	95	3	n/a	n/a	n/a	n/a	167.425	AF25ANS.jpg
135.343	0.514	Blank	Blank	84.385	n/a	2	4	14	n/a	74	n/a	3	n/a	n/a	n/a	n/a	167.922	n/a
135.874	0.497	angry	Picture	83.871	n/a	2	4	15	n/a	75	113	3	n/a	n/a	n/a	n/a	168.453	AM21ANS.jpg
136.371	0.514	Blank	Blank	83.357	n/a	2	4	15	n/a	75	n/a	3	n/a	n/a	n/a	n/a	168.95	n/a
136.902	0.497	angry	Picture	82.843	n/a	2	4	16	n/a	76	88	3	n/a	n/a	n/a	n/a	169.481	AF14ANS.jpg
137.399	0.514	Blank	Blank	82.329	n/a	2	4	16	n/a	76	n/a	3	n/a	n/a	n/a	n/a	169.978	n/a
137.929	0.497	angry	Picture	81.815	n/a	2	4	17	n/a	77	93	3	n/a	n/a	n/a	n/a	170.508	BF22ANS.jpg
138.427	0.514	Blank	Blank	81.301	n/a	2	4	17	n/a	77	n/a	3	n/a	n/a	n/a	n/a	171.006	n/a
138.957	0.497	angry	Picture	80.787	n/a	2	4	18	n/a	78	86	3	n/a	n/a	n/a	n/a	171.536	AF09ANS.jpg
139.455	0.514	Blank	Blank	80.273	n/a	2	4	18	n/a	78	n/a	3	n/a	n/a	n/a	n/a	172.034	n/a
139.985	0.497	angry	Picture	79.76	n/a	2	4	19	n/a	79	92	3	n/a	n/a	n/a	n/a	172.564	AF21ANS.jpg
140.483	0.514	Blank	Blank	79.246	n/a	2	4	19	n/a	79	n/a	3	n/a	n/a	n/a	n/a	173.061	n/a
141.013	0.497	angry	Picture	78.732	n/a	2	4	20	n/a	80	84	3	n/a	n/a	n/a	n/a	173.592	AF05ANS.jpg
141.511	0.514	Blank	Blank	78.218	n/a	2	4	20	n/a	80	n/a	3	n/a	n/a	n/a	n/a	174.089	n/a
142.041	10.014	ITI	Fixation+	68.188	n/a	2	n/a	n/a	n/a	n/a	n/a	n/a	n/a	n/a	n/a	n/a	174.62	n/a
152.071	0.497	neutral	Picture	67.674	n/a	2	5	1	n/a	81	4	1	n/a	n/a	n/a	n/a	184.65	AF05NES.jpg
152.569	0.514	Blank	Blank	67.16	n/a	2	5	1	n/a	81	n/a	1	n/a	n/a	n/a	n/a	185.148	n/a
153.099	0.497	neutral	Picture	66.646	n/a	2	5	2	n/a	82	14	1	n/a	n/a	n/a	n/a	185.678	AF23NES.jpg
153.596	0.514	Blank	Blank	66.132	n/a	2	5	2	n/a	82	n/a	1	n/a	n/a	n/a	n/a	186.175	n/a
154.127	0.497	neutral	Picture	65.618	n/a	2	5	3	n/a	83	19	1	n/a	n/a	n/a	n/a	186.706	AF31NES.jpg
154.624	0.514	Blank	Blank	65.104	n/a	2	5	3	n/a	83	n/a	1	n/a	n/a	n/a	n/a	187.203	n/a
155.155	0.497	neutral	Picture	64.59	n/a	2	5	4	n/a	84	8	1	n/a	n/a	n/a	n/a	187.734	AF14NES.jpg
155.652	0.514	Blank	Blank	64.076	n/a	2	5	4	n/a	84	n/a	1	n/a	n/a	n/a	n/a	188.231	n/a
156.183	0.497	neutral	Picture	63.562	n/a	2	5	5	n/a	85	25	1	n/a	n/a	n/a	n/a	188.762	BM06NES.jpg
156.68	0.514	Blank	Blank	63.048	n/a	2	5	5	n/a	85	n/a	1	n/a	n/a	n/a	n/a	189.259	n/a
157.211	0.497	neutral	Picture	62.534	n/a	2	5	6	n/a	86	9	1	n/a	n/a	n/a	n/a	189.79	AF17NES.jpg
157.708	0.514	Blank	Blank	62.02	n/a	2	5	6	n/a	86	n/a	1	n/a	n/a	n/a	n/a	190.287	n/a
158.239	0.497	neutral	Picture	61.506	n/a	2	5	7	n/a	87	2	1	n/a	n/a	n/a	n/a	190.817	AF03NES.jpg
158.736	0.514	Blank	Blank	60.992	n/a	2	5	7	n/a	87	n/a	1	n/a	n/a	n/a	n/a	191.315	n/a
159.267	0.497	neutral	Picture	60.478	n/a	2	5	8	n/a	88	17	1	n/a	n/a	n/a	n/a	191.845	BF28NES.jpg
159.764	0.514	Blank	Blank	59.964	n/a	2	5	8	n/a	88	n/a	1	n/a	n/a	n/a	n/a	192.343	n/a
160.294	0.497	neutral	Picture	59.451	n/a	2	5	9	n/a	89	6	1	n/a	n/a	n/a	n/a	192.873	AF09NES.jpg
160.792	0.514	Blank	Blank	58.936	n/a	2	5	9	n/a	89	n/a	1	n/a	n/a	n/a	n/a	193.371	n/a
161.322	0.497	neutral	Picture	58.423	n/a	2	5	10	n/a	90	12	1	n/a	n/a	n/a	n/a	193.901	AF21NES.jpg
161.82	0.514	Blank	Blank	57.909	n/a	2	5	10	n/a	90	n/a	1	n/a	n/a	n/a	n/a	194.399	n/a
162.35	0.497	neutral	Picture	57.395	n/a	2	5	11	n/a	91	24	1	n/a	n/a	n/a	n/a	194.929	BM05NES.jpg
162.847	0.514	Blank	Blank	56.881	n/a	2	5	11	n/a	91	n/a	1	n/a	n/a	n/a	n/a	195.426	n/a
163.378	0.497	neutral	Picture	56.367	n/a	2	5	12	n/a	92	34	1	n/a	n/a	n/a	n/a	195.957	AM22NES.jpg
163.875	0.514	Blank	Blank	55.853	n/a	2	5	12	n/a	92	n/a	1	n/a	n/a	n/a	n/a	196.454	n/a
164.406	0.497	neutral	Picture	55.339	n/a	2	5	13	n/a	93	23	1	n/a	n/a	n/a	n/a	196.985	AM04NES.jpg
164.903	0.514	Blank	Blank	54.825	n/a	2	5	13	n/a	93	n/a	1	n/a	n/a	n/a	n/a	197.482	n/a
165.434	0.497	neutral	Picture	54.311	n/a	2	5	14	n/a	94	15	1	n/a	n/a	n/a	n/a	198.013	AF25NES.jpg
165.931	0.514	Blank	Blank	53.797	n/a	2	5	14	n/a	94	n/a	1	n/a	n/a	n/a	n/a	198.51	n/a
166.462	0.497	neutral	Picture	53.283	n/a	2	5	15	n/a	95	37	1	n/a	n/a	n/a	n/a	199.041	BM25NES.jpg
166.959	0.514	Blank	Blank	52.769	n/a	2	5	15	n/a	95	n/a	1	n/a	n/a	n/a	n/a	199.538	n/a
167.49	0.497	neutral	Picture	52.255	n/a	2	5	16	n/a	96	32	1	n/a	n/a	n/a	n/a	200.069	AM14NES.jpg
167.987	0.514	Blank	Blank	51.741	n/a	2	5	16	n/a	96	n/a	1	n/a	n/a	n/a	n/a	200.566	n/a
168.517	0.497	neutral	Picture	51.227	n/a	2	5	17	n/a	97	3	1	n/a	n/a	n/a	n/a	201.096	BF04NES.jpg
169.015	0.514	Blank	Blank	50.713	n/a	2	5	17	n/a	97	n/a	1	n/a	n/a	n/a	n/a	201.594	n/a
169.545	0.497	neutral	Picture	50.2	n/a	2	5	18	n/a	98	16	1	n/a	n/a	n/a	n/a	202.124	AF26NES.jpg
170.043	0.514	Blank	Blank	49.685	n/a	2	5	18	n/a	98	n/a	1	n/a	n/a	n/a	n/a	202.622	n/a
170.573	0.497	neutral	Picture	49.172	n/a	2	5	19	n/a	99	27	1	n/a	n/a	n/a	n/a	203.152	BM08NES.jpg
171.071	0.514	Blank	Blank	48.658	n/a	2	5	19	n/a	99	n/a	1	n/a	n/a	n/a	n/a	203.649	n/a
171.601	0.497	neutral	Picture	48.144	n/a	2	5	20	n/a	100	28	1	n/a	n/a	n/a	n/a	204.18	AM09NES.jpg
172.099	0.514	Blank	Blank	47.63	n/a	2	5	20	n/a	100	n/a	1	n/a	n/a	n/a	n/a	204.677	n/a
172.629	10.014	ITI	Fixation+	37.6	n/a	2	n/a	n/a	n/a	n/a	n/a	n/a	n/a	n/a	n/a	n/a	205.208	n/a
182.659	0.497	angry	Picture	37.086	n/a	2	6	1	n/a	101	81	3	n/a	n/a	n/a	n/a	215.238	AF01ANS.jpg
183.157	0.514	Blank	Blank	36.572	n/a	2	6	1	n/a	101	n/a	3	n/a	n/a	n/a	n/a	215.736	n/a
183.687	0.497	angry	Picture	36.058	n/a	2	6	2	n/a	102	120	3	n/a	n/a	n/a	n/a	216.266	AM35ANS.jpg
184.184	0.514	Blank	Blank	35.544	n/a	2	6	2	n/a	102	n/a	3	n/a	n/a	n/a	n/a	216.763	n/a
184.715	0.497	angry	Picture	35.03	n/a	2	6	3	n/a	103	114	3	n/a	n/a	n/a	n/a	217.294	AM22ANS.jpg
185.212	0.514	Blank	Blank	34.516	n/a	2	6	3	n/a	103	n/a	3	n/a	n/a	n/a	n/a	217.791	n/a
185.743	0.497	angry	Picture	34.002	n/a	2	6	4	n/a	104	109	3	n/a	n/a	n/a	n/a	218.322	AM10ANS.jpg
186.24	0.514	Blank	Blank	33.488	n/a	2	6	4	n/a	104	n/a	3	n/a	n/a	n/a	n/a	218.819	n/a
186.771	0.497	angry	Picture	32.974	n/a	2	6	5	n/a	105	96	3	n/a	n/a	n/a	n/a	219.35	AF26ANS.jpg
187.268	0.514	Blank	Blank	32.46	n/a	2	6	5	n/a	105	n/a	3	n/a	n/a	n/a	n/a	219.847	n/a
187.799	0.497	angry	Picture	31.946	n/a	2	6	6	n/a	106	82	3	n/a	n/a	n/a	n/a	220.378	AF03ANS.jpg
188.296	0.514	Blank	Blank	31.432	n/a	2	6	6	n/a	106	n/a	3	n/a	n/a	n/a	n/a	220.875	n/a
188.827	0.497	angry	Picture	30.918	n/a	2	6	7	n/a	107	97	3	n/a	n/a	n/a	n/a	221.405	BF28ANS.jpg
189.324	0.514	Blank	Blank	30.404	n/a	2	6	7	n/a	107	n/a	3	n/a	n/a	n/a	n/a	221.903	n/a
189.855	0.497	angry	Picture	29.89	n/a	2	6	8	n/a	108	115	3	n/a	n/a	n/a	n/a	222.433	AM23ANS.jpg
190.352	0.514	Blank	Blank	29.376	n/a	2	6	8	n/a	108	n/a	3	n/a	n/a	n/a	n/a	222.931	n/a
190.882	0.497	angry	Picture	28.863	n/a	2	6	9	n/a	109	91	3	n/a	n/a	n/a	n/a	223.461	AF20ANS.jpg
191.38	0.514	Blank	Blank	28.349	n/a	2	6	9	n/a	109	n/a	3	n/a	n/a	n/a	n/a	223.959	n/a
191.91	0.497	angry	Picture	27.835	n/a	2	6	10	n/a	110	87	3	n/a	n/a	n/a	n/a	224.489	BF11ANS.jpg
192.408	0.514	Blank	Blank	27.321	n/a	2	6	10	n/a	110	n/a	3	n/a	n/a	n/a	n/a	224.987	n/a
192.938	0.497	angry	Picture	26.807	n/a	2	6	11	n/a	111	85	3	n/a	n/a	n/a	n/a	225.517	BF07ANS.jpg
193.435	0.514	Blank	Blank	26.293	n/a	2	6	11	n/a	111	n/a	3	n/a	n/a	n/a	n/a	226.014	n/a
193.966	0.497	angry	Picture	25.779	n/a	2	6	12	n/a	112	110	3	n/a	n/a	n/a	n/a	226.545	AM11ANS.jpg
194.463	0.514	Blank	Blank	25.265	n/a	2	6	12	n/a	112	n/a	3	n/a	n/a	n/a	n/a	227.042	n/a
194.994	0.497	angry	Picture	24.751	n/a	2	6	13	n/a	113	111	3	n/a	n/a	n/a	n/a	227.573	BM12ANS.jpg
195.491	0.514	Blank	Blank	24.237	n/a	2	6	13	n/a	113	n/a	3	n/a	n/a	n/a	n/a	228.07	n/a
196.022	0.497	angry	Picture	23.723	n/a	2	6	14	n/a	114	103	3	n/a	n/a	n/a	n/a	228.601	AM04ANS.jpg
196.519	0.514	Blank	Blank	23.209	n/a	2	6	14	n/a	114	n/a	3	n/a	n/a	n/a	n/a	229.098	n/a
197.05	0.497	angry	Picture	22.695	n/a	2	6	15	n/a	115	101	3	n/a	n/a	n/a	n/a	229.629	AM01ANS.jpg
197.547	0.514	Blank	Blank	22.181	n/a	2	6	15	n/a	115	n/a	3	n/a	n/a	n/a	n/a	230.126	n/a
198.078	0.497	angry	Picture	21.667	n/a	2	6	16	n/a	116	104	3	n/a	n/a	n/a	n/a	230.656	BM05ANS.jpg
198.575	0.514	Blank	Blank	21.153	n/a	2	6	16	n/a	116	n/a	3	n/a	n/a	n/a	n/a	231.154	n/a
199.106	0.497	angry	Picture	20.639	n/a	2	6	17	n/a	117	107	3	n/a	n/a	n/a	n/a	231.684	BM08ANS.jpg
199.603	0.514	Blank	Blank	20.125	n/a	2	6	17	n/a	117	n/a	3	n/a	n/a	n/a	n/a	232.182	n/a
200.133	0.497	angry	Picture	19.611	n/a	2	6	18	n/a	118	98	3	n/a	n/a	n/a	n/a	232.712	BF29ANS.jpg
200.631	0.514	Blank	Blank	19.097	n/a	2	6	18	n/a	118	n/a	3	n/a	n/a	n/a	n/a	233.21	n/a
201.161	0.497	angry	Picture	18.584	n/a	2	6	19	n/a	119	99	3	n/a	n/a	n/a	n/a	233.74	AF31ANS.jpg
201.659	0.514	Blank	Blank	18.07	n/a	2	6	19	n/a	119	n/a	3	n/a	n/a	n/a	n/a	234.238	n/a
202.189	0.497	angry	Picture	17.556	n/a	2	6	20	n/a	120	108	3	n/a	n/a	n/a	n/a	234.768	AM09ANS.jpg
202.686	0.514	Blank	Blank	17.042	n/a	2	6	20	n/a	120	n/a	3	n/a	n/a	n/a	n/a	235.265	n/a
203.217	10.014	ITI	Fixation+	7.012	n/a	2	n/a	n/a	n/a	n/a	n/a	n/a	n/a	n/a	n/a	n/a	235.796	n/a
220.242	n/a	ConfirmRating	Rate	n/a	6.996	2	n/a	n/a	0	n/a	n/a	n/a	2	Angry	59	50	252.821	n/a
224.689	n/a	ConfirmRating	Rate	n/a	4.443	2	n/a	n/a	1	n/a	n/a	n/a	3	Angry	23	47	257.268	n/a
224.72	15.004	Rest	Picture	n/a	n/a	n/a	n/a	n/a	n/a	n/a	n/a	n/a	0	n/a	0	0	257.299	n/a
239.74	10.014	ITI	Fixation+	96.612	n/a	3	n/a	n/a	n/a	n/a	n/a	n/a	n/a	n/a	n/a	n/a	272.319	n/a
249.77	0.497	happy	Picture	96.098	n/a	3	7	1	n/a	1	46	2	n/a	n/a	n/a	n/a	282.349	AF09HAS.jpg
250.268	0.514	Blank	Blank	95.584	n/a	3	7	1	n/a	1	n/a	2	n/a	n/a	n/a	n/a	282.847	n/a
250.798	0.497	happy	Picture	95.07	n/a	3	7	2	n/a	2	69	2	n/a	n/a	n/a	n/a	283.377	AM10HAS.jpg
251.296	0.514	Blank	Blank	94.556	n/a	3	7	2	n/a	2	n/a	2	n/a	n/a	n/a	n/a	283.875	n/a
251.826	0.497	happy	Picture	94.042	n/a	3	7	3	n/a	3	71	2	n/a	n/a	n/a	n/a	284.405	BM12HAS.jpg
252.324	0.514	Blank	Blank	93.528	n/a	3	7	3	n/a	3	n/a	2	n/a	n/a	n/a	n/a	284.903	n/a
252.854	0.497	happy	Picture	93.014	n/a	3	7	4	n/a	4	51	2	n/a	n/a	n/a	n/a	285.433	AF20HAS.jpg
253.352	0.514	Blank	Blank	92.5	n/a	3	7	4	n/a	4	n/a	2	n/a	n/a	n/a	n/a	285.93	n/a
253.882	0.497	happy	Picture	91.986	n/a	3	7	5	n/a	5	67	2	n/a	n/a	n/a	n/a	286.461	BM08HAS.jpg
254.379	0.514	Blank	Blank	91.473	n/a	3	7	5	n/a	5	n/a	2	n/a	n/a	n/a	n/a	286.958	n/a
254.91	0.497	happy	Picture	90.959	n/a	3	7	6	n/a	6	60	2	n/a	n/a	n/a	n/a	287.489	AF32HAS.jpg
255.407	0.514	Blank	Blank	90.445	n/a	3	7	6	n/a	6	n/a	2	n/a	n/a	n/a	n/a	287.986	n/a
255.938	0.497	happy	Picture	89.931	n/a	3	7	7	n/a	7	42	2	n/a	n/a	n/a	n/a	288.517	AF03HAS.jpg
256.435	0.514	Blank	Blank	89.417	n/a	3	7	7	n/a	7	n/a	2	n/a	n/a	n/a	n/a	289.014	n/a
256.966	0.497	happy	Picture	88.903	n/a	3	7	8	n/a	8	55	2	n/a	n/a	n/a	n/a	289.545	AF25HAS.jpg
257.463	0.514	Blank	Blank	88.389	n/a	3	7	8	n/a	8	n/a	2	n/a	n/a	n/a	n/a	290.042	n/a
257.994	0.497	happy	Picture	87.875	n/a	3	7	9	n/a	9	72	2	n/a	n/a	n/a	n/a	290.573	AM14HAS.jpg
258.491	0.514	Blank	Blank	87.361	n/a	3	7	9	n/a	9	n/a	2	n/a	n/a	n/a	n/a	291.07	n/a
259.022	0.497	happy	Picture	86.847	n/a	3	7	10	n/a	10	63	2	n/a	n/a	n/a	n/a	291.601	AM04HAS.jpg
259.519	0.514	Blank	Blank	86.333	n/a	3	7	10	n/a	10	n/a	2	n/a	n/a	n/a	n/a	292.098	n/a
260.049	0.497	happy	Picture	85.819	n/a	3	7	11	n/a	11	58	2	n/a	n/a	n/a	n/a	292.628	BF29HAS.jpg
260.547	0.514	Blank	Blank	85.305	n/a	3	7	11	n/a	11	n/a	2	n/a	n/a	n/a	n/a	293.126	n/a
261.077	0.497	happy	Picture	84.791	n/a	3	7	12	n/a	12	48	2	n/a	n/a	n/a	n/a	293.656	AF14HAS.jpg
261.575	0.514	Blank	Blank	84.277	n/a	3	7	12	n/a	12	n/a	2	n/a	n/a	n/a	n/a	294.154	n/a
262.105	0.497	happy	Picture	83.763	n/a	3	7	13	n/a	13	66	2	n/a	n/a	n/a	n/a	294.684	BM07HAS.jpg
262.603	0.514	Blank	Blank	83.249	n/a	3	7	13	n/a	13	n/a	2	n/a	n/a	n/a	n/a	295.182	n/a
263.133	0.497	happy	Picture	82.735	n/a	3	7	14	n/a	14	70	2	n/a	n/a	n/a	n/a	295.712	BM11HAS.jpg
263.631	0.514	Blank	Blank	82.221	n/a	3	7	14	n/a	14	n/a	2	n/a	n/a	n/a	n/a	296.209	n/a
264.161	0.497	happy	Picture	81.707	n/a	3	7	15	n/a	15	43	2	n/a	n/a	n/a	n/a	296.74	BF04HAS.jpg
264.658	0.514	Blank	Blank	81.194	n/a	3	7	15	n/a	15	n/a	2	n/a	n/a	n/a	n/a	297.237	n/a
265.189	0.497	happy	Picture	80.68	n/a	3	7	16	n/a	16	49	2	n/a	n/a	n/a	n/a	297.768	AF17HAS.jpg
265.686	0.514	Blank	Blank	80.166	n/a	3	7	16	n/a	16	n/a	2	n/a	n/a	n/a	n/a	298.265	n/a
266.217	0.497	happy	Picture	79.652	n/a	3	7	17	n/a	17	75	2	n/a	n/a	n/a	n/a	298.796	AM23HAS.jpg
266.714	0.514	Blank	Blank	79.138	n/a	3	7	17	n/a	17	n/a	2	n/a	n/a	n/a	n/a	299.293	n/a
267.245	0.497	happy	Picture	78.624	n/a	3	7	18	n/a	18	80	2	n/a	n/a	n/a	n/a	299.824	BM35HAS.jpg
267.742	0.514	Blank	Blank	78.11	n/a	3	7	18	n/a	18	n/a	2	n/a	n/a	n/a	n/a	300.321	n/a
268.273	0.497	happy	Picture	77.596	n/a	3	7	19	n/a	19	76	2	n/a	n/a	n/a	n/a	300.851	BM24HAS.jpg
268.77	0.514	Blank	Blank	77.082	n/a	3	7	19	n/a	19	n/a	2	n/a	n/a	n/a	n/a	301.349	n/a
269.3	0.497	happy	Picture	76.568	n/a	3	7	20	n/a	20	74	2	n/a	n/a	n/a	n/a	301.879	AM22HAS.jpg
269.798	0.514	Blank	Blank	76.054	n/a	3	7	20	n/a	20	n/a	2	n/a	n/a	n/a	n/a	302.377	n/a
270.328	10.014	ITI	Fixation+	66.024	n/a	3	n/a	n/a	n/a	n/a	n/a	n/a	n/a	n/a	n/a	n/a	302.907	n/a
280.359	0.497	neutral	Picture	65.51	n/a	3	8	1	n/a	21	33	1	n/a	n/a	n/a	n/a	312.938	AM21NES.jpg
280.856	0.514	Blank	Blank	64.996	n/a	3	8	1	n/a	21	n/a	1	n/a	n/a	n/a	n/a	313.435	n/a
281.387	0.497	neutral	Picture	64.482	n/a	3	8	2	n/a	22	39	1	n/a	n/a	n/a	n/a	313.965	AM28NES.jpg
281.884	0.514	Blank	Blank	63.968	n/a	3	8	2	n/a	22	n/a	1	n/a	n/a	n/a	n/a	314.463	n/a
282.414	0.497	neutral	Picture	63.454	n/a	3	8	3	n/a	23	25	1	n/a	n/a	n/a	n/a	314.993	BM06NES.jpg
282.912	0.514	Blank	Blank	62.94	n/a	3	8	3	n/a	23	n/a	1	n/a	n/a	n/a	n/a	315.491	n/a
283.442	0.497	neutral	Picture	62.426	n/a	3	8	4	n/a	24	5	1	n/a	n/a	n/a	n/a	316.021	BF07NES.jpg
283.94	0.514	Blank	Blank	61.912	n/a	3	8	4	n/a	24	n/a	1	n/a	n/a	n/a	n/a	316.519	n/a
284.47	0.497	neutral	Picture	61.398	n/a	3	8	5	n/a	25	10	1	n/a	n/a	n/a	n/a	317.049	AF18NES.jpg
284.968	0.514	Blank	Blank	60.885	n/a	3	8	5	n/a	25	n/a	1	n/a	n/a	n/a	n/a	317.546	n/a
285.498	0.497	neutral	Picture	60.37	n/a	3	8	6	n/a	26	34	1	n/a	n/a	n/a	n/a	318.077	AM22NES.jpg
285.995	0.514	Blank	Blank	59.857	n/a	3	8	6	n/a	26	n/a	1	n/a	n/a	n/a	n/a	318.574	n/a
286.526	0.497	neutral	Picture	59.343	n/a	3	8	7	n/a	27	36	1	n/a	n/a	n/a	n/a	319.105	BM24NES.jpg
287.023	0.514	Blank	Blank	58.829	n/a	3	8	7	n/a	27	n/a	1	n/a	n/a	n/a	n/a	319.602	n/a
287.554	0.497	neutral	Picture	58.315	n/a	3	8	8	n/a	28	14	1	n/a	n/a	n/a	n/a	320.133	AF23NES.jpg
288.051	0.514	Blank	Blank	57.801	n/a	3	8	8	n/a	28	n/a	1	n/a	n/a	n/a	n/a	320.63	n/a
288.582	0.497	neutral	Picture	57.287	n/a	3	8	9	n/a	29	9	1	n/a	n/a	n/a	n/a	321.161	AF17NES.jpg
289.079	0.514	Blank	Blank	56.773	n/a	3	8	9	n/a	29	n/a	1	n/a	n/a	n/a	n/a	321.658	n/a
289.61	0.497	neutral	Picture	56.259	n/a	3	8	10	n/a	30	19	1	n/a	n/a	n/a	n/a	322.188	AF31NES.jpg
290.107	0.514	Blank	Blank	55.745	n/a	3	8	10	n/a	30	n/a	1	n/a	n/a	n/a	n/a	322.686	n/a
290.638	0.497	neutral	Picture	55.231	n/a	3	8	11	n/a	31	15	1	n/a	n/a	n/a	n/a	323.216	AF25NES.jpg
291.135	0.514	Blank	Blank	54.717	n/a	3	8	11	n/a	31	n/a	1	n/a	n/a	n/a	n/a	323.714	n/a
291.665	0.497	neutral	Picture	54.203	n/a	3	8	12	n/a	32	22	1	n/a	n/a	n/a	n/a	324.244	BM03NES.jpg
292.163	0.514	Blank	Blank	53.689	n/a	3	8	12	n/a	32	n/a	1	n/a	n/a	n/a	n/a	324.742	n/a
292.693	0.497	neutral	Picture	53.175	n/a	3	8	13	n/a	33	11	1	n/a	n/a	n/a	n/a	325.272	AF20NES.jpg
293.191	0.514	Blank	Blank	52.661	n/a	3	8	13	n/a	33	n/a	1	n/a	n/a	n/a	n/a	325.769	n/a
293.721	0.497	neutral	Picture	52.147	n/a	3	8	14	n/a	34	4	1	n/a	n/a	n/a	n/a	326.3	AF05NES.jpg
294.219	0.514	Blank	Blank	51.634	n/a	3	8	14	n/a	34	n/a	1	n/a	n/a	n/a	n/a	326.797	n/a
294.749	0.497	neutral	Picture	51.119	n/a	3	8	15	n/a	35	17	1	n/a	n/a	n/a	n/a	327.328	BF28NES.jpg
295.246	0.514	Blank	Blank	50.606	n/a	3	8	15	n/a	35	n/a	1	n/a	n/a	n/a	n/a	327.825	n/a
295.777	0.497	neutral	Picture	50.092	n/a	3	8	16	n/a	36	13	1	n/a	n/a	n/a	n/a	328.356	BF22NES.jpg
296.274	0.514	Blank	Blank	49.578	n/a	3	8	16	n/a	36	n/a	1	n/a	n/a	n/a	n/a	328.853	n/a
296.805	0.497	neutral	Picture	49.064	n/a	3	8	17	n/a	37	12	1	n/a	n/a	n/a	n/a	329.384	AF21NES.jpg
297.302	0.514	Blank	Blank	48.55	n/a	3	8	17	n/a	37	n/a	1	n/a	n/a	n/a	n/a	329.881	n/a
297.833	0.497	neutral	Picture	48.036	n/a	3	8	18	n/a	38	24	1	n/a	n/a	n/a	n/a	330.412	BM05NES.jpg
298.33	0.514	Blank	Blank	47.522	n/a	3	8	18	n/a	38	n/a	1	n/a	n/a	n/a	n/a	330.909	n/a
298.861	0.497	neutral	Picture	47.008	n/a	3	8	19	n/a	39	29	1	n/a	n/a	n/a	n/a	331.44	AM10NES.jpg
299.358	0.514	Blank	Blank	46.494	n/a	3	8	19	n/a	39	n/a	1	n/a	n/a	n/a	n/a	331.937	n/a
299.889	0.497	neutral	Picture	45.98	n/a	3	8	20	n/a	40	23	1	n/a	n/a	n/a	n/a	332.467	AM04NES.jpg
300.386	0.514	Blank	Blank	45.466	n/a	3	8	20	n/a	40	n/a	1	n/a	n/a	n/a	n/a	332.965	n/a
300.916	10.014	ITI	Fixation+	35.436	n/a	3	n/a	n/a	n/a	n/a	n/a	n/a	n/a	n/a	n/a	n/a	333.495	n/a
310.947	0.497	happy	Picture	34.922	n/a	3	9	1	n/a	41	62	2	n/a	n/a	n/a	n/a	343.526	BM03HAS.jpg
311.444	0.514	Blank	Blank	34.408	n/a	3	9	1	n/a	41	n/a	2	n/a	n/a	n/a	n/a	344.023	n/a
311.975	0.497	happy	Picture	33.894	n/a	3	9	2	n/a	42	52	2	n/a	n/a	n/a	n/a	344.553	AF21HAS.jpg
312.472	0.514	Blank	Blank	33.38	n/a	3	9	2	n/a	42	n/a	2	n/a	n/a	n/a	n/a	345.051	n/a
313.002	0.497	happy	Picture	32.866	n/a	3	9	3	n/a	43	44	2	n/a	n/a	n/a	n/a	345.581	AF05HAS.jpg
313.5	0.514	Blank	Blank	32.352	n/a	3	9	3	n/a	43	n/a	2	n/a	n/a	n/a	n/a	346.079	n/a
314.03	0.497	happy	Picture	31.838	n/a	3	9	4	n/a	44	53	2	n/a	n/a	n/a	n/a	346.609	BF22HAS.jpg
314.528	0.514	Blank	Blank	31.324	n/a	3	9	4	n/a	44	n/a	2	n/a	n/a	n/a	n/a	347.106	n/a
315.058	0.497	happy	Picture	30.81	n/a	3	9	5	n/a	45	54	2	n/a	n/a	n/a	n/a	347.637	AF23HAS.jpg
315.556	0.514	Blank	Blank	30.296	n/a	3	9	5	n/a	45	n/a	2	n/a	n/a	n/a	n/a	348.134	n/a
316.086	0.497	happy	Picture	29.782	n/a	3	9	6	n/a	46	68	2	n/a	n/a	n/a	n/a	348.665	AM09HAS.jpg
316.583	0.514	Blank	Blank	29.269	n/a	3	9	6	n/a	46	n/a	2	n/a	n/a	n/a	n/a	349.162	n/a
317.114	0.497	happy	Picture	28.755	n/a	3	9	7	n/a	47	64	2	n/a	n/a	n/a	n/a	349.693	BM05HAS.jpg
317.611	0.514	Blank	Blank	28.241	n/a	3	9	7	n/a	47	n/a	2	n/a	n/a	n/a	n/a	350.19	n/a
318.142	0.497	happy	Picture	27.727	n/a	3	9	8	n/a	48	59	2	n/a	n/a	n/a	n/a	350.721	AF31HAS.jpg
318.639	0.514	Blank	Blank	27.213	n/a	3	9	8	n/a	48	n/a	2	n/a	n/a	n/a	n/a	351.218	n/a
319.17	0.497	happy	Picture	26.699	n/a	3	9	9	n/a	49	41	2	n/a	n/a	n/a	n/a	351.749	AF01HAS.jpg
319.667	0.514	Blank	Blank	26.185	n/a	3	9	9	n/a	49	n/a	2	n/a	n/a	n/a	n/a	352.246	n/a
320.198	0.497	happy	Picture	25.671	n/a	3	9	10	n/a	50	73	2	n/a	n/a	n/a	n/a	352.776	AM21HAS.jpg
320.695	0.514	Blank	Blank	25.157	n/a	3	9	10	n/a	50	n/a	2	n/a	n/a	n/a	n/a	353.274	n/a
321.226	0.497	happy	Picture	24.643	n/a	3	9	11	n/a	51	65	2	n/a	n/a	n/a	n/a	353.804	BM06HAS.jpg
321.723	0.514	Blank	Blank	24.129	n/a	3	9	11	n/a	51	n/a	2	n/a	n/a	n/a	n/a	354.302	n/a
322.253	0.497	happy	Picture	23.615	n/a	3	9	12	n/a	52	56	2	n/a	n/a	n/a	n/a	354.832	AF26HAS.jpg
322.751	0.514	Blank	Blank	23.101	n/a	3	9	12	n/a	52	n/a	2	n/a	n/a	n/a	n/a	355.33	n/a
323.281	0.497	happy	Picture	22.587	n/a	3	9	13	n/a	53	45	2	n/a	n/a	n/a	n/a	355.86	BF07HAS.jpg
323.779	0.514	Blank	Blank	22.073	n/a	3	9	13	n/a	53	n/a	2	n/a	n/a	n/a	n/a	356.358	n/a
324.309	0.497	happy	Picture	21.559	n/a	3	9	14	n/a	54	78	2	n/a	n/a	n/a	n/a	356.888	BM26HAS.jpg
324.807	0.514	Blank	Blank	21.045	n/a	3	9	14	n/a	54	n/a	2	n/a	n/a	n/a	n/a	357.385	n/a
325.337	0.497	happy	Picture	20.531	n/a	3	9	15	n/a	55	50	2	n/a	n/a	n/a	n/a	357.916	AF18HAS.jpg
325.834	0.514	Blank	Blank	20.017	n/a	3	9	15	n/a	55	n/a	2	n/a	n/a	n/a	n/a	358.413	n/a
326.365	0.497	happy	Picture	19.504	n/a	3	9	16	n/a	56	47	2	n/a	n/a	n/a	n/a	358.944	BF11HAS.jpg
326.862	0.514	Blank	Blank	18.99	n/a	3	9	16	n/a	56	n/a	2	n/a	n/a	n/a	n/a	359.441	n/a
327.393	0.497	happy	Picture	18.476	n/a	3	9	17	n/a	57	77	2	n/a	n/a	n/a	n/a	359.972	BM25HAS.jpg
327.89	0.514	Blank	Blank	17.962	n/a	3	9	17	n/a	57	n/a	2	n/a	n/a	n/a	n/a	360.469	n/a
328.421	0.497	happy	Picture	17.448	n/a	3	9	18	n/a	58	57	2	n/a	n/a	n/a	n/a	361.0	BF28HAS.jpg
328.918	0.514	Blank	Blank	16.934	n/a	3	9	18	n/a	58	n/a	2	n/a	n/a	n/a	n/a	361.497	n/a
329.449	0.497	happy	Picture	16.42	n/a	3	9	19	n/a	59	61	2	n/a	n/a	n/a	n/a	362.027	AM01HAS.jpg
329.946	0.514	Blank	Blank	15.906	n/a	3	9	19	n/a	59	n/a	2	n/a	n/a	n/a	n/a	362.525	n/a
330.477	0.497	happy	Picture	15.392	n/a	3	9	20	n/a	60	79	2	n/a	n/a	n/a	n/a	363.055	BM28HAS.jpg
330.974	0.514	Blank	Blank	14.878	n/a	3	9	20	n/a	60	n/a	2	n/a	n/a	n/a	n/a	363.553	n/a
331.504	10.014	ITI	Fixation+	4.848	n/a	3	n/a	n/a	n/a	n/a	n/a	n/a	n/a	n/a	n/a	n/a	364.083	n/a
346.366	n/a	ConfirmRating	Rate	n/a	4.841	3	n/a	n/a	0	n/a	n/a	n/a	2	Happy	96	52	378.945	n/a
349.967	n/a	ConfirmRating	Rate	n/a	3.581	3	n/a	n/a	1	n/a	n/a	n/a	3	Happy	0	49	382.546	n/a
349.99	10.014	ITI	Fixation+	96.592	n/a	4	n/a	n/a	n/a	n/a	n/a	n/a	n/a	n/a	n/a	n/a	382.569	n/a
360.02	0.497	angry	Picture	96.078	n/a	4	10	1	n/a	61	119	3	n/a	n/a	n/a	n/a	392.599	BM28ANS.jpg
360.517	0.514	Blank	Blank	95.564	n/a	4	10	1	n/a	61	n/a	3	n/a	n/a	n/a	n/a	393.096	n/a
361.048	0.497	angry	Picture	95.05	n/a	4	10	2	n/a	62	100	3	n/a	n/a	n/a	n/a	393.627	AF32ANS.jpg
361.545	0.514	Blank	Blank	94.537	n/a	4	10	2	n/a	62	n/a	3	n/a	n/a	n/a	n/a	394.124	n/a
362.076	0.497	angry	Picture	94.022	n/a	4	10	3	n/a	63	118	3	n/a	n/a	n/a	n/a	394.655	BM26ANS.jpg
362.573	0.514	Blank	Blank	93.509	n/a	4	10	3	n/a	63	n/a	3	n/a	n/a	n/a	n/a	395.152	n/a
363.104	0.497	angry	Picture	92.995	n/a	4	10	4	n/a	64	89	3	n/a	n/a	n/a	n/a	395.683	AF17ANS.jpg
363.601	0.514	Blank	Blank	92.481	n/a	4	10	4	n/a	64	n/a	3	n/a	n/a	n/a	n/a	396.18	n/a
364.132	0.497	angry	Picture	91.967	n/a	4	10	5	n/a	65	116	3	n/a	n/a	n/a	n/a	396.711	BM24ANS.jpg
364.629	0.514	Blank	Blank	91.453	n/a	4	10	5	n/a	65	n/a	3	n/a	n/a	n/a	n/a	397.208	n/a
365.16	0.497	angry	Picture	90.939	n/a	4	10	6	n/a	66	105	3	n/a	n/a	n/a	n/a	397.738	BM06ANS.jpg
365.657	0.514	Blank	Blank	90.425	n/a	4	10	6	n/a	66	n/a	3	n/a	n/a	n/a	n/a	398.236	n/a
366.187	0.497	angry	Picture	89.911	n/a	4	10	7	n/a	67	106	3	n/a	n/a	n/a	n/a	398.766	AM07ANS.jpg
366.685	0.514	Blank	Blank	89.397	n/a	4	10	7	n/a	67	n/a	3	n/a	n/a	n/a	n/a	399.264	n/a
367.215	0.497	angry	Picture	88.883	n/a	4	10	8	n/a	68	94	3	n/a	n/a	n/a	n/a	399.794	AF23ANS.jpg
367.713	0.514	Blank	Blank	88.369	n/a	4	10	8	n/a	68	n/a	3	n/a	n/a	n/a	n/a	400.291	n/a
368.243	0.497	angry	Picture	87.855	n/a	4	10	9	n/a	69	117	3	n/a	n/a	n/a	n/a	400.822	BM25ANS.jpg
368.74	0.514	Blank	Blank	87.341	n/a	4	10	9	n/a	69	n/a	3	n/a	n/a	n/a	n/a	401.319	n/a
369.271	0.497	angry	Picture	86.827	n/a	4	10	10	n/a	70	90	3	n/a	n/a	n/a	n/a	401.85	AF18ANS.jpg
369.768	0.514	Blank	Blank	86.313	n/a	4	10	10	n/a	70	n/a	3	n/a	n/a	n/a	n/a	402.347	n/a
370.299	0.497	angry	Picture	85.799	n/a	4	10	11	n/a	71	83	3	n/a	n/a	n/a	n/a	402.878	BF04ANS.jpg
370.796	0.514	Blank	Blank	85.285	n/a	4	10	11	n/a	71	n/a	3	n/a	n/a	n/a	n/a	403.375	n/a
371.327	0.497	angry	Picture	84.771	n/a	4	10	12	n/a	72	112	3	n/a	n/a	n/a	n/a	403.906	AM14ANS.jpg
371.824	0.514	Blank	Blank	84.258	n/a	4	10	12	n/a	72	n/a	3	n/a	n/a	n/a	n/a	404.403	n/a
372.355	0.497	angry	Picture	83.744	n/a	4	10	13	n/a	73	102	3	n/a	n/a	n/a	n/a	404.934	BM03ANS.jpg
372.852	0.514	Blank	Blank	83.23	n/a	4	10	13	n/a	73	n/a	3	n/a	n/a	n/a	n/a	405.431	n/a
373.383	0.497	angry	Picture	82.716	n/a	4	10	14	n/a	74	95	3	n/a	n/a	n/a	n/a	405.962	AF25ANS.jpg
373.88	0.514	Blank	Blank	82.202	n/a	4	10	14	n/a	74	n/a	3	n/a	n/a	n/a	n/a	406.459	n/a
374.411	0.497	angry	Picture	81.688	n/a	4	10	15	n/a	75	113	3	n/a	n/a	n/a	n/a	406.989	AM21ANS.jpg
374.908	0.514	Blank	Blank	81.174	n/a	4	10	15	n/a	75	n/a	3	n/a	n/a	n/a	n/a	407.487	n/a
375.438	0.497	angry	Picture	80.66	n/a	4	10	16	n/a	76	88	3	n/a	n/a	n/a	n/a	408.017	AF14ANS.jpg
375.936	0.514	Blank	Blank	80.146	n/a	4	10	16	n/a	76	n/a	3	n/a	n/a	n/a	n/a	408.515	n/a
376.466	0.497	angry	Picture	79.632	n/a	4	10	17	n/a	77	93	3	n/a	n/a	n/a	n/a	409.045	BF22ANS.jpg
376.964	0.514	Blank	Blank	79.118	n/a	4	10	17	n/a	77	n/a	3	n/a	n/a	n/a	n/a	409.543	n/a
377.494	0.497	angry	Picture	78.604	n/a	4	10	18	n/a	78	86	3	n/a	n/a	n/a	n/a	410.073	AF09ANS.jpg
377.992	0.514	Blank	Blank	78.09	n/a	4	10	18	n/a	78	n/a	3	n/a	n/a	n/a	n/a	410.57	n/a
378.522	0.497	angry	Picture	77.576	n/a	4	10	19	n/a	79	92	3	n/a	n/a	n/a	n/a	411.101	AF21ANS.jpg
379.019	0.514	Blank	Blank	77.062	n/a	4	10	19	n/a	79	n/a	3	n/a	n/a	n/a	n/a	411.598	n/a
379.55	0.497	angry	Picture	76.548	n/a	4	10	20	n/a	80	84	3	n/a	n/a	n/a	n/a	412.129	AF05ANS.jpg
380.047	0.514	Blank	Blank	76.034	n/a	4	10	20	n/a	80	n/a	3	n/a	n/a	n/a	n/a	412.626	n/a
380.578	10.014	ITI	Fixation+	66.004	n/a	4	n/a	n/a	n/a	n/a	n/a	n/a	n/a	n/a	n/a	n/a	413.157	n/a
390.608	0.497	neutral	Picture	65.49	n/a	4	11	1	n/a	81	4	1	n/a	n/a	n/a	n/a	423.187	AF05NES.jpg
391.105	0.514	Blank	Blank	64.976	n/a	4	11	1	n/a	81	n/a	1	n/a	n/a	n/a	n/a	423.684	n/a
391.636	0.497	neutral	Picture	64.462	n/a	4	11	2	n/a	82	14	1	n/a	n/a	n/a	n/a	424.215	AF23NES.jpg
392.133	0.514	Blank	Blank	63.948	n/a	4	11	2	n/a	82	n/a	1	n/a	n/a	n/a	n/a	424.712	n/a
392.664	0.497	neutral	Picture	63.434	n/a	4	11	3	n/a	83	19	1	n/a	n/a	n/a	n/a	425.243	AF31NES.jpg
393.161	0.514	Blank	Blank	62.921	n/a	4	11	3	n/a	83	n/a	1	n/a	n/a	n/a	n/a	425.74	n/a
393.692	0.497	neutral	Picture	62.407	n/a	4	11	4	n/a	84	8	1	n/a	n/a	n/a	n/a	426.271	AF14NES.jpg
394.189	0.514	Blank	Blank	61.893	n/a	4	11	4	n/a	84	n/a	1	n/a	n/a	n/a	n/a	426.768	n/a
394.72	0.497	neutral	Picture	61.379	n/a	4	11	5	n/a	85	25	1	n/a	n/a	n/a	n/a	427.298	BM06NES.jpg
395.217	0.514	Blank	Blank	60.865	n/a	4	11	5	n/a	85	n/a	1	n/a	n/a	n/a	n/a	427.796	n/a
395.748	0.497	neutral	Picture	60.351	n/a	4	11	6	n/a	86	9	1	n/a	n/a	n/a	n/a	428.326	AF17NES.jpg
396.245	0.514	Blank	Blank	59.837	n/a	4	11	6	n/a	86	n/a	1	n/a	n/a	n/a	n/a	428.824	n/a
396.775	0.497	neutral	Picture	59.323	n/a	4	11	7	n/a	87	2	1	n/a	n/a	n/a	n/a	429.354	AF03NES.jpg
397.273	0.514	Blank	Blank	58.809	n/a	4	11	7	n/a	87	n/a	1	n/a	n/a	n/a	n/a	429.852	n/a
397.803	0.497	neutral	Picture	58.295	n/a	4	11	8	n/a	88	17	1	n/a	n/a	n/a	n/a	430.382	BF28NES.jpg
398.301	0.514	Blank	Blank	57.781	n/a	4	11	8	n/a	88	n/a	1	n/a	n/a	n/a	n/a	430.88	n/a
398.831	0.497	neutral	Picture	57.267	n/a	4	11	9	n/a	89	6	1	n/a	n/a	n/a	n/a	431.41	AF09NES.jpg
399.329	0.514	Blank	Blank	56.753	n/a	4	11	9	n/a	89	n/a	1	n/a	n/a	n/a	n/a	431.907	n/a
399.859	0.497	neutral	Picture	56.239	n/a	4	11	10	n/a	90	12	1	n/a	n/a	n/a	n/a	432.438	AF21NES.jpg
400.356	0.514	Blank	Blank	55.725	n/a	4	11	10	n/a	90	n/a	1	n/a	n/a	n/a	n/a	432.935	n/a
400.887	0.497	neutral	Picture	55.211	n/a	4	11	11	n/a	91	24	1	n/a	n/a	n/a	n/a	433.466	BM05NES.jpg
401.384	0.514	Blank	Blank	54.698	n/a	4	11	11	n/a	91	n/a	1	n/a	n/a	n/a	n/a	433.963	n/a
401.915	0.497	neutral	Picture	54.183	n/a	4	11	12	n/a	92	34	1	n/a	n/a	n/a	n/a	434.494	AM22NES.jpg
402.412	0.514	Blank	Blank	53.669	n/a	4	11	12	n/a	92	n/a	1	n/a	n/a	n/a	n/a	434.991	n/a
402.943	0.497	neutral	Picture	53.156	n/a	4	11	13	n/a	93	23	1	n/a	n/a	n/a	n/a	435.522	AM04NES.jpg
403.44	0.514	Blank	Blank	52.642	n/a	4	11	13	n/a	93	n/a	1	n/a	n/a	n/a	n/a	436.019	n/a
403.971	0.497	neutral	Picture	52.128	n/a	4	11	14	n/a	94	15	1	n/a	n/a	n/a	n/a	436.55	AF25NES.jpg
404.468	0.514	Blank	Blank	51.614	n/a	4	11	14	n/a	94	n/a	1	n/a	n/a	n/a	n/a	437.047	n/a
404.999	0.497	neutral	Picture	51.1	n/a	4	11	15	n/a	95	37	1	n/a	n/a	n/a	n/a	437.577	BM25NES.jpg
405.496	0.514	Blank	Blank	50.586	n/a	4	11	15	n/a	95	n/a	1	n/a	n/a	n/a	n/a	438.075	n/a
406.026	0.497	neutral	Picture	50.072	n/a	4	11	16	n/a	96	32	1	n/a	n/a	n/a	n/a	438.605	AM14NES.jpg
406.524	0.514	Blank	Blank	49.558	n/a	4	11	16	n/a	96	n/a	1	n/a	n/a	n/a	n/a	439.103	n/a
407.054	0.497	neutral	Picture	49.044	n/a	4	11	17	n/a	97	3	1	n/a	n/a	n/a	n/a	439.633	BF04NES.jpg
407.552	0.514	Blank	Blank	48.53	n/a	4	11	17	n/a	97	n/a	1	n/a	n/a	n/a	n/a	440.131	n/a
408.082	0.497	neutral	Picture	48.016	n/a	4	11	18	n/a	98	16	1	n/a	n/a	n/a	n/a	440.661	AF26NES.jpg
408.58	0.514	Blank	Blank	47.502	n/a	4	11	18	n/a	98	n/a	1	n/a	n/a	n/a	n/a	441.159	n/a
409.11	0.497	neutral	Picture	46.988	n/a	4	11	19	n/a	99	27	1	n/a	n/a	n/a	n/a	441.689	BM08NES.jpg
409.607	0.514	Blank	Blank	46.474	n/a	4	11	19	n/a	99	n/a	1	n/a	n/a	n/a	n/a	442.186	n/a
410.138	0.497	neutral	Picture	45.96	n/a	4	11	20	n/a	100	28	1	n/a	n/a	n/a	n/a	442.717	AM09NES.jpg
410.635	0.514	Blank	Blank	45.446	n/a	4	11	20	n/a	100	n/a	1	n/a	n/a	n/a	n/a	443.214	n/a
411.166	10.014	ITI	Fixation+	35.416	n/a	4	n/a	n/a	n/a	n/a	n/a	n/a	n/a	n/a	n/a	n/a	443.745	n/a
421.196	0.497	angry	Picture	34.902	n/a	4	12	1	n/a	101	81	3	n/a	n/a	n/a	n/a	453.775	AF01ANS.jpg
421.693	0.514	Blank	Blank	34.388	n/a	4	12	1	n/a	101	n/a	3	n/a	n/a	n/a	n/a	454.272	n/a
422.224	0.497	angry	Picture	33.874	n/a	4	12	2	n/a	102	120	3	n/a	n/a	n/a	n/a	454.803	AM35ANS.jpg
422.721	0.514	Blank	Blank	33.36	n/a	4	12	2	n/a	102	n/a	3	n/a	n/a	n/a	n/a	455.3	n/a
423.252	0.497	angry	Picture	32.846	n/a	4	12	3	n/a	103	114	3	n/a	n/a	n/a	n/a	455.831	AM22ANS.jpg
423.749	0.514	Blank	Blank	32.332	n/a	4	12	3	n/a	103	n/a	3	n/a	n/a	n/a	n/a	456.328	n/a
424.28	0.497	angry	Picture	31.819	n/a	4	12	4	n/a	104	109	3	n/a	n/a	n/a	n/a	456.859	AM10ANS.jpg
424.777	0.514	Blank	Blank	31.305	n/a	4	12	4	n/a	104	n/a	3	n/a	n/a	n/a	n/a	457.356	n/a
425.308	0.497	angry	Picture	30.791	n/a	4	12	5	n/a	105	96	3	n/a	n/a	n/a	n/a	457.887	AF26ANS.jpg
425.805	0.514	Blank	Blank	30.277	n/a	4	12	5	n/a	105	n/a	3	n/a	n/a	n/a	n/a	458.384	n/a
426.336	0.497	angry	Picture	29.763	n/a	4	12	6	n/a	106	82	3	n/a	n/a	n/a	n/a	458.914	AF03ANS.jpg
426.833	0.514	Blank	Blank	29.249	n/a	4	12	6	n/a	106	n/a	3	n/a	n/a	n/a	n/a	459.412	n/a
427.363	0.497	angry	Picture	28.735	n/a	4	12	7	n/a	107	97	3	n/a	n/a	n/a	n/a	459.942	BF28ANS.jpg
427.861	0.514	Blank	Blank	28.221	n/a	4	12	7	n/a	107	n/a	3	n/a	n/a	n/a	n/a	460.44	n/a
428.391	0.497	angry	Picture	27.707	n/a	4	12	8	n/a	108	115	3	n/a	n/a	n/a	n/a	460.97	AM23ANS.jpg
428.889	0.514	Blank	Blank	27.193	n/a	4	12	8	n/a	108	n/a	3	n/a	n/a	n/a	n/a	461.468	n/a
429.419	0.497	angry	Picture	26.679	n/a	4	12	9	n/a	109	91	3	n/a	n/a	n/a	n/a	461.998	AF20ANS.jpg
429.917	0.514	Blank	Blank	26.165	n/a	4	12	9	n/a	109	n/a	3	n/a	n/a	n/a	n/a	462.495	n/a
430.447	0.497	angry	Picture	25.651	n/a	4	12	10	n/a	110	87	3	n/a	n/a	n/a	n/a	463.026	BF11ANS.jpg
430.945	0.514	Blank	Blank	25.137	n/a	4	12	10	n/a	110	n/a	3	n/a	n/a	n/a	n/a	463.523	n/a
431.475	0.497	angry	Picture	24.623	n/a	4	12	11	n/a	111	85	3	n/a	n/a	n/a	n/a	464.054	BF07ANS.jpg
431.972	0.514	Blank	Blank	24.109	n/a	4	12	11	n/a	111	n/a	3	n/a	n/a	n/a	n/a	464.551	n/a
432.503	0.497	angry	Picture	23.596	n/a	4	12	12	n/a	112	110	3	n/a	n/a	n/a	n/a	465.082	AM11ANS.jpg
433.0	0.514	Blank	Blank	23.082	n/a	4	12	12	n/a	112	n/a	3	n/a	n/a	n/a	n/a	465.579	n/a
433.531	0.497	angry	Picture	22.568	n/a	4	12	13	n/a	113	111	3	n/a	n/a	n/a	n/a	466.11	BM12ANS.jpg
434.028	0.514	Blank	Blank	22.054	n/a	4	12	13	n/a	113	n/a	3	n/a	n/a	n/a	n/a	466.607	n/a
434.559	0.497	angry	Picture	21.54	n/a	4	12	14	n/a	114	103	3	n/a	n/a	n/a	n/a	467.138	AM04ANS.jpg
435.056	0.514	Blank	Blank	21.026	n/a	4	12	14	n/a	114	n/a	3	n/a	n/a	n/a	n/a	467.635	n/a
435.587	0.497	angry	Picture	20.512	n/a	4	12	15	n/a	115	101	3	n/a	n/a	n/a	n/a	468.165	AM01ANS.jpg
436.084	0.514	Blank	Blank	19.998	n/a	4	12	15	n/a	115	n/a	3	n/a	n/a	n/a	n/a	468.663	n/a
436.614	0.497	angry	Picture	19.484	n/a	4	12	16	n/a	116	104	3	n/a	n/a	n/a	n/a	469.193	BM05ANS.jpg
437.112	0.514	Blank	Blank	18.97	n/a	4	12	16	n/a	116	n/a	3	n/a	n/a	n/a	n/a	469.691	n/a
437.642	0.497	angry	Picture	18.456	n/a	4	12	17	n/a	117	107	3	n/a	n/a	n/a	n/a	470.221	BM08ANS.jpg
438.14	0.514	Blank	Blank	17.942	n/a	4	12	17	n/a	117	n/a	3	n/a	n/a	n/a	n/a	470.719	n/a
438.67	0.497	angry	Picture	17.428	n/a	4	12	18	n/a	118	98	3	n/a	n/a	n/a	n/a	471.249	BF29ANS.jpg
439.168	0.514	Blank	Blank	16.914	n/a	4	12	18	n/a	118	n/a	3	n/a	n/a	n/a	n/a	471.747	n/a
439.698	0.497	angry	Picture	16.4	n/a	4	12	19	n/a	119	99	3	n/a	n/a	n/a	n/a	472.277	AF31ANS.jpg
440.196	0.514	Blank	Blank	15.886	n/a	4	12	19	n/a	119	n/a	3	n/a	n/a	n/a	n/a	472.774	n/a
440.726	0.497	angry	Picture	15.372	n/a	4	12	20	n/a	120	108	3	n/a	n/a	n/a	n/a	473.305	AM09ANS.jpg
441.223	0.514	Blank	Blank	14.858	n/a	4	12	20	n/a	120	n/a	3	n/a	n/a	n/a	n/a	473.802	n/a
441.754	10.014	ITI	Fixation+	4.828	n/a	4	n/a	n/a	n/a	n/a	n/a	n/a	n/a	n/a	n/a	n/a	474.333	n/a
456.596	n/a	ConfirmRating	Rate	n/a	4.824	4	n/a	n/a	0	n/a	n/a	n/a	2	Angry	35	49	489.175	n/a
463.445	n/a	ConfirmRating	Rate	n/a	6.83	4	n/a	n/a	1	n/a	n/a	n/a	3	Angry	23	47	496.024	n/a
