onset	duration	trial_type	event_type	time_until_response	response_time	trial_number	block_num_within_trial	image_seq_num_within_block	question_seq_num_within_block	image_seq_num	picture_number	condition	question_type	block_type	rating	rating_computed	onset_uncorrected	KDEV_imagefile
0.012	10.014	ITI	Fixation+	97.081	n/a	1	n/a	n/a	n/a	n/a	n/a	n/a	n/a	n/a	n/a	n/a	32.008	n/a
10.042	0.497	angry	Picture	96.567	n/a	1	1	1	n/a	1	46	2	n/a	n/a	n/a	n/a	42.039	AF09HAS.jpg
10.54	0.514	Blank	Blank	96.053	n/a	1	1	1	n/a	1	n/a	2	n/a	n/a	n/a	n/a	42.536	n/a
11.07	0.497	angry	Picture	95.539	n/a	1	1	2	n/a	2	69	2	n/a	n/a	n/a	n/a	43.067	AM10HAS.jpg
11.567	0.514	Blank	Blank	95.025	n/a	1	1	2	n/a	2	n/a	2	n/a	n/a	n/a	n/a	43.564	n/a
12.098	0.497	angry	Picture	94.511	n/a	1	1	3	n/a	3	71	2	n/a	n/a	n/a	n/a	44.094	BM12HAS.jpg
12.595	0.514	Blank	Blank	93.998	n/a	1	1	3	n/a	3	n/a	2	n/a	n/a	n/a	n/a	44.592	n/a
13.126	0.497	angry	Picture	93.484	n/a	1	1	4	n/a	4	51	2	n/a	n/a	n/a	n/a	45.122	AF20HAS.jpg
13.623	0.514	Blank	Blank	92.97	n/a	1	1	4	n/a	4	n/a	2	n/a	n/a	n/a	n/a	45.62	n/a
14.154	0.497	angry	Picture	92.456	n/a	1	1	5	n/a	5	67	2	n/a	n/a	n/a	n/a	46.15	BM08HAS.jpg
14.651	0.514	Blank	Blank	91.942	n/a	1	1	5	n/a	5	n/a	2	n/a	n/a	n/a	n/a	46.648	n/a
15.182	0.497	angry	Picture	91.428	n/a	1	1	6	n/a	6	60	2	n/a	n/a	n/a	n/a	47.178	AF32HAS.jpg
15.679	0.514	Blank	Blank	90.914	n/a	1	1	6	n/a	6	n/a	2	n/a	n/a	n/a	n/a	47.675	n/a
16.21	0.497	angry	Picture	90.4	n/a	1	1	7	n/a	7	42	2	n/a	n/a	n/a	n/a	48.206	AF03HAS.jpg
16.707	0.514	Blank	Blank	89.886	n/a	1	1	7	n/a	7	n/a	2	n/a	n/a	n/a	n/a	48.703	n/a
17.237	0.497	angry	Picture	89.372	n/a	1	1	8	n/a	8	55	2	n/a	n/a	n/a	n/a	49.234	AF25HAS.jpg
17.735	0.514	Blank	Blank	88.858	n/a	1	1	8	n/a	8	n/a	2	n/a	n/a	n/a	n/a	49.731	n/a
18.265	0.497	angry	Picture	88.344	n/a	1	1	9	n/a	9	72	2	n/a	n/a	n/a	n/a	50.262	AM14HAS.jpg
18.763	0.514	Blank	Blank	87.83	n/a	1	1	9	n/a	9	n/a	2	n/a	n/a	n/a	n/a	50.759	n/a
19.293	0.497	angry	Picture	87.316	n/a	1	1	10	n/a	10	63	2	n/a	n/a	n/a	n/a	51.29	AM04HAS.jpg
19.791	0.514	Blank	Blank	86.802	n/a	1	1	10	n/a	10	n/a	2	n/a	n/a	n/a	n/a	51.787	n/a
20.321	0.497	angry	Picture	86.288	n/a	1	1	11	n/a	11	58	2	n/a	n/a	n/a	n/a	52.318	BF29HAS.jpg
20.819	0.514	Blank	Blank	85.774	n/a	1	1	11	n/a	11	n/a	2	n/a	n/a	n/a	n/a	52.815	n/a
21.349	0.497	angry	Picture	85.26	n/a	1	1	12	n/a	12	48	2	n/a	n/a	n/a	n/a	53.346	AF14HAS.jpg
21.846	0.514	Blank	Blank	84.746	n/a	1	1	12	n/a	12	n/a	2	n/a	n/a	n/a	n/a	53.843	n/a
22.377	0.497	angry	Picture	84.233	n/a	1	1	13	n/a	13	66	2	n/a	n/a	n/a	n/a	54.373	BM07HAS.jpg
22.874	0.514	Blank	Blank	83.719	n/a	1	1	13	n/a	13	n/a	2	n/a	n/a	n/a	n/a	54.871	n/a
23.405	0.497	angry	Picture	83.205	n/a	1	1	14	n/a	14	70	2	n/a	n/a	n/a	n/a	55.401	BM11HAS.jpg
23.902	0.514	Blank	Blank	82.691	n/a	1	1	14	n/a	14	n/a	2	n/a	n/a	n/a	n/a	55.899	n/a
24.433	0.497	angry	Picture	82.177	n/a	1	1	15	n/a	15	43	2	n/a	n/a	n/a	n/a	56.429	BF04HAS.jpg
24.93	0.514	Blank	Blank	81.663	n/a	1	1	15	n/a	15	n/a	2	n/a	n/a	n/a	n/a	56.926	n/a
25.461	0.497	angry	Picture	81.149	n/a	1	1	16	n/a	16	49	2	n/a	n/a	n/a	n/a	57.457	AF17HAS.jpg
25.958	0.514	Blank	Blank	80.635	n/a	1	1	16	n/a	16	n/a	2	n/a	n/a	n/a	n/a	57.954	n/a
26.489	0.497	angry	Picture	80.121	n/a	1	1	17	n/a	17	75	2	n/a	n/a	n/a	n/a	58.485	AM23HAS.jpg
26.986	0.514	Blank	Blank	79.607	n/a	1	1	17	n/a	17	n/a	2	n/a	n/a	n/a	n/a	58.982	n/a
27.516	0.497	angry	Picture	79.093	n/a	1	1	18	n/a	18	80	2	n/a	n/a	n/a	n/a	59.513	BM35HAS.jpg
28.014	0.514	Blank	Blank	78.579	n/a	1	1	18	n/a	18	n/a	2	n/a	n/a	n/a	n/a	60.01	n/a
28.544	0.497	angry	Picture	78.065	n/a	1	1	19	n/a	19	76	2	n/a	n/a	n/a	n/a	60.541	BM24HAS.jpg
29.042	0.514	Blank	Blank	77.551	n/a	1	1	19	n/a	19	n/a	2	n/a	n/a	n/a	n/a	61.038	n/a
29.572	0.497	angry	Picture	77.037	n/a	1	1	20	n/a	20	74	2	n/a	n/a	n/a	n/a	61.569	AM22HAS.jpg
30.07	0.514	Blank	Blank	76.523	n/a	1	1	20	n/a	20	n/a	2	n/a	n/a	n/a	n/a	62.066	n/a
30.6	10.014	ITI	Fixation+	66.493	n/a	1	n/a	n/a	n/a	n/a	n/a	n/a	n/a	n/a	n/a	n/a	62.596	n/a
40.63	0.497	neutral	Picture	65.979	n/a	1	2	1	n/a	21	33	1	n/a	n/a	n/a	n/a	72.627	AM21NES.jpg
41.128	0.514	Blank	Blank	65.465	n/a	1	2	1	n/a	21	n/a	1	n/a	n/a	n/a	n/a	73.124	n/a
41.658	0.497	neutral	Picture	64.951	n/a	1	2	2	n/a	22	39	1	n/a	n/a	n/a	n/a	73.655	AM28NES.jpg
42.155	0.514	Blank	Blank	64.437	n/a	1	2	2	n/a	22	n/a	1	n/a	n/a	n/a	n/a	74.152	n/a
42.686	0.497	neutral	Picture	63.923	n/a	1	2	3	n/a	23	25	1	n/a	n/a	n/a	n/a	74.683	BM06NES.jpg
43.183	0.514	Blank	Blank	63.409	n/a	1	2	3	n/a	23	n/a	1	n/a	n/a	n/a	n/a	75.18	n/a
43.714	0.497	neutral	Picture	62.896	n/a	1	2	4	n/a	24	5	1	n/a	n/a	n/a	n/a	75.71	BF07NES.jpg
44.211	0.514	Blank	Blank	62.382	n/a	1	2	4	n/a	24	n/a	1	n/a	n/a	n/a	n/a	76.208	n/a
44.742	0.497	neutral	Picture	61.868	n/a	1	2	5	n/a	25	10	1	n/a	n/a	n/a	n/a	76.738	AF18NES.jpg
45.239	0.514	Blank	Blank	61.354	n/a	1	2	5	n/a	25	n/a	1	n/a	n/a	n/a	n/a	77.236	n/a
45.77	0.497	neutral	Picture	60.84	n/a	1	2	6	n/a	26	34	1	n/a	n/a	n/a	n/a	77.766	AM22NES.jpg
46.267	0.514	Blank	Blank	60.326	n/a	1	2	6	n/a	26	n/a	1	n/a	n/a	n/a	n/a	78.263	n/a
46.798	0.497	neutral	Picture	59.812	n/a	1	2	7	n/a	27	36	1	n/a	n/a	n/a	n/a	78.794	BM24NES.jpg
47.295	0.514	Blank	Blank	59.298	n/a	1	2	7	n/a	27	n/a	1	n/a	n/a	n/a	n/a	79.291	n/a
47.825	0.497	neutral	Picture	58.784	n/a	1	2	8	n/a	28	14	1	n/a	n/a	n/a	n/a	79.822	AF23NES.jpg
48.323	0.514	Blank	Blank	58.27	n/a	1	2	8	n/a	28	n/a	1	n/a	n/a	n/a	n/a	80.319	n/a
48.853	0.497	neutral	Picture	57.756	n/a	1	2	9	n/a	29	9	1	n/a	n/a	n/a	n/a	80.85	AF17NES.jpg
49.351	0.514	Blank	Blank	57.242	n/a	1	2	9	n/a	29	n/a	1	n/a	n/a	n/a	n/a	81.347	n/a
49.881	0.497	neutral	Picture	56.728	n/a	1	2	10	n/a	30	19	1	n/a	n/a	n/a	n/a	81.878	AF31NES.jpg
50.379	0.514	Blank	Blank	56.214	n/a	1	2	10	n/a	30	n/a	1	n/a	n/a	n/a	n/a	82.375	n/a
50.909	0.497	neutral	Picture	55.7	n/a	1	2	11	n/a	31	15	1	n/a	n/a	n/a	n/a	82.906	AF25NES.jpg
51.407	0.514	Blank	Blank	55.186	n/a	1	2	11	n/a	31	n/a	1	n/a	n/a	n/a	n/a	83.403	n/a
51.937	0.497	neutral	Picture	54.672	n/a	1	2	12	n/a	32	22	1	n/a	n/a	n/a	n/a	83.933	BM03NES.jpg
52.434	0.514	Blank	Blank	54.158	n/a	1	2	12	n/a	32	n/a	1	n/a	n/a	n/a	n/a	84.431	n/a
52.965	0.497	neutral	Picture	53.645	n/a	1	2	13	n/a	33	11	1	n/a	n/a	n/a	n/a	84.961	AF20NES.jpg
53.462	0.514	Blank	Blank	53.131	n/a	1	2	13	n/a	33	n/a	1	n/a	n/a	n/a	n/a	85.459	n/a
53.993	0.497	neutral	Picture	52.617	n/a	1	2	14	n/a	34	4	1	n/a	n/a	n/a	n/a	85.989	AF05NES.jpg
54.49	0.514	Blank	Blank	52.103	n/a	1	2	14	n/a	34	n/a	1	n/a	n/a	n/a	n/a	86.487	n/a
55.021	0.497	neutral	Picture	51.589	n/a	1	2	15	n/a	35	17	1	n/a	n/a	n/a	n/a	87.017	BF28NES.jpg
55.518	0.514	Blank	Blank	51.075	n/a	1	2	15	n/a	35	n/a	1	n/a	n/a	n/a	n/a	87.514	n/a
56.049	0.497	neutral	Picture	50.561	n/a	1	2	16	n/a	36	13	1	n/a	n/a	n/a	n/a	88.045	BF22NES.jpg
56.546	0.514	Blank	Blank	50.047	n/a	1	2	16	n/a	36	n/a	1	n/a	n/a	n/a	n/a	88.542	n/a
57.077	0.497	neutral	Picture	49.533	n/a	1	2	17	n/a	37	12	1	n/a	n/a	n/a	n/a	89.073	AF21NES.jpg
57.574	0.514	Blank	Blank	49.019	n/a	1	2	17	n/a	37	n/a	1	n/a	n/a	n/a	n/a	89.57	n/a
58.104	0.497	neutral	Picture	48.505	n/a	1	2	18	n/a	38	24	1	n/a	n/a	n/a	n/a	90.101	BM05NES.jpg
58.602	0.514	Blank	Blank	47.991	n/a	1	2	18	n/a	38	n/a	1	n/a	n/a	n/a	n/a	90.598	n/a
59.132	0.497	neutral	Picture	47.477	n/a	1	2	19	n/a	39	29	1	n/a	n/a	n/a	n/a	91.129	AM10NES.jpg
59.63	0.514	Blank	Blank	46.963	n/a	1	2	19	n/a	39	n/a	1	n/a	n/a	n/a	n/a	91.626	n/a
60.16	0.497	neutral	Picture	46.449	n/a	1	2	20	n/a	40	23	1	n/a	n/a	n/a	n/a	92.157	AM04NES.jpg
60.658	0.514	Blank	Blank	45.935	n/a	1	2	20	n/a	40	n/a	1	n/a	n/a	n/a	n/a	92.654	n/a
61.188	10.014	ITI	Fixation+	35.905	n/a	1	n/a	n/a	n/a	n/a	n/a	n/a	n/a	n/a	n/a	n/a	93.184	n/a
71.218	0.497	angry	Picture	35.391	n/a	1	3	1	n/a	41	62	2	n/a	n/a	n/a	n/a	103.215	BM03HAS.jpg
71.716	0.514	Blank	Blank	34.877	n/a	1	3	1	n/a	41	n/a	2	n/a	n/a	n/a	n/a	103.712	n/a
72.246	0.497	angry	Picture	34.363	n/a	1	3	2	n/a	42	52	2	n/a	n/a	n/a	n/a	104.243	AF21HAS.jpg
72.744	0.514	Blank	Blank	33.849	n/a	1	3	2	n/a	42	n/a	2	n/a	n/a	n/a	n/a	104.74	n/a
73.274	0.497	angry	Picture	33.335	n/a	1	3	3	n/a	43	44	2	n/a	n/a	n/a	n/a	105.27	AF05HAS.jpg
73.772	0.514	Blank	Blank	32.821	n/a	1	3	3	n/a	43	n/a	2	n/a	n/a	n/a	n/a	105.768	n/a
74.302	0.497	angry	Picture	32.308	n/a	1	3	4	n/a	44	53	2	n/a	n/a	n/a	n/a	106.298	BF22HAS.jpg
74.799	0.514	Blank	Blank	31.794	n/a	1	3	4	n/a	44	n/a	2	n/a	n/a	n/a	n/a	106.796	n/a
75.33	0.497	angry	Picture	31.28	n/a	1	3	5	n/a	45	54	2	n/a	n/a	n/a	n/a	107.326	AF23HAS.jpg
75.827	0.514	Blank	Blank	30.766	n/a	1	3	5	n/a	45	n/a	2	n/a	n/a	n/a	n/a	107.824	n/a
76.358	0.497	angry	Picture	30.252	n/a	1	3	6	n/a	46	68	2	n/a	n/a	n/a	n/a	108.354	AM09HAS.jpg
76.855	0.514	Blank	Blank	29.738	n/a	1	3	6	n/a	46	n/a	2	n/a	n/a	n/a	n/a	108.852	n/a
77.386	0.497	angry	Picture	29.224	n/a	1	3	7	n/a	47	64	2	n/a	n/a	n/a	n/a	109.382	BM05HAS.jpg
77.883	0.514	Blank	Blank	28.71	n/a	1	3	7	n/a	47	n/a	2	n/a	n/a	n/a	n/a	109.879	n/a
78.413	0.497	angry	Picture	28.196	n/a	1	3	8	n/a	48	59	2	n/a	n/a	n/a	n/a	110.41	AF31HAS.jpg
78.911	0.514	Blank	Blank	27.682	n/a	1	3	8	n/a	48	n/a	2	n/a	n/a	n/a	n/a	110.907	n/a
79.441	0.497	angry	Picture	27.168	n/a	1	3	9	n/a	49	41	2	n/a	n/a	n/a	n/a	111.438	AF01HAS.jpg
79.939	0.514	Blank	Blank	26.654	n/a	1	3	9	n/a	49	n/a	2	n/a	n/a	n/a	n/a	111.935	n/a
80.469	0.497	angry	Picture	26.14	n/a	1	3	10	n/a	50	73	2	n/a	n/a	n/a	n/a	112.466	AM21HAS.jpg
80.967	0.514	Blank	Blank	25.626	n/a	1	3	10	n/a	50	n/a	2	n/a	n/a	n/a	n/a	112.963	n/a
81.497	0.497	angry	Picture	25.112	n/a	1	3	11	n/a	51	65	2	n/a	n/a	n/a	n/a	113.494	BM06HAS.jpg
81.995	0.514	Blank	Blank	24.598	n/a	1	3	11	n/a	51	n/a	2	n/a	n/a	n/a	n/a	113.991	n/a
82.525	0.497	angry	Picture	24.084	n/a	1	3	12	n/a	52	56	2	n/a	n/a	n/a	n/a	114.522	AF26HAS.jpg
83.023	0.514	Blank	Blank	23.57	n/a	1	3	12	n/a	52	n/a	2	n/a	n/a	n/a	n/a	115.019	n/a
83.553	0.497	angry	Picture	23.056	n/a	1	3	13	n/a	53	45	2	n/a	n/a	n/a	n/a	115.549	BF07HAS.jpg
84.05	0.514	Blank	Blank	22.543	n/a	1	3	13	n/a	53	n/a	2	n/a	n/a	n/a	n/a	116.047	n/a
84.581	0.497	angry	Picture	22.029	n/a	1	3	14	n/a	54	78	2	n/a	n/a	n/a	n/a	116.577	BM26HAS.jpg
85.078	0.514	Blank	Blank	21.515	n/a	1	3	14	n/a	54	n/a	2	n/a	n/a	n/a	n/a	117.075	n/a
85.609	0.497	angry	Picture	21.001	n/a	1	3	15	n/a	55	50	2	n/a	n/a	n/a	n/a	117.605	AF18HAS.jpg
86.106	0.514	Blank	Blank	20.487	n/a	1	3	15	n/a	55	n/a	2	n/a	n/a	n/a	n/a	118.103	n/a
86.637	0.497	angry	Picture	19.973	n/a	1	3	16	n/a	56	47	2	n/a	n/a	n/a	n/a	118.633	BF11HAS.jpg
87.134	0.514	Blank	Blank	19.459	n/a	1	3	16	n/a	56	n/a	2	n/a	n/a	n/a	n/a	119.13	n/a
87.665	0.497	angry	Picture	18.945	n/a	1	3	17	n/a	57	77	2	n/a	n/a	n/a	n/a	119.661	BM25HAS.jpg
88.162	0.514	Blank	Blank	18.431	n/a	1	3	17	n/a	57	n/a	2	n/a	n/a	n/a	n/a	120.158	n/a
88.692	0.497	angry	Picture	17.917	n/a	1	3	18	n/a	58	57	2	n/a	n/a	n/a	n/a	120.689	BF28HAS.jpg
89.19	0.514	Blank	Blank	17.403	n/a	1	3	18	n/a	58	n/a	2	n/a	n/a	n/a	n/a	121.186	n/a
89.72	0.497	angry	Picture	16.889	n/a	1	3	19	n/a	59	61	2	n/a	n/a	n/a	n/a	121.717	AM01HAS.jpg
90.218	0.514	Blank	Blank	16.375	n/a	1	3	19	n/a	59	n/a	2	n/a	n/a	n/a	n/a	122.214	n/a
90.748	0.497	angry	Picture	15.861	n/a	1	3	20	n/a	60	79	2	n/a	n/a	n/a	n/a	122.745	BM28HAS.jpg
91.246	0.514	Blank	Blank	15.347	n/a	1	3	20	n/a	60	n/a	2	n/a	n/a	n/a	n/a	123.242	n/a
91.776	10.014	ITI	Fixation+	5.317	n/a	1	n/a	n/a	n/a	n/a	n/a	n/a	n/a	n/a	n/a	n/a	123.772	n/a
107.107	n/a	ConfirmRating	Rate	n/a	5.289	1	n/a	n/a	0	n/a	n/a	n/a	2	Angry	62	51	139.103	n/a
111.331	n/a	ConfirmRating	Rate	n/a	4.211	1	n/a	n/a	1	n/a	n/a	n/a	3	Angry	0	46	143.327	n/a
111.356	10.014	ITI	Fixation+	95.539	n/a	2	n/a	n/a	n/a	n/a	n/a	n/a	n/a	n/a	n/a	n/a	143.352	n/a
121.386	0.497	happy	Picture	95.025	n/a	2	4	1	n/a	61	119	3	n/a	n/a	n/a	n/a	153.382	BM28ANS.jpg
121.883	0.514	Blank	Blank	94.511	n/a	2	4	1	n/a	61	n/a	3	n/a	n/a	n/a	n/a	153.88	n/a
122.414	0.497	happy	Picture	93.998	n/a	2	4	2	n/a	62	100	3	n/a	n/a	n/a	n/a	154.41	AF32ANS.jpg
122.911	0.514	Blank	Blank	93.484	n/a	2	4	2	n/a	62	n/a	3	n/a	n/a	n/a	n/a	154.908	n/a
123.442	0.497	happy	Picture	92.97	n/a	2	4	3	n/a	63	118	3	n/a	n/a	n/a	n/a	155.438	BM26ANS.jpg
123.939	0.514	Blank	Blank	92.456	n/a	2	4	3	n/a	63	n/a	3	n/a	n/a	n/a	n/a	155.935	n/a
124.47	0.497	happy	Picture	91.942	n/a	2	4	4	n/a	64	89	3	n/a	n/a	n/a	n/a	156.466	AF17ANS.jpg
124.967	0.514	Blank	Blank	91.428	n/a	2	4	4	n/a	64	n/a	3	n/a	n/a	n/a	n/a	156.963	n/a
125.498	0.497	happy	Picture	90.914	n/a	2	4	5	n/a	65	116	3	n/a	n/a	n/a	n/a	157.494	BM24ANS.jpg
125.995	0.514	Blank	Blank	90.4	n/a	2	4	5	n/a	65	n/a	3	n/a	n/a	n/a	n/a	157.991	n/a
126.525	0.497	happy	Picture	89.886	n/a	2	4	6	n/a	66	105	3	n/a	n/a	n/a	n/a	158.522	BM06ANS.jpg
127.023	0.514	Blank	Blank	89.372	n/a	2	4	6	n/a	66	n/a	3	n/a	n/a	n/a	n/a	159.019	n/a
127.553	0.497	happy	Picture	88.858	n/a	2	4	7	n/a	67	106	3	n/a	n/a	n/a	n/a	159.55	AM07ANS.jpg
128.051	0.514	Blank	Blank	88.344	n/a	2	4	7	n/a	67	n/a	3	n/a	n/a	n/a	n/a	160.047	n/a
128.581	0.497	happy	Picture	87.83	n/a	2	4	8	n/a	68	94	3	n/a	n/a	n/a	n/a	160.578	AF23ANS.jpg
129.079	0.514	Blank	Blank	87.316	n/a	2	4	8	n/a	68	n/a	3	n/a	n/a	n/a	n/a	161.075	n/a
129.609	0.497	happy	Picture	86.802	n/a	2	4	9	n/a	69	117	3	n/a	n/a	n/a	n/a	161.606	BM25ANS.jpg
130.107	0.514	Blank	Blank	86.288	n/a	2	4	9	n/a	69	n/a	3	n/a	n/a	n/a	n/a	162.103	n/a
130.637	0.497	happy	Picture	85.774	n/a	2	4	10	n/a	70	90	3	n/a	n/a	n/a	n/a	162.633	AF18ANS.jpg
131.134	0.514	Blank	Blank	85.26	n/a	2	4	10	n/a	70	n/a	3	n/a	n/a	n/a	n/a	163.131	n/a
131.665	0.497	happy	Picture	84.746	n/a	2	4	11	n/a	71	83	3	n/a	n/a	n/a	n/a	163.661	BF04ANS.jpg
132.162	0.514	Blank	Blank	84.232	n/a	2	4	11	n/a	71	n/a	3	n/a	n/a	n/a	n/a	164.159	n/a
132.693	0.497	happy	Picture	83.719	n/a	2	4	12	n/a	72	112	3	n/a	n/a	n/a	n/a	164.689	AM14ANS.jpg
133.19	0.514	Blank	Blank	83.205	n/a	2	4	12	n/a	72	n/a	3	n/a	n/a	n/a	n/a	165.186	n/a
133.721	0.497	happy	Picture	82.691	n/a	2	4	13	n/a	73	102	3	n/a	n/a	n/a	n/a	165.717	BM03ANS.jpg
134.218	0.514	Blank	Blank	82.177	n/a	2	4	13	n/a	73	n/a	3	n/a	n/a	n/a	n/a	166.214	n/a
134.749	0.497	happy	Picture	81.663	n/a	2	4	14	n/a	74	95	3	n/a	n/a	n/a	n/a	166.745	AF25ANS.jpg
135.246	0.514	Blank	Blank	81.149	n/a	2	4	14	n/a	74	n/a	3	n/a	n/a	n/a	n/a	167.242	n/a
135.776	0.497	happy	Picture	80.635	n/a	2	4	15	n/a	75	113	3	n/a	n/a	n/a	n/a	167.773	AM21ANS.jpg
136.274	0.514	Blank	Blank	80.121	n/a	2	4	15	n/a	75	n/a	3	n/a	n/a	n/a	n/a	168.27	n/a
136.804	0.497	happy	Picture	79.607	n/a	2	4	16	n/a	76	88	3	n/a	n/a	n/a	n/a	168.801	AF14ANS.jpg
137.302	0.514	Blank	Blank	79.093	n/a	2	4	16	n/a	76	n/a	3	n/a	n/a	n/a	n/a	169.298	n/a
137.832	0.497	happy	Picture	78.579	n/a	2	4	17	n/a	77	93	3	n/a	n/a	n/a	n/a	169.829	BF22ANS.jpg
138.33	0.514	Blank	Blank	78.065	n/a	2	4	17	n/a	77	n/a	3	n/a	n/a	n/a	n/a	170.326	n/a
138.86	0.497	happy	Picture	77.551	n/a	2	4	18	n/a	78	86	3	n/a	n/a	n/a	n/a	170.857	AF09ANS.jpg
139.358	0.514	Blank	Blank	77.037	n/a	2	4	18	n/a	78	n/a	3	n/a	n/a	n/a	n/a	171.354	n/a
139.888	0.497	happy	Picture	76.523	n/a	2	4	19	n/a	79	92	3	n/a	n/a	n/a	n/a	171.884	AF21ANS.jpg
140.385	0.514	Blank	Blank	76.009	n/a	2	4	19	n/a	79	n/a	3	n/a	n/a	n/a	n/a	172.382	n/a
140.916	0.497	happy	Picture	75.495	n/a	2	4	20	n/a	80	84	3	n/a	n/a	n/a	n/a	172.912	AF05ANS.jpg
141.413	0.514	Blank	Blank	74.982	n/a	2	4	20	n/a	80	n/a	3	n/a	n/a	n/a	n/a	173.41	n/a
141.944	10.014	ITI	Fixation+	64.951	n/a	2	n/a	n/a	n/a	n/a	n/a	n/a	n/a	n/a	n/a	n/a	173.94	n/a
151.974	0.497	neutral	Picture	64.437	n/a	2	5	1	n/a	81	4	1	n/a	n/a	n/a	n/a	183.97	AF05NES.jpg
152.471	0.514	Blank	Blank	63.923	n/a	2	5	1	n/a	81	n/a	1	n/a	n/a	n/a	n/a	184.468	n/a
153.002	0.497	neutral	Picture	63.409	n/a	2	5	2	n/a	82	14	1	n/a	n/a	n/a	n/a	184.998	AF23NES.jpg
153.499	0.514	Blank	Blank	62.895	n/a	2	5	2	n/a	82	n/a	1	n/a	n/a	n/a	n/a	185.496	n/a
154.03	0.497	neutral	Picture	62.382	n/a	2	5	3	n/a	83	19	1	n/a	n/a	n/a	n/a	186.026	AF31NES.jpg
154.527	0.514	Blank	Blank	61.868	n/a	2	5	3	n/a	83	n/a	1	n/a	n/a	n/a	n/a	186.524	n/a
155.058	0.497	neutral	Picture	61.354	n/a	2	5	4	n/a	84	8	1	n/a	n/a	n/a	n/a	187.054	AF14NES.jpg
155.555	0.514	Blank	Blank	60.84	n/a	2	5	4	n/a	84	n/a	1	n/a	n/a	n/a	n/a	187.551	n/a
156.086	0.497	neutral	Picture	60.326	n/a	2	5	5	n/a	85	25	1	n/a	n/a	n/a	n/a	188.082	BM06NES.jpg
156.583	0.514	Blank	Blank	59.812	n/a	2	5	5	n/a	85	n/a	1	n/a	n/a	n/a	n/a	188.579	n/a
157.113	0.497	neutral	Picture	59.298	n/a	2	5	6	n/a	86	9	1	n/a	n/a	n/a	n/a	189.11	AF17NES.jpg
157.611	0.514	Blank	Blank	58.784	n/a	2	5	6	n/a	86	n/a	1	n/a	n/a	n/a	n/a	189.607	n/a
158.141	0.497	neutral	Picture	58.27	n/a	2	5	7	n/a	87	2	1	n/a	n/a	n/a	n/a	190.138	AF03NES.jpg
158.639	0.514	Blank	Blank	57.756	n/a	2	5	7	n/a	87	n/a	1	n/a	n/a	n/a	n/a	190.635	n/a
159.169	0.497	neutral	Picture	57.242	n/a	2	5	8	n/a	88	17	1	n/a	n/a	n/a	n/a	191.166	BF28NES.jpg
159.667	0.514	Blank	Blank	56.728	n/a	2	5	8	n/a	88	n/a	1	n/a	n/a	n/a	n/a	191.663	n/a
160.197	0.497	neutral	Picture	56.214	n/a	2	5	9	n/a	89	6	1	n/a	n/a	n/a	n/a	192.194	AF09NES.jpg
160.695	0.514	Blank	Blank	55.7	n/a	2	5	9	n/a	89	n/a	1	n/a	n/a	n/a	n/a	192.691	n/a
161.225	0.497	neutral	Picture	55.186	n/a	2	5	10	n/a	90	12	1	n/a	n/a	n/a	n/a	193.221	AF21NES.jpg
161.722	0.514	Blank	Blank	54.672	n/a	2	5	10	n/a	90	n/a	1	n/a	n/a	n/a	n/a	193.719	n/a
162.253	0.497	neutral	Picture	54.158	n/a	2	5	11	n/a	91	24	1	n/a	n/a	n/a	n/a	194.249	BM05NES.jpg
162.75	0.514	Blank	Blank	53.644	n/a	2	5	11	n/a	91	n/a	1	n/a	n/a	n/a	n/a	194.747	n/a
163.281	0.497	neutral	Picture	53.131	n/a	2	5	12	n/a	92	34	1	n/a	n/a	n/a	n/a	195.277	AM22NES.jpg
163.778	0.514	Blank	Blank	52.617	n/a	2	5	12	n/a	92	n/a	1	n/a	n/a	n/a	n/a	195.775	n/a
164.309	0.497	neutral	Picture	52.103	n/a	2	5	13	n/a	93	23	1	n/a	n/a	n/a	n/a	196.305	AM04NES.jpg
164.806	0.514	Blank	Blank	51.589	n/a	2	5	13	n/a	93	n/a	1	n/a	n/a	n/a	n/a	196.802	n/a
165.337	0.497	neutral	Picture	51.075	n/a	2	5	14	n/a	94	15	1	n/a	n/a	n/a	n/a	197.333	AF25NES.jpg
165.834	0.514	Blank	Blank	50.561	n/a	2	5	14	n/a	94	n/a	1	n/a	n/a	n/a	n/a	197.83	n/a
166.364	0.497	neutral	Picture	50.047	n/a	2	5	15	n/a	95	37	1	n/a	n/a	n/a	n/a	198.361	BM25NES.jpg
166.862	0.514	Blank	Blank	49.533	n/a	2	5	15	n/a	95	n/a	1	n/a	n/a	n/a	n/a	198.858	n/a
167.392	0.497	neutral	Picture	49.019	n/a	2	5	16	n/a	96	32	1	n/a	n/a	n/a	n/a	199.389	AM14NES.jpg
167.89	0.514	Blank	Blank	48.505	n/a	2	5	16	n/a	96	n/a	1	n/a	n/a	n/a	n/a	199.886	n/a
168.42	0.497	neutral	Picture	47.991	n/a	2	5	17	n/a	97	3	1	n/a	n/a	n/a	n/a	200.417	BF04NES.jpg
168.918	0.514	Blank	Blank	47.477	n/a	2	5	17	n/a	97	n/a	1	n/a	n/a	n/a	n/a	200.914	n/a
169.448	0.497	neutral	Picture	46.963	n/a	2	5	18	n/a	98	16	1	n/a	n/a	n/a	n/a	201.445	AF26NES.jpg
169.946	0.514	Blank	Blank	46.449	n/a	2	5	18	n/a	98	n/a	1	n/a	n/a	n/a	n/a	201.942	n/a
170.476	0.497	neutral	Picture	45.935	n/a	2	5	19	n/a	99	27	1	n/a	n/a	n/a	n/a	202.472	BM08NES.jpg
170.973	0.514	Blank	Blank	45.421	n/a	2	5	19	n/a	99	n/a	1	n/a	n/a	n/a	n/a	202.97	n/a
171.504	0.497	neutral	Picture	44.907	n/a	2	5	20	n/a	100	28	1	n/a	n/a	n/a	n/a	203.5	AM09NES.jpg
172.001	0.514	Blank	Blank	44.393	n/a	2	5	20	n/a	100	n/a	1	n/a	n/a	n/a	n/a	203.998	n/a
172.532	10.014	ITI	Fixation+	34.363	n/a	2	n/a	n/a	n/a	n/a	n/a	n/a	n/a	n/a	n/a	n/a	204.528	n/a
182.562	0.497	happy	Picture	33.849	n/a	2	6	1	n/a	101	81	3	n/a	n/a	n/a	n/a	214.558	AF01ANS.jpg
183.059	0.514	Blank	Blank	33.335	n/a	2	6	1	n/a	101	n/a	3	n/a	n/a	n/a	n/a	215.056	n/a
183.59	0.497	happy	Picture	32.821	n/a	2	6	2	n/a	102	120	3	n/a	n/a	n/a	n/a	215.586	AM35ANS.jpg
184.087	0.514	Blank	Blank	32.308	n/a	2	6	2	n/a	102	n/a	3	n/a	n/a	n/a	n/a	216.084	n/a
184.618	0.497	happy	Picture	31.793	n/a	2	6	3	n/a	103	114	3	n/a	n/a	n/a	n/a	216.614	AM22ANS.jpg
185.115	0.514	Blank	Blank	31.28	n/a	2	6	3	n/a	103	n/a	3	n/a	n/a	n/a	n/a	217.112	n/a
185.646	0.497	happy	Picture	30.766	n/a	2	6	4	n/a	104	109	3	n/a	n/a	n/a	n/a	217.642	AM10ANS.jpg
186.143	0.514	Blank	Blank	30.252	n/a	2	6	4	n/a	104	n/a	3	n/a	n/a	n/a	n/a	218.139	n/a
186.674	0.497	happy	Picture	29.738	n/a	2	6	5	n/a	105	96	3	n/a	n/a	n/a	n/a	218.67	AF26ANS.jpg
187.171	0.514	Blank	Blank	29.224	n/a	2	6	5	n/a	105	n/a	3	n/a	n/a	n/a	n/a	219.167	n/a
187.702	0.497	happy	Picture	28.71	n/a	2	6	6	n/a	106	82	3	n/a	n/a	n/a	n/a	219.698	AF03ANS.jpg
188.199	0.514	Blank	Blank	28.196	n/a	2	6	6	n/a	106	n/a	3	n/a	n/a	n/a	n/a	220.195	n/a
188.729	0.497	happy	Picture	27.682	n/a	2	6	7	n/a	107	97	3	n/a	n/a	n/a	n/a	220.726	BF28ANS.jpg
189.227	0.514	Blank	Blank	27.168	n/a	2	6	7	n/a	107	n/a	3	n/a	n/a	n/a	n/a	221.223	n/a
189.757	0.497	happy	Picture	26.654	n/a	2	6	8	n/a	108	115	3	n/a	n/a	n/a	n/a	221.754	AM23ANS.jpg
190.255	0.514	Blank	Blank	26.14	n/a	2	6	8	n/a	108	n/a	3	n/a	n/a	n/a	n/a	222.251	n/a
190.785	0.497	happy	Picture	25.626	n/a	2	6	9	n/a	109	91	3	n/a	n/a	n/a	n/a	222.781	AF20ANS.jpg
191.282	0.514	Blank	Blank	25.112	n/a	2	6	9	n/a	109	n/a	3	n/a	n/a	n/a	n/a	223.279	n/a
191.813	0.497	happy	Picture	24.598	n/a	2	6	10	n/a	110	87	3	n/a	n/a	n/a	n/a	223.809	BF11ANS.jpg
192.31	0.514	Blank	Blank	24.084	n/a	2	6	10	n/a	110	n/a	3	n/a	n/a	n/a	n/a	224.307	n/a
192.841	0.497	happy	Picture	23.57	n/a	2	6	11	n/a	111	85	3	n/a	n/a	n/a	n/a	224.837	BF07ANS.jpg
193.338	0.514	Blank	Blank	23.056	n/a	2	6	11	n/a	111	n/a	3	n/a	n/a	n/a	n/a	225.335	n/a
193.869	0.497	happy	Picture	22.543	n/a	2	6	12	n/a	112	110	3	n/a	n/a	n/a	n/a	225.865	AM11ANS.jpg
194.366	0.514	Blank	Blank	22.029	n/a	2	6	12	n/a	112	n/a	3	n/a	n/a	n/a	n/a	226.363	n/a
194.897	0.497	happy	Picture	21.515	n/a	2	6	13	n/a	113	111	3	n/a	n/a	n/a	n/a	226.893	BM12ANS.jpg
195.394	0.514	Blank	Blank	21.001	n/a	2	6	13	n/a	113	n/a	3	n/a	n/a	n/a	n/a	227.391	n/a
195.925	0.497	happy	Picture	20.487	n/a	2	6	14	n/a	114	103	3	n/a	n/a	n/a	n/a	227.921	AM04ANS.jpg
196.422	0.514	Blank	Blank	19.973	n/a	2	6	14	n/a	114	n/a	3	n/a	n/a	n/a	n/a	228.418	n/a
196.953	0.497	happy	Picture	19.459	n/a	2	6	15	n/a	115	101	3	n/a	n/a	n/a	n/a	228.949	AM01ANS.jpg
197.45	0.514	Blank	Blank	18.945	n/a	2	6	15	n/a	115	n/a	3	n/a	n/a	n/a	n/a	229.446	n/a
197.98	0.497	happy	Picture	18.431	n/a	2	6	16	n/a	116	104	3	n/a	n/a	n/a	n/a	229.977	BM05ANS.jpg
198.478	0.514	Blank	Blank	17.917	n/a	2	6	16	n/a	116	n/a	3	n/a	n/a	n/a	n/a	230.474	n/a
199.008	0.497	happy	Picture	17.403	n/a	2	6	17	n/a	117	107	3	n/a	n/a	n/a	n/a	231.005	BM08ANS.jpg
199.506	0.514	Blank	Blank	16.889	n/a	2	6	17	n/a	117	n/a	3	n/a	n/a	n/a	n/a	231.502	n/a
200.036	0.497	happy	Picture	16.375	n/a	2	6	18	n/a	118	98	3	n/a	n/a	n/a	n/a	232.032	BF29ANS.jpg
200.534	0.514	Blank	Blank	15.861	n/a	2	6	18	n/a	118	n/a	3	n/a	n/a	n/a	n/a	232.53	n/a
201.064	0.497	happy	Picture	15.347	n/a	2	6	19	n/a	119	99	3	n/a	n/a	n/a	n/a	233.06	AF31ANS.jpg
201.561	0.514	Blank	Blank	14.833	n/a	2	6	19	n/a	119	n/a	3	n/a	n/a	n/a	n/a	233.558	n/a
202.092	0.497	happy	Picture	14.319	n/a	2	6	20	n/a	120	108	3	n/a	n/a	n/a	n/a	234.088	AM09ANS.jpg
202.589	0.514	Blank	Blank	13.805	n/a	2	6	20	n/a	120	n/a	3	n/a	n/a	n/a	n/a	234.586	n/a
203.12	10.014	ITI	Fixation+	3.775	n/a	2	n/a	n/a	n/a	n/a	n/a	n/a	n/a	n/a	n/a	n/a	235.116	n/a
216.909	n/a	ConfirmRating	Rate	n/a	3.763	2	n/a	n/a	0	n/a	n/a	n/a	2	Happy	59	51	248.905	n/a
218.994	n/a	ConfirmRating	Rate	n/a	2.072	2	n/a	n/a	1	n/a	n/a	n/a	3	Happy	0	49	250.99	n/a
219.019	15.004	Rest	Picture	n/a	n/a	n/a	n/a	n/a	n/a	n/a	n/a	n/a	0	n/a	0	0	251.015	n/a
234.039	10.014	ITI	Fixation+	95.351	n/a	3	n/a	n/a	n/a	n/a	n/a	n/a	n/a	n/a	n/a	n/a	266.036	n/a
244.07	0.497	angry	Picture	94.837	n/a	3	7	1	n/a	1	46	2	n/a	n/a	n/a	n/a	276.066	AF09HAS.jpg
244.567	0.514	Blank	Blank	94.323	n/a	3	7	1	n/a	1	n/a	2	n/a	n/a	n/a	n/a	276.563	n/a
245.098	0.497	angry	Picture	93.809	n/a	3	7	2	n/a	2	69	2	n/a	n/a	n/a	n/a	277.094	AM10HAS.jpg
245.595	0.514	Blank	Blank	93.295	n/a	3	7	2	n/a	2	n/a	2	n/a	n/a	n/a	n/a	277.591	n/a
246.125	0.497	angry	Picture	92.781	n/a	3	7	3	n/a	3	71	2	n/a	n/a	n/a	n/a	278.122	BM12HAS.jpg
246.623	0.514	Blank	Blank	92.267	n/a	3	7	3	n/a	3	n/a	2	n/a	n/a	n/a	n/a	278.619	n/a
247.153	0.497	angry	Picture	91.753	n/a	3	7	4	n/a	4	51	2	n/a	n/a	n/a	n/a	279.15	AF20HAS.jpg
247.651	0.514	Blank	Blank	91.239	n/a	3	7	4	n/a	4	n/a	2	n/a	n/a	n/a	n/a	279.647	n/a
248.181	0.497	angry	Picture	90.725	n/a	3	7	5	n/a	5	67	2	n/a	n/a	n/a	n/a	280.178	BM08HAS.jpg
248.679	0.514	Blank	Blank	90.211	n/a	3	7	5	n/a	5	n/a	2	n/a	n/a	n/a	n/a	280.675	n/a
249.209	0.497	angry	Picture	89.697	n/a	3	7	6	n/a	6	60	2	n/a	n/a	n/a	n/a	281.205	AF32HAS.jpg
249.706	0.514	Blank	Blank	89.183	n/a	3	7	6	n/a	6	n/a	2	n/a	n/a	n/a	n/a	281.703	n/a
250.237	0.497	angry	Picture	88.669	n/a	3	7	7	n/a	7	42	2	n/a	n/a	n/a	n/a	282.233	AF03HAS.jpg
250.734	0.514	Blank	Blank	88.155	n/a	3	7	7	n/a	7	n/a	2	n/a	n/a	n/a	n/a	282.731	n/a
251.265	0.497	angry	Picture	87.641	n/a	3	7	8	n/a	8	55	2	n/a	n/a	n/a	n/a	283.261	AF25HAS.jpg
251.762	0.514	Blank	Blank	87.127	n/a	3	7	8	n/a	8	n/a	2	n/a	n/a	n/a	n/a	283.759	n/a
252.293	0.497	angry	Picture	86.613	n/a	3	7	9	n/a	9	72	2	n/a	n/a	n/a	n/a	284.289	AM14HAS.jpg
252.79	0.514	Blank	Blank	86.099	n/a	3	7	9	n/a	9	n/a	2	n/a	n/a	n/a	n/a	284.786	n/a
253.321	0.497	angry	Picture	85.585	n/a	3	7	10	n/a	10	63	2	n/a	n/a	n/a	n/a	285.317	AM04HAS.jpg
253.818	0.514	Blank	Blank	85.072	n/a	3	7	10	n/a	10	n/a	2	n/a	n/a	n/a	n/a	285.814	n/a
254.349	0.497	angry	Picture	84.558	n/a	3	7	11	n/a	11	58	2	n/a	n/a	n/a	n/a	286.345	BF29HAS.jpg
254.846	0.514	Blank	Blank	84.044	n/a	3	7	11	n/a	11	n/a	2	n/a	n/a	n/a	n/a	286.842	n/a
255.376	0.497	angry	Picture	83.53	n/a	3	7	12	n/a	12	48	2	n/a	n/a	n/a	n/a	287.373	AF14HAS.jpg
255.874	0.514	Blank	Blank	83.016	n/a	3	7	12	n/a	12	n/a	2	n/a	n/a	n/a	n/a	287.87	n/a
256.404	0.497	angry	Picture	82.502	n/a	3	7	13	n/a	13	66	2	n/a	n/a	n/a	n/a	288.401	BM07HAS.jpg
256.902	0.514	Blank	Blank	81.988	n/a	3	7	13	n/a	13	n/a	2	n/a	n/a	n/a	n/a	288.898	n/a
257.432	0.497	angry	Picture	81.474	n/a	3	7	14	n/a	14	70	2	n/a	n/a	n/a	n/a	289.429	BM11HAS.jpg
257.93	0.514	Blank	Blank	80.96	n/a	3	7	14	n/a	14	n/a	2	n/a	n/a	n/a	n/a	289.926	n/a
258.46	0.497	angry	Picture	80.446	n/a	3	7	15	n/a	15	43	2	n/a	n/a	n/a	n/a	290.457	BF04HAS.jpg
258.957	0.514	Blank	Blank	79.932	n/a	3	7	15	n/a	15	n/a	2	n/a	n/a	n/a	n/a	290.954	n/a
259.488	0.497	angry	Picture	79.418	n/a	3	7	16	n/a	16	49	2	n/a	n/a	n/a	n/a	291.484	AF17HAS.jpg
259.985	0.514	Blank	Blank	78.904	n/a	3	7	16	n/a	16	n/a	2	n/a	n/a	n/a	n/a	291.982	n/a
260.516	0.497	angry	Picture	78.39	n/a	3	7	17	n/a	17	75	2	n/a	n/a	n/a	n/a	292.512	AM23HAS.jpg
261.013	0.514	Blank	Blank	77.876	n/a	3	7	17	n/a	17	n/a	2	n/a	n/a	n/a	n/a	293.01	n/a
261.544	0.497	angry	Picture	77.362	n/a	3	7	18	n/a	18	80	2	n/a	n/a	n/a	n/a	293.54	BM35HAS.jpg
262.041	0.514	Blank	Blank	76.848	n/a	3	7	18	n/a	18	n/a	2	n/a	n/a	n/a	n/a	294.038	n/a
262.572	0.497	angry	Picture	76.334	n/a	3	7	19	n/a	19	76	2	n/a	n/a	n/a	n/a	294.568	BM24HAS.jpg
263.069	0.514	Blank	Blank	75.82	n/a	3	7	19	n/a	19	n/a	2	n/a	n/a	n/a	n/a	295.065	n/a
263.599	0.497	angry	Picture	75.307	n/a	3	7	20	n/a	20	74	2	n/a	n/a	n/a	n/a	295.596	AM22HAS.jpg
264.097	0.514	Blank	Blank	74.793	n/a	3	7	20	n/a	20	n/a	2	n/a	n/a	n/a	n/a	296.093	n/a
264.627	10.014	ITI	Fixation+	64.762	n/a	3	n/a	n/a	n/a	n/a	n/a	n/a	n/a	n/a	n/a	n/a	296.624	n/a
274.658	0.497	neutral	Picture	64.248	n/a	3	8	1	n/a	21	33	1	n/a	n/a	n/a	n/a	306.654	AM21NES.jpg
275.155	0.514	Blank	Blank	63.734	n/a	3	8	1	n/a	21	n/a	1	n/a	n/a	n/a	n/a	307.151	n/a
275.685	0.497	neutral	Picture	63.221	n/a	3	8	2	n/a	22	39	1	n/a	n/a	n/a	n/a	307.682	AM28NES.jpg
276.183	0.514	Blank	Blank	62.707	n/a	3	8	2	n/a	22	n/a	1	n/a	n/a	n/a	n/a	308.179	n/a
276.713	0.497	neutral	Picture	62.193	n/a	3	8	3	n/a	23	25	1	n/a	n/a	n/a	n/a	308.71	BM06NES.jpg
277.211	0.514	Blank	Blank	61.679	n/a	3	8	3	n/a	23	n/a	1	n/a	n/a	n/a	n/a	309.207	n/a
277.741	0.497	neutral	Picture	61.165	n/a	3	8	4	n/a	24	5	1	n/a	n/a	n/a	n/a	309.738	BF07NES.jpg
278.239	0.514	Blank	Blank	60.651	n/a	3	8	4	n/a	24	n/a	1	n/a	n/a	n/a	n/a	310.235	n/a
278.769	0.497	neutral	Picture	60.137	n/a	3	8	5	n/a	25	10	1	n/a	n/a	n/a	n/a	310.766	AF18NES.jpg
279.267	0.514	Blank	Blank	59.623	n/a	3	8	5	n/a	25	n/a	1	n/a	n/a	n/a	n/a	311.263	n/a
279.797	0.497	neutral	Picture	59.109	n/a	3	8	6	n/a	26	34	1	n/a	n/a	n/a	n/a	311.793	AM22NES.jpg
280.295	0.514	Blank	Blank	58.595	n/a	3	8	6	n/a	26	n/a	1	n/a	n/a	n/a	n/a	312.291	n/a
280.825	0.497	neutral	Picture	58.081	n/a	3	8	7	n/a	27	36	1	n/a	n/a	n/a	n/a	312.821	BM24NES.jpg
281.322	0.514	Blank	Blank	57.567	n/a	3	8	7	n/a	27	n/a	1	n/a	n/a	n/a	n/a	313.319	n/a
281.853	0.497	neutral	Picture	57.053	n/a	3	8	8	n/a	28	14	1	n/a	n/a	n/a	n/a	313.849	AF23NES.jpg
282.35	0.514	Blank	Blank	56.539	n/a	3	8	8	n/a	28	n/a	1	n/a	n/a	n/a	n/a	314.347	n/a
282.881	0.497	neutral	Picture	56.025	n/a	3	8	9	n/a	29	9	1	n/a	n/a	n/a	n/a	314.877	AF17NES.jpg
283.378	0.514	Blank	Blank	55.511	n/a	3	8	9	n/a	29	n/a	1	n/a	n/a	n/a	n/a	315.375	n/a
283.909	0.497	neutral	Picture	54.998	n/a	3	8	10	n/a	30	19	1	n/a	n/a	n/a	n/a	315.905	AF31NES.jpg
284.406	0.514	Blank	Blank	54.483	n/a	3	8	10	n/a	30	n/a	1	n/a	n/a	n/a	n/a	316.402	n/a
284.937	0.497	neutral	Picture	53.97	n/a	3	8	11	n/a	31	15	1	n/a	n/a	n/a	n/a	316.933	AF25NES.jpg
285.434	0.514	Blank	Blank	53.456	n/a	3	8	11	n/a	31	n/a	1	n/a	n/a	n/a	n/a	317.43	n/a
285.964	0.497	neutral	Picture	52.942	n/a	3	8	12	n/a	32	22	1	n/a	n/a	n/a	n/a	317.961	BM03NES.jpg
286.462	0.514	Blank	Blank	52.428	n/a	3	8	12	n/a	32	n/a	1	n/a	n/a	n/a	n/a	318.458	n/a
286.992	0.497	neutral	Picture	51.914	n/a	3	8	13	n/a	33	11	1	n/a	n/a	n/a	n/a	318.989	AF20NES.jpg
287.49	0.514	Blank	Blank	51.4	n/a	3	8	13	n/a	33	n/a	1	n/a	n/a	n/a	n/a	319.486	n/a
288.02	0.497	neutral	Picture	50.886	n/a	3	8	14	n/a	34	4	1	n/a	n/a	n/a	n/a	320.017	AF05NES.jpg
288.518	0.514	Blank	Blank	50.372	n/a	3	8	14	n/a	34	n/a	1	n/a	n/a	n/a	n/a	320.514	n/a
289.048	0.497	neutral	Picture	49.858	n/a	3	8	15	n/a	35	17	1	n/a	n/a	n/a	n/a	321.045	BF28NES.jpg
289.546	0.514	Blank	Blank	49.344	n/a	3	8	15	n/a	35	n/a	1	n/a	n/a	n/a	n/a	321.542	n/a
290.076	0.497	neutral	Picture	48.83	n/a	3	8	16	n/a	36	13	1	n/a	n/a	n/a	n/a	322.072	BF22NES.jpg
290.573	0.514	Blank	Blank	48.316	n/a	3	8	16	n/a	36	n/a	1	n/a	n/a	n/a	n/a	322.57	n/a
291.104	0.497	neutral	Picture	47.802	n/a	3	8	17	n/a	37	12	1	n/a	n/a	n/a	n/a	323.1	AF21NES.jpg
291.601	0.514	Blank	Blank	47.288	n/a	3	8	17	n/a	37	n/a	1	n/a	n/a	n/a	n/a	323.598	n/a
292.132	0.497	neutral	Picture	46.774	n/a	3	8	18	n/a	38	24	1	n/a	n/a	n/a	n/a	324.128	BM05NES.jpg
292.629	0.514	Blank	Blank	46.26	n/a	3	8	18	n/a	38	n/a	1	n/a	n/a	n/a	n/a	324.625	n/a
293.16	0.497	neutral	Picture	45.747	n/a	3	8	19	n/a	39	29	1	n/a	n/a	n/a	n/a	325.156	AM10NES.jpg
293.657	0.514	Blank	Blank	45.233	n/a	3	8	19	n/a	39	n/a	1	n/a	n/a	n/a	n/a	325.653	n/a
294.188	0.497	neutral	Picture	44.719	n/a	3	8	20	n/a	40	23	1	n/a	n/a	n/a	n/a	326.184	AM04NES.jpg
294.685	0.514	Blank	Blank	44.205	n/a	3	8	20	n/a	40	n/a	1	n/a	n/a	n/a	n/a	326.681	n/a
295.215	10.014	ITI	Fixation+	34.174	n/a	3	n/a	n/a	n/a	n/a	n/a	n/a	n/a	n/a	n/a	n/a	327.212	n/a
305.246	0.497	angry	Picture	33.661	n/a	3	9	1	n/a	41	62	2	n/a	n/a	n/a	n/a	337.242	BM03HAS.jpg
305.743	0.514	Blank	Blank	33.147	n/a	3	9	1	n/a	41	n/a	2	n/a	n/a	n/a	n/a	337.739	n/a
306.274	0.497	angry	Picture	32.633	n/a	3	9	2	n/a	42	52	2	n/a	n/a	n/a	n/a	338.27	AF21HAS.jpg
306.771	0.514	Blank	Blank	32.119	n/a	3	9	2	n/a	42	n/a	2	n/a	n/a	n/a	n/a	338.767	n/a
307.301	0.497	angry	Picture	31.605	n/a	3	9	3	n/a	43	44	2	n/a	n/a	n/a	n/a	339.298	AF05HAS.jpg
307.799	0.514	Blank	Blank	31.091	n/a	3	9	3	n/a	43	n/a	2	n/a	n/a	n/a	n/a	339.795	n/a
308.329	0.497	angry	Picture	30.577	n/a	3	9	4	n/a	44	53	2	n/a	n/a	n/a	n/a	340.326	BF22HAS.jpg
308.827	0.514	Blank	Blank	30.063	n/a	3	9	4	n/a	44	n/a	2	n/a	n/a	n/a	n/a	340.823	n/a
309.357	0.497	angry	Picture	29.549	n/a	3	9	5	n/a	45	54	2	n/a	n/a	n/a	n/a	341.354	AF23HAS.jpg
309.855	0.514	Blank	Blank	29.035	n/a	3	9	5	n/a	45	n/a	2	n/a	n/a	n/a	n/a	341.851	n/a
310.385	0.497	angry	Picture	28.521	n/a	3	9	6	n/a	46	68	2	n/a	n/a	n/a	n/a	342.382	AM09HAS.jpg
310.882	0.514	Blank	Blank	28.007	n/a	3	9	6	n/a	46	n/a	2	n/a	n/a	n/a	n/a	342.879	n/a
311.413	0.497	angry	Picture	27.493	n/a	3	9	7	n/a	47	64	2	n/a	n/a	n/a	n/a	343.409	BM05HAS.jpg
311.91	0.514	Blank	Blank	26.979	n/a	3	9	7	n/a	47	n/a	2	n/a	n/a	n/a	n/a	343.907	n/a
312.441	0.497	angry	Picture	26.465	n/a	3	9	8	n/a	48	59	2	n/a	n/a	n/a	n/a	344.437	AF31HAS.jpg
312.938	0.514	Blank	Blank	25.951	n/a	3	9	8	n/a	48	n/a	2	n/a	n/a	n/a	n/a	344.935	n/a
313.469	0.497	angry	Picture	25.437	n/a	3	9	9	n/a	49	41	2	n/a	n/a	n/a	n/a	345.465	AF01HAS.jpg
313.966	0.514	Blank	Blank	24.923	n/a	3	9	9	n/a	49	n/a	2	n/a	n/a	n/a	n/a	345.962	n/a
314.497	0.497	angry	Picture	24.409	n/a	3	9	10	n/a	50	73	2	n/a	n/a	n/a	n/a	346.493	AM21HAS.jpg
314.994	0.514	Blank	Blank	23.895	n/a	3	9	10	n/a	50	n/a	2	n/a	n/a	n/a	n/a	346.99	n/a
315.525	0.497	angry	Picture	23.382	n/a	3	9	11	n/a	51	65	2	n/a	n/a	n/a	n/a	347.521	BM06HAS.jpg
316.022	0.514	Blank	Blank	22.868	n/a	3	9	11	n/a	51	n/a	2	n/a	n/a	n/a	n/a	348.018	n/a
316.553	0.497	angry	Picture	22.354	n/a	3	9	12	n/a	52	56	2	n/a	n/a	n/a	n/a	348.549	AF26HAS.jpg
317.05	0.514	Blank	Blank	21.84	n/a	3	9	12	n/a	52	n/a	2	n/a	n/a	n/a	n/a	349.046	n/a
317.58	0.497	angry	Picture	21.326	n/a	3	9	13	n/a	53	45	2	n/a	n/a	n/a	n/a	349.577	BF07HAS.jpg
318.078	0.514	Blank	Blank	20.812	n/a	3	9	13	n/a	53	n/a	2	n/a	n/a	n/a	n/a	350.074	n/a
318.608	0.497	angry	Picture	20.298	n/a	3	9	14	n/a	54	78	2	n/a	n/a	n/a	n/a	350.605	BM26HAS.jpg
319.106	0.514	Blank	Blank	19.784	n/a	3	9	14	n/a	54	n/a	2	n/a	n/a	n/a	n/a	351.102	n/a
319.636	0.497	angry	Picture	19.27	n/a	3	9	15	n/a	55	50	2	n/a	n/a	n/a	n/a	351.632	AF18HAS.jpg
320.134	0.514	Blank	Blank	18.756	n/a	3	9	15	n/a	55	n/a	2	n/a	n/a	n/a	n/a	352.13	n/a
320.664	0.497	angry	Picture	18.242	n/a	3	9	16	n/a	56	47	2	n/a	n/a	n/a	n/a	352.66	BF11HAS.jpg
321.161	0.514	Blank	Blank	17.728	n/a	3	9	16	n/a	56	n/a	2	n/a	n/a	n/a	n/a	353.158	n/a
321.692	0.497	angry	Picture	17.214	n/a	3	9	17	n/a	57	77	2	n/a	n/a	n/a	n/a	353.688	BM25HAS.jpg
322.189	0.514	Blank	Blank	16.7	n/a	3	9	17	n/a	57	n/a	2	n/a	n/a	n/a	n/a	354.186	n/a
322.72	0.497	angry	Picture	16.186	n/a	3	9	18	n/a	58	57	2	n/a	n/a	n/a	n/a	354.716	BF28HAS.jpg
323.217	0.514	Blank	Blank	15.672	n/a	3	9	18	n/a	58	n/a	2	n/a	n/a	n/a	n/a	355.214	n/a
323.748	0.497	angry	Picture	15.159	n/a	3	9	19	n/a	59	61	2	n/a	n/a	n/a	n/a	355.744	AM01HAS.jpg
324.245	0.514	Blank	Blank	14.644	n/a	3	9	19	n/a	59	n/a	2	n/a	n/a	n/a	n/a	356.241	n/a
324.776	0.497	angry	Picture	14.131	n/a	3	9	20	n/a	60	79	2	n/a	n/a	n/a	n/a	356.772	BM28HAS.jpg
325.273	0.514	Blank	Blank	13.617	n/a	3	9	20	n/a	60	n/a	2	n/a	n/a	n/a	n/a	357.269	n/a
325.803	10.014	ITI	Fixation+	3.586	n/a	3	n/a	n/a	n/a	n/a	n/a	n/a	n/a	n/a	n/a	n/a	357.8	n/a
339.404	n/a	ConfirmRating	Rate	n/a	3.581	3	n/a	n/a	0	n/a	n/a	n/a	2	Angry	60	51	371.4	n/a
341.082	n/a	ConfirmRating	Rate	n/a	1.658	3	n/a	n/a	1	n/a	n/a	n/a	3	Angry	0	49	373.079	n/a
341.106	10.014	ITI	Fixation+	95.03	n/a	4	n/a	n/a	n/a	n/a	n/a	n/a	n/a	n/a	n/a	n/a	373.102	n/a
351.136	0.497	happy	Picture	94.516	n/a	4	10	1	n/a	61	119	3	n/a	n/a	n/a	n/a	383.132	BM28ANS.jpg
351.633	0.514	Blank	Blank	94.002	n/a	4	10	1	n/a	61	n/a	3	n/a	n/a	n/a	n/a	383.63	n/a
352.164	0.497	happy	Picture	93.488	n/a	4	10	2	n/a	62	100	3	n/a	n/a	n/a	n/a	384.16	AF32ANS.jpg
352.661	0.514	Blank	Blank	92.974	n/a	4	10	2	n/a	62	n/a	3	n/a	n/a	n/a	n/a	384.658	n/a
353.192	0.497	happy	Picture	92.46	n/a	4	10	3	n/a	63	118	3	n/a	n/a	n/a	n/a	385.188	BM26ANS.jpg
353.689	0.514	Blank	Blank	91.946	n/a	4	10	3	n/a	63	n/a	3	n/a	n/a	n/a	n/a	385.685	n/a
354.22	0.497	happy	Picture	91.432	n/a	4	10	4	n/a	64	89	3	n/a	n/a	n/a	n/a	386.216	AF17ANS.jpg
354.717	0.514	Blank	Blank	90.918	n/a	4	10	4	n/a	64	n/a	3	n/a	n/a	n/a	n/a	386.713	n/a
355.248	0.497	happy	Picture	90.404	n/a	4	10	5	n/a	65	116	3	n/a	n/a	n/a	n/a	387.244	BM24ANS.jpg
355.745	0.514	Blank	Blank	89.89	n/a	4	10	5	n/a	65	n/a	3	n/a	n/a	n/a	n/a	387.741	n/a
356.275	0.497	happy	Picture	89.377	n/a	4	10	6	n/a	66	105	3	n/a	n/a	n/a	n/a	388.272	BM06ANS.jpg
356.773	0.514	Blank	Blank	88.863	n/a	4	10	6	n/a	66	n/a	3	n/a	n/a	n/a	n/a	388.769	n/a
357.303	0.497	happy	Picture	88.349	n/a	4	10	7	n/a	67	106	3	n/a	n/a	n/a	n/a	389.3	AM07ANS.jpg
357.801	0.514	Blank	Blank	87.835	n/a	4	10	7	n/a	67	n/a	3	n/a	n/a	n/a	n/a	389.797	n/a
358.331	0.497	happy	Picture	87.321	n/a	4	10	8	n/a	68	94	3	n/a	n/a	n/a	n/a	390.328	AF23ANS.jpg
358.829	0.514	Blank	Blank	86.807	n/a	4	10	8	n/a	68	n/a	3	n/a	n/a	n/a	n/a	390.825	n/a
359.359	0.497	happy	Picture	86.293	n/a	4	10	9	n/a	69	117	3	n/a	n/a	n/a	n/a	391.356	BM25ANS.jpg
359.856	0.514	Blank	Blank	85.779	n/a	4	10	9	n/a	69	n/a	3	n/a	n/a	n/a	n/a	391.853	n/a
360.387	0.497	happy	Picture	85.265	n/a	4	10	10	n/a	70	90	3	n/a	n/a	n/a	n/a	392.383	AF18ANS.jpg
360.884	0.514	Blank	Blank	84.751	n/a	4	10	10	n/a	70	n/a	3	n/a	n/a	n/a	n/a	392.881	n/a
361.415	0.497	happy	Picture	84.237	n/a	4	10	11	n/a	71	83	3	n/a	n/a	n/a	n/a	393.411	BF04ANS.jpg
361.912	0.514	Blank	Blank	83.723	n/a	4	10	11	n/a	71	n/a	3	n/a	n/a	n/a	n/a	393.909	n/a
362.443	0.497	happy	Picture	83.209	n/a	4	10	12	n/a	72	112	3	n/a	n/a	n/a	n/a	394.439	AM14ANS.jpg
362.94	0.514	Blank	Blank	82.695	n/a	4	10	12	n/a	72	n/a	3	n/a	n/a	n/a	n/a	394.937	n/a
363.471	0.497	happy	Picture	82.181	n/a	4	10	13	n/a	73	102	3	n/a	n/a	n/a	n/a	395.467	BM03ANS.jpg
363.968	0.514	Blank	Blank	81.667	n/a	4	10	13	n/a	73	n/a	3	n/a	n/a	n/a	n/a	395.964	n/a
364.499	0.497	happy	Picture	81.154	n/a	4	10	14	n/a	74	95	3	n/a	n/a	n/a	n/a	396.495	AF25ANS.jpg
364.996	0.514	Blank	Blank	80.639	n/a	4	10	14	n/a	74	n/a	3	n/a	n/a	n/a	n/a	396.992	n/a
365.526	0.497	happy	Picture	80.126	n/a	4	10	15	n/a	75	113	3	n/a	n/a	n/a	n/a	397.523	AM21ANS.jpg
366.024	0.514	Blank	Blank	79.612	n/a	4	10	15	n/a	75	n/a	3	n/a	n/a	n/a	n/a	398.02	n/a
366.554	0.497	happy	Picture	79.098	n/a	4	10	16	n/a	76	88	3	n/a	n/a	n/a	n/a	398.551	AF14ANS.jpg
367.052	0.514	Blank	Blank	78.584	n/a	4	10	16	n/a	76	n/a	3	n/a	n/a	n/a	n/a	399.048	n/a
367.582	0.497	happy	Picture	78.07	n/a	4	10	17	n/a	77	93	3	n/a	n/a	n/a	n/a	399.579	BF22ANS.jpg
368.08	0.514	Blank	Blank	77.556	n/a	4	10	17	n/a	77	n/a	3	n/a	n/a	n/a	n/a	400.076	n/a
368.61	0.497	happy	Picture	77.042	n/a	4	10	18	n/a	78	86	3	n/a	n/a	n/a	n/a	400.606	AF09ANS.jpg
369.108	0.514	Blank	Blank	76.528	n/a	4	10	18	n/a	78	n/a	3	n/a	n/a	n/a	n/a	401.104	n/a
369.638	0.497	happy	Picture	76.014	n/a	4	10	19	n/a	79	92	3	n/a	n/a	n/a	n/a	401.634	AF21ANS.jpg
370.135	0.514	Blank	Blank	75.5	n/a	4	10	19	n/a	79	n/a	3	n/a	n/a	n/a	n/a	402.132	n/a
370.666	0.497	happy	Picture	74.986	n/a	4	10	20	n/a	80	84	3	n/a	n/a	n/a	n/a	402.662	AF05ANS.jpg
371.163	0.514	Blank	Blank	74.472	n/a	4	10	20	n/a	80	n/a	3	n/a	n/a	n/a	n/a	403.16	n/a
371.694	10.014	ITI	Fixation+	64.442	n/a	4	n/a	n/a	n/a	n/a	n/a	n/a	n/a	n/a	n/a	n/a	403.69	n/a
381.724	0.497	neutral	Picture	63.928	n/a	4	11	1	n/a	81	4	1	n/a	n/a	n/a	n/a	413.72	AF05NES.jpg
382.221	0.514	Blank	Blank	63.414	n/a	4	11	1	n/a	81	n/a	1	n/a	n/a	n/a	n/a	414.218	n/a
382.752	0.497	neutral	Picture	62.9	n/a	4	11	2	n/a	82	14	1	n/a	n/a	n/a	n/a	414.748	AF23NES.jpg
383.249	0.514	Blank	Blank	62.386	n/a	4	11	2	n/a	82	n/a	1	n/a	n/a	n/a	n/a	415.246	n/a
383.78	0.497	neutral	Picture	61.872	n/a	4	11	3	n/a	83	19	1	n/a	n/a	n/a	n/a	415.776	AF31NES.jpg
384.277	0.514	Blank	Blank	61.358	n/a	4	11	3	n/a	83	n/a	1	n/a	n/a	n/a	n/a	416.274	n/a
384.808	0.497	neutral	Picture	60.844	n/a	4	11	4	n/a	84	8	1	n/a	n/a	n/a	n/a	416.804	AF14NES.jpg
385.305	0.514	Blank	Blank	60.33	n/a	4	11	4	n/a	84	n/a	1	n/a	n/a	n/a	n/a	417.301	n/a
385.836	0.497	neutral	Picture	59.817	n/a	4	11	5	n/a	85	25	1	n/a	n/a	n/a	n/a	417.832	BM06NES.jpg
386.333	0.514	Blank	Blank	59.303	n/a	4	11	5	n/a	85	n/a	1	n/a	n/a	n/a	n/a	418.329	n/a
386.863	0.497	neutral	Picture	58.789	n/a	4	11	6	n/a	86	9	1	n/a	n/a	n/a	n/a	418.86	AF17NES.jpg
387.361	0.514	Blank	Blank	58.275	n/a	4	11	6	n/a	86	n/a	1	n/a	n/a	n/a	n/a	419.357	n/a
387.891	0.497	neutral	Picture	57.761	n/a	4	11	7	n/a	87	2	1	n/a	n/a	n/a	n/a	419.888	AF03NES.jpg
388.389	0.514	Blank	Blank	57.247	n/a	4	11	7	n/a	87	n/a	1	n/a	n/a	n/a	n/a	420.385	n/a
388.919	0.497	neutral	Picture	56.733	n/a	4	11	8	n/a	88	17	1	n/a	n/a	n/a	n/a	420.916	BF28NES.jpg
389.417	0.514	Blank	Blank	56.219	n/a	4	11	8	n/a	88	n/a	1	n/a	n/a	n/a	n/a	421.413	n/a
389.947	0.497	neutral	Picture	55.705	n/a	4	11	9	n/a	89	6	1	n/a	n/a	n/a	n/a	421.943	AF09NES.jpg
390.445	0.514	Blank	Blank	55.191	n/a	4	11	9	n/a	89	n/a	1	n/a	n/a	n/a	n/a	422.441	n/a
390.975	0.497	neutral	Picture	54.677	n/a	4	11	10	n/a	90	12	1	n/a	n/a	n/a	n/a	422.971	AF21NES.jpg
391.472	0.514	Blank	Blank	54.163	n/a	4	11	10	n/a	90	n/a	1	n/a	n/a	n/a	n/a	423.469	n/a
392.003	0.497	neutral	Picture	53.649	n/a	4	11	11	n/a	91	24	1	n/a	n/a	n/a	n/a	423.999	BM05NES.jpg
392.5	0.514	Blank	Blank	53.135	n/a	4	11	11	n/a	91	n/a	1	n/a	n/a	n/a	n/a	424.497	n/a
393.031	0.497	neutral	Picture	52.621	n/a	4	11	12	n/a	92	34	1	n/a	n/a	n/a	n/a	425.027	AM22NES.jpg
393.528	0.514	Blank	Blank	52.107	n/a	4	11	12	n/a	92	n/a	1	n/a	n/a	n/a	n/a	425.525	n/a
394.059	0.497	neutral	Picture	51.593	n/a	4	11	13	n/a	93	23	1	n/a	n/a	n/a	n/a	426.055	AM04NES.jpg
394.556	0.514	Blank	Blank	51.079	n/a	4	11	13	n/a	93	n/a	1	n/a	n/a	n/a	n/a	426.552	n/a
395.087	0.497	neutral	Picture	50.565	n/a	4	11	14	n/a	94	15	1	n/a	n/a	n/a	n/a	427.083	AF25NES.jpg
395.584	0.514	Blank	Blank	50.051	n/a	4	11	14	n/a	94	n/a	1	n/a	n/a	n/a	n/a	427.58	n/a
396.115	0.497	neutral	Picture	49.538	n/a	4	11	15	n/a	95	37	1	n/a	n/a	n/a	n/a	428.111	BM25NES.jpg
396.612	0.514	Blank	Blank	49.024	n/a	4	11	15	n/a	95	n/a	1	n/a	n/a	n/a	n/a	428.608	n/a
397.142	0.497	neutral	Picture	48.51	n/a	4	11	16	n/a	96	32	1	n/a	n/a	n/a	n/a	429.139	AM14NES.jpg
397.64	0.514	Blank	Blank	47.996	n/a	4	11	16	n/a	96	n/a	1	n/a	n/a	n/a	n/a	429.636	n/a
398.17	0.497	neutral	Picture	47.482	n/a	4	11	17	n/a	97	3	1	n/a	n/a	n/a	n/a	430.167	BF04NES.jpg
398.668	0.514	Blank	Blank	46.968	n/a	4	11	17	n/a	97	n/a	1	n/a	n/a	n/a	n/a	430.664	n/a
399.198	0.497	neutral	Picture	46.454	n/a	4	11	18	n/a	98	16	1	n/a	n/a	n/a	n/a	431.195	AF26NES.jpg
399.695	0.514	Blank	Blank	45.94	n/a	4	11	18	n/a	98	n/a	1	n/a	n/a	n/a	n/a	431.692	n/a
400.226	0.497	neutral	Picture	45.426	n/a	4	11	19	n/a	99	27	1	n/a	n/a	n/a	n/a	432.222	BM08NES.jpg
400.723	0.514	Blank	Blank	44.912	n/a	4	11	19	n/a	99	n/a	1	n/a	n/a	n/a	n/a	432.72	n/a
401.254	0.497	neutral	Picture	44.398	n/a	4	11	20	n/a	100	28	1	n/a	n/a	n/a	n/a	433.25	AM09NES.jpg
401.751	0.514	Blank	Blank	43.884	n/a	4	11	20	n/a	100	n/a	1	n/a	n/a	n/a	n/a	433.748	n/a
402.282	10.014	ITI	Fixation+	33.854	n/a	4	n/a	n/a	n/a	n/a	n/a	n/a	n/a	n/a	n/a	n/a	434.278	n/a
412.312	0.497	happy	Picture	33.34	n/a	4	12	1	n/a	101	81	3	n/a	n/a	n/a	n/a	444.308	AF01ANS.jpg
412.809	0.514	Blank	Blank	32.826	n/a	4	12	1	n/a	101	n/a	3	n/a	n/a	n/a	n/a	444.806	n/a
413.34	0.497	happy	Picture	32.312	n/a	4	12	2	n/a	102	120	3	n/a	n/a	n/a	n/a	445.336	AM35ANS.jpg
413.837	0.514	Blank	Blank	31.798	n/a	4	12	2	n/a	102	n/a	3	n/a	n/a	n/a	n/a	445.834	n/a
414.368	0.497	happy	Picture	31.284	n/a	4	12	3	n/a	103	114	3	n/a	n/a	n/a	n/a	446.364	AM22ANS.jpg
414.865	0.514	Blank	Blank	30.77	n/a	4	12	3	n/a	103	n/a	3	n/a	n/a	n/a	n/a	446.862	n/a
415.396	0.497	happy	Picture	30.256	n/a	4	12	4	n/a	104	109	3	n/a	n/a	n/a	n/a	447.392	AM10ANS.jpg
415.893	0.514	Blank	Blank	29.742	n/a	4	12	4	n/a	104	n/a	3	n/a	n/a	n/a	n/a	447.889	n/a
416.424	0.497	happy	Picture	29.228	n/a	4	12	5	n/a	105	96	3	n/a	n/a	n/a	n/a	448.42	AF26ANS.jpg
416.921	0.514	Blank	Blank	28.714	n/a	4	12	5	n/a	105	n/a	3	n/a	n/a	n/a	n/a	448.917	n/a
417.452	0.497	happy	Picture	28.201	n/a	4	12	6	n/a	106	82	3	n/a	n/a	n/a	n/a	449.448	AF03ANS.jpg
417.949	0.514	Blank	Blank	27.687	n/a	4	12	6	n/a	106	n/a	3	n/a	n/a	n/a	n/a	449.945	n/a
418.479	0.497	happy	Picture	27.173	n/a	4	12	7	n/a	107	97	3	n/a	n/a	n/a	n/a	450.476	BF28ANS.jpg
418.977	0.514	Blank	Blank	26.659	n/a	4	12	7	n/a	107	n/a	3	n/a	n/a	n/a	n/a	450.973	n/a
419.507	0.497	happy	Picture	26.145	n/a	4	12	8	n/a	108	115	3	n/a	n/a	n/a	n/a	451.504	AM23ANS.jpg
420.005	0.514	Blank	Blank	25.631	n/a	4	12	8	n/a	108	n/a	3	n/a	n/a	n/a	n/a	452.001	n/a
420.535	0.497	happy	Picture	25.117	n/a	4	12	9	n/a	109	91	3	n/a	n/a	n/a	n/a	452.531	AF20ANS.jpg
421.033	0.514	Blank	Blank	24.603	n/a	4	12	9	n/a	109	n/a	3	n/a	n/a	n/a	n/a	453.029	n/a
421.563	0.497	happy	Picture	24.089	n/a	4	12	10	n/a	110	87	3	n/a	n/a	n/a	n/a	453.559	BF11ANS.jpg
422.06	0.514	Blank	Blank	23.575	n/a	4	12	10	n/a	110	n/a	3	n/a	n/a	n/a	n/a	454.057	n/a
422.591	0.497	happy	Picture	23.061	n/a	4	12	11	n/a	111	85	3	n/a	n/a	n/a	n/a	454.587	BF07ANS.jpg
423.088	0.514	Blank	Blank	22.547	n/a	4	12	11	n/a	111	n/a	3	n/a	n/a	n/a	n/a	455.085	n/a
423.619	0.497	happy	Picture	22.033	n/a	4	12	12	n/a	112	110	3	n/a	n/a	n/a	n/a	455.615	AM11ANS.jpg
424.116	0.514	Blank	Blank	21.519	n/a	4	12	12	n/a	112	n/a	3	n/a	n/a	n/a	n/a	456.113	n/a
424.647	0.497	happy	Picture	21.005	n/a	4	12	13	n/a	113	111	3	n/a	n/a	n/a	n/a	456.643	BM12ANS.jpg
425.144	0.514	Blank	Blank	20.491	n/a	4	12	13	n/a	113	n/a	3	n/a	n/a	n/a	n/a	457.14	n/a
425.675	0.497	happy	Picture	19.978	n/a	4	12	14	n/a	114	103	3	n/a	n/a	n/a	n/a	457.671	AM04ANS.jpg
426.172	0.514	Blank	Blank	19.464	n/a	4	12	14	n/a	114	n/a	3	n/a	n/a	n/a	n/a	458.168	n/a
426.702	0.497	happy	Picture	18.95	n/a	4	12	15	n/a	115	101	3	n/a	n/a	n/a	n/a	458.699	AM01ANS.jpg
427.2	0.514	Blank	Blank	18.436	n/a	4	12	15	n/a	115	n/a	3	n/a	n/a	n/a	n/a	459.196	n/a
427.73	0.497	happy	Picture	17.922	n/a	4	12	16	n/a	116	104	3	n/a	n/a	n/a	n/a	459.727	BM05ANS.jpg
428.228	0.514	Blank	Blank	17.408	n/a	4	12	16	n/a	116	n/a	3	n/a	n/a	n/a	n/a	460.224	n/a
428.758	0.497	happy	Picture	16.894	n/a	4	12	17	n/a	117	107	3	n/a	n/a	n/a	n/a	460.755	BM08ANS.jpg
429.256	0.514	Blank	Blank	16.38	n/a	4	12	17	n/a	117	n/a	3	n/a	n/a	n/a	n/a	461.252	n/a
429.786	0.497	happy	Picture	15.866	n/a	4	12	18	n/a	118	98	3	n/a	n/a	n/a	n/a	461.783	BF29ANS.jpg
430.284	0.514	Blank	Blank	15.352	n/a	4	12	18	n/a	118	n/a	3	n/a	n/a	n/a	n/a	462.28	n/a
430.814	0.497	happy	Picture	14.838	n/a	4	12	19	n/a	119	99	3	n/a	n/a	n/a	n/a	462.81	AF31ANS.jpg
431.311	0.514	Blank	Blank	14.324	n/a	4	12	19	n/a	119	n/a	3	n/a	n/a	n/a	n/a	463.308	n/a
431.842	0.497	happy	Picture	13.81	n/a	4	12	20	n/a	120	108	3	n/a	n/a	n/a	n/a	463.838	AM09ANS.jpg
432.339	0.514	Blank	Blank	13.296	n/a	4	12	20	n/a	120	n/a	3	n/a	n/a	n/a	n/a	464.336	n/a
432.87	10.014	ITI	Fixation+	3.266	n/a	4	n/a	n/a	n/a	n/a	n/a	n/a	n/a	n/a	n/a	n/a	464.866	n/a
446.149	n/a	ConfirmRating	Rate	n/a	3.249	4	n/a	n/a	0	n/a	n/a	n/a	2	Happy	61	51	478.146	n/a
447.791	n/a	ConfirmRating	Rate	n/a	1.641	4	n/a	n/a	1	n/a	n/a	n/a	3	Happy	0	49	479.788	n/a
