onset	duration	trial_type	event_type	time_until_response	response_time	trial_number	block_num_within_trial	image_seq_num_within_block	question_seq_num_within_block	image_seq_num	picture_number	condition	question_type	block_type	rating	rating_computed	onset_uncorrected	KDEV_imagefile
0.011	10.014	ITI	Fixation+	109.389	n/a	1	n/a	n/a	n/a	n/a	n/a	n/a	n/a	n/a	n/a	n/a	59.347	n/a
10.041	0.497	angry	Picture	108.875	n/a	1	1	1	n/a	1	46	2	n/a	n/a	n/a	n/a	69.377	AF09HAS.jpg
10.539	0.514	Blank	Blank	108.361	n/a	1	1	1	n/a	1	n/a	2	n/a	n/a	n/a	n/a	69.874	n/a
11.069	0.497	angry	Picture	107.847	n/a	1	1	2	n/a	2	69	2	n/a	n/a	n/a	n/a	70.405	AM10HAS.jpg
11.566	0.514	Blank	Blank	107.333	n/a	1	1	2	n/a	2	n/a	2	n/a	n/a	n/a	n/a	70.902	n/a
12.097	0.497	angry	Picture	106.819	n/a	1	1	3	n/a	3	71	2	n/a	n/a	n/a	n/a	71.433	BM12HAS.jpg
12.594	0.514	Blank	Blank	106.305	n/a	1	1	3	n/a	3	n/a	2	n/a	n/a	n/a	n/a	71.93	n/a
13.125	0.497	angry	Picture	105.791	n/a	1	1	4	n/a	4	51	2	n/a	n/a	n/a	n/a	72.46	AF20HAS.jpg
13.622	0.514	Blank	Blank	105.277	n/a	1	1	4	n/a	4	n/a	2	n/a	n/a	n/a	n/a	72.958	n/a
14.153	0.497	angry	Picture	104.763	n/a	1	1	5	n/a	5	67	2	n/a	n/a	n/a	n/a	73.488	BM08HAS.jpg
14.65	0.514	Blank	Blank	104.249	n/a	1	1	5	n/a	5	n/a	2	n/a	n/a	n/a	n/a	73.986	n/a
15.181	0.497	angry	Picture	103.735	n/a	1	1	6	n/a	6	60	2	n/a	n/a	n/a	n/a	74.516	AF32HAS.jpg
15.678	0.514	Blank	Blank	103.221	n/a	1	1	6	n/a	6	n/a	2	n/a	n/a	n/a	n/a	75.013	n/a
16.209	0.497	angry	Picture	102.707	n/a	1	1	7	n/a	7	42	2	n/a	n/a	n/a	n/a	75.544	AF03HAS.jpg
16.706	0.514	Blank	Blank	102.193	n/a	1	1	7	n/a	7	n/a	2	n/a	n/a	n/a	n/a	76.041	n/a
17.236	0.497	angry	Picture	101.679	n/a	1	1	8	n/a	8	55	2	n/a	n/a	n/a	n/a	76.572	AF25HAS.jpg
17.734	0.514	Blank	Blank	101.166	n/a	1	1	8	n/a	8	n/a	2	n/a	n/a	n/a	n/a	77.069	n/a
18.264	0.497	angry	Picture	100.652	n/a	1	1	9	n/a	9	72	2	n/a	n/a	n/a	n/a	77.6	AM14HAS.jpg
18.762	0.514	Blank	Blank	100.138	n/a	1	1	9	n/a	9	n/a	2	n/a	n/a	n/a	n/a	78.097	n/a
19.292	0.497	angry	Picture	99.624	n/a	1	1	10	n/a	10	63	2	n/a	n/a	n/a	n/a	78.628	AM04HAS.jpg
19.79	0.514	Blank	Blank	99.11	n/a	1	1	10	n/a	10	n/a	2	n/a	n/a	n/a	n/a	79.125	n/a
20.32	0.497	angry	Picture	98.596	n/a	1	1	11	n/a	11	58	2	n/a	n/a	n/a	n/a	79.656	BF29HAS.jpg
20.817	0.514	Blank	Blank	98.082	n/a	1	1	11	n/a	11	n/a	2	n/a	n/a	n/a	n/a	80.153	n/a
21.348	0.497	angry	Picture	97.568	n/a	1	1	12	n/a	12	48	2	n/a	n/a	n/a	n/a	80.683	AF14HAS.jpg
21.845	0.514	Blank	Blank	97.054	n/a	1	1	12	n/a	12	n/a	2	n/a	n/a	n/a	n/a	81.181	n/a
22.376	0.497	angry	Picture	96.54	n/a	1	1	13	n/a	13	66	2	n/a	n/a	n/a	n/a	81.711	BM07HAS.jpg
22.873	0.514	Blank	Blank	96.026	n/a	1	1	13	n/a	13	n/a	2	n/a	n/a	n/a	n/a	82.209	n/a
23.404	0.497	angry	Picture	95.512	n/a	1	1	14	n/a	14	70	2	n/a	n/a	n/a	n/a	82.739	BM11HAS.jpg
23.901	0.514	Blank	Blank	94.998	n/a	1	1	14	n/a	14	n/a	2	n/a	n/a	n/a	n/a	83.237	n/a
24.432	0.497	angry	Picture	94.484	n/a	1	1	15	n/a	15	43	2	n/a	n/a	n/a	n/a	83.767	BF04HAS.jpg
24.929	0.514	Blank	Blank	93.97	n/a	1	1	15	n/a	15	n/a	2	n/a	n/a	n/a	n/a	84.264	n/a
25.459	0.497	angry	Picture	93.456	n/a	1	1	16	n/a	16	49	2	n/a	n/a	n/a	n/a	84.795	AF17HAS.jpg
25.957	0.514	Blank	Blank	92.942	n/a	1	1	16	n/a	16	n/a	2	n/a	n/a	n/a	n/a	85.292	n/a
26.487	0.497	angry	Picture	92.429	n/a	1	1	17	n/a	17	75	2	n/a	n/a	n/a	n/a	85.823	AM23HAS.jpg
26.985	0.514	Blank	Blank	91.915	n/a	1	1	17	n/a	17	n/a	2	n/a	n/a	n/a	n/a	86.32	n/a
27.515	0.497	angry	Picture	91.401	n/a	1	1	18	n/a	18	80	2	n/a	n/a	n/a	n/a	86.851	BM35HAS.jpg
28.013	0.514	Blank	Blank	90.887	n/a	1	1	18	n/a	18	n/a	2	n/a	n/a	n/a	n/a	87.348	n/a
28.543	0.497	angry	Picture	90.373	n/a	1	1	19	n/a	19	76	2	n/a	n/a	n/a	n/a	87.879	BM24HAS.jpg
29.041	0.514	Blank	Blank	89.859	n/a	1	1	19	n/a	19	n/a	2	n/a	n/a	n/a	n/a	88.376	n/a
29.571	0.497	angry	Picture	89.345	n/a	1	1	20	n/a	20	74	2	n/a	n/a	n/a	n/a	88.906	AM22HAS.jpg
30.068	0.514	Blank	Blank	88.831	n/a	1	1	20	n/a	20	n/a	2	n/a	n/a	n/a	n/a	89.404	n/a
30.599	10.014	ITI	Fixation+	78.801	n/a	1	n/a	n/a	n/a	n/a	n/a	n/a	n/a	n/a	n/a	n/a	89.934	n/a
40.629	0.497	neutral	Picture	78.287	n/a	1	2	1	n/a	21	33	1	n/a	n/a	n/a	n/a	99.965	AM21NES.jpg
41.126	0.514	Blank	Blank	77.773	n/a	1	2	1	n/a	21	n/a	1	n/a	n/a	n/a	n/a	100.462	n/a
41.657	0.497	neutral	Picture	77.259	n/a	1	2	2	n/a	22	39	1	n/a	n/a	n/a	n/a	100.992	AM28NES.jpg
42.154	0.514	Blank	Blank	76.745	n/a	1	2	2	n/a	22	n/a	1	n/a	n/a	n/a	n/a	101.49	n/a
42.685	0.497	neutral	Picture	76.231	n/a	1	2	3	n/a	23	25	1	n/a	n/a	n/a	n/a	102.02	BM06NES.jpg
43.182	0.514	Blank	Blank	75.717	n/a	1	2	3	n/a	23	n/a	1	n/a	n/a	n/a	n/a	102.518	n/a
43.713	0.497	neutral	Picture	75.203	n/a	1	2	4	n/a	24	5	1	n/a	n/a	n/a	n/a	103.048	BF07NES.jpg
44.21	0.514	Blank	Blank	74.689	n/a	1	2	4	n/a	24	n/a	1	n/a	n/a	n/a	n/a	103.546	n/a
44.741	0.497	neutral	Picture	74.175	n/a	1	2	5	n/a	25	10	1	n/a	n/a	n/a	n/a	104.076	AF18NES.jpg
45.238	0.514	Blank	Blank	73.661	n/a	1	2	5	n/a	25	n/a	1	n/a	n/a	n/a	n/a	104.573	n/a
45.768	0.497	neutral	Picture	73.147	n/a	1	2	6	n/a	26	34	1	n/a	n/a	n/a	n/a	105.104	AM22NES.jpg
46.266	0.514	Blank	Blank	72.633	n/a	1	2	6	n/a	26	n/a	1	n/a	n/a	n/a	n/a	105.601	n/a
46.796	0.497	neutral	Picture	72.12	n/a	1	2	7	n/a	27	36	1	n/a	n/a	n/a	n/a	106.132	BM24NES.jpg
47.294	0.514	Blank	Blank	71.606	n/a	1	2	7	n/a	27	n/a	1	n/a	n/a	n/a	n/a	106.629	n/a
47.824	0.497	neutral	Picture	71.092	n/a	1	2	8	n/a	28	14	1	n/a	n/a	n/a	n/a	107.16	AF23NES.jpg
48.322	0.514	Blank	Blank	70.578	n/a	1	2	8	n/a	28	n/a	1	n/a	n/a	n/a	n/a	107.657	n/a
48.852	0.497	neutral	Picture	70.064	n/a	1	2	9	n/a	29	9	1	n/a	n/a	n/a	n/a	108.188	AF17NES.jpg
49.349	0.514	Blank	Blank	69.55	n/a	1	2	9	n/a	29	n/a	1	n/a	n/a	n/a	n/a	108.685	n/a
49.88	0.497	neutral	Picture	69.036	n/a	1	2	10	n/a	30	19	1	n/a	n/a	n/a	n/a	109.216	AF31NES.jpg
50.377	0.514	Blank	Blank	68.522	n/a	1	2	10	n/a	30	n/a	1	n/a	n/a	n/a	n/a	109.713	n/a
50.908	0.497	neutral	Picture	68.008	n/a	1	2	11	n/a	31	15	1	n/a	n/a	n/a	n/a	110.243	AF25NES.jpg
51.405	0.514	Blank	Blank	67.494	n/a	1	2	11	n/a	31	n/a	1	n/a	n/a	n/a	n/a	110.741	n/a
51.936	0.497	neutral	Picture	66.98	n/a	1	2	12	n/a	32	22	1	n/a	n/a	n/a	n/a	111.271	BM03NES.jpg
52.433	0.514	Blank	Blank	66.466	n/a	1	2	12	n/a	32	n/a	1	n/a	n/a	n/a	n/a	111.769	n/a
52.964	0.497	neutral	Picture	65.952	n/a	1	2	13	n/a	33	11	1	n/a	n/a	n/a	n/a	112.299	AF20NES.jpg
53.461	0.514	Blank	Blank	65.438	n/a	1	2	13	n/a	33	n/a	1	n/a	n/a	n/a	n/a	112.796	n/a
53.991	0.497	neutral	Picture	64.924	n/a	1	2	14	n/a	34	4	1	n/a	n/a	n/a	n/a	113.327	AF05NES.jpg
54.489	0.514	Blank	Blank	64.41	n/a	1	2	14	n/a	34	n/a	1	n/a	n/a	n/a	n/a	113.824	n/a
55.019	0.497	neutral	Picture	63.896	n/a	1	2	15	n/a	35	17	1	n/a	n/a	n/a	n/a	114.355	BF28NES.jpg
55.517	0.514	Blank	Blank	63.383	n/a	1	2	15	n/a	35	n/a	1	n/a	n/a	n/a	n/a	114.852	n/a
56.047	0.497	neutral	Picture	62.869	n/a	1	2	16	n/a	36	13	1	n/a	n/a	n/a	n/a	115.383	BF22NES.jpg
56.545	0.514	Blank	Blank	62.355	n/a	1	2	16	n/a	36	n/a	1	n/a	n/a	n/a	n/a	115.88	n/a
57.075	0.497	neutral	Picture	61.841	n/a	1	2	17	n/a	37	12	1	n/a	n/a	n/a	n/a	116.411	AF21NES.jpg
57.573	0.514	Blank	Blank	61.327	n/a	1	2	17	n/a	37	n/a	1	n/a	n/a	n/a	n/a	116.908	n/a
58.103	0.497	neutral	Picture	60.813	n/a	1	2	18	n/a	38	24	1	n/a	n/a	n/a	n/a	117.439	BM05NES.jpg
58.6	0.514	Blank	Blank	60.299	n/a	1	2	18	n/a	38	n/a	1	n/a	n/a	n/a	n/a	117.936	n/a
59.131	0.497	neutral	Picture	59.785	n/a	1	2	19	n/a	39	29	1	n/a	n/a	n/a	n/a	118.466	AM10NES.jpg
59.628	0.514	Blank	Blank	59.271	n/a	1	2	19	n/a	39	n/a	1	n/a	n/a	n/a	n/a	118.964	n/a
60.159	0.497	neutral	Picture	58.757	n/a	1	2	20	n/a	40	23	1	n/a	n/a	n/a	n/a	119.494	AM04NES.jpg
60.656	0.514	Blank	Blank	58.243	n/a	1	2	20	n/a	40	n/a	1	n/a	n/a	n/a	n/a	119.992	n/a
61.187	10.014	ITI	Fixation+	48.213	n/a	1	n/a	n/a	n/a	n/a	n/a	n/a	n/a	n/a	n/a	n/a	120.522	n/a
71.217	0.497	angry	Picture	47.699	n/a	1	3	1	n/a	41	62	2	n/a	n/a	n/a	n/a	130.552	BM03HAS.jpg
71.714	0.514	Blank	Blank	47.185	n/a	1	3	1	n/a	41	n/a	2	n/a	n/a	n/a	n/a	131.05	n/a
72.245	0.497	angry	Picture	46.671	n/a	1	3	2	n/a	42	52	2	n/a	n/a	n/a	n/a	131.58	AF21HAS.jpg
72.742	0.514	Blank	Blank	46.157	n/a	1	3	2	n/a	42	n/a	2	n/a	n/a	n/a	n/a	132.078	n/a
73.273	0.497	angry	Picture	45.643	n/a	1	3	3	n/a	43	44	2	n/a	n/a	n/a	n/a	132.608	AF05HAS.jpg
73.77	0.514	Blank	Blank	45.129	n/a	1	3	3	n/a	43	n/a	2	n/a	n/a	n/a	n/a	133.106	n/a
74.3	0.497	angry	Picture	44.615	n/a	1	3	4	n/a	44	53	2	n/a	n/a	n/a	n/a	133.636	BF22HAS.jpg
74.798	0.514	Blank	Blank	44.101	n/a	1	3	4	n/a	44	n/a	2	n/a	n/a	n/a	n/a	134.133	n/a
75.328	0.497	angry	Picture	43.588	n/a	1	3	5	n/a	45	54	2	n/a	n/a	n/a	n/a	134.664	AF23HAS.jpg
75.826	0.514	Blank	Blank	43.074	n/a	1	3	5	n/a	45	n/a	2	n/a	n/a	n/a	n/a	135.161	n/a
76.356	0.497	angry	Picture	42.56	n/a	1	3	6	n/a	46	68	2	n/a	n/a	n/a	n/a	135.692	AM09HAS.jpg
76.854	0.514	Blank	Blank	42.046	n/a	1	3	6	n/a	46	n/a	2	n/a	n/a	n/a	n/a	136.189	n/a
77.384	0.497	angry	Picture	41.532	n/a	1	3	7	n/a	47	64	2	n/a	n/a	n/a	n/a	136.72	BM05HAS.jpg
77.882	0.514	Blank	Blank	41.018	n/a	1	3	7	n/a	47	n/a	2	n/a	n/a	n/a	n/a	137.217	n/a
78.412	0.497	angry	Picture	40.504	n/a	1	3	8	n/a	48	59	2	n/a	n/a	n/a	n/a	137.748	AF31HAS.jpg
78.909	0.514	Blank	Blank	39.99	n/a	1	3	8	n/a	48	n/a	2	n/a	n/a	n/a	n/a	138.245	n/a
79.44	0.497	angry	Picture	39.476	n/a	1	3	9	n/a	49	41	2	n/a	n/a	n/a	n/a	138.775	AF01HAS.jpg
79.937	0.514	Blank	Blank	38.962	n/a	1	3	9	n/a	49	n/a	2	n/a	n/a	n/a	n/a	139.273	n/a
80.468	0.497	angry	Picture	38.448	n/a	1	3	10	n/a	50	73	2	n/a	n/a	n/a	n/a	139.803	AM21HAS.jpg
80.965	0.514	Blank	Blank	37.934	n/a	1	3	10	n/a	50	n/a	2	n/a	n/a	n/a	n/a	140.301	n/a
81.496	0.497	angry	Picture	37.42	n/a	1	3	11	n/a	51	65	2	n/a	n/a	n/a	n/a	140.831	BM06HAS.jpg
81.993	0.514	Blank	Blank	36.906	n/a	1	3	11	n/a	51	n/a	2	n/a	n/a	n/a	n/a	141.329	n/a
82.524	0.497	angry	Picture	36.392	n/a	1	3	12	n/a	52	56	2	n/a	n/a	n/a	n/a	141.859	AF26HAS.jpg
83.021	0.514	Blank	Blank	35.878	n/a	1	3	12	n/a	52	n/a	2	n/a	n/a	n/a	n/a	142.356	n/a
83.552	0.497	angry	Picture	35.364	n/a	1	3	13	n/a	53	45	2	n/a	n/a	n/a	n/a	142.887	BF07HAS.jpg
84.049	0.514	Blank	Blank	34.85	n/a	1	3	13	n/a	53	n/a	2	n/a	n/a	n/a	n/a	143.384	n/a
84.579	0.497	angry	Picture	34.337	n/a	1	3	14	n/a	54	78	2	n/a	n/a	n/a	n/a	143.915	BM26HAS.jpg
85.077	0.514	Blank	Blank	33.823	n/a	1	3	14	n/a	54	n/a	2	n/a	n/a	n/a	n/a	144.412	n/a
85.607	0.497	angry	Picture	33.309	n/a	1	3	15	n/a	55	50	2	n/a	n/a	n/a	n/a	144.943	AF18HAS.jpg
86.105	0.514	Blank	Blank	32.795	n/a	1	3	15	n/a	55	n/a	2	n/a	n/a	n/a	n/a	145.44	n/a
86.635	0.497	angry	Picture	32.281	n/a	1	3	16	n/a	56	47	2	n/a	n/a	n/a	n/a	145.971	BF11HAS.jpg
87.132	0.514	Blank	Blank	31.767	n/a	1	3	16	n/a	56	n/a	2	n/a	n/a	n/a	n/a	146.468	n/a
87.663	0.497	angry	Picture	31.253	n/a	1	3	17	n/a	57	77	2	n/a	n/a	n/a	n/a	146.999	BM25HAS.jpg
88.16	0.514	Blank	Blank	30.739	n/a	1	3	17	n/a	57	n/a	2	n/a	n/a	n/a	n/a	147.496	n/a
88.691	0.497	angry	Picture	30.225	n/a	1	3	18	n/a	58	57	2	n/a	n/a	n/a	n/a	148.026	BF28HAS.jpg
89.188	0.514	Blank	Blank	29.711	n/a	1	3	18	n/a	58	n/a	2	n/a	n/a	n/a	n/a	148.524	n/a
89.719	0.497	angry	Picture	29.197	n/a	1	3	19	n/a	59	61	2	n/a	n/a	n/a	n/a	149.054	AM01HAS.jpg
90.216	0.514	Blank	Blank	28.683	n/a	1	3	19	n/a	59	n/a	2	n/a	n/a	n/a	n/a	149.552	n/a
90.747	0.497	angry	Picture	28.169	n/a	1	3	20	n/a	60	79	2	n/a	n/a	n/a	n/a	150.082	BM28HAS.jpg
91.244	0.514	Blank	Blank	27.655	n/a	1	3	20	n/a	60	n/a	2	n/a	n/a	n/a	n/a	150.579	n/a
91.775	10.014	ITI	Fixation+	17.625	n/a	1	n/a	n/a	n/a	n/a	n/a	n/a	n/a	n/a	n/a	n/a	151.11	n/a
119.413	n/a	ConfirmRating	Rate	n/a	17.623	1	n/a	n/a	0	n/a	n/a	n/a	2	Angry	33	49	178.749	n/a
131.08	n/a	ConfirmRating	Rate	n/a	11.638	1	n/a	n/a	1	n/a	n/a	n/a	3	Angry	19	47	190.416	n/a
131.099	10.014	ITI	Fixation+	103.736	n/a	2	n/a	n/a	n/a	n/a	n/a	n/a	n/a	n/a	n/a	n/a	190.435	n/a
141.13	0.497	happy	Picture	103.222	n/a	2	4	1	n/a	61	119	3	n/a	n/a	n/a	n/a	200.465	BM28ANS.jpg
141.627	0.514	Blank	Blank	102.708	n/a	2	4	1	n/a	61	n/a	3	n/a	n/a	n/a	n/a	200.962	n/a
142.157	0.497	happy	Picture	102.194	n/a	2	4	2	n/a	62	100	3	n/a	n/a	n/a	n/a	201.493	AF32ANS.jpg
142.655	0.514	Blank	Blank	101.68	n/a	2	4	2	n/a	62	n/a	3	n/a	n/a	n/a	n/a	201.99	n/a
143.185	0.497	happy	Picture	101.166	n/a	2	4	3	n/a	63	118	3	n/a	n/a	n/a	n/a	202.521	BM26ANS.jpg
143.683	0.514	Blank	Blank	100.652	n/a	2	4	3	n/a	63	n/a	3	n/a	n/a	n/a	n/a	203.018	n/a
144.213	0.497	happy	Picture	100.138	n/a	2	4	4	n/a	64	89	3	n/a	n/a	n/a	n/a	203.549	AF17ANS.jpg
144.71	0.514	Blank	Blank	99.624	n/a	2	4	4	n/a	64	n/a	3	n/a	n/a	n/a	n/a	204.046	n/a
145.241	0.497	happy	Picture	99.11	n/a	2	4	5	n/a	65	116	3	n/a	n/a	n/a	n/a	204.577	BM24ANS.jpg
145.738	0.514	Blank	Blank	98.596	n/a	2	4	5	n/a	65	n/a	3	n/a	n/a	n/a	n/a	205.074	n/a
146.269	0.497	happy	Picture	98.082	n/a	2	4	6	n/a	66	105	3	n/a	n/a	n/a	n/a	205.604	BM06ANS.jpg
146.766	0.514	Blank	Blank	97.568	n/a	2	4	6	n/a	66	n/a	3	n/a	n/a	n/a	n/a	206.102	n/a
147.297	0.497	happy	Picture	97.054	n/a	2	4	7	n/a	67	106	3	n/a	n/a	n/a	n/a	206.632	AM07ANS.jpg
147.794	0.514	Blank	Blank	96.54	n/a	2	4	7	n/a	67	n/a	3	n/a	n/a	n/a	n/a	207.13	n/a
148.325	0.497	happy	Picture	96.026	n/a	2	4	8	n/a	68	94	3	n/a	n/a	n/a	n/a	207.66	AF23ANS.jpg
148.822	0.514	Blank	Blank	95.512	n/a	2	4	8	n/a	68	n/a	3	n/a	n/a	n/a	n/a	208.157	n/a
149.353	0.497	happy	Picture	94.999	n/a	2	4	9	n/a	69	117	3	n/a	n/a	n/a	n/a	208.688	BM25ANS.jpg
149.85	0.514	Blank	Blank	94.484	n/a	2	4	9	n/a	69	n/a	3	n/a	n/a	n/a	n/a	209.185	n/a
150.38	0.497	happy	Picture	93.971	n/a	2	4	10	n/a	70	90	3	n/a	n/a	n/a	n/a	209.716	AF18ANS.jpg
150.878	0.514	Blank	Blank	93.457	n/a	2	4	10	n/a	70	n/a	3	n/a	n/a	n/a	n/a	210.213	n/a
151.408	0.497	happy	Picture	92.943	n/a	2	4	11	n/a	71	83	3	n/a	n/a	n/a	n/a	210.744	BF04ANS.jpg
151.906	0.514	Blank	Blank	92.429	n/a	2	4	11	n/a	71	n/a	3	n/a	n/a	n/a	n/a	211.241	n/a
152.436	0.497	happy	Picture	91.915	n/a	2	4	12	n/a	72	112	3	n/a	n/a	n/a	n/a	211.772	AM14ANS.jpg
152.934	0.514	Blank	Blank	91.401	n/a	2	4	12	n/a	72	n/a	3	n/a	n/a	n/a	n/a	212.269	n/a
153.464	0.497	happy	Picture	90.887	n/a	2	4	13	n/a	73	102	3	n/a	n/a	n/a	n/a	212.8	BM03ANS.jpg
153.961	0.514	Blank	Blank	90.373	n/a	2	4	13	n/a	73	n/a	3	n/a	n/a	n/a	n/a	213.297	n/a
154.492	0.497	happy	Picture	89.859	n/a	2	4	14	n/a	74	95	3	n/a	n/a	n/a	n/a	213.827	AF25ANS.jpg
154.989	0.514	Blank	Blank	89.345	n/a	2	4	14	n/a	74	n/a	3	n/a	n/a	n/a	n/a	214.325	n/a
155.52	0.497	happy	Picture	88.831	n/a	2	4	15	n/a	75	113	3	n/a	n/a	n/a	n/a	214.855	AM21ANS.jpg
156.017	0.514	Blank	Blank	88.317	n/a	2	4	15	n/a	75	n/a	3	n/a	n/a	n/a	n/a	215.353	n/a
156.548	0.497	happy	Picture	87.803	n/a	2	4	16	n/a	76	88	3	n/a	n/a	n/a	n/a	215.883	AF14ANS.jpg
157.045	0.514	Blank	Blank	87.289	n/a	2	4	16	n/a	76	n/a	3	n/a	n/a	n/a	n/a	216.381	n/a
157.576	0.497	happy	Picture	86.775	n/a	2	4	17	n/a	77	93	3	n/a	n/a	n/a	n/a	216.911	BF22ANS.jpg
158.073	0.514	Blank	Blank	86.261	n/a	2	4	17	n/a	77	n/a	3	n/a	n/a	n/a	n/a	217.409	n/a
158.603	0.497	happy	Picture	85.748	n/a	2	4	18	n/a	78	86	3	n/a	n/a	n/a	n/a	217.939	AF09ANS.jpg
159.101	0.514	Blank	Blank	85.234	n/a	2	4	18	n/a	78	n/a	3	n/a	n/a	n/a	n/a	218.436	n/a
159.631	0.497	happy	Picture	84.72	n/a	2	4	19	n/a	79	92	3	n/a	n/a	n/a	n/a	218.967	AF21ANS.jpg
160.129	0.514	Blank	Blank	84.206	n/a	2	4	19	n/a	79	n/a	3	n/a	n/a	n/a	n/a	219.464	n/a
160.659	0.497	happy	Picture	83.692	n/a	2	4	20	n/a	80	84	3	n/a	n/a	n/a	n/a	219.995	AF05ANS.jpg
161.157	0.514	Blank	Blank	83.178	n/a	2	4	20	n/a	80	n/a	3	n/a	n/a	n/a	n/a	220.492	n/a
161.687	10.014	ITI	Fixation+	73.148	n/a	2	n/a	n/a	n/a	n/a	n/a	n/a	n/a	n/a	n/a	n/a	221.023	n/a
171.717	0.497	neutral	Picture	72.634	n/a	2	5	1	n/a	81	4	1	n/a	n/a	n/a	n/a	231.053	AF05NES.jpg
172.215	0.514	Blank	Blank	72.12	n/a	2	5	1	n/a	81	n/a	1	n/a	n/a	n/a	n/a	231.55	n/a
172.745	0.497	neutral	Picture	71.606	n/a	2	5	2	n/a	82	14	1	n/a	n/a	n/a	n/a	232.081	AF23NES.jpg
173.243	0.514	Blank	Blank	71.092	n/a	2	5	2	n/a	82	n/a	1	n/a	n/a	n/a	n/a	232.578	n/a
173.773	0.497	neutral	Picture	70.578	n/a	2	5	3	n/a	83	19	1	n/a	n/a	n/a	n/a	233.109	AF31NES.jpg
174.27	0.514	Blank	Blank	70.064	n/a	2	5	3	n/a	83	n/a	1	n/a	n/a	n/a	n/a	233.606	n/a
174.801	0.497	neutral	Picture	69.55	n/a	2	5	4	n/a	84	8	1	n/a	n/a	n/a	n/a	234.136	AF14NES.jpg
175.298	0.514	Blank	Blank	69.036	n/a	2	5	4	n/a	84	n/a	1	n/a	n/a	n/a	n/a	234.634	n/a
175.829	0.497	neutral	Picture	68.522	n/a	2	5	5	n/a	85	25	1	n/a	n/a	n/a	n/a	235.164	BM06NES.jpg
176.326	0.514	Blank	Blank	68.008	n/a	2	5	5	n/a	85	n/a	1	n/a	n/a	n/a	n/a	235.662	n/a
176.857	0.497	neutral	Picture	67.494	n/a	2	5	6	n/a	86	9	1	n/a	n/a	n/a	n/a	236.192	AF17NES.jpg
177.354	0.514	Blank	Blank	66.98	n/a	2	5	6	n/a	86	n/a	1	n/a	n/a	n/a	n/a	236.69	n/a
177.885	0.497	neutral	Picture	66.466	n/a	2	5	7	n/a	87	2	1	n/a	n/a	n/a	n/a	237.22	AF03NES.jpg
178.382	0.514	Blank	Blank	65.952	n/a	2	5	7	n/a	87	n/a	1	n/a	n/a	n/a	n/a	237.718	n/a
178.912	0.497	neutral	Picture	65.439	n/a	2	5	8	n/a	88	17	1	n/a	n/a	n/a	n/a	238.248	BF28NES.jpg
179.41	0.514	Blank	Blank	64.925	n/a	2	5	8	n/a	88	n/a	1	n/a	n/a	n/a	n/a	238.745	n/a
179.94	0.497	neutral	Picture	64.411	n/a	2	5	9	n/a	89	6	1	n/a	n/a	n/a	n/a	239.276	AF09NES.jpg
180.438	0.514	Blank	Blank	63.897	n/a	2	5	9	n/a	89	n/a	1	n/a	n/a	n/a	n/a	239.773	n/a
180.968	0.497	neutral	Picture	63.383	n/a	2	5	10	n/a	90	12	1	n/a	n/a	n/a	n/a	240.304	AF21NES.jpg
181.466	0.514	Blank	Blank	62.869	n/a	2	5	10	n/a	90	n/a	1	n/a	n/a	n/a	n/a	240.801	n/a
181.996	0.497	neutral	Picture	62.355	n/a	2	5	11	n/a	91	24	1	n/a	n/a	n/a	n/a	241.332	BM05NES.jpg
182.494	0.514	Blank	Blank	61.841	n/a	2	5	11	n/a	91	n/a	1	n/a	n/a	n/a	n/a	241.829	n/a
183.024	0.497	neutral	Picture	61.327	n/a	2	5	12	n/a	92	34	1	n/a	n/a	n/a	n/a	242.359	AM22NES.jpg
183.521	0.514	Blank	Blank	60.813	n/a	2	5	12	n/a	92	n/a	1	n/a	n/a	n/a	n/a	242.857	n/a
184.052	0.497	neutral	Picture	60.299	n/a	2	5	13	n/a	93	23	1	n/a	n/a	n/a	n/a	243.387	AM04NES.jpg
184.549	0.514	Blank	Blank	59.785	n/a	2	5	13	n/a	93	n/a	1	n/a	n/a	n/a	n/a	243.885	n/a
185.08	0.497	neutral	Picture	59.271	n/a	2	5	14	n/a	94	15	1	n/a	n/a	n/a	n/a	244.415	AF25NES.jpg
185.577	0.514	Blank	Blank	58.757	n/a	2	5	14	n/a	94	n/a	1	n/a	n/a	n/a	n/a	244.913	n/a
186.108	0.497	neutral	Picture	58.243	n/a	2	5	15	n/a	95	37	1	n/a	n/a	n/a	n/a	245.443	BM25NES.jpg
186.605	0.514	Blank	Blank	57.729	n/a	2	5	15	n/a	95	n/a	1	n/a	n/a	n/a	n/a	245.94	n/a
187.136	0.497	neutral	Picture	57.215	n/a	2	5	16	n/a	96	32	1	n/a	n/a	n/a	n/a	246.471	AM14NES.jpg
187.633	0.514	Blank	Blank	56.702	n/a	2	5	16	n/a	96	n/a	1	n/a	n/a	n/a	n/a	246.968	n/a
188.163	0.497	neutral	Picture	56.188	n/a	2	5	17	n/a	97	3	1	n/a	n/a	n/a	n/a	247.499	BF04NES.jpg
188.661	0.514	Blank	Blank	55.674	n/a	2	5	17	n/a	97	n/a	1	n/a	n/a	n/a	n/a	247.996	n/a
189.191	0.497	neutral	Picture	55.16	n/a	2	5	18	n/a	98	16	1	n/a	n/a	n/a	n/a	248.527	AF26NES.jpg
189.689	0.514	Blank	Blank	54.646	n/a	2	5	18	n/a	98	n/a	1	n/a	n/a	n/a	n/a	249.024	n/a
190.219	0.497	neutral	Picture	54.132	n/a	2	5	19	n/a	99	27	1	n/a	n/a	n/a	n/a	249.555	BM08NES.jpg
190.716	0.514	Blank	Blank	53.618	n/a	2	5	19	n/a	99	n/a	1	n/a	n/a	n/a	n/a	250.052	n/a
191.247	0.497	neutral	Picture	53.104	n/a	2	5	20	n/a	100	28	1	n/a	n/a	n/a	n/a	250.583	AM09NES.jpg
191.744	0.514	Blank	Blank	52.59	n/a	2	5	20	n/a	100	n/a	1	n/a	n/a	n/a	n/a	251.08	n/a
192.275	10.014	ITI	Fixation+	42.56	n/a	2	n/a	n/a	n/a	n/a	n/a	n/a	n/a	n/a	n/a	n/a	251.611	n/a
202.305	0.497	happy	Picture	42.046	n/a	2	6	1	n/a	101	81	3	n/a	n/a	n/a	n/a	261.641	AF01ANS.jpg
202.802	0.514	Blank	Blank	41.532	n/a	2	6	1	n/a	101	n/a	3	n/a	n/a	n/a	n/a	262.138	n/a
203.333	0.497	happy	Picture	41.018	n/a	2	6	2	n/a	102	120	3	n/a	n/a	n/a	n/a	262.668	AM35ANS.jpg
203.83	0.514	Blank	Blank	40.504	n/a	2	6	2	n/a	102	n/a	3	n/a	n/a	n/a	n/a	263.166	n/a
204.361	0.497	happy	Picture	39.99	n/a	2	6	3	n/a	103	114	3	n/a	n/a	n/a	n/a	263.696	AM22ANS.jpg
204.858	0.514	Blank	Blank	39.476	n/a	2	6	3	n/a	103	n/a	3	n/a	n/a	n/a	n/a	264.194	n/a
205.389	0.497	happy	Picture	38.962	n/a	2	6	4	n/a	104	109	3	n/a	n/a	n/a	n/a	264.724	AM10ANS.jpg
205.886	0.514	Blank	Blank	38.448	n/a	2	6	4	n/a	104	n/a	3	n/a	n/a	n/a	n/a	265.222	n/a
206.417	0.497	happy	Picture	37.934	n/a	2	6	5	n/a	105	96	3	n/a	n/a	n/a	n/a	265.752	AF26ANS.jpg
206.914	0.514	Blank	Blank	37.42	n/a	2	6	5	n/a	105	n/a	3	n/a	n/a	n/a	n/a	266.25	n/a
207.444	0.497	happy	Picture	36.907	n/a	2	6	6	n/a	106	82	3	n/a	n/a	n/a	n/a	266.78	AF03ANS.jpg
207.942	0.514	Blank	Blank	36.393	n/a	2	6	6	n/a	106	n/a	3	n/a	n/a	n/a	n/a	267.277	n/a
208.472	0.497	happy	Picture	35.879	n/a	2	6	7	n/a	107	97	3	n/a	n/a	n/a	n/a	267.808	BF28ANS.jpg
208.97	0.514	Blank	Blank	35.365	n/a	2	6	7	n/a	107	n/a	3	n/a	n/a	n/a	n/a	268.305	n/a
209.5	0.497	happy	Picture	34.851	n/a	2	6	8	n/a	108	115	3	n/a	n/a	n/a	n/a	268.836	AM23ANS.jpg
209.998	0.514	Blank	Blank	34.337	n/a	2	6	8	n/a	108	n/a	3	n/a	n/a	n/a	n/a	269.333	n/a
210.528	0.497	happy	Picture	33.823	n/a	2	6	9	n/a	109	91	3	n/a	n/a	n/a	n/a	269.864	AF20ANS.jpg
211.025	0.514	Blank	Blank	33.309	n/a	2	6	9	n/a	109	n/a	3	n/a	n/a	n/a	n/a	270.361	n/a
211.556	0.497	happy	Picture	32.795	n/a	2	6	10	n/a	110	87	3	n/a	n/a	n/a	n/a	270.892	BF11ANS.jpg
212.053	0.514	Blank	Blank	32.281	n/a	2	6	10	n/a	110	n/a	3	n/a	n/a	n/a	n/a	271.389	n/a
212.584	0.497	happy	Picture	31.767	n/a	2	6	11	n/a	111	85	3	n/a	n/a	n/a	n/a	271.919	BF07ANS.jpg
213.081	0.514	Blank	Blank	31.253	n/a	2	6	11	n/a	111	n/a	3	n/a	n/a	n/a	n/a	272.417	n/a
213.612	0.497	happy	Picture	30.739	n/a	2	6	12	n/a	112	110	3	n/a	n/a	n/a	n/a	272.947	AM11ANS.jpg
214.109	0.514	Blank	Blank	30.225	n/a	2	6	12	n/a	112	n/a	3	n/a	n/a	n/a	n/a	273.445	n/a
214.64	0.497	happy	Picture	29.711	n/a	2	6	13	n/a	113	111	3	n/a	n/a	n/a	n/a	273.975	BM12ANS.jpg
215.137	0.514	Blank	Blank	29.197	n/a	2	6	13	n/a	113	n/a	3	n/a	n/a	n/a	n/a	274.473	n/a
215.668	0.497	happy	Picture	28.683	n/a	2	6	14	n/a	114	103	3	n/a	n/a	n/a	n/a	275.003	AM04ANS.jpg
216.165	0.514	Blank	Blank	28.169	n/a	2	6	14	n/a	114	n/a	3	n/a	n/a	n/a	n/a	275.5	n/a
216.696	0.497	happy	Picture	27.656	n/a	2	6	15	n/a	115	101	3	n/a	n/a	n/a	n/a	276.031	AM01ANS.jpg
217.193	0.514	Blank	Blank	27.142	n/a	2	6	15	n/a	115	n/a	3	n/a	n/a	n/a	n/a	276.528	n/a
217.723	0.497	happy	Picture	26.628	n/a	2	6	16	n/a	116	104	3	n/a	n/a	n/a	n/a	277.059	BM05ANS.jpg
218.221	0.514	Blank	Blank	26.114	n/a	2	6	16	n/a	116	n/a	3	n/a	n/a	n/a	n/a	277.556	n/a
218.751	0.497	happy	Picture	25.6	n/a	2	6	17	n/a	117	107	3	n/a	n/a	n/a	n/a	278.087	BM08ANS.jpg
219.249	0.514	Blank	Blank	25.086	n/a	2	6	17	n/a	117	n/a	3	n/a	n/a	n/a	n/a	278.584	n/a
219.779	0.497	happy	Picture	24.572	n/a	2	6	18	n/a	118	98	3	n/a	n/a	n/a	n/a	279.115	BF29ANS.jpg
220.277	0.514	Blank	Blank	24.058	n/a	2	6	18	n/a	118	n/a	3	n/a	n/a	n/a	n/a	279.612	n/a
220.807	0.497	happy	Picture	23.544	n/a	2	6	19	n/a	119	99	3	n/a	n/a	n/a	n/a	280.142	AF31ANS.jpg
221.304	0.514	Blank	Blank	23.03	n/a	2	6	19	n/a	119	n/a	3	n/a	n/a	n/a	n/a	280.64	n/a
221.835	0.497	happy	Picture	22.516	n/a	2	6	20	n/a	120	108	3	n/a	n/a	n/a	n/a	281.17	AM09ANS.jpg
222.332	0.514	Blank	Blank	22.002	n/a	2	6	20	n/a	120	n/a	3	n/a	n/a	n/a	n/a	281.668	n/a
222.863	10.014	ITI	Fixation+	11.972	n/a	2	n/a	n/a	n/a	n/a	n/a	n/a	n/a	n/a	n/a	n/a	282.198	n/a
244.848	n/a	ConfirmRating	Rate	n/a	11.97	2	n/a	n/a	0	n/a	n/a	n/a	2	Happy	39	49	304.184	n/a
259.543	n/a	ConfirmRating	Rate	n/a	14.673	2	n/a	n/a	1	n/a	n/a	n/a	3	Happy	5	46	318.879	n/a
259.568	15.004	Rest	Picture	n/a	n/a	n/a	n/a	n/a	n/a	n/a	n/a	n/a	0	n/a	0	0	318.904	n/a
274.588	10.014	ITI	Fixation+	103.555	n/a	3	n/a	n/a	n/a	n/a	n/a	n/a	n/a	n/a	n/a	n/a	333.924	n/a
284.619	0.497	angry	Picture	103.041	n/a	3	7	1	n/a	1	46	2	n/a	n/a	n/a	n/a	343.954	AF09HAS.jpg
285.116	0.514	Blank	Blank	102.527	n/a	3	7	1	n/a	1	n/a	2	n/a	n/a	n/a	n/a	344.452	n/a
285.647	0.497	angry	Picture	102.013	n/a	3	7	2	n/a	2	69	2	n/a	n/a	n/a	n/a	344.982	AM10HAS.jpg
286.144	0.514	Blank	Blank	101.5	n/a	3	7	2	n/a	2	n/a	2	n/a	n/a	n/a	n/a	345.479	n/a
286.674	0.497	angry	Picture	100.985	n/a	3	7	3	n/a	3	71	2	n/a	n/a	n/a	n/a	346.01	BM12HAS.jpg
287.172	0.514	Blank	Blank	100.472	n/a	3	7	3	n/a	3	n/a	2	n/a	n/a	n/a	n/a	346.507	n/a
287.702	0.497	angry	Picture	99.958	n/a	3	7	4	n/a	4	51	2	n/a	n/a	n/a	n/a	347.038	AF20HAS.jpg
288.2	0.514	Blank	Blank	99.444	n/a	3	7	4	n/a	4	n/a	2	n/a	n/a	n/a	n/a	347.535	n/a
288.73	0.497	angry	Picture	98.93	n/a	3	7	5	n/a	5	67	2	n/a	n/a	n/a	n/a	348.066	BM08HAS.jpg
289.227	0.514	Blank	Blank	98.416	n/a	3	7	5	n/a	5	n/a	2	n/a	n/a	n/a	n/a	348.563	n/a
289.758	0.497	angry	Picture	97.902	n/a	3	7	6	n/a	6	60	2	n/a	n/a	n/a	n/a	349.094	AF32HAS.jpg
290.255	0.514	Blank	Blank	97.388	n/a	3	7	6	n/a	6	n/a	2	n/a	n/a	n/a	n/a	349.591	n/a
290.786	0.497	angry	Picture	96.874	n/a	3	7	7	n/a	7	42	2	n/a	n/a	n/a	n/a	350.121	AF03HAS.jpg
291.283	0.514	Blank	Blank	96.36	n/a	3	7	7	n/a	7	n/a	2	n/a	n/a	n/a	n/a	350.619	n/a
291.814	0.497	angry	Picture	95.846	n/a	3	7	8	n/a	8	55	2	n/a	n/a	n/a	n/a	351.149	AF25HAS.jpg
292.311	0.514	Blank	Blank	95.332	n/a	3	7	8	n/a	8	n/a	2	n/a	n/a	n/a	n/a	351.647	n/a
292.842	0.497	angry	Picture	94.818	n/a	3	7	9	n/a	9	72	2	n/a	n/a	n/a	n/a	352.177	AM14HAS.jpg
293.339	0.514	Blank	Blank	94.304	n/a	3	7	9	n/a	9	n/a	2	n/a	n/a	n/a	n/a	352.675	n/a
293.87	0.497	angry	Picture	93.79	n/a	3	7	10	n/a	10	63	2	n/a	n/a	n/a	n/a	353.205	AM04HAS.jpg
294.367	0.514	Blank	Blank	93.276	n/a	3	7	10	n/a	10	n/a	2	n/a	n/a	n/a	n/a	353.702	n/a
294.897	0.497	angry	Picture	92.762	n/a	3	7	11	n/a	11	58	2	n/a	n/a	n/a	n/a	354.233	BF29HAS.jpg
295.395	0.514	Blank	Blank	92.248	n/a	3	7	11	n/a	11	n/a	2	n/a	n/a	n/a	n/a	354.73	n/a
295.925	0.497	angry	Picture	91.735	n/a	3	7	12	n/a	12	48	2	n/a	n/a	n/a	n/a	355.261	AF14HAS.jpg
296.423	0.514	Blank	Blank	91.221	n/a	3	7	12	n/a	12	n/a	2	n/a	n/a	n/a	n/a	355.758	n/a
296.953	0.497	angry	Picture	90.707	n/a	3	7	13	n/a	13	66	2	n/a	n/a	n/a	n/a	356.289	BM07HAS.jpg
297.451	0.514	Blank	Blank	90.193	n/a	3	7	13	n/a	13	n/a	2	n/a	n/a	n/a	n/a	356.786	n/a
297.981	0.497	angry	Picture	89.679	n/a	3	7	14	n/a	14	70	2	n/a	n/a	n/a	n/a	357.317	BM11HAS.jpg
298.478	0.514	Blank	Blank	89.165	n/a	3	7	14	n/a	14	n/a	2	n/a	n/a	n/a	n/a	357.814	n/a
299.009	0.497	angry	Picture	88.651	n/a	3	7	15	n/a	15	43	2	n/a	n/a	n/a	n/a	358.344	BF04HAS.jpg
299.506	0.514	Blank	Blank	88.137	n/a	3	7	15	n/a	15	n/a	2	n/a	n/a	n/a	n/a	358.842	n/a
300.037	0.497	angry	Picture	87.623	n/a	3	7	16	n/a	16	49	2	n/a	n/a	n/a	n/a	359.372	AF17HAS.jpg
300.534	0.514	Blank	Blank	87.109	n/a	3	7	16	n/a	16	n/a	2	n/a	n/a	n/a	n/a	359.87	n/a
301.065	0.497	angry	Picture	86.595	n/a	3	7	17	n/a	17	75	2	n/a	n/a	n/a	n/a	360.4	AM23HAS.jpg
301.562	0.514	Blank	Blank	86.081	n/a	3	7	17	n/a	17	n/a	2	n/a	n/a	n/a	n/a	360.898	n/a
302.093	0.497	angry	Picture	85.567	n/a	3	7	18	n/a	18	80	2	n/a	n/a	n/a	n/a	361.428	BM35HAS.jpg
302.59	0.514	Blank	Blank	85.053	n/a	3	7	18	n/a	18	n/a	2	n/a	n/a	n/a	n/a	361.925	n/a
303.12	0.497	angry	Picture	84.539	n/a	3	7	19	n/a	19	76	2	n/a	n/a	n/a	n/a	362.456	BM24HAS.jpg
303.618	0.514	Blank	Blank	84.026	n/a	3	7	19	n/a	19	n/a	2	n/a	n/a	n/a	n/a	362.953	n/a
304.148	0.497	angry	Picture	83.511	n/a	3	7	20	n/a	20	74	2	n/a	n/a	n/a	n/a	363.484	AM22HAS.jpg
304.646	0.514	Blank	Blank	82.998	n/a	3	7	20	n/a	20	n/a	2	n/a	n/a	n/a	n/a	363.981	n/a
305.176	10.014	ITI	Fixation+	72.967	n/a	3	n/a	n/a	n/a	n/a	n/a	n/a	n/a	n/a	n/a	n/a	364.512	n/a
315.206	0.497	neutral	Picture	72.453	n/a	3	8	1	n/a	21	33	1	n/a	n/a	n/a	n/a	374.542	AM21NES.jpg
315.704	0.514	Blank	Blank	71.94	n/a	3	8	1	n/a	21	n/a	1	n/a	n/a	n/a	n/a	375.039	n/a
316.234	0.497	neutral	Picture	71.426	n/a	3	8	2	n/a	22	39	1	n/a	n/a	n/a	n/a	375.57	AM28NES.jpg
316.732	0.514	Blank	Blank	70.912	n/a	3	8	2	n/a	22	n/a	1	n/a	n/a	n/a	n/a	376.067	n/a
317.262	0.497	neutral	Picture	70.398	n/a	3	8	3	n/a	23	25	1	n/a	n/a	n/a	n/a	376.598	BM06NES.jpg
317.76	0.514	Blank	Blank	69.884	n/a	3	8	3	n/a	23	n/a	1	n/a	n/a	n/a	n/a	377.095	n/a
318.29	0.497	neutral	Picture	69.37	n/a	3	8	4	n/a	24	5	1	n/a	n/a	n/a	n/a	377.626	BF07NES.jpg
318.787	0.514	Blank	Blank	68.856	n/a	3	8	4	n/a	24	n/a	1	n/a	n/a	n/a	n/a	378.123	n/a
319.318	0.497	neutral	Picture	68.342	n/a	3	8	5	n/a	25	10	1	n/a	n/a	n/a	n/a	378.654	AF18NES.jpg
319.815	0.514	Blank	Blank	67.828	n/a	3	8	5	n/a	25	n/a	1	n/a	n/a	n/a	n/a	379.151	n/a
320.346	0.497	neutral	Picture	67.314	n/a	3	8	6	n/a	26	34	1	n/a	n/a	n/a	n/a	379.681	AM22NES.jpg
320.843	0.514	Blank	Blank	66.8	n/a	3	8	6	n/a	26	n/a	1	n/a	n/a	n/a	n/a	380.179	n/a
321.374	0.497	neutral	Picture	66.286	n/a	3	8	7	n/a	27	36	1	n/a	n/a	n/a	n/a	380.709	BM24NES.jpg
321.871	0.514	Blank	Blank	65.772	n/a	3	8	7	n/a	27	n/a	1	n/a	n/a	n/a	n/a	381.207	n/a
322.402	0.497	neutral	Picture	65.258	n/a	3	8	8	n/a	28	14	1	n/a	n/a	n/a	n/a	381.737	AF23NES.jpg
322.899	0.514	Blank	Blank	64.744	n/a	3	8	8	n/a	28	n/a	1	n/a	n/a	n/a	n/a	382.235	n/a
323.429	0.497	neutral	Picture	64.23	n/a	3	8	9	n/a	29	9	1	n/a	n/a	n/a	n/a	382.765	AF17NES.jpg
323.927	0.514	Blank	Blank	63.716	n/a	3	8	9	n/a	29	n/a	1	n/a	n/a	n/a	n/a	383.262	n/a
324.457	0.497	neutral	Picture	63.203	n/a	3	8	10	n/a	30	19	1	n/a	n/a	n/a	n/a	383.793	AF31NES.jpg
324.955	0.514	Blank	Blank	62.689	n/a	3	8	10	n/a	30	n/a	1	n/a	n/a	n/a	n/a	384.29	n/a
325.485	0.497	neutral	Picture	62.175	n/a	3	8	11	n/a	31	15	1	n/a	n/a	n/a	n/a	384.821	AF25NES.jpg
325.983	0.514	Blank	Blank	61.661	n/a	3	8	11	n/a	31	n/a	1	n/a	n/a	n/a	n/a	385.318	n/a
326.513	0.497	neutral	Picture	61.147	n/a	3	8	12	n/a	32	22	1	n/a	n/a	n/a	n/a	385.849	BM03NES.jpg
327.01	0.514	Blank	Blank	60.633	n/a	3	8	12	n/a	32	n/a	1	n/a	n/a	n/a	n/a	386.346	n/a
327.541	0.497	neutral	Picture	60.119	n/a	3	8	13	n/a	33	11	1	n/a	n/a	n/a	n/a	386.877	AF20NES.jpg
328.038	0.514	Blank	Blank	59.605	n/a	3	8	13	n/a	33	n/a	1	n/a	n/a	n/a	n/a	387.374	n/a
328.569	0.497	neutral	Picture	59.091	n/a	3	8	14	n/a	34	4	1	n/a	n/a	n/a	n/a	387.904	AF05NES.jpg
329.066	0.514	Blank	Blank	58.577	n/a	3	8	14	n/a	34	n/a	1	n/a	n/a	n/a	n/a	388.402	n/a
329.597	0.497	neutral	Picture	58.063	n/a	3	8	15	n/a	35	17	1	n/a	n/a	n/a	n/a	388.932	BF28NES.jpg
330.094	0.514	Blank	Blank	57.549	n/a	3	8	15	n/a	35	n/a	1	n/a	n/a	n/a	n/a	389.43	n/a
330.625	0.497	neutral	Picture	57.035	n/a	3	8	16	n/a	36	13	1	n/a	n/a	n/a	n/a	389.96	BF22NES.jpg
331.122	0.514	Blank	Blank	56.521	n/a	3	8	16	n/a	36	n/a	1	n/a	n/a	n/a	n/a	390.457	n/a
331.653	0.497	neutral	Picture	56.007	n/a	3	8	17	n/a	37	12	1	n/a	n/a	n/a	n/a	390.988	AF21NES.jpg
332.15	0.514	Blank	Blank	55.493	n/a	3	8	17	n/a	37	n/a	1	n/a	n/a	n/a	n/a	391.485	n/a
332.68	0.497	neutral	Picture	54.979	n/a	3	8	18	n/a	38	24	1	n/a	n/a	n/a	n/a	392.016	BM05NES.jpg
333.178	0.514	Blank	Blank	54.466	n/a	3	8	18	n/a	38	n/a	1	n/a	n/a	n/a	n/a	392.513	n/a
333.708	0.497	neutral	Picture	53.952	n/a	3	8	19	n/a	39	29	1	n/a	n/a	n/a	n/a	393.044	AM10NES.jpg
334.206	0.514	Blank	Blank	53.438	n/a	3	8	19	n/a	39	n/a	1	n/a	n/a	n/a	n/a	393.541	n/a
334.736	0.497	neutral	Picture	52.924	n/a	3	8	20	n/a	40	23	1	n/a	n/a	n/a	n/a	394.072	AM04NES.jpg
335.234	0.514	Blank	Blank	52.41	n/a	3	8	20	n/a	40	n/a	1	n/a	n/a	n/a	n/a	394.569	n/a
335.764	10.014	ITI	Fixation+	42.38	n/a	3	n/a	n/a	n/a	n/a	n/a	n/a	n/a	n/a	n/a	n/a	395.1	n/a
345.794	0.497	angry	Picture	41.866	n/a	3	9	1	n/a	41	62	2	n/a	n/a	n/a	n/a	405.13	BM03HAS.jpg
346.292	0.514	Blank	Blank	41.352	n/a	3	9	1	n/a	41	n/a	2	n/a	n/a	n/a	n/a	405.627	n/a
346.822	0.497	angry	Picture	40.838	n/a	3	9	2	n/a	42	52	2	n/a	n/a	n/a	n/a	406.158	AF21HAS.jpg
347.319	0.514	Blank	Blank	40.324	n/a	3	9	2	n/a	42	n/a	2	n/a	n/a	n/a	n/a	406.655	n/a
347.85	0.497	angry	Picture	39.81	n/a	3	9	3	n/a	43	44	2	n/a	n/a	n/a	n/a	407.185	AF05HAS.jpg
348.347	0.514	Blank	Blank	39.296	n/a	3	9	3	n/a	43	n/a	2	n/a	n/a	n/a	n/a	407.683	n/a
348.878	0.497	angry	Picture	38.782	n/a	3	9	4	n/a	44	53	2	n/a	n/a	n/a	n/a	408.213	BF22HAS.jpg
349.375	0.514	Blank	Blank	38.268	n/a	3	9	4	n/a	44	n/a	2	n/a	n/a	n/a	n/a	408.711	n/a
349.906	0.497	angry	Picture	37.754	n/a	3	9	5	n/a	45	54	2	n/a	n/a	n/a	n/a	409.241	AF23HAS.jpg
350.403	0.514	Blank	Blank	37.24	n/a	3	9	5	n/a	45	n/a	2	n/a	n/a	n/a	n/a	409.739	n/a
350.934	0.497	angry	Picture	36.726	n/a	3	9	6	n/a	46	68	2	n/a	n/a	n/a	n/a	410.269	AM09HAS.jpg
351.431	0.514	Blank	Blank	36.212	n/a	3	9	6	n/a	46	n/a	2	n/a	n/a	n/a	n/a	410.767	n/a
351.962	0.497	angry	Picture	35.698	n/a	3	9	7	n/a	47	64	2	n/a	n/a	n/a	n/a	411.297	BM05HAS.jpg
352.459	0.514	Blank	Blank	35.185	n/a	3	9	7	n/a	47	n/a	2	n/a	n/a	n/a	n/a	411.794	n/a
352.989	0.497	angry	Picture	34.67	n/a	3	9	8	n/a	48	59	2	n/a	n/a	n/a	n/a	412.325	AF31HAS.jpg
353.487	0.514	Blank	Blank	34.157	n/a	3	9	8	n/a	48	n/a	2	n/a	n/a	n/a	n/a	412.822	n/a
354.017	0.497	angry	Picture	33.643	n/a	3	9	9	n/a	49	41	2	n/a	n/a	n/a	n/a	413.353	AF01HAS.jpg
354.515	0.514	Blank	Blank	33.129	n/a	3	9	9	n/a	49	n/a	2	n/a	n/a	n/a	n/a	413.85	n/a
355.045	0.497	angry	Picture	32.615	n/a	3	9	10	n/a	50	73	2	n/a	n/a	n/a	n/a	414.381	AM21HAS.jpg
355.542	0.514	Blank	Blank	32.101	n/a	3	9	10	n/a	50	n/a	2	n/a	n/a	n/a	n/a	414.878	n/a
356.073	0.497	angry	Picture	31.587	n/a	3	9	11	n/a	51	65	2	n/a	n/a	n/a	n/a	415.409	BM06HAS.jpg
356.57	0.514	Blank	Blank	31.073	n/a	3	9	11	n/a	51	n/a	2	n/a	n/a	n/a	n/a	415.906	n/a
357.101	0.497	angry	Picture	30.559	n/a	3	9	12	n/a	52	56	2	n/a	n/a	n/a	n/a	416.437	AF26HAS.jpg
357.598	0.514	Blank	Blank	30.045	n/a	3	9	12	n/a	52	n/a	2	n/a	n/a	n/a	n/a	416.934	n/a
358.129	0.497	angry	Picture	29.531	n/a	3	9	13	n/a	53	45	2	n/a	n/a	n/a	n/a	417.464	BF07HAS.jpg
358.626	0.514	Blank	Blank	29.017	n/a	3	9	13	n/a	53	n/a	2	n/a	n/a	n/a	n/a	417.962	n/a
359.157	0.497	angry	Picture	28.503	n/a	3	9	14	n/a	54	78	2	n/a	n/a	n/a	n/a	418.492	BM26HAS.jpg
359.654	0.514	Blank	Blank	27.989	n/a	3	9	14	n/a	54	n/a	2	n/a	n/a	n/a	n/a	418.99	n/a
360.185	0.497	angry	Picture	27.475	n/a	3	9	15	n/a	55	50	2	n/a	n/a	n/a	n/a	419.52	AF18HAS.jpg
360.682	0.514	Blank	Blank	26.961	n/a	3	9	15	n/a	55	n/a	2	n/a	n/a	n/a	n/a	420.017	n/a
361.212	0.497	angry	Picture	26.447	n/a	3	9	16	n/a	56	47	2	n/a	n/a	n/a	n/a	420.548	BF11HAS.jpg
361.71	0.514	Blank	Blank	25.933	n/a	3	9	16	n/a	56	n/a	2	n/a	n/a	n/a	n/a	421.045	n/a
362.24	0.497	angry	Picture	25.42	n/a	3	9	17	n/a	57	77	2	n/a	n/a	n/a	n/a	421.576	BM25HAS.jpg
362.738	0.514	Blank	Blank	24.906	n/a	3	9	17	n/a	57	n/a	2	n/a	n/a	n/a	n/a	422.073	n/a
363.268	0.497	angry	Picture	24.392	n/a	3	9	18	n/a	58	57	2	n/a	n/a	n/a	n/a	422.604	BF28HAS.jpg
363.766	0.514	Blank	Blank	23.878	n/a	3	9	18	n/a	58	n/a	2	n/a	n/a	n/a	n/a	423.101	n/a
364.296	0.497	angry	Picture	23.364	n/a	3	9	19	n/a	59	61	2	n/a	n/a	n/a	n/a	423.632	AM01HAS.jpg
364.793	0.514	Blank	Blank	22.85	n/a	3	9	19	n/a	59	n/a	2	n/a	n/a	n/a	n/a	424.129	n/a
365.324	0.497	angry	Picture	22.336	n/a	3	9	20	n/a	60	79	2	n/a	n/a	n/a	n/a	424.659	BM28HAS.jpg
365.821	0.514	Blank	Blank	21.822	n/a	3	9	20	n/a	60	n/a	2	n/a	n/a	n/a	n/a	425.157	n/a
366.352	10.014	ITI	Fixation+	11.792	n/a	3	n/a	n/a	n/a	n/a	n/a	n/a	n/a	n/a	n/a	n/a	425.687	n/a
388.157	n/a	ConfirmRating	Rate	n/a	11.788	3	n/a	n/a	0	n/a	n/a	n/a	2	Angry	58	51	447.493	n/a
392.487	n/a	ConfirmRating	Rate	n/a	4.311	3	n/a	n/a	1	n/a	n/a	n/a	3	Angry	0	49	451.823	n/a
392.513	10.014	ITI	Fixation+	109.696	n/a	4	n/a	n/a	n/a	n/a	n/a	n/a	n/a	n/a	n/a	n/a	451.849	n/a
402.543	0.497	happy	Picture	109.182	n/a	4	10	1	n/a	61	119	3	n/a	n/a	n/a	n/a	461.879	BM28ANS.jpg
403.041	0.514	Blank	Blank	108.668	n/a	4	10	1	n/a	61	n/a	3	n/a	n/a	n/a	n/a	462.376	n/a
403.571	0.497	happy	Picture	108.154	n/a	4	10	2	n/a	62	100	3	n/a	n/a	n/a	n/a	462.907	AF32ANS.jpg
404.069	0.514	Blank	Blank	107.64	n/a	4	10	2	n/a	62	n/a	3	n/a	n/a	n/a	n/a	463.404	n/a
404.599	0.497	happy	Picture	107.126	n/a	4	10	3	n/a	63	118	3	n/a	n/a	n/a	n/a	463.935	BM26ANS.jpg
405.096	0.514	Blank	Blank	106.612	n/a	4	10	3	n/a	63	n/a	3	n/a	n/a	n/a	n/a	464.432	n/a
405.627	0.497	happy	Picture	106.098	n/a	4	10	4	n/a	64	89	3	n/a	n/a	n/a	n/a	464.962	AF17ANS.jpg
406.124	0.514	Blank	Blank	105.584	n/a	4	10	4	n/a	64	n/a	3	n/a	n/a	n/a	n/a	465.46	n/a
406.655	0.497	happy	Picture	105.07	n/a	4	10	5	n/a	65	116	3	n/a	n/a	n/a	n/a	465.99	BM24ANS.jpg
407.152	0.514	Blank	Blank	104.556	n/a	4	10	5	n/a	65	n/a	3	n/a	n/a	n/a	n/a	466.488	n/a
407.683	0.497	happy	Picture	104.042	n/a	4	10	6	n/a	66	105	3	n/a	n/a	n/a	n/a	467.018	BM06ANS.jpg
408.18	0.514	Blank	Blank	103.529	n/a	4	10	6	n/a	66	n/a	3	n/a	n/a	n/a	n/a	467.516	n/a
408.711	0.497	happy	Picture	103.014	n/a	4	10	7	n/a	67	106	3	n/a	n/a	n/a	n/a	468.046	AM07ANS.jpg
409.208	0.514	Blank	Blank	102.501	n/a	4	10	7	n/a	67	n/a	3	n/a	n/a	n/a	n/a	468.543	n/a
409.738	0.497	happy	Picture	101.987	n/a	4	10	8	n/a	68	94	3	n/a	n/a	n/a	n/a	469.074	AF23ANS.jpg
410.236	0.514	Blank	Blank	101.473	n/a	4	10	8	n/a	68	n/a	3	n/a	n/a	n/a	n/a	469.571	n/a
410.766	0.497	happy	Picture	100.959	n/a	4	10	9	n/a	69	117	3	n/a	n/a	n/a	n/a	470.102	BM25ANS.jpg
411.264	0.514	Blank	Blank	100.445	n/a	4	10	9	n/a	69	n/a	3	n/a	n/a	n/a	n/a	470.599	n/a
411.794	0.497	happy	Picture	99.931	n/a	4	10	10	n/a	70	90	3	n/a	n/a	n/a	n/a	471.13	AF18ANS.jpg
412.292	0.514	Blank	Blank	99.417	n/a	4	10	10	n/a	70	n/a	3	n/a	n/a	n/a	n/a	471.627	n/a
412.822	0.497	happy	Picture	98.903	n/a	4	10	11	n/a	71	83	3	n/a	n/a	n/a	n/a	472.158	BF04ANS.jpg
413.319	0.514	Blank	Blank	98.389	n/a	4	10	11	n/a	71	n/a	3	n/a	n/a	n/a	n/a	472.655	n/a
413.85	0.497	happy	Picture	97.875	n/a	4	10	12	n/a	72	112	3	n/a	n/a	n/a	n/a	473.185	AM14ANS.jpg
414.347	0.514	Blank	Blank	97.361	n/a	4	10	12	n/a	72	n/a	3	n/a	n/a	n/a	n/a	473.683	n/a
414.878	0.497	happy	Picture	96.847	n/a	4	10	13	n/a	73	102	3	n/a	n/a	n/a	n/a	474.213	BM03ANS.jpg
415.375	0.514	Blank	Blank	96.333	n/a	4	10	13	n/a	73	n/a	3	n/a	n/a	n/a	n/a	474.711	n/a
415.906	0.497	happy	Picture	95.819	n/a	4	10	14	n/a	74	95	3	n/a	n/a	n/a	n/a	475.241	AF25ANS.jpg
416.403	0.514	Blank	Blank	95.305	n/a	4	10	14	n/a	74	n/a	3	n/a	n/a	n/a	n/a	475.739	n/a
416.934	0.497	happy	Picture	94.791	n/a	4	10	15	n/a	75	113	3	n/a	n/a	n/a	n/a	476.269	AM21ANS.jpg
417.431	0.514	Blank	Blank	94.277	n/a	4	10	15	n/a	75	n/a	3	n/a	n/a	n/a	n/a	476.767	n/a
417.962	0.497	happy	Picture	93.764	n/a	4	10	16	n/a	76	88	3	n/a	n/a	n/a	n/a	477.297	AF14ANS.jpg
418.459	0.514	Blank	Blank	93.25	n/a	4	10	16	n/a	76	n/a	3	n/a	n/a	n/a	n/a	477.794	n/a
418.989	0.497	happy	Picture	92.736	n/a	4	10	17	n/a	77	93	3	n/a	n/a	n/a	n/a	478.325	BF22ANS.jpg
419.487	0.514	Blank	Blank	92.222	n/a	4	10	17	n/a	77	n/a	3	n/a	n/a	n/a	n/a	478.822	n/a
420.017	0.497	happy	Picture	91.708	n/a	4	10	18	n/a	78	86	3	n/a	n/a	n/a	n/a	479.353	AF09ANS.jpg
420.515	0.514	Blank	Blank	91.194	n/a	4	10	18	n/a	78	n/a	3	n/a	n/a	n/a	n/a	479.85	n/a
421.045	0.497	happy	Picture	90.68	n/a	4	10	19	n/a	79	92	3	n/a	n/a	n/a	n/a	480.381	AF21ANS.jpg
421.543	0.514	Blank	Blank	90.166	n/a	4	10	19	n/a	79	n/a	3	n/a	n/a	n/a	n/a	480.878	n/a
422.073	0.497	happy	Picture	89.652	n/a	4	10	20	n/a	80	84	3	n/a	n/a	n/a	n/a	481.409	AF05ANS.jpg
422.57	0.514	Blank	Blank	89.138	n/a	4	10	20	n/a	80	n/a	3	n/a	n/a	n/a	n/a	481.906	n/a
423.101	10.014	ITI	Fixation+	79.108	n/a	4	n/a	n/a	n/a	n/a	n/a	n/a	n/a	n/a	n/a	n/a	482.437	n/a
433.131	0.497	neutral	Picture	78.594	n/a	4	11	1	n/a	81	4	1	n/a	n/a	n/a	n/a	492.467	AF05NES.jpg
433.628	0.514	Blank	Blank	78.08	n/a	4	11	1	n/a	81	n/a	1	n/a	n/a	n/a	n/a	492.964	n/a
434.159	0.497	neutral	Picture	77.566	n/a	4	11	2	n/a	82	14	1	n/a	n/a	n/a	n/a	493.495	AF23NES.jpg
434.656	0.514	Blank	Blank	77.052	n/a	4	11	2	n/a	82	n/a	1	n/a	n/a	n/a	n/a	493.992	n/a
435.187	0.497	neutral	Picture	76.538	n/a	4	11	3	n/a	83	19	1	n/a	n/a	n/a	n/a	494.522	AF31NES.jpg
435.684	0.514	Blank	Blank	76.024	n/a	4	11	3	n/a	83	n/a	1	n/a	n/a	n/a	n/a	495.02	n/a
436.215	0.497	neutral	Picture	75.51	n/a	4	11	4	n/a	84	8	1	n/a	n/a	n/a	n/a	495.55	AF14NES.jpg
436.712	0.514	Blank	Blank	74.996	n/a	4	11	4	n/a	84	n/a	1	n/a	n/a	n/a	n/a	496.048	n/a
437.243	0.497	neutral	Picture	74.483	n/a	4	11	5	n/a	85	25	1	n/a	n/a	n/a	n/a	496.578	BM06NES.jpg
437.74	0.514	Blank	Blank	73.969	n/a	4	11	5	n/a	85	n/a	1	n/a	n/a	n/a	n/a	497.075	n/a
438.27	0.497	neutral	Picture	73.455	n/a	4	11	6	n/a	86	9	1	n/a	n/a	n/a	n/a	497.606	AF17NES.jpg
438.768	0.514	Blank	Blank	72.941	n/a	4	11	6	n/a	86	n/a	1	n/a	n/a	n/a	n/a	498.103	n/a
439.298	0.497	neutral	Picture	72.427	n/a	4	11	7	n/a	87	2	1	n/a	n/a	n/a	n/a	498.634	AF03NES.jpg
439.796	0.514	Blank	Blank	71.913	n/a	4	11	7	n/a	87	n/a	1	n/a	n/a	n/a	n/a	499.131	n/a
440.326	0.497	neutral	Picture	71.399	n/a	4	11	8	n/a	88	17	1	n/a	n/a	n/a	n/a	499.662	BF28NES.jpg
440.824	0.514	Blank	Blank	70.885	n/a	4	11	8	n/a	88	n/a	1	n/a	n/a	n/a	n/a	500.159	n/a
441.354	0.497	neutral	Picture	70.371	n/a	4	11	9	n/a	89	6	1	n/a	n/a	n/a	n/a	500.69	AF09NES.jpg
441.852	0.514	Blank	Blank	69.857	n/a	4	11	9	n/a	89	n/a	1	n/a	n/a	n/a	n/a	501.187	n/a
442.382	0.497	neutral	Picture	69.343	n/a	4	11	10	n/a	90	12	1	n/a	n/a	n/a	n/a	501.718	AF21NES.jpg
442.879	0.514	Blank	Blank	68.829	n/a	4	11	10	n/a	90	n/a	1	n/a	n/a	n/a	n/a	502.215	n/a
443.41	0.497	neutral	Picture	68.315	n/a	4	11	11	n/a	91	24	1	n/a	n/a	n/a	n/a	502.745	BM05NES.jpg
443.907	0.514	Blank	Blank	67.801	n/a	4	11	11	n/a	91	n/a	1	n/a	n/a	n/a	n/a	503.243	n/a
444.438	0.497	neutral	Picture	67.287	n/a	4	11	12	n/a	92	34	1	n/a	n/a	n/a	n/a	503.773	AM22NES.jpg
444.935	0.514	Blank	Blank	66.773	n/a	4	11	12	n/a	92	n/a	1	n/a	n/a	n/a	n/a	504.271	n/a
445.466	0.497	neutral	Picture	66.259	n/a	4	11	13	n/a	93	23	1	n/a	n/a	n/a	n/a	504.801	AM04NES.jpg
445.963	0.514	Blank	Blank	65.745	n/a	4	11	13	n/a	93	n/a	1	n/a	n/a	n/a	n/a	505.299	n/a
446.494	0.497	neutral	Picture	65.231	n/a	4	11	14	n/a	94	15	1	n/a	n/a	n/a	n/a	505.829	AF25NES.jpg
446.991	0.514	Blank	Blank	64.718	n/a	4	11	14	n/a	94	n/a	1	n/a	n/a	n/a	n/a	506.327	n/a
447.522	0.497	neutral	Picture	64.204	n/a	4	11	15	n/a	95	37	1	n/a	n/a	n/a	n/a	506.857	BM25NES.jpg
448.019	0.514	Blank	Blank	63.69	n/a	4	11	15	n/a	95	n/a	1	n/a	n/a	n/a	n/a	507.354	n/a
448.549	0.497	neutral	Picture	63.176	n/a	4	11	16	n/a	96	32	1	n/a	n/a	n/a	n/a	507.885	AM14NES.jpg
449.047	0.514	Blank	Blank	62.662	n/a	4	11	16	n/a	96	n/a	1	n/a	n/a	n/a	n/a	508.382	n/a
449.577	0.497	neutral	Picture	62.148	n/a	4	11	17	n/a	97	3	1	n/a	n/a	n/a	n/a	508.913	BF04NES.jpg
450.075	0.514	Blank	Blank	61.634	n/a	4	11	17	n/a	97	n/a	1	n/a	n/a	n/a	n/a	509.41	n/a
450.605	0.497	neutral	Picture	61.12	n/a	4	11	18	n/a	98	16	1	n/a	n/a	n/a	n/a	509.941	AF26NES.jpg
451.102	0.514	Blank	Blank	60.606	n/a	4	11	18	n/a	98	n/a	1	n/a	n/a	n/a	n/a	510.438	n/a
451.633	0.497	neutral	Picture	60.092	n/a	4	11	19	n/a	99	27	1	n/a	n/a	n/a	n/a	510.969	BM08NES.jpg
452.13	0.514	Blank	Blank	59.578	n/a	4	11	19	n/a	99	n/a	1	n/a	n/a	n/a	n/a	511.466	n/a
452.661	0.497	neutral	Picture	59.064	n/a	4	11	20	n/a	100	28	1	n/a	n/a	n/a	n/a	511.996	AM09NES.jpg
453.158	0.514	Blank	Blank	58.55	n/a	4	11	20	n/a	100	n/a	1	n/a	n/a	n/a	n/a	512.494	n/a
453.689	10.014	ITI	Fixation+	48.52	n/a	4	n/a	n/a	n/a	n/a	n/a	n/a	n/a	n/a	n/a	n/a	513.024	n/a
463.719	0.497	happy	Picture	48.006	n/a	4	12	1	n/a	101	81	3	n/a	n/a	n/a	n/a	523.054	AF01ANS.jpg
464.216	0.514	Blank	Blank	47.492	n/a	4	12	1	n/a	101	n/a	3	n/a	n/a	n/a	n/a	523.552	n/a
464.747	0.497	happy	Picture	46.978	n/a	4	12	2	n/a	102	120	3	n/a	n/a	n/a	n/a	524.082	AM35ANS.jpg
465.244	0.514	Blank	Blank	46.464	n/a	4	12	2	n/a	102	n/a	3	n/a	n/a	n/a	n/a	524.58	n/a
465.775	0.497	happy	Picture	45.95	n/a	4	12	3	n/a	103	114	3	n/a	n/a	n/a	n/a	525.11	AM22ANS.jpg
466.272	0.514	Blank	Blank	45.436	n/a	4	12	3	n/a	103	n/a	3	n/a	n/a	n/a	n/a	525.608	n/a
466.803	0.497	happy	Picture	44.923	n/a	4	12	4	n/a	104	109	3	n/a	n/a	n/a	n/a	526.138	AM10ANS.jpg
467.3	0.514	Blank	Blank	44.409	n/a	4	12	4	n/a	104	n/a	3	n/a	n/a	n/a	n/a	526.635	n/a
467.831	0.497	happy	Picture	43.895	n/a	4	12	5	n/a	105	96	3	n/a	n/a	n/a	n/a	527.166	AF26ANS.jpg
468.328	0.514	Blank	Blank	43.381	n/a	4	12	5	n/a	105	n/a	3	n/a	n/a	n/a	n/a	527.663	n/a
468.858	0.497	happy	Picture	42.867	n/a	4	12	6	n/a	106	82	3	n/a	n/a	n/a	n/a	528.194	AF03ANS.jpg
469.356	0.514	Blank	Blank	42.353	n/a	4	12	6	n/a	106	n/a	3	n/a	n/a	n/a	n/a	528.691	n/a
469.886	0.497	happy	Picture	41.839	n/a	4	12	7	n/a	107	97	3	n/a	n/a	n/a	n/a	529.222	BF28ANS.jpg
470.384	0.514	Blank	Blank	41.325	n/a	4	12	7	n/a	107	n/a	3	n/a	n/a	n/a	n/a	529.719	n/a
470.914	0.497	happy	Picture	40.811	n/a	4	12	8	n/a	108	115	3	n/a	n/a	n/a	n/a	530.25	AM23ANS.jpg
471.411	0.514	Blank	Blank	40.297	n/a	4	12	8	n/a	108	n/a	3	n/a	n/a	n/a	n/a	530.747	n/a
471.942	0.497	happy	Picture	39.783	n/a	4	12	9	n/a	109	91	3	n/a	n/a	n/a	n/a	531.278	AF20ANS.jpg
472.439	0.514	Blank	Blank	39.269	n/a	4	12	9	n/a	109	n/a	3	n/a	n/a	n/a	n/a	531.775	n/a
472.97	0.497	happy	Picture	38.755	n/a	4	12	10	n/a	110	87	3	n/a	n/a	n/a	n/a	532.305	BF11ANS.jpg
473.467	0.514	Blank	Blank	38.241	n/a	4	12	10	n/a	110	n/a	3	n/a	n/a	n/a	n/a	532.803	n/a
473.998	0.497	happy	Picture	37.727	n/a	4	12	11	n/a	111	85	3	n/a	n/a	n/a	n/a	533.333	BF07ANS.jpg
474.495	0.514	Blank	Blank	37.213	n/a	4	12	11	n/a	111	n/a	3	n/a	n/a	n/a	n/a	533.831	n/a
475.026	0.497	happy	Picture	36.699	n/a	4	12	12	n/a	112	110	3	n/a	n/a	n/a	n/a	534.361	AM11ANS.jpg
475.523	0.514	Blank	Blank	36.185	n/a	4	12	12	n/a	112	n/a	3	n/a	n/a	n/a	n/a	534.859	n/a
476.053	0.497	happy	Picture	35.672	n/a	4	12	13	n/a	113	111	3	n/a	n/a	n/a	n/a	535.389	BM12ANS.jpg
476.551	0.514	Blank	Blank	35.158	n/a	4	12	13	n/a	113	n/a	3	n/a	n/a	n/a	n/a	535.886	n/a
477.081	0.497	happy	Picture	34.644	n/a	4	12	14	n/a	114	103	3	n/a	n/a	n/a	n/a	536.417	AM04ANS.jpg
477.579	0.514	Blank	Blank	34.13	n/a	4	12	14	n/a	114	n/a	3	n/a	n/a	n/a	n/a	536.914	n/a
478.109	0.497	happy	Picture	33.616	n/a	4	12	15	n/a	115	101	3	n/a	n/a	n/a	n/a	537.445	AM01ANS.jpg
478.607	0.514	Blank	Blank	33.102	n/a	4	12	15	n/a	115	n/a	3	n/a	n/a	n/a	n/a	537.942	n/a
479.137	0.497	happy	Picture	32.588	n/a	4	12	16	n/a	116	104	3	n/a	n/a	n/a	n/a	538.473	BM05ANS.jpg
479.635	0.514	Blank	Blank	32.074	n/a	4	12	16	n/a	116	n/a	3	n/a	n/a	n/a	n/a	538.97	n/a
480.165	0.497	happy	Picture	31.56	n/a	4	12	17	n/a	117	107	3	n/a	n/a	n/a	n/a	539.501	BM08ANS.jpg
480.662	0.514	Blank	Blank	31.046	n/a	4	12	17	n/a	117	n/a	3	n/a	n/a	n/a	n/a	539.998	n/a
481.193	0.497	happy	Picture	30.532	n/a	4	12	18	n/a	118	98	3	n/a	n/a	n/a	n/a	540.528	BF29ANS.jpg
481.69	0.514	Blank	Blank	30.018	n/a	4	12	18	n/a	118	n/a	3	n/a	n/a	n/a	n/a	541.026	n/a
482.221	0.497	happy	Picture	29.504	n/a	4	12	19	n/a	119	99	3	n/a	n/a	n/a	n/a	541.556	AF31ANS.jpg
482.718	0.514	Blank	Blank	28.99	n/a	4	12	19	n/a	119	n/a	3	n/a	n/a	n/a	n/a	542.054	n/a
483.249	0.497	happy	Picture	28.476	n/a	4	12	20	n/a	120	108	3	n/a	n/a	n/a	n/a	542.584	AM09ANS.jpg
483.746	0.514	Blank	Blank	27.963	n/a	4	12	20	n/a	120	n/a	3	n/a	n/a	n/a	n/a	543.082	n/a
484.277	10.014	ITI	Fixation+	17.932	n/a	4	n/a	n/a	n/a	n/a	n/a	n/a	n/a	n/a	n/a	n/a	543.612	n/a
512.222	n/a	ConfirmRating	Rate	n/a	17.921	4	n/a	n/a	0	n/a	n/a	n/a	2	Happy	44	50	571.558	n/a
522.703	n/a	ConfirmRating	Rate	n/a	10.461	4	n/a	n/a	1	n/a	n/a	n/a	3	Happy	6	47	582.039	n/a
