onset	duration	trial_type	event_type	time_until_response	response_time	trial_number	block_num_within_trial	image_seq_num_within_block	question_seq_num_within_block	image_seq_num	picture_number	condition	question_type	block_type	rating	rating_computed	onset_uncorrected	KDEV_imagefile
0.015	10.014	ITI	Fixation+	95.195	n/a	1	n/a	n/a	n/a	n/a	n/a	n/a	n/a	n/a	n/a	n/a	53.511	n/a
10.045	0.497	angry	Picture	94.681	n/a	1	1	1	n/a	1	108	3	n/a	n/a	n/a	n/a	63.541	AM09ANS.jpg
10.542	0.514	Blank	Blank	94.167	n/a	1	1	1	n/a	1	n/a	3	n/a	n/a	n/a	n/a	64.038	n/a
11.073	0.497	angry	Picture	93.653	n/a	1	1	2	n/a	2	99	3	n/a	n/a	n/a	n/a	64.569	AF31ANS.jpg
11.57	0.514	Blank	Blank	93.139	n/a	1	1	2	n/a	2	n/a	3	n/a	n/a	n/a	n/a	65.066	n/a
12.101	0.497	angry	Picture	92.626	n/a	1	1	3	n/a	3	98	3	n/a	n/a	n/a	n/a	65.597	BF29ANS.jpg
12.598	0.514	Blank	Blank	92.112	n/a	1	1	3	n/a	3	n/a	3	n/a	n/a	n/a	n/a	66.094	n/a
13.129	0.497	angry	Picture	91.598	n/a	1	1	4	n/a	4	107	3	n/a	n/a	n/a	n/a	66.625	BM08ANS.jpg
13.626	0.514	Blank	Blank	91.084	n/a	1	1	4	n/a	4	n/a	3	n/a	n/a	n/a	n/a	67.122	n/a
14.157	0.497	angry	Picture	90.57	n/a	1	1	5	n/a	5	104	3	n/a	n/a	n/a	n/a	67.653	BM05ANS.jpg
14.654	0.514	Blank	Blank	90.056	n/a	1	1	5	n/a	5	n/a	3	n/a	n/a	n/a	n/a	68.15	n/a
15.185	0.497	angry	Picture	89.542	n/a	1	1	6	n/a	6	101	3	n/a	n/a	n/a	n/a	68.68	AM01ANS.jpg
15.682	0.514	Blank	Blank	89.028	n/a	1	1	6	n/a	6	n/a	3	n/a	n/a	n/a	n/a	69.178	n/a
16.212	0.497	angry	Picture	88.514	n/a	1	1	7	n/a	7	103	3	n/a	n/a	n/a	n/a	69.708	AM04ANS.jpg
16.71	0.514	Blank	Blank	88.0	n/a	1	1	7	n/a	7	n/a	3	n/a	n/a	n/a	n/a	70.206	n/a
17.24	0.497	angry	Picture	87.486	n/a	1	1	8	n/a	8	111	3	n/a	n/a	n/a	n/a	70.736	BM12ANS.jpg
17.738	0.514	Blank	Blank	86.972	n/a	1	1	8	n/a	8	n/a	3	n/a	n/a	n/a	n/a	71.234	n/a
18.268	0.497	angry	Picture	86.458	n/a	1	1	9	n/a	9	110	3	n/a	n/a	n/a	n/a	71.764	AM11ANS.jpg
18.765	0.514	Blank	Blank	85.944	n/a	1	1	9	n/a	9	n/a	3	n/a	n/a	n/a	n/a	72.261	n/a
19.296	0.497	angry	Picture	85.43	n/a	1	1	10	n/a	10	85	3	n/a	n/a	n/a	n/a	72.792	BF07ANS.jpg
19.793	0.514	Blank	Blank	84.916	n/a	1	1	10	n/a	10	n/a	3	n/a	n/a	n/a	n/a	73.289	n/a
20.324	0.497	angry	Picture	84.402	n/a	1	1	11	n/a	11	87	3	n/a	n/a	n/a	n/a	73.82	BF11ANS.jpg
20.821	0.514	Blank	Blank	83.889	n/a	1	1	11	n/a	11	n/a	3	n/a	n/a	n/a	n/a	74.317	n/a
21.352	0.497	angry	Picture	83.375	n/a	1	1	12	n/a	12	91	3	n/a	n/a	n/a	n/a	74.848	AF20ANS.jpg
21.849	0.514	Blank	Blank	82.861	n/a	1	1	12	n/a	12	n/a	3	n/a	n/a	n/a	n/a	75.345	n/a
22.38	0.497	angry	Picture	82.347	n/a	1	1	13	n/a	13	115	3	n/a	n/a	n/a	n/a	75.876	AM23ANS.jpg
22.877	0.514	Blank	Blank	81.833	n/a	1	1	13	n/a	13	n/a	3	n/a	n/a	n/a	n/a	76.373	n/a
23.408	0.497	angry	Picture	81.319	n/a	1	1	14	n/a	14	97	3	n/a	n/a	n/a	n/a	76.903	BF28ANS.jpg
23.905	0.514	Blank	Blank	80.805	n/a	1	1	14	n/a	14	n/a	3	n/a	n/a	n/a	n/a	77.401	n/a
24.435	0.497	angry	Picture	80.291	n/a	1	1	15	n/a	15	82	3	n/a	n/a	n/a	n/a	77.931	AF03ANS.jpg
24.933	0.514	Blank	Blank	79.777	n/a	1	1	15	n/a	15	n/a	3	n/a	n/a	n/a	n/a	78.429	n/a
25.463	0.497	angry	Picture	79.263	n/a	1	1	16	n/a	16	96	3	n/a	n/a	n/a	n/a	78.959	AF26ANS.jpg
25.961	0.514	Blank	Blank	78.749	n/a	1	1	16	n/a	16	n/a	3	n/a	n/a	n/a	n/a	79.457	n/a
26.491	0.497	angry	Picture	78.235	n/a	1	1	17	n/a	17	109	3	n/a	n/a	n/a	n/a	79.987	AM10ANS.jpg
26.988	0.514	Blank	Blank	77.721	n/a	1	1	17	n/a	17	n/a	3	n/a	n/a	n/a	n/a	80.484	n/a
27.519	0.497	angry	Picture	77.207	n/a	1	1	18	n/a	18	114	3	n/a	n/a	n/a	n/a	81.015	AM22ANS.jpg
28.016	0.514	Blank	Blank	76.693	n/a	1	1	18	n/a	18	n/a	3	n/a	n/a	n/a	n/a	81.512	n/a
28.547	0.497	angry	Picture	76.179	n/a	1	1	19	n/a	19	120	3	n/a	n/a	n/a	n/a	82.043	AM35ANS.jpg
29.044	0.514	Blank	Blank	75.666	n/a	1	1	19	n/a	19	n/a	3	n/a	n/a	n/a	n/a	82.54	n/a
29.575	0.497	angry	Picture	75.151	n/a	1	1	20	n/a	20	81	3	n/a	n/a	n/a	n/a	83.071	AF01ANS.jpg
30.072	0.514	Blank	Blank	74.638	n/a	1	1	20	n/a	20	n/a	3	n/a	n/a	n/a	n/a	83.568	n/a
30.603	10.014	ITI	Fixation+	64.607	n/a	1	n/a	n/a	n/a	n/a	n/a	n/a	n/a	n/a	n/a	n/a	84.099	n/a
40.633	0.497	neutral	Picture	64.094	n/a	1	2	1	n/a	21	28	1	n/a	n/a	n/a	n/a	94.129	AM09NES.jpg
41.13	0.514	Blank	Blank	63.58	n/a	1	2	1	n/a	21	n/a	1	n/a	n/a	n/a	n/a	94.626	n/a
41.661	0.497	neutral	Picture	63.066	n/a	1	2	2	n/a	22	27	1	n/a	n/a	n/a	n/a	95.157	BM08NES.jpg
42.158	0.514	Blank	Blank	62.552	n/a	1	2	2	n/a	22	n/a	1	n/a	n/a	n/a	n/a	95.654	n/a
42.689	0.497	neutral	Picture	62.038	n/a	1	2	3	n/a	23	16	1	n/a	n/a	n/a	n/a	96.184	AF26NES.jpg
43.186	0.514	Blank	Blank	61.524	n/a	1	2	3	n/a	23	n/a	1	n/a	n/a	n/a	n/a	96.682	n/a
43.717	0.497	neutral	Picture	61.01	n/a	1	2	4	n/a	24	3	1	n/a	n/a	n/a	n/a	97.212	BF04NES.jpg
44.214	0.514	Blank	Blank	60.496	n/a	1	2	4	n/a	24	n/a	1	n/a	n/a	n/a	n/a	97.71	n/a
44.744	0.497	neutral	Picture	59.982	n/a	1	2	5	n/a	25	32	1	n/a	n/a	n/a	n/a	98.24	AM14NES.jpg
45.242	0.514	Blank	Blank	59.468	n/a	1	2	5	n/a	25	n/a	1	n/a	n/a	n/a	n/a	98.738	n/a
45.772	0.497	neutral	Picture	58.954	n/a	1	2	6	n/a	26	37	1	n/a	n/a	n/a	n/a	99.268	BM25NES.jpg
46.27	0.514	Blank	Blank	58.44	n/a	1	2	6	n/a	26	n/a	1	n/a	n/a	n/a	n/a	99.766	n/a
46.8	0.497	neutral	Picture	57.926	n/a	1	2	7	n/a	27	15	1	n/a	n/a	n/a	n/a	100.296	AF25NES.jpg
47.298	0.514	Blank	Blank	57.412	n/a	1	2	7	n/a	27	n/a	1	n/a	n/a	n/a	n/a	100.793	n/a
47.828	0.497	neutral	Picture	56.898	n/a	1	2	8	n/a	28	23	1	n/a	n/a	n/a	n/a	101.324	AM04NES.jpg
48.325	0.514	Blank	Blank	56.384	n/a	1	2	8	n/a	28	n/a	1	n/a	n/a	n/a	n/a	101.821	n/a
48.856	0.497	neutral	Picture	55.87	n/a	1	2	9	n/a	29	34	1	n/a	n/a	n/a	n/a	102.352	AM22NES.jpg
49.353	0.514	Blank	Blank	55.357	n/a	1	2	9	n/a	29	n/a	1	n/a	n/a	n/a	n/a	102.849	n/a
49.884	0.497	neutral	Picture	54.843	n/a	1	2	10	n/a	30	24	1	n/a	n/a	n/a	n/a	103.38	BM05NES.jpg
50.381	0.514	Blank	Blank	54.329	n/a	1	2	10	n/a	30	n/a	1	n/a	n/a	n/a	n/a	103.877	n/a
50.912	0.497	neutral	Picture	53.815	n/a	1	2	11	n/a	31	12	1	n/a	n/a	n/a	n/a	104.408	AF21NES.jpg
51.409	0.514	Blank	Blank	53.301	n/a	1	2	11	n/a	31	n/a	1	n/a	n/a	n/a	n/a	104.905	n/a
51.94	0.497	neutral	Picture	52.787	n/a	1	2	12	n/a	32	6	1	n/a	n/a	n/a	n/a	105.435	AF09NES.jpg
52.437	0.514	Blank	Blank	52.273	n/a	1	2	12	n/a	32	n/a	1	n/a	n/a	n/a	n/a	105.933	n/a
52.967	0.497	neutral	Picture	51.759	n/a	1	2	13	n/a	33	17	1	n/a	n/a	n/a	n/a	106.463	BF28NES.jpg
53.465	0.514	Blank	Blank	51.245	n/a	1	2	13	n/a	33	n/a	1	n/a	n/a	n/a	n/a	106.961	n/a
53.995	0.497	neutral	Picture	50.731	n/a	1	2	14	n/a	34	2	1	n/a	n/a	n/a	n/a	107.491	AF03NES.jpg
54.493	0.514	Blank	Blank	50.217	n/a	1	2	14	n/a	34	n/a	1	n/a	n/a	n/a	n/a	107.989	n/a
55.023	0.497	neutral	Picture	49.703	n/a	1	2	15	n/a	35	9	1	n/a	n/a	n/a	n/a	108.519	AF17NES.jpg
55.521	0.514	Blank	Blank	49.189	n/a	1	2	15	n/a	35	n/a	1	n/a	n/a	n/a	n/a	109.016	n/a
56.051	0.497	neutral	Picture	48.675	n/a	1	2	16	n/a	36	25	1	n/a	n/a	n/a	n/a	109.547	BM06NES.jpg
56.548	0.514	Blank	Blank	48.161	n/a	1	2	16	n/a	36	n/a	1	n/a	n/a	n/a	n/a	110.044	n/a
57.079	0.497	neutral	Picture	47.647	n/a	1	2	17	n/a	37	8	1	n/a	n/a	n/a	n/a	110.575	AF14NES.jpg
57.576	0.514	Blank	Blank	47.133	n/a	1	2	17	n/a	37	n/a	1	n/a	n/a	n/a	n/a	111.072	n/a
58.107	0.497	neutral	Picture	46.62	n/a	1	2	18	n/a	38	19	1	n/a	n/a	n/a	n/a	111.603	AF31NES.jpg
58.604	0.514	Blank	Blank	46.106	n/a	1	2	18	n/a	38	n/a	1	n/a	n/a	n/a	n/a	112.1	n/a
59.135	0.497	neutral	Picture	45.592	n/a	1	2	19	n/a	39	14	1	n/a	n/a	n/a	n/a	112.631	AF23NES.jpg
59.632	0.514	Blank	Blank	45.078	n/a	1	2	19	n/a	39	n/a	1	n/a	n/a	n/a	n/a	113.128	n/a
60.163	0.497	neutral	Picture	44.564	n/a	1	2	20	n/a	40	4	1	n/a	n/a	n/a	n/a	113.659	AF05NES.jpg
60.66	0.514	Blank	Blank	44.05	n/a	1	2	20	n/a	40	n/a	1	n/a	n/a	n/a	n/a	114.156	n/a
61.191	10.014	ITI	Fixation+	34.02	n/a	1	n/a	n/a	n/a	n/a	n/a	n/a	n/a	n/a	n/a	n/a	114.686	n/a
71.221	0.497	angry	Picture	33.506	n/a	1	3	1	n/a	41	84	3	n/a	n/a	n/a	n/a	124.716	AF05ANS.jpg
71.718	0.514	Blank	Blank	32.992	n/a	1	3	1	n/a	41	n/a	3	n/a	n/a	n/a	n/a	125.214	n/a
72.249	0.497	angry	Picture	32.478	n/a	1	3	2	n/a	42	92	3	n/a	n/a	n/a	n/a	125.744	AF21ANS.jpg
72.746	0.514	Blank	Blank	31.964	n/a	1	3	2	n/a	42	n/a	3	n/a	n/a	n/a	n/a	126.242	n/a
73.276	0.497	angry	Picture	31.45	n/a	1	3	3	n/a	43	86	3	n/a	n/a	n/a	n/a	126.772	AF09ANS.jpg
73.774	0.514	Blank	Blank	30.936	n/a	1	3	3	n/a	43	n/a	3	n/a	n/a	n/a	n/a	127.27	n/a
74.304	0.497	angry	Picture	30.422	n/a	1	3	4	n/a	44	93	3	n/a	n/a	n/a	n/a	127.8	BF22ANS.jpg
74.802	0.514	Blank	Blank	29.908	n/a	1	3	4	n/a	44	n/a	3	n/a	n/a	n/a	n/a	128.298	n/a
75.332	0.497	angry	Picture	29.394	n/a	1	3	5	n/a	45	88	3	n/a	n/a	n/a	n/a	128.828	AF14ANS.jpg
75.829	0.514	Blank	Blank	28.88	n/a	1	3	5	n/a	45	n/a	3	n/a	n/a	n/a	n/a	129.325	n/a
76.36	0.497	angry	Picture	28.366	n/a	1	3	6	n/a	46	113	3	n/a	n/a	n/a	n/a	129.856	AM21ANS.jpg
76.857	0.514	Blank	Blank	27.852	n/a	1	3	6	n/a	46	n/a	3	n/a	n/a	n/a	n/a	130.353	n/a
77.388	0.497	angry	Picture	27.338	n/a	1	3	7	n/a	47	95	3	n/a	n/a	n/a	n/a	130.884	AF25ANS.jpg
77.885	0.514	Blank	Blank	26.825	n/a	1	3	7	n/a	47	n/a	3	n/a	n/a	n/a	n/a	131.381	n/a
78.416	0.497	angry	Picture	26.311	n/a	1	3	8	n/a	48	102	3	n/a	n/a	n/a	n/a	131.912	BM03ANS.jpg
78.913	0.514	Blank	Blank	25.797	n/a	1	3	8	n/a	48	n/a	3	n/a	n/a	n/a	n/a	132.409	n/a
79.444	0.497	angry	Picture	25.283	n/a	1	3	9	n/a	49	112	3	n/a	n/a	n/a	n/a	132.94	AM14ANS.jpg
79.941	0.514	Blank	Blank	24.769	n/a	1	3	9	n/a	49	n/a	3	n/a	n/a	n/a	n/a	133.437	n/a
80.472	0.497	angry	Picture	24.255	n/a	1	3	10	n/a	50	83	3	n/a	n/a	n/a	n/a	133.968	BF04ANS.jpg
80.969	0.514	Blank	Blank	23.741	n/a	1	3	10	n/a	50	n/a	3	n/a	n/a	n/a	n/a	134.465	n/a
81.499	0.497	angry	Picture	23.227	n/a	1	3	11	n/a	51	90	3	n/a	n/a	n/a	n/a	134.995	AF18ANS.jpg
81.997	0.514	Blank	Blank	22.713	n/a	1	3	11	n/a	51	n/a	3	n/a	n/a	n/a	n/a	135.493	n/a
82.527	0.497	angry	Picture	22.199	n/a	1	3	12	n/a	52	117	3	n/a	n/a	n/a	n/a	136.023	BM25ANS.jpg
83.025	0.514	Blank	Blank	21.685	n/a	1	3	12	n/a	52	n/a	3	n/a	n/a	n/a	n/a	136.521	n/a
83.555	0.497	angry	Picture	21.171	n/a	1	3	13	n/a	53	94	3	n/a	n/a	n/a	n/a	137.051	AF23ANS.jpg
84.053	0.514	Blank	Blank	20.657	n/a	1	3	13	n/a	53	n/a	3	n/a	n/a	n/a	n/a	137.548	n/a
84.583	0.497	angry	Picture	20.143	n/a	1	3	14	n/a	54	106	3	n/a	n/a	n/a	n/a	138.079	AM07ANS.jpg
85.08	0.514	Blank	Blank	19.629	n/a	1	3	14	n/a	54	n/a	3	n/a	n/a	n/a	n/a	138.576	n/a
85.611	0.497	angry	Picture	19.115	n/a	1	3	15	n/a	55	105	3	n/a	n/a	n/a	n/a	139.107	BM06ANS.jpg
86.108	0.514	Blank	Blank	18.601	n/a	1	3	15	n/a	55	n/a	3	n/a	n/a	n/a	n/a	139.604	n/a
86.639	0.497	angry	Picture	18.088	n/a	1	3	16	n/a	56	116	3	n/a	n/a	n/a	n/a	140.135	BM24ANS.jpg
87.136	0.514	Blank	Blank	17.574	n/a	1	3	16	n/a	56	n/a	3	n/a	n/a	n/a	n/a	140.632	n/a
87.667	0.497	angry	Picture	17.06	n/a	1	3	17	n/a	57	89	3	n/a	n/a	n/a	n/a	141.163	AF17ANS.jpg
88.164	0.514	Blank	Blank	16.546	n/a	1	3	17	n/a	57	n/a	3	n/a	n/a	n/a	n/a	141.66	n/a
88.695	0.497	angry	Picture	16.032	n/a	1	3	18	n/a	58	118	3	n/a	n/a	n/a	n/a	142.19	BM26ANS.jpg
89.192	0.514	Blank	Blank	15.518	n/a	1	3	18	n/a	58	n/a	3	n/a	n/a	n/a	n/a	142.688	n/a
89.722	0.497	angry	Picture	15.004	n/a	1	3	19	n/a	59	100	3	n/a	n/a	n/a	n/a	143.218	AF32ANS.jpg
90.22	0.514	Blank	Blank	14.49	n/a	1	3	19	n/a	59	n/a	3	n/a	n/a	n/a	n/a	143.716	n/a
90.75	0.497	angry	Picture	13.976	n/a	1	3	20	n/a	60	119	3	n/a	n/a	n/a	n/a	144.246	BM28ANS.jpg
91.248	0.514	Blank	Blank	13.462	n/a	1	3	20	n/a	60	n/a	3	n/a	n/a	n/a	n/a	144.744	n/a
91.778	10.014	ITI	Fixation+	3.432	n/a	1	n/a	n/a	n/a	n/a	n/a	n/a	n/a	n/a	n/a	n/a	145.274	n/a
105.224	n/a	ConfirmRating	Rate	n/a	3.399	1	n/a	n/a	0	n/a	n/a	n/a	2	Angry	23	49	158.72	n/a
108.902	n/a	ConfirmRating	Rate	n/a	3.648	1	n/a	n/a	1	n/a	n/a	n/a	3	Angry	0	45	162.398	n/a
108.921	10.014	ITI	Fixation+	94.273	n/a	2	n/a	n/a	n/a	n/a	n/a	n/a	n/a	n/a	n/a	n/a	162.417	n/a
118.951	0.497	happy	Picture	93.759	n/a	2	4	1	n/a	61	79	2	n/a	n/a	n/a	n/a	172.447	BM28HAS.jpg
119.448	0.514	Blank	Blank	93.245	n/a	2	4	1	n/a	61	n/a	2	n/a	n/a	n/a	n/a	172.944	n/a
119.979	0.497	happy	Picture	92.731	n/a	2	4	2	n/a	62	61	2	n/a	n/a	n/a	n/a	173.475	AM01HAS.jpg
120.476	0.514	Blank	Blank	92.217	n/a	2	4	2	n/a	62	n/a	2	n/a	n/a	n/a	n/a	173.972	n/a
121.007	0.497	happy	Picture	91.703	n/a	2	4	3	n/a	63	57	2	n/a	n/a	n/a	n/a	174.502	BF28HAS.jpg
121.504	0.514	Blank	Blank	91.189	n/a	2	4	3	n/a	63	n/a	2	n/a	n/a	n/a	n/a	175.0	n/a
122.034	0.497	happy	Picture	90.675	n/a	2	4	4	n/a	64	77	2	n/a	n/a	n/a	n/a	175.53	BM25HAS.jpg
122.532	0.514	Blank	Blank	90.161	n/a	2	4	4	n/a	64	n/a	2	n/a	n/a	n/a	n/a	176.028	n/a
123.062	0.497	happy	Picture	89.647	n/a	2	4	5	n/a	65	47	2	n/a	n/a	n/a	n/a	176.558	BF11HAS.jpg
123.56	0.514	Blank	Blank	89.133	n/a	2	4	5	n/a	65	n/a	2	n/a	n/a	n/a	n/a	177.056	n/a
124.09	0.497	happy	Picture	88.619	n/a	2	4	6	n/a	66	50	2	n/a	n/a	n/a	n/a	177.586	AF18HAS.jpg
124.588	0.514	Blank	Blank	88.105	n/a	2	4	6	n/a	66	n/a	2	n/a	n/a	n/a	n/a	178.083	n/a
125.118	0.497	happy	Picture	87.591	n/a	2	4	7	n/a	67	78	2	n/a	n/a	n/a	n/a	178.614	BM26HAS.jpg
125.615	0.514	Blank	Blank	87.077	n/a	2	4	7	n/a	67	n/a	2	n/a	n/a	n/a	n/a	179.111	n/a
126.146	0.497	happy	Picture	86.563	n/a	2	4	8	n/a	68	45	2	n/a	n/a	n/a	n/a	179.642	BF07HAS.jpg
126.643	0.514	Blank	Blank	86.049	n/a	2	4	8	n/a	68	n/a	2	n/a	n/a	n/a	n/a	180.139	n/a
127.174	0.497	happy	Picture	85.536	n/a	2	4	9	n/a	69	56	2	n/a	n/a	n/a	n/a	180.67	AF26HAS.jpg
127.671	0.514	Blank	Blank	85.022	n/a	2	4	9	n/a	69	n/a	2	n/a	n/a	n/a	n/a	181.167	n/a
128.202	0.497	happy	Picture	84.508	n/a	2	4	10	n/a	70	65	2	n/a	n/a	n/a	n/a	181.698	BM06HAS.jpg
128.699	0.514	Blank	Blank	83.994	n/a	2	4	10	n/a	70	n/a	2	n/a	n/a	n/a	n/a	182.195	n/a
129.23	0.497	happy	Picture	83.48	n/a	2	4	11	n/a	71	73	2	n/a	n/a	n/a	n/a	182.726	AM21HAS.jpg
129.727	0.514	Blank	Blank	82.966	n/a	2	4	11	n/a	71	n/a	2	n/a	n/a	n/a	n/a	183.223	n/a
130.257	0.497	happy	Picture	82.452	n/a	2	4	12	n/a	72	41	2	n/a	n/a	n/a	n/a	183.753	AF01HAS.jpg
130.755	0.514	Blank	Blank	81.938	n/a	2	4	12	n/a	72	n/a	2	n/a	n/a	n/a	n/a	184.251	n/a
131.285	0.497	happy	Picture	81.424	n/a	2	4	13	n/a	73	59	2	n/a	n/a	n/a	n/a	184.781	AF31HAS.jpg
131.783	0.514	Blank	Blank	80.91	n/a	2	4	13	n/a	73	n/a	2	n/a	n/a	n/a	n/a	185.279	n/a
132.313	0.497	happy	Picture	80.396	n/a	2	4	14	n/a	74	64	2	n/a	n/a	n/a	n/a	185.809	BM05HAS.jpg
132.811	0.514	Blank	Blank	79.882	n/a	2	4	14	n/a	74	n/a	2	n/a	n/a	n/a	n/a	186.306	n/a
133.341	0.497	happy	Picture	79.368	n/a	2	4	15	n/a	75	68	2	n/a	n/a	n/a	n/a	186.837	AM09HAS.jpg
133.838	0.514	Blank	Blank	78.854	n/a	2	4	15	n/a	75	n/a	2	n/a	n/a	n/a	n/a	187.334	n/a
134.369	0.497	happy	Picture	78.34	n/a	2	4	16	n/a	76	54	2	n/a	n/a	n/a	n/a	187.865	AF23HAS.jpg
134.866	0.514	Blank	Blank	77.826	n/a	2	4	16	n/a	76	n/a	2	n/a	n/a	n/a	n/a	188.362	n/a
135.397	0.497	happy	Picture	77.312	n/a	2	4	17	n/a	77	53	2	n/a	n/a	n/a	n/a	188.893	BF22HAS.jpg
135.894	0.514	Blank	Blank	76.799	n/a	2	4	17	n/a	77	n/a	2	n/a	n/a	n/a	n/a	189.39	n/a
136.425	0.497	happy	Picture	76.285	n/a	2	4	18	n/a	78	44	2	n/a	n/a	n/a	n/a	189.921	AF05HAS.jpg
136.922	0.514	Blank	Blank	75.771	n/a	2	4	18	n/a	78	n/a	2	n/a	n/a	n/a	n/a	190.418	n/a
137.453	0.497	happy	Picture	75.257	n/a	2	4	19	n/a	79	52	2	n/a	n/a	n/a	n/a	190.949	AF21HAS.jpg
137.95	0.514	Blank	Blank	74.743	n/a	2	4	19	n/a	79	n/a	2	n/a	n/a	n/a	n/a	191.446	n/a
138.481	0.497	happy	Picture	74.229	n/a	2	4	20	n/a	80	62	2	n/a	n/a	n/a	n/a	191.976	BM03HAS.jpg
138.978	0.514	Blank	Blank	73.715	n/a	2	4	20	n/a	80	n/a	2	n/a	n/a	n/a	n/a	192.474	n/a
139.508	10.014	ITI	Fixation+	63.685	n/a	2	n/a	n/a	n/a	n/a	n/a	n/a	n/a	n/a	n/a	n/a	193.004	n/a
149.539	0.497	neutral	Picture	63.171	n/a	2	5	1	n/a	81	23	1	n/a	n/a	n/a	n/a	203.035	AM04NES.jpg
150.036	0.514	Blank	Blank	62.657	n/a	2	5	1	n/a	81	n/a	1	n/a	n/a	n/a	n/a	203.532	n/a
150.566	0.497	neutral	Picture	62.143	n/a	2	5	2	n/a	82	29	1	n/a	n/a	n/a	n/a	204.062	AM10NES.jpg
151.064	0.514	Blank	Blank	61.629	n/a	2	5	2	n/a	82	n/a	1	n/a	n/a	n/a	n/a	204.56	n/a
151.594	0.497	neutral	Picture	61.115	n/a	2	5	3	n/a	83	24	1	n/a	n/a	n/a	n/a	205.09	BM05NES.jpg
152.092	0.514	Blank	Blank	60.601	n/a	2	5	3	n/a	83	n/a	1	n/a	n/a	n/a	n/a	205.588	n/a
152.622	0.497	neutral	Picture	60.087	n/a	2	5	4	n/a	84	12	1	n/a	n/a	n/a	n/a	206.118	AF21NES.jpg
153.12	0.514	Blank	Blank	59.573	n/a	2	5	4	n/a	84	n/a	1	n/a	n/a	n/a	n/a	206.615	n/a
153.65	0.497	neutral	Picture	59.059	n/a	2	5	5	n/a	85	13	1	n/a	n/a	n/a	n/a	207.146	BF22NES.jpg
154.148	0.514	Blank	Blank	58.545	n/a	2	5	5	n/a	85	n/a	1	n/a	n/a	n/a	n/a	207.643	n/a
154.678	0.497	neutral	Picture	58.031	n/a	2	5	6	n/a	86	17	1	n/a	n/a	n/a	n/a	208.174	BF28NES.jpg
155.175	0.514	Blank	Blank	57.517	n/a	2	5	6	n/a	86	n/a	1	n/a	n/a	n/a	n/a	208.671	n/a
155.706	0.497	neutral	Picture	57.004	n/a	2	5	7	n/a	87	4	1	n/a	n/a	n/a	n/a	209.202	AF05NES.jpg
156.203	0.514	Blank	Blank	56.49	n/a	2	5	7	n/a	87	n/a	1	n/a	n/a	n/a	n/a	209.699	n/a
156.734	0.497	neutral	Picture	55.976	n/a	2	5	8	n/a	88	11	1	n/a	n/a	n/a	n/a	210.23	AF20NES.jpg
157.231	0.514	Blank	Blank	55.462	n/a	2	5	8	n/a	88	n/a	1	n/a	n/a	n/a	n/a	210.727	n/a
157.762	0.497	neutral	Picture	54.948	n/a	2	5	9	n/a	89	22	1	n/a	n/a	n/a	n/a	211.257	BM03NES.jpg
158.259	0.514	Blank	Blank	54.434	n/a	2	5	9	n/a	89	n/a	1	n/a	n/a	n/a	n/a	211.755	n/a
158.79	0.497	neutral	Picture	53.92	n/a	2	5	10	n/a	90	15	1	n/a	n/a	n/a	n/a	212.285	AF25NES.jpg
159.287	0.514	Blank	Blank	53.406	n/a	2	5	10	n/a	90	n/a	1	n/a	n/a	n/a	n/a	212.783	n/a
159.817	0.497	neutral	Picture	52.892	n/a	2	5	11	n/a	91	19	1	n/a	n/a	n/a	n/a	213.313	AF31NES.jpg
160.315	0.514	Blank	Blank	52.378	n/a	2	5	11	n/a	91	n/a	1	n/a	n/a	n/a	n/a	213.811	n/a
160.845	0.497	neutral	Picture	51.864	n/a	2	5	12	n/a	92	9	1	n/a	n/a	n/a	n/a	214.341	AF17NES.jpg
161.343	0.514	Blank	Blank	51.35	n/a	2	5	12	n/a	92	n/a	1	n/a	n/a	n/a	n/a	214.839	n/a
161.873	0.497	neutral	Picture	50.836	n/a	2	5	13	n/a	93	14	1	n/a	n/a	n/a	n/a	215.369	AF23NES.jpg
162.37	0.514	Blank	Blank	50.322	n/a	2	5	13	n/a	93	n/a	1	n/a	n/a	n/a	n/a	215.866	n/a
162.901	0.497	neutral	Picture	49.808	n/a	2	5	14	n/a	94	36	1	n/a	n/a	n/a	n/a	216.397	BM24NES.jpg
163.398	0.514	Blank	Blank	49.294	n/a	2	5	14	n/a	94	n/a	1	n/a	n/a	n/a	n/a	216.894	n/a
163.929	0.497	neutral	Picture	48.78	n/a	2	5	15	n/a	95	34	1	n/a	n/a	n/a	n/a	217.425	AM22NES.jpg
164.426	0.514	Blank	Blank	48.267	n/a	2	5	15	n/a	95	n/a	1	n/a	n/a	n/a	n/a	217.922	n/a
164.957	0.497	neutral	Picture	47.753	n/a	2	5	16	n/a	96	10	1	n/a	n/a	n/a	n/a	218.453	AF18NES.jpg
165.454	0.514	Blank	Blank	47.239	n/a	2	5	16	n/a	96	n/a	1	n/a	n/a	n/a	n/a	218.95	n/a
165.985	0.497	neutral	Picture	46.725	n/a	2	5	17	n/a	97	5	1	n/a	n/a	n/a	n/a	219.481	BF07NES.jpg
166.482	0.514	Blank	Blank	46.211	n/a	2	5	17	n/a	97	n/a	1	n/a	n/a	n/a	n/a	219.978	n/a
167.013	0.497	neutral	Picture	45.697	n/a	2	5	18	n/a	98	25	1	n/a	n/a	n/a	n/a	220.508	BM06NES.jpg
167.51	0.514	Blank	Blank	45.183	n/a	2	5	18	n/a	98	n/a	1	n/a	n/a	n/a	n/a	221.006	n/a
168.04	0.497	neutral	Picture	44.669	n/a	2	5	19	n/a	99	39	1	n/a	n/a	n/a	n/a	221.536	AM28NES.jpg
168.538	0.514	Blank	Blank	44.155	n/a	2	5	19	n/a	99	n/a	1	n/a	n/a	n/a	n/a	222.034	n/a
169.068	0.497	neutral	Picture	43.641	n/a	2	5	20	n/a	100	33	1	n/a	n/a	n/a	n/a	222.564	AM21NES.jpg
169.566	0.514	Blank	Blank	43.127	n/a	2	5	20	n/a	100	n/a	1	n/a	n/a	n/a	n/a	223.062	n/a
170.096	10.014	ITI	Fixation+	33.097	n/a	2	n/a	n/a	n/a	n/a	n/a	n/a	n/a	n/a	n/a	n/a	223.592	n/a
180.126	0.497	happy	Picture	32.583	n/a	2	6	1	n/a	101	74	2	n/a	n/a	n/a	n/a	233.622	AM22HAS.jpg
180.624	0.514	Blank	Blank	32.069	n/a	2	6	1	n/a	101	n/a	2	n/a	n/a	n/a	n/a	234.12	n/a
181.154	0.497	happy	Picture	31.555	n/a	2	6	2	n/a	102	76	2	n/a	n/a	n/a	n/a	234.65	BM24HAS.jpg
181.652	0.514	Blank	Blank	31.041	n/a	2	6	2	n/a	102	n/a	2	n/a	n/a	n/a	n/a	235.148	n/a
182.182	0.497	happy	Picture	30.527	n/a	2	6	3	n/a	103	80	2	n/a	n/a	n/a	n/a	235.678	BM35HAS.jpg
182.679	0.514	Blank	Blank	30.013	n/a	2	6	3	n/a	103	n/a	2	n/a	n/a	n/a	n/a	236.175	n/a
183.21	0.497	happy	Picture	29.499	n/a	2	6	4	n/a	104	75	2	n/a	n/a	n/a	n/a	236.706	AM23HAS.jpg
183.707	0.514	Blank	Blank	28.985	n/a	2	6	4	n/a	104	n/a	2	n/a	n/a	n/a	n/a	237.203	n/a
184.238	0.497	happy	Picture	28.471	n/a	2	6	5	n/a	105	49	2	n/a	n/a	n/a	n/a	237.734	AF17HAS.jpg
184.735	0.514	Blank	Blank	27.958	n/a	2	6	5	n/a	105	n/a	2	n/a	n/a	n/a	n/a	238.231	n/a
185.266	0.497	happy	Picture	27.444	n/a	2	6	6	n/a	106	43	2	n/a	n/a	n/a	n/a	238.762	BF04HAS.jpg
185.763	0.514	Blank	Blank	26.93	n/a	2	6	6	n/a	106	n/a	2	n/a	n/a	n/a	n/a	239.259	n/a
186.294	0.497	happy	Picture	26.416	n/a	2	6	7	n/a	107	70	2	n/a	n/a	n/a	n/a	239.79	BM11HAS.jpg
186.791	0.514	Blank	Blank	25.902	n/a	2	6	7	n/a	107	n/a	2	n/a	n/a	n/a	n/a	240.287	n/a
187.321	0.497	happy	Picture	25.388	n/a	2	6	8	n/a	108	66	2	n/a	n/a	n/a	n/a	240.817	BM07HAS.jpg
187.819	0.514	Blank	Blank	24.874	n/a	2	6	8	n/a	108	n/a	2	n/a	n/a	n/a	n/a	241.315	n/a
188.349	0.497	happy	Picture	24.36	n/a	2	6	9	n/a	109	48	2	n/a	n/a	n/a	n/a	241.845	AF14HAS.jpg
188.847	0.514	Blank	Blank	23.846	n/a	2	6	9	n/a	109	n/a	2	n/a	n/a	n/a	n/a	242.343	n/a
189.377	0.497	happy	Picture	23.332	n/a	2	6	10	n/a	110	58	2	n/a	n/a	n/a	n/a	242.873	BF29HAS.jpg
189.875	0.514	Blank	Blank	22.818	n/a	2	6	10	n/a	110	n/a	2	n/a	n/a	n/a	n/a	243.371	n/a
190.405	0.497	happy	Picture	22.304	n/a	2	6	11	n/a	111	63	2	n/a	n/a	n/a	n/a	243.901	AM04HAS.jpg
190.903	0.514	Blank	Blank	21.79	n/a	2	6	11	n/a	111	n/a	2	n/a	n/a	n/a	n/a	244.398	n/a
191.433	0.497	happy	Picture	21.276	n/a	2	6	12	n/a	112	72	2	n/a	n/a	n/a	n/a	244.929	AM14HAS.jpg
191.93	0.514	Blank	Blank	20.762	n/a	2	6	12	n/a	112	n/a	2	n/a	n/a	n/a	n/a	245.426	n/a
192.461	0.497	happy	Picture	20.248	n/a	2	6	13	n/a	113	55	2	n/a	n/a	n/a	n/a	245.957	AF25HAS.jpg
192.958	0.514	Blank	Blank	19.734	n/a	2	6	13	n/a	113	n/a	2	n/a	n/a	n/a	n/a	246.454	n/a
193.489	0.497	happy	Picture	19.221	n/a	2	6	14	n/a	114	42	2	n/a	n/a	n/a	n/a	246.985	AF03HAS.jpg
193.986	0.514	Blank	Blank	18.707	n/a	2	6	14	n/a	114	n/a	2	n/a	n/a	n/a	n/a	247.482	n/a
194.517	0.497	happy	Picture	18.193	n/a	2	6	15	n/a	115	60	2	n/a	n/a	n/a	n/a	248.013	AF32HAS.jpg
195.014	0.514	Blank	Blank	17.679	n/a	2	6	15	n/a	115	n/a	2	n/a	n/a	n/a	n/a	248.51	n/a
195.545	0.497	happy	Picture	17.165	n/a	2	6	16	n/a	116	67	2	n/a	n/a	n/a	n/a	249.041	BM08HAS.jpg
196.042	0.514	Blank	Blank	16.651	n/a	2	6	16	n/a	116	n/a	2	n/a	n/a	n/a	n/a	249.538	n/a
196.572	0.497	happy	Picture	16.137	n/a	2	6	17	n/a	117	51	2	n/a	n/a	n/a	n/a	250.068	AF20HAS.jpg
197.07	0.514	Blank	Blank	15.623	n/a	2	6	17	n/a	117	n/a	2	n/a	n/a	n/a	n/a	250.566	n/a
197.6	0.497	happy	Picture	15.109	n/a	2	6	18	n/a	118	71	2	n/a	n/a	n/a	n/a	251.096	BM12HAS.jpg
198.098	0.514	Blank	Blank	14.595	n/a	2	6	18	n/a	118	n/a	2	n/a	n/a	n/a	n/a	251.594	n/a
198.628	0.497	happy	Picture	14.081	n/a	2	6	19	n/a	119	69	2	n/a	n/a	n/a	n/a	252.124	AM10HAS.jpg
199.126	0.514	Blank	Blank	13.567	n/a	2	6	19	n/a	119	n/a	2	n/a	n/a	n/a	n/a	252.621	n/a
199.656	0.497	happy	Picture	13.053	n/a	2	6	20	n/a	120	46	2	n/a	n/a	n/a	n/a	253.152	AF09HAS.jpg
200.154	0.514	Blank	Blank	12.539	n/a	2	6	20	n/a	120	n/a	2	n/a	n/a	n/a	n/a	253.649	n/a
200.684	10.014	ITI	Fixation+	2.509	n/a	2	n/a	n/a	n/a	n/a	n/a	n/a	n/a	n/a	n/a	n/a	254.18	n/a
213.207	n/a	ConfirmRating	Rate	n/a	2.503	2	n/a	n/a	0	n/a	n/a	n/a	2	Happy	65	51	266.703	n/a
216.406	n/a	ConfirmRating	Rate	n/a	3.183	2	n/a	n/a	1	n/a	n/a	n/a	3	Happy	3	49	269.901	n/a
216.434	15.004	Rest	Picture	n/a	n/a	n/a	n/a	n/a	n/a	n/a	n/a	n/a	0	n/a	0	0	269.93	n/a
231.454	10.014	ITI	Fixation+	94.468	n/a	3	n/a	n/a	n/a	n/a	n/a	n/a	n/a	n/a	n/a	n/a	284.95	n/a
241.484	0.497	angry	Picture	93.954	n/a	3	7	1	n/a	1	108	3	n/a	n/a	n/a	n/a	294.98	AM09ANS.jpg
241.982	0.514	Blank	Blank	93.44	n/a	3	7	1	n/a	1	n/a	3	n/a	n/a	n/a	n/a	295.478	n/a
242.512	0.497	angry	Picture	92.926	n/a	3	7	2	n/a	2	99	3	n/a	n/a	n/a	n/a	296.008	AF31ANS.jpg
243.01	0.514	Blank	Blank	92.412	n/a	3	7	2	n/a	2	n/a	3	n/a	n/a	n/a	n/a	296.505	n/a
243.54	0.497	angry	Picture	91.898	n/a	3	7	3	n/a	3	98	3	n/a	n/a	n/a	n/a	297.036	BF29ANS.jpg
244.037	0.514	Blank	Blank	91.384	n/a	3	7	3	n/a	3	n/a	3	n/a	n/a	n/a	n/a	297.533	n/a
244.568	0.497	angry	Picture	90.87	n/a	3	7	4	n/a	4	107	3	n/a	n/a	n/a	n/a	298.064	BM08ANS.jpg
245.065	0.514	Blank	Blank	90.356	n/a	3	7	4	n/a	4	n/a	3	n/a	n/a	n/a	n/a	298.561	n/a
245.596	0.497	angry	Picture	89.842	n/a	3	7	5	n/a	5	104	3	n/a	n/a	n/a	n/a	299.092	BM05ANS.jpg
246.093	0.514	Blank	Blank	89.328	n/a	3	7	5	n/a	5	n/a	3	n/a	n/a	n/a	n/a	299.589	n/a
246.624	0.497	angry	Picture	88.815	n/a	3	7	6	n/a	6	101	3	n/a	n/a	n/a	n/a	300.12	AM01ANS.jpg
247.121	0.514	Blank	Blank	88.3	n/a	3	7	6	n/a	6	n/a	3	n/a	n/a	n/a	n/a	300.617	n/a
247.652	0.497	angry	Picture	87.787	n/a	3	7	7	n/a	7	103	3	n/a	n/a	n/a	n/a	301.147	AM04ANS.jpg
248.149	0.514	Blank	Blank	87.273	n/a	3	7	7	n/a	7	n/a	3	n/a	n/a	n/a	n/a	301.645	n/a
248.68	0.497	angry	Picture	86.759	n/a	3	7	8	n/a	8	111	3	n/a	n/a	n/a	n/a	302.175	BM12ANS.jpg
249.177	0.514	Blank	Blank	86.245	n/a	3	7	8	n/a	8	n/a	3	n/a	n/a	n/a	n/a	302.673	n/a
249.707	0.497	angry	Picture	85.731	n/a	3	7	9	n/a	9	110	3	n/a	n/a	n/a	n/a	303.203	AM11ANS.jpg
250.205	0.514	Blank	Blank	85.217	n/a	3	7	9	n/a	9	n/a	3	n/a	n/a	n/a	n/a	303.701	n/a
250.735	0.497	angry	Picture	84.703	n/a	3	7	10	n/a	10	85	3	n/a	n/a	n/a	n/a	304.231	BF07ANS.jpg
251.233	0.514	Blank	Blank	84.189	n/a	3	7	10	n/a	10	n/a	3	n/a	n/a	n/a	n/a	304.728	n/a
251.763	0.497	angry	Picture	83.675	n/a	3	7	11	n/a	11	87	3	n/a	n/a	n/a	n/a	305.259	BF11ANS.jpg
252.26	0.514	Blank	Blank	83.161	n/a	3	7	11	n/a	11	n/a	3	n/a	n/a	n/a	n/a	305.756	n/a
252.791	0.497	angry	Picture	82.647	n/a	3	7	12	n/a	12	91	3	n/a	n/a	n/a	n/a	306.287	AF20ANS.jpg
253.288	0.514	Blank	Blank	82.133	n/a	3	7	12	n/a	12	n/a	3	n/a	n/a	n/a	n/a	306.784	n/a
253.819	0.497	angry	Picture	81.619	n/a	3	7	13	n/a	13	115	3	n/a	n/a	n/a	n/a	307.315	AM23ANS.jpg
254.316	0.514	Blank	Blank	81.105	n/a	3	7	13	n/a	13	n/a	3	n/a	n/a	n/a	n/a	307.812	n/a
254.847	0.497	angry	Picture	80.591	n/a	3	7	14	n/a	14	97	3	n/a	n/a	n/a	n/a	308.343	BF28ANS.jpg
255.344	0.514	Blank	Blank	80.078	n/a	3	7	14	n/a	14	n/a	3	n/a	n/a	n/a	n/a	308.84	n/a
255.875	0.497	angry	Picture	79.563	n/a	3	7	15	n/a	15	82	3	n/a	n/a	n/a	n/a	309.37	AF03ANS.jpg
256.372	0.514	Blank	Blank	79.05	n/a	3	7	15	n/a	15	n/a	3	n/a	n/a	n/a	n/a	309.868	n/a
256.902	0.497	angry	Picture	78.536	n/a	3	7	16	n/a	16	96	3	n/a	n/a	n/a	n/a	310.398	AF26ANS.jpg
257.4	0.514	Blank	Blank	78.022	n/a	3	7	16	n/a	16	n/a	3	n/a	n/a	n/a	n/a	310.896	n/a
257.93	0.497	angry	Picture	77.508	n/a	3	7	17	n/a	17	109	3	n/a	n/a	n/a	n/a	311.426	AM10ANS.jpg
258.428	0.514	Blank	Blank	76.994	n/a	3	7	17	n/a	17	n/a	3	n/a	n/a	n/a	n/a	311.924	n/a
258.958	0.497	angry	Picture	76.48	n/a	3	7	18	n/a	18	114	3	n/a	n/a	n/a	n/a	312.454	AM22ANS.jpg
259.456	0.514	Blank	Blank	75.966	n/a	3	7	18	n/a	18	n/a	3	n/a	n/a	n/a	n/a	312.952	n/a
259.986	0.497	angry	Picture	75.452	n/a	3	7	19	n/a	19	120	3	n/a	n/a	n/a	n/a	313.482	AM35ANS.jpg
260.483	0.514	Blank	Blank	74.938	n/a	3	7	19	n/a	19	n/a	3	n/a	n/a	n/a	n/a	313.979	n/a
261.014	0.497	angry	Picture	74.424	n/a	3	7	20	n/a	20	81	3	n/a	n/a	n/a	n/a	314.51	AF01ANS.jpg
261.511	0.514	Blank	Blank	73.91	n/a	3	7	20	n/a	20	n/a	3	n/a	n/a	n/a	n/a	315.007	n/a
262.042	10.014	ITI	Fixation+	63.88	n/a	3	n/a	n/a	n/a	n/a	n/a	n/a	n/a	n/a	n/a	n/a	315.538	n/a
272.072	0.497	neutral	Picture	63.366	n/a	3	8	1	n/a	21	28	1	n/a	n/a	n/a	n/a	325.568	AM09NES.jpg
272.569	0.514	Blank	Blank	62.852	n/a	3	8	1	n/a	21	n/a	1	n/a	n/a	n/a	n/a	326.065	n/a
273.1	0.497	neutral	Picture	62.338	n/a	3	8	2	n/a	22	27	1	n/a	n/a	n/a	n/a	326.596	BM08NES.jpg
273.597	0.514	Blank	Blank	61.824	n/a	3	8	2	n/a	22	n/a	1	n/a	n/a	n/a	n/a	327.093	n/a
274.128	0.497	neutral	Picture	61.31	n/a	3	8	3	n/a	23	16	1	n/a	n/a	n/a	n/a	327.624	AF26NES.jpg
274.625	0.514	Blank	Blank	60.796	n/a	3	8	3	n/a	23	n/a	1	n/a	n/a	n/a	n/a	328.121	n/a
275.156	0.497	neutral	Picture	60.282	n/a	3	8	4	n/a	24	3	1	n/a	n/a	n/a	n/a	328.652	BF04NES.jpg
275.653	0.514	Blank	Blank	59.769	n/a	3	8	4	n/a	24	n/a	1	n/a	n/a	n/a	n/a	329.149	n/a
276.184	0.497	neutral	Picture	59.255	n/a	3	8	5	n/a	25	32	1	n/a	n/a	n/a	n/a	329.68	AM14NES.jpg
276.681	0.514	Blank	Blank	58.741	n/a	3	8	5	n/a	25	n/a	1	n/a	n/a	n/a	n/a	330.177	n/a
277.212	0.497	neutral	Picture	58.227	n/a	3	8	6	n/a	26	37	1	n/a	n/a	n/a	n/a	330.707	BM25NES.jpg
277.709	0.514	Blank	Blank	57.713	n/a	3	8	6	n/a	26	n/a	1	n/a	n/a	n/a	n/a	331.205	n/a
278.239	0.497	neutral	Picture	57.199	n/a	3	8	7	n/a	27	15	1	n/a	n/a	n/a	n/a	331.735	AF25NES.jpg
278.737	0.514	Blank	Blank	56.685	n/a	3	8	7	n/a	27	n/a	1	n/a	n/a	n/a	n/a	332.233	n/a
279.267	0.497	neutral	Picture	56.171	n/a	3	8	8	n/a	28	23	1	n/a	n/a	n/a	n/a	332.763	AM04NES.jpg
279.765	0.514	Blank	Blank	55.657	n/a	3	8	8	n/a	28	n/a	1	n/a	n/a	n/a	n/a	333.26	n/a
280.295	0.497	neutral	Picture	55.143	n/a	3	8	9	n/a	29	34	1	n/a	n/a	n/a	n/a	333.791	AM22NES.jpg
280.793	0.514	Blank	Blank	54.629	n/a	3	8	9	n/a	29	n/a	1	n/a	n/a	n/a	n/a	334.288	n/a
281.323	0.497	neutral	Picture	54.115	n/a	3	8	10	n/a	30	24	1	n/a	n/a	n/a	n/a	334.819	BM05NES.jpg
281.82	0.514	Blank	Blank	53.601	n/a	3	8	10	n/a	30	n/a	1	n/a	n/a	n/a	n/a	335.316	n/a
282.351	0.497	neutral	Picture	53.087	n/a	3	8	11	n/a	31	12	1	n/a	n/a	n/a	n/a	335.847	AF21NES.jpg
282.848	0.514	Blank	Blank	52.573	n/a	3	8	11	n/a	31	n/a	1	n/a	n/a	n/a	n/a	336.344	n/a
283.379	0.497	neutral	Picture	52.059	n/a	3	8	12	n/a	32	6	1	n/a	n/a	n/a	n/a	336.875	AF09NES.jpg
283.876	0.514	Blank	Blank	51.545	n/a	3	8	12	n/a	32	n/a	1	n/a	n/a	n/a	n/a	337.372	n/a
284.407	0.497	neutral	Picture	51.031	n/a	3	8	13	n/a	33	17	1	n/a	n/a	n/a	n/a	337.902	BF28NES.jpg
284.904	0.514	Blank	Blank	50.518	n/a	3	8	13	n/a	33	n/a	1	n/a	n/a	n/a	n/a	338.4	n/a
285.435	0.497	neutral	Picture	50.004	n/a	3	8	14	n/a	34	2	1	n/a	n/a	n/a	n/a	338.93	AF03NES.jpg
285.932	0.514	Blank	Blank	49.49	n/a	3	8	14	n/a	34	n/a	1	n/a	n/a	n/a	n/a	339.428	n/a
286.462	0.497	neutral	Picture	48.976	n/a	3	8	15	n/a	35	9	1	n/a	n/a	n/a	n/a	339.958	AF17NES.jpg
286.96	0.514	Blank	Blank	48.462	n/a	3	8	15	n/a	35	n/a	1	n/a	n/a	n/a	n/a	340.456	n/a
287.49	0.497	neutral	Picture	47.948	n/a	3	8	16	n/a	36	25	1	n/a	n/a	n/a	n/a	340.986	BM06NES.jpg
287.988	0.514	Blank	Blank	47.434	n/a	3	8	16	n/a	36	n/a	1	n/a	n/a	n/a	n/a	341.484	n/a
288.518	0.497	neutral	Picture	46.92	n/a	3	8	17	n/a	37	8	1	n/a	n/a	n/a	n/a	342.014	AF14NES.jpg
289.015	0.514	Blank	Blank	46.406	n/a	3	8	17	n/a	37	n/a	1	n/a	n/a	n/a	n/a	342.511	n/a
289.546	0.497	neutral	Picture	45.892	n/a	3	8	18	n/a	38	19	1	n/a	n/a	n/a	n/a	343.042	AF31NES.jpg
290.043	0.514	Blank	Blank	45.378	n/a	3	8	18	n/a	38	n/a	1	n/a	n/a	n/a	n/a	343.539	n/a
290.574	0.497	neutral	Picture	44.864	n/a	3	8	19	n/a	39	14	1	n/a	n/a	n/a	n/a	344.07	AF23NES.jpg
291.071	0.514	Blank	Blank	44.35	n/a	3	8	19	n/a	39	n/a	1	n/a	n/a	n/a	n/a	344.567	n/a
291.602	0.497	neutral	Picture	43.836	n/a	3	8	20	n/a	40	4	1	n/a	n/a	n/a	n/a	345.098	AF05NES.jpg
292.099	0.514	Blank	Blank	43.322	n/a	3	8	20	n/a	40	n/a	1	n/a	n/a	n/a	n/a	345.595	n/a
292.63	10.014	ITI	Fixation+	33.292	n/a	3	n/a	n/a	n/a	n/a	n/a	n/a	n/a	n/a	n/a	n/a	346.126	n/a
302.66	0.497	angry	Picture	32.778	n/a	3	9	1	n/a	41	84	3	n/a	n/a	n/a	n/a	356.156	AF05ANS.jpg
303.157	0.514	Blank	Blank	32.264	n/a	3	9	1	n/a	41	n/a	3	n/a	n/a	n/a	n/a	356.653	n/a
303.688	0.497	angry	Picture	31.75	n/a	3	9	2	n/a	42	92	3	n/a	n/a	n/a	n/a	357.184	AF21ANS.jpg
304.185	0.514	Blank	Blank	31.237	n/a	3	9	2	n/a	42	n/a	3	n/a	n/a	n/a	n/a	357.681	n/a
304.716	0.497	angry	Picture	30.722	n/a	3	9	3	n/a	43	86	3	n/a	n/a	n/a	n/a	358.212	AF09ANS.jpg
305.213	0.514	Blank	Blank	30.209	n/a	3	9	3	n/a	43	n/a	3	n/a	n/a	n/a	n/a	358.709	n/a
305.743	0.497	angry	Picture	29.695	n/a	3	9	4	n/a	44	93	3	n/a	n/a	n/a	n/a	359.239	BF22ANS.jpg
306.241	0.514	Blank	Blank	29.181	n/a	3	9	4	n/a	44	n/a	3	n/a	n/a	n/a	n/a	359.737	n/a
306.771	0.497	angry	Picture	28.667	n/a	3	9	5	n/a	45	88	3	n/a	n/a	n/a	n/a	360.267	AF14ANS.jpg
307.269	0.514	Blank	Blank	28.153	n/a	3	9	5	n/a	45	n/a	3	n/a	n/a	n/a	n/a	360.765	n/a
307.799	0.497	angry	Picture	27.639	n/a	3	9	6	n/a	46	113	3	n/a	n/a	n/a	n/a	361.295	AM21ANS.jpg
308.297	0.514	Blank	Blank	27.125	n/a	3	9	6	n/a	46	n/a	3	n/a	n/a	n/a	n/a	361.793	n/a
308.827	0.497	angry	Picture	26.611	n/a	3	9	7	n/a	47	95	3	n/a	n/a	n/a	n/a	362.323	AF25ANS.jpg
309.325	0.514	Blank	Blank	26.097	n/a	3	9	7	n/a	47	n/a	3	n/a	n/a	n/a	n/a	362.82	n/a
309.855	0.497	angry	Picture	25.583	n/a	3	9	8	n/a	48	102	3	n/a	n/a	n/a	n/a	363.351	BM03ANS.jpg
310.352	0.514	Blank	Blank	25.069	n/a	3	9	8	n/a	48	n/a	3	n/a	n/a	n/a	n/a	363.848	n/a
310.883	0.497	angry	Picture	24.555	n/a	3	9	9	n/a	49	112	3	n/a	n/a	n/a	n/a	364.379	AM14ANS.jpg
311.38	0.514	Blank	Blank	24.041	n/a	3	9	9	n/a	49	n/a	3	n/a	n/a	n/a	n/a	364.876	n/a
311.911	0.497	angry	Picture	23.527	n/a	3	9	10	n/a	50	83	3	n/a	n/a	n/a	n/a	365.407	BF04ANS.jpg
312.408	0.514	Blank	Blank	23.013	n/a	3	9	10	n/a	50	n/a	3	n/a	n/a	n/a	n/a	365.904	n/a
312.939	0.497	angry	Picture	22.5	n/a	3	9	11	n/a	51	90	3	n/a	n/a	n/a	n/a	366.435	AF18ANS.jpg
313.436	0.514	Blank	Blank	21.986	n/a	3	9	11	n/a	51	n/a	3	n/a	n/a	n/a	n/a	366.932	n/a
313.966	0.497	angry	Picture	21.472	n/a	3	9	12	n/a	52	117	3	n/a	n/a	n/a	n/a	367.462	BM25ANS.jpg
314.464	0.514	Blank	Blank	20.958	n/a	3	9	12	n/a	52	n/a	3	n/a	n/a	n/a	n/a	367.96	n/a
314.994	0.497	angry	Picture	20.444	n/a	3	9	13	n/a	53	94	3	n/a	n/a	n/a	n/a	368.49	AF23ANS.jpg
315.492	0.514	Blank	Blank	19.93	n/a	3	9	13	n/a	53	n/a	3	n/a	n/a	n/a	n/a	368.988	n/a
316.022	0.497	angry	Picture	19.416	n/a	3	9	14	n/a	54	106	3	n/a	n/a	n/a	n/a	369.518	AM07ANS.jpg
316.52	0.514	Blank	Blank	18.902	n/a	3	9	14	n/a	54	n/a	3	n/a	n/a	n/a	n/a	370.016	n/a
317.05	0.497	angry	Picture	18.388	n/a	3	9	15	n/a	55	105	3	n/a	n/a	n/a	n/a	370.546	BM06ANS.jpg
317.548	0.514	Blank	Blank	17.874	n/a	3	9	15	n/a	55	n/a	3	n/a	n/a	n/a	n/a	371.043	n/a
318.078	0.497	angry	Picture	17.36	n/a	3	9	16	n/a	56	116	3	n/a	n/a	n/a	n/a	371.574	BM24ANS.jpg
318.575	0.514	Blank	Blank	16.846	n/a	3	9	16	n/a	56	n/a	3	n/a	n/a	n/a	n/a	372.071	n/a
319.106	0.497	angry	Picture	16.332	n/a	3	9	17	n/a	57	89	3	n/a	n/a	n/a	n/a	372.602	AF17ANS.jpg
319.603	0.514	Blank	Blank	15.818	n/a	3	9	17	n/a	57	n/a	3	n/a	n/a	n/a	n/a	373.099	n/a
320.134	0.497	angry	Picture	15.304	n/a	3	9	18	n/a	58	118	3	n/a	n/a	n/a	n/a	373.63	BM26ANS.jpg
320.631	0.514	Blank	Blank	14.79	n/a	3	9	18	n/a	58	n/a	3	n/a	n/a	n/a	n/a	374.127	n/a
321.162	0.497	angry	Picture	14.276	n/a	3	9	19	n/a	59	100	3	n/a	n/a	n/a	n/a	374.658	AF32ANS.jpg
321.659	0.514	Blank	Blank	13.763	n/a	3	9	19	n/a	59	n/a	3	n/a	n/a	n/a	n/a	375.155	n/a
322.19	0.497	angry	Picture	13.248	n/a	3	9	20	n/a	60	119	3	n/a	n/a	n/a	n/a	375.685	BM28ANS.jpg
322.687	0.514	Blank	Blank	12.735	n/a	3	9	20	n/a	60	n/a	3	n/a	n/a	n/a	n/a	376.183	n/a
323.217	10.014	ITI	Fixation+	2.704	n/a	3	n/a	n/a	n/a	n/a	n/a	n/a	n/a	n/a	n/a	n/a	376.713	n/a
335.935	n/a	ConfirmRating	Rate	n/a	2.702	3	n/a	n/a	0	n/a	n/a	n/a	2	Angry	25	49	389.431	n/a
337.656	n/a	ConfirmRating	Rate	n/a	1.691	3	n/a	n/a	1	n/a	n/a	n/a	3	Angry	0	49	391.152	n/a
337.674	10.014	ITI	Fixation+	95.029	n/a	4	n/a	n/a	n/a	n/a	n/a	n/a	n/a	n/a	n/a	n/a	391.17	n/a
347.704	0.497	happy	Picture	94.515	n/a	4	10	1	n/a	61	79	2	n/a	n/a	n/a	n/a	401.2	BM28HAS.jpg
348.202	0.514	Blank	Blank	94.001	n/a	4	10	1	n/a	61	n/a	2	n/a	n/a	n/a	n/a	401.697	n/a
348.732	0.497	happy	Picture	93.487	n/a	4	10	2	n/a	62	61	2	n/a	n/a	n/a	n/a	402.228	AM01HAS.jpg
349.229	0.514	Blank	Blank	92.973	n/a	4	10	2	n/a	62	n/a	2	n/a	n/a	n/a	n/a	402.725	n/a
349.76	0.497	happy	Picture	92.459	n/a	4	10	3	n/a	63	57	2	n/a	n/a	n/a	n/a	403.256	BF28HAS.jpg
350.257	0.514	Blank	Blank	91.945	n/a	4	10	3	n/a	63	n/a	2	n/a	n/a	n/a	n/a	403.753	n/a
350.788	0.497	happy	Picture	91.431	n/a	4	10	4	n/a	64	77	2	n/a	n/a	n/a	n/a	404.284	BM25HAS.jpg
351.285	0.514	Blank	Blank	90.917	n/a	4	10	4	n/a	64	n/a	2	n/a	n/a	n/a	n/a	404.781	n/a
351.816	0.497	happy	Picture	90.403	n/a	4	10	5	n/a	65	47	2	n/a	n/a	n/a	n/a	405.312	BF11HAS.jpg
352.313	0.514	Blank	Blank	89.889	n/a	4	10	5	n/a	65	n/a	2	n/a	n/a	n/a	n/a	405.809	n/a
352.844	0.497	happy	Picture	89.375	n/a	4	10	6	n/a	66	50	2	n/a	n/a	n/a	n/a	406.34	AF18HAS.jpg
353.341	0.514	Blank	Blank	88.861	n/a	4	10	6	n/a	66	n/a	2	n/a	n/a	n/a	n/a	406.837	n/a
353.872	0.497	happy	Picture	88.348	n/a	4	10	7	n/a	67	78	2	n/a	n/a	n/a	n/a	407.368	BM26HAS.jpg
354.369	0.514	Blank	Blank	87.834	n/a	4	10	7	n/a	67	n/a	2	n/a	n/a	n/a	n/a	407.865	n/a
354.899	0.497	happy	Picture	87.32	n/a	4	10	8	n/a	68	45	2	n/a	n/a	n/a	n/a	408.395	BF07HAS.jpg
355.397	0.514	Blank	Blank	86.806	n/a	4	10	8	n/a	68	n/a	2	n/a	n/a	n/a	n/a	408.893	n/a
355.927	0.497	happy	Picture	86.292	n/a	4	10	9	n/a	69	56	2	n/a	n/a	n/a	n/a	409.423	AF26HAS.jpg
356.425	0.514	Blank	Blank	85.778	n/a	4	10	9	n/a	69	n/a	2	n/a	n/a	n/a	n/a	409.921	n/a
356.955	0.497	happy	Picture	85.264	n/a	4	10	10	n/a	70	65	2	n/a	n/a	n/a	n/a	410.451	BM06HAS.jpg
357.453	0.514	Blank	Blank	84.75	n/a	4	10	10	n/a	70	n/a	2	n/a	n/a	n/a	n/a	410.949	n/a
357.983	0.497	happy	Picture	84.236	n/a	4	10	11	n/a	71	73	2	n/a	n/a	n/a	n/a	411.479	AM21HAS.jpg
358.481	0.514	Blank	Blank	83.722	n/a	4	10	11	n/a	71	n/a	2	n/a	n/a	n/a	n/a	411.976	n/a
359.011	0.497	happy	Picture	83.208	n/a	4	10	12	n/a	72	41	2	n/a	n/a	n/a	n/a	412.507	AF01HAS.jpg
359.508	0.514	Blank	Blank	82.694	n/a	4	10	12	n/a	72	n/a	2	n/a	n/a	n/a	n/a	413.004	n/a
360.039	0.497	happy	Picture	82.18	n/a	4	10	13	n/a	73	59	2	n/a	n/a	n/a	n/a	413.535	AF31HAS.jpg
360.536	0.514	Blank	Blank	81.666	n/a	4	10	13	n/a	73	n/a	2	n/a	n/a	n/a	n/a	414.032	n/a
361.067	0.497	happy	Picture	81.152	n/a	4	10	14	n/a	74	64	2	n/a	n/a	n/a	n/a	414.563	BM05HAS.jpg
361.564	0.514	Blank	Blank	80.639	n/a	4	10	14	n/a	74	n/a	2	n/a	n/a	n/a	n/a	415.06	n/a
362.095	0.497	happy	Picture	80.124	n/a	4	10	15	n/a	75	68	2	n/a	n/a	n/a	n/a	415.591	AM09HAS.jpg
362.592	0.514	Blank	Blank	79.611	n/a	4	10	15	n/a	75	n/a	2	n/a	n/a	n/a	n/a	416.088	n/a
363.123	0.497	happy	Picture	79.097	n/a	4	10	16	n/a	76	54	2	n/a	n/a	n/a	n/a	416.618	AF23HAS.jpg
363.62	0.514	Blank	Blank	78.583	n/a	4	10	16	n/a	76	n/a	2	n/a	n/a	n/a	n/a	417.116	n/a
364.15	0.497	happy	Picture	78.069	n/a	4	10	17	n/a	77	53	2	n/a	n/a	n/a	n/a	417.646	BF22HAS.jpg
364.648	0.514	Blank	Blank	77.555	n/a	4	10	17	n/a	77	n/a	2	n/a	n/a	n/a	n/a	418.144	n/a
365.178	0.497	happy	Picture	77.041	n/a	4	10	18	n/a	78	44	2	n/a	n/a	n/a	n/a	418.674	AF05HAS.jpg
365.676	0.514	Blank	Blank	76.527	n/a	4	10	18	n/a	78	n/a	2	n/a	n/a	n/a	n/a	419.171	n/a
366.206	0.497	happy	Picture	76.013	n/a	4	10	19	n/a	79	52	2	n/a	n/a	n/a	n/a	419.702	AF21HAS.jpg
366.704	0.514	Blank	Blank	75.499	n/a	4	10	19	n/a	79	n/a	2	n/a	n/a	n/a	n/a	420.199	n/a
367.234	0.497	happy	Picture	74.985	n/a	4	10	20	n/a	80	62	2	n/a	n/a	n/a	n/a	420.73	BM03HAS.jpg
367.731	0.514	Blank	Blank	74.471	n/a	4	10	20	n/a	80	n/a	2	n/a	n/a	n/a	n/a	421.227	n/a
368.262	10.014	ITI	Fixation+	64.441	n/a	4	n/a	n/a	n/a	n/a	n/a	n/a	n/a	n/a	n/a	n/a	421.758	n/a
378.292	0.497	neutral	Picture	63.927	n/a	4	11	1	n/a	81	23	1	n/a	n/a	n/a	n/a	431.788	AM04NES.jpg
378.789	0.514	Blank	Blank	63.413	n/a	4	11	1	n/a	81	n/a	1	n/a	n/a	n/a	n/a	432.285	n/a
379.32	0.497	neutral	Picture	62.899	n/a	4	11	2	n/a	82	29	1	n/a	n/a	n/a	n/a	432.816	AM10NES.jpg
379.817	0.514	Blank	Blank	62.385	n/a	4	11	2	n/a	82	n/a	1	n/a	n/a	n/a	n/a	433.313	n/a
380.348	0.497	neutral	Picture	61.871	n/a	4	11	3	n/a	83	24	1	n/a	n/a	n/a	n/a	433.844	BM05NES.jpg
380.845	0.514	Blank	Blank	61.357	n/a	4	11	3	n/a	83	n/a	1	n/a	n/a	n/a	n/a	434.341	n/a
381.376	0.497	neutral	Picture	60.843	n/a	4	11	4	n/a	84	12	1	n/a	n/a	n/a	n/a	434.872	AF21NES.jpg
381.873	0.514	Blank	Blank	60.329	n/a	4	11	4	n/a	84	n/a	1	n/a	n/a	n/a	n/a	435.369	n/a
382.404	0.497	neutral	Picture	59.816	n/a	4	11	5	n/a	85	13	1	n/a	n/a	n/a	n/a	435.899	BF22NES.jpg
382.901	0.514	Blank	Blank	59.302	n/a	4	11	5	n/a	85	n/a	1	n/a	n/a	n/a	n/a	436.397	n/a
383.431	0.497	neutral	Picture	58.788	n/a	4	11	6	n/a	86	17	1	n/a	n/a	n/a	n/a	436.927	BF28NES.jpg
383.929	0.514	Blank	Blank	58.274	n/a	4	11	6	n/a	86	n/a	1	n/a	n/a	n/a	n/a	437.425	n/a
384.459	0.497	neutral	Picture	57.76	n/a	4	11	7	n/a	87	4	1	n/a	n/a	n/a	n/a	437.955	AF05NES.jpg
384.957	0.514	Blank	Blank	57.246	n/a	4	11	7	n/a	87	n/a	1	n/a	n/a	n/a	n/a	438.453	n/a
385.487	0.497	neutral	Picture	56.732	n/a	4	11	8	n/a	88	11	1	n/a	n/a	n/a	n/a	438.983	AF20NES.jpg
385.985	0.514	Blank	Blank	56.218	n/a	4	11	8	n/a	88	n/a	1	n/a	n/a	n/a	n/a	439.481	n/a
386.515	0.497	neutral	Picture	55.704	n/a	4	11	9	n/a	89	22	1	n/a	n/a	n/a	n/a	440.011	BM03NES.jpg
387.012	0.514	Blank	Blank	55.19	n/a	4	11	9	n/a	89	n/a	1	n/a	n/a	n/a	n/a	440.508	n/a
387.543	0.497	neutral	Picture	54.676	n/a	4	11	10	n/a	90	15	1	n/a	n/a	n/a	n/a	441.039	AF25NES.jpg
388.04	0.514	Blank	Blank	54.162	n/a	4	11	10	n/a	90	n/a	1	n/a	n/a	n/a	n/a	441.536	n/a
388.571	0.497	neutral	Picture	53.648	n/a	4	11	11	n/a	91	19	1	n/a	n/a	n/a	n/a	442.067	AF31NES.jpg
389.068	0.514	Blank	Blank	53.134	n/a	4	11	11	n/a	91	n/a	1	n/a	n/a	n/a	n/a	442.564	n/a
389.599	0.497	neutral	Picture	52.62	n/a	4	11	12	n/a	92	9	1	n/a	n/a	n/a	n/a	443.095	AF17NES.jpg
390.096	0.514	Blank	Blank	52.106	n/a	4	11	12	n/a	92	n/a	1	n/a	n/a	n/a	n/a	443.592	n/a
390.627	0.497	neutral	Picture	51.592	n/a	4	11	13	n/a	93	14	1	n/a	n/a	n/a	n/a	444.123	AF23NES.jpg
391.124	0.514	Blank	Blank	51.079	n/a	4	11	13	n/a	93	n/a	1	n/a	n/a	n/a	n/a	444.62	n/a
391.654	0.497	neutral	Picture	50.565	n/a	4	11	14	n/a	94	36	1	n/a	n/a	n/a	n/a	445.15	BM24NES.jpg
392.152	0.514	Blank	Blank	50.051	n/a	4	11	14	n/a	94	n/a	1	n/a	n/a	n/a	n/a	445.648	n/a
392.682	0.497	neutral	Picture	49.537	n/a	4	11	15	n/a	95	34	1	n/a	n/a	n/a	n/a	446.178	AM22NES.jpg
393.18	0.514	Blank	Blank	49.023	n/a	4	11	15	n/a	95	n/a	1	n/a	n/a	n/a	n/a	446.676	n/a
393.71	0.497	neutral	Picture	48.509	n/a	4	11	16	n/a	96	10	1	n/a	n/a	n/a	n/a	447.206	AF18NES.jpg
394.208	0.514	Blank	Blank	47.995	n/a	4	11	16	n/a	96	n/a	1	n/a	n/a	n/a	n/a	447.704	n/a
394.738	0.497	neutral	Picture	47.481	n/a	4	11	17	n/a	97	5	1	n/a	n/a	n/a	n/a	448.234	BF07NES.jpg
395.236	0.514	Blank	Blank	46.967	n/a	4	11	17	n/a	97	n/a	1	n/a	n/a	n/a	n/a	448.731	n/a
395.766	0.497	neutral	Picture	46.453	n/a	4	11	18	n/a	98	25	1	n/a	n/a	n/a	n/a	449.262	BM06NES.jpg
396.263	0.514	Blank	Blank	45.939	n/a	4	11	18	n/a	98	n/a	1	n/a	n/a	n/a	n/a	449.759	n/a
396.794	0.497	neutral	Picture	45.425	n/a	4	11	19	n/a	99	39	1	n/a	n/a	n/a	n/a	450.29	AM28NES.jpg
397.291	0.514	Blank	Blank	44.911	n/a	4	11	19	n/a	99	n/a	1	n/a	n/a	n/a	n/a	450.787	n/a
397.822	0.497	neutral	Picture	44.397	n/a	4	11	20	n/a	100	33	1	n/a	n/a	n/a	n/a	451.318	AM21NES.jpg
398.319	0.514	Blank	Blank	43.883	n/a	4	11	20	n/a	100	n/a	1	n/a	n/a	n/a	n/a	451.815	n/a
398.85	10.014	ITI	Fixation+	33.853	n/a	4	n/a	n/a	n/a	n/a	n/a	n/a	n/a	n/a	n/a	n/a	452.346	n/a
408.88	0.497	happy	Picture	33.339	n/a	4	12	1	n/a	101	74	2	n/a	n/a	n/a	n/a	462.376	AM22HAS.jpg
409.377	0.514	Blank	Blank	32.825	n/a	4	12	1	n/a	101	n/a	2	n/a	n/a	n/a	n/a	462.873	n/a
409.908	0.497	happy	Picture	32.311	n/a	4	12	2	n/a	102	76	2	n/a	n/a	n/a	n/a	463.404	BM24HAS.jpg
410.405	0.514	Blank	Blank	31.798	n/a	4	12	2	n/a	102	n/a	2	n/a	n/a	n/a	n/a	463.901	n/a
410.936	0.497	happy	Picture	31.283	n/a	4	12	3	n/a	103	80	2	n/a	n/a	n/a	n/a	464.432	BM35HAS.jpg
411.433	0.514	Blank	Blank	30.77	n/a	4	12	3	n/a	103	n/a	2	n/a	n/a	n/a	n/a	464.929	n/a
411.964	0.497	happy	Picture	30.256	n/a	4	12	4	n/a	104	75	2	n/a	n/a	n/a	n/a	465.459	AM23HAS.jpg
412.461	0.514	Blank	Blank	29.742	n/a	4	12	4	n/a	104	n/a	2	n/a	n/a	n/a	n/a	465.957	n/a
412.991	0.497	happy	Picture	29.228	n/a	4	12	5	n/a	105	49	2	n/a	n/a	n/a	n/a	466.487	AF17HAS.jpg
413.489	0.514	Blank	Blank	28.714	n/a	4	12	5	n/a	105	n/a	2	n/a	n/a	n/a	n/a	466.985	n/a
414.019	0.497	happy	Picture	28.2	n/a	4	12	6	n/a	106	43	2	n/a	n/a	n/a	n/a	467.515	BF04HAS.jpg
414.517	0.514	Blank	Blank	27.686	n/a	4	12	6	n/a	106	n/a	2	n/a	n/a	n/a	n/a	468.012	n/a
415.047	0.497	happy	Picture	27.172	n/a	4	12	7	n/a	107	70	2	n/a	n/a	n/a	n/a	468.543	BM11HAS.jpg
415.544	0.514	Blank	Blank	26.658	n/a	4	12	7	n/a	107	n/a	2	n/a	n/a	n/a	n/a	469.04	n/a
416.075	0.497	happy	Picture	26.144	n/a	4	12	8	n/a	108	66	2	n/a	n/a	n/a	n/a	469.571	BM07HAS.jpg
416.572	0.514	Blank	Blank	25.63	n/a	4	12	8	n/a	108	n/a	2	n/a	n/a	n/a	n/a	470.068	n/a
417.103	0.497	happy	Picture	25.116	n/a	4	12	9	n/a	109	48	2	n/a	n/a	n/a	n/a	470.599	AF14HAS.jpg
417.6	0.514	Blank	Blank	24.602	n/a	4	12	9	n/a	109	n/a	2	n/a	n/a	n/a	n/a	471.096	n/a
418.131	0.497	happy	Picture	24.088	n/a	4	12	10	n/a	110	58	2	n/a	n/a	n/a	n/a	471.627	BF29HAS.jpg
418.628	0.514	Blank	Blank	23.574	n/a	4	12	10	n/a	110	n/a	2	n/a	n/a	n/a	n/a	472.124	n/a
419.159	0.497	happy	Picture	23.06	n/a	4	12	11	n/a	111	63	2	n/a	n/a	n/a	n/a	472.654	AM04HAS.jpg
419.656	0.514	Blank	Blank	22.547	n/a	4	12	11	n/a	111	n/a	2	n/a	n/a	n/a	n/a	473.152	n/a
420.186	0.497	happy	Picture	22.033	n/a	4	12	12	n/a	112	72	2	n/a	n/a	n/a	n/a	473.682	AM14HAS.jpg
420.684	0.514	Blank	Blank	21.519	n/a	4	12	12	n/a	112	n/a	2	n/a	n/a	n/a	n/a	474.18	n/a
421.214	0.497	happy	Picture	21.005	n/a	4	12	13	n/a	113	55	2	n/a	n/a	n/a	n/a	474.71	AF25HAS.jpg
421.712	0.514	Blank	Blank	20.491	n/a	4	12	13	n/a	113	n/a	2	n/a	n/a	n/a	n/a	475.208	n/a
422.242	0.497	happy	Picture	19.977	n/a	4	12	14	n/a	114	42	2	n/a	n/a	n/a	n/a	475.738	AF03HAS.jpg
422.74	0.514	Blank	Blank	19.463	n/a	4	12	14	n/a	114	n/a	2	n/a	n/a	n/a	n/a	476.236	n/a
423.27	0.497	happy	Picture	18.949	n/a	4	12	15	n/a	115	60	2	n/a	n/a	n/a	n/a	476.766	AF32HAS.jpg
423.767	0.514	Blank	Blank	18.435	n/a	4	12	15	n/a	115	n/a	2	n/a	n/a	n/a	n/a	477.263	n/a
424.298	0.497	happy	Picture	17.921	n/a	4	12	16	n/a	116	67	2	n/a	n/a	n/a	n/a	477.794	BM08HAS.jpg
424.795	0.514	Blank	Blank	17.407	n/a	4	12	16	n/a	116	n/a	2	n/a	n/a	n/a	n/a	478.291	n/a
425.326	0.497	happy	Picture	16.893	n/a	4	12	17	n/a	117	51	2	n/a	n/a	n/a	n/a	478.822	AF20HAS.jpg
425.823	0.514	Blank	Blank	16.379	n/a	4	12	17	n/a	117	n/a	2	n/a	n/a	n/a	n/a	479.319	n/a
426.354	0.497	happy	Picture	15.865	n/a	4	12	18	n/a	118	71	2	n/a	n/a	n/a	n/a	479.85	BM12HAS.jpg
426.851	0.514	Blank	Blank	15.351	n/a	4	12	18	n/a	118	n/a	2	n/a	n/a	n/a	n/a	480.347	n/a
427.382	0.497	happy	Picture	14.837	n/a	4	12	19	n/a	119	69	2	n/a	n/a	n/a	n/a	480.878	AM10HAS.jpg
427.879	0.514	Blank	Blank	14.324	n/a	4	12	19	n/a	119	n/a	2	n/a	n/a	n/a	n/a	481.375	n/a
428.41	0.497	happy	Picture	13.81	n/a	4	12	20	n/a	120	46	2	n/a	n/a	n/a	n/a	481.906	AF09HAS.jpg
428.907	0.514	Blank	Blank	13.296	n/a	4	12	20	n/a	120	n/a	2	n/a	n/a	n/a	n/a	482.403	n/a
429.438	10.014	ITI	Fixation+	3.265	n/a	4	n/a	n/a	n/a	n/a	n/a	n/a	n/a	n/a	n/a	n/a	482.933	n/a
442.716	n/a	ConfirmRating	Rate	n/a	3.249	4	n/a	n/a	0	n/a	n/a	n/a	2	Happy	11	45	496.212	n/a
444.745	n/a	ConfirmRating	Rate	n/a	2.023	4	n/a	n/a	1	n/a	n/a	n/a	3	Happy	0	47	498.24	n/a
