onset	duration	trial_type	event_type	trial_number	condition	picture_number	time_until_response	response_time	unpleasantness_rating	onset_uncorrected
0.018	5.985	ITI	Fixation+	0	No_Pain	n/a	8.694	n/a	n/a	29.289
6.019	3.498	Pic2	Picture	0	No_Pain	24	5.18	n/a	n/a	35.291
9.518	2.006	Blank	Blank	0	No_Pain	n/a	3.174	n/a	n/a	38.789
14.697	n/a	ConfirmRating	Rate	0	No_Pain	24	n/a	2.657	0	43.969
14.723	4.609	ITI	Fixation+	1	No_Pain	n/a	7.674	n/a	n/a	43.995
19.349	3.498	Pic2	Picture	1	No_Pain	25	4.159	n/a	n/a	48.62
22.847	2.006	Blank	Blank	1	No_Pain	n/a	2.153	n/a	n/a	52.118
27.006	n/a	ConfirmRating	Rate	1	No_Pain	25	n/a	1.636	0	56.278
27.025	5.537	ITI	Fixation+	2	Pain	n/a	6.706	n/a	n/a	56.296
32.579	3.498	Pic2	Picture	2	Pain	19	3.191	n/a	n/a	61.85
36.077	2.006	Blank	Blank	2	Pain	n/a	1.185	n/a	n/a	65.348
39.268	n/a	ConfirmRating	Rate	2	Pain	19	n/a	0.668	0	68.54
39.293	5.703	ITI	Fixation+	3	No_Pain	n/a	7.85	n/a	n/a	68.565
45.013	3.498	Pic2	Picture	3	No_Pain	37	4.335	n/a	n/a	74.284
48.511	2.006	Blank	Blank	3	No_Pain	n/a	2.329	n/a	n/a	77.782
52.846	n/a	ConfirmRating	Rate	3	No_Pain	37	n/a	1.812	0	82.118
52.871	5.902	ITI	Fixation+	4	Pain	n/a	6.729	n/a	n/a	82.143
58.79	3.498	Pic2	Picture	4	Pain	2	3.214	n/a	n/a	88.061
62.288	2.006	Blank	Blank	4	Pain	n/a	1.208	n/a	n/a	91.559
65.502	n/a	ConfirmRating	Rate	4	Pain	2	n/a	0.691	0	94.773
65.521	4.576	ITI	Fixation+	5	No_Pain	n/a	8.161	n/a	n/a	94.792
70.113	3.498	Pic2	Picture	5	No_Pain	26	4.646	n/a	n/a	99.385
73.611	2.006	Blank	Blank	5	No_Pain	n/a	2.64	n/a	n/a	102.883
78.258	n/a	ConfirmRating	Rate	5	No_Pain	26	n/a	2.124	0	107.529
78.287	4.625	ITI	Fixation+	6	Pain	n/a	6.471	n/a	n/a	107.558
82.929	3.498	Pic2	Picture	6	Pain	12	2.956	n/a	n/a	112.2
86.427	2.006	Blank	Blank	6	Pain	n/a	0.95	n/a	n/a	115.698
89.383	n/a	ConfirmRating	Rate	6	Pain	12	n/a	0.434	0	118.654
89.411	5.255	ITI	Fixation+	7	Pain	n/a	6.382	n/a	n/a	118.683
94.683	3.498	Pic2	Picture	7	Pain	3	2.867	n/a	n/a	123.955
98.181	2.006	Blank	Blank	7	Pain	n/a	0.861	n/a	n/a	127.453
101.048	n/a	ConfirmRating	Rate	7	Pain	3	n/a	0.345	0	130.32
101.066	5.819	ITI	Fixation+	8	No_Pain	n/a	7.707	n/a	n/a	130.337
106.902	3.498	Pic2	Picture	8	No_Pain	30	4.193	n/a	n/a	136.173
110.4	2.006	Blank	Blank	8	No_Pain	n/a	2.187	n/a	n/a	139.671
114.592	n/a	ConfirmRating	Rate	8	No_Pain	30	n/a	1.67	0	143.864
114.611	5.886	ITI	Fixation+	9	Pain	n/a	7.754	n/a	n/a	143.882
120.513	3.498	Pic2	Picture	9	Pain	4	4.239	n/a	n/a	149.784
124.011	2.006	Blank	Blank	9	Pain	n/a	2.233	n/a	n/a	153.282
128.25	n/a	ConfirmRating	Rate	9	Pain	4	n/a	1.716	0	157.522
128.272	5.322	ITI	Fixation+	10	No_Pain	n/a	8.586	n/a	n/a	157.543
133.61	3.498	Pic2	Picture	10	No_Pain	28	5.071	n/a	n/a	162.882
137.108	2.006	Blank	Blank	10	No_Pain	n/a	3.065	n/a	n/a	166.38
142.179	n/a	ConfirmRating	Rate	10	No_Pain	28	n/a	2.548	0	171.451
142.198	4.742	ITI	Fixation+	11	Pain	n/a	7.727	n/a	n/a	171.47
146.956	3.498	Pic2	Picture	11	Pain	13	4.213	n/a	n/a	176.228
150.454	2.006	Blank	Blank	11	Pain	n/a	2.207	n/a	n/a	179.726
154.667	n/a	ConfirmRating	Rate	11	Pain	13	n/a	1.69	0	183.939
154.698	4.725	ITI	Fixation+	12	No_Pain	n/a	8.714	n/a	n/a	183.97
159.44	3.498	Pic2	Picture	12	No_Pain	32	5.2	n/a	n/a	188.711
162.938	2.006	Blank	Blank	12	No_Pain	n/a	3.194	n/a	n/a	192.21
168.138	n/a	ConfirmRating	Rate	12	No_Pain	32	n/a	2.677	0	197.409
168.16	4.36	ITI	Fixation+	13	Pain	n/a	7.38	n/a	n/a	197.432
172.537	3.498	Pic2	Picture	13	Pain	5	3.865	n/a	n/a	201.809
176.035	2.006	Blank	Blank	13	Pain	n/a	1.859	n/a	n/a	205.307
179.901	n/a	ConfirmRating	Rate	13	Pain	5	n/a	1.343	0	209.172
179.931	5.67	ITI	Fixation+	14	No_Pain	n/a	6.546	n/a	n/a	209.203
185.618	3.498	Pic2	Picture	14	No_Pain	21	3.032	n/a	n/a	214.889
189.116	2.006	Blank	Blank	14	No_Pain	n/a	1.025	n/a	n/a	218.387
192.148	n/a	ConfirmRating	Rate	14	No_Pain	21	n/a	0.509	0	221.419
192.167	5.554	ITI	Fixation+	15	No_Pain	n/a	7.453	n/a	n/a	221.438
197.737	3.498	Pic2	Picture	15	No_Pain	38	3.938	n/a	n/a	227.008
201.235	2.006	Blank	Blank	15	No_Pain	n/a	1.932	n/a	n/a	230.507
205.173	n/a	ConfirmRating	Rate	15	No_Pain	38	n/a	1.416	0	234.445
205.197	5.952	ITI	Fixation+	16	Pain	n/a	7.255	n/a	n/a	234.469
211.166	3.498	Pic2	Picture	16	Pain	16	3.74	n/a	n/a	240.437
214.664	2.006	Blank	Blank	16	Pain	n/a	1.734	n/a	n/a	243.935
218.404	n/a	ConfirmRating	Rate	16	Pain	16	n/a	1.217	1	247.676
218.427	5.836	ITI	Fixation+	17	No_Pain	n/a	7.283	n/a	n/a	247.699
224.28	3.498	Pic2	Picture	17	No_Pain	22	3.768	n/a	n/a	253.551
227.778	2.006	Blank	Blank	17	No_Pain	n/a	1.762	n/a	n/a	257.049
231.546	n/a	ConfirmRating	Rate	17	No_Pain	22	n/a	1.256	0	260.818
231.574	5.239	ITI	Fixation+	18	Pain	n/a	7.819	n/a	n/a	260.846
236.83	3.498	Pic2	Picture	18	Pain	8	4.304	n/a	n/a	266.101
240.328	2.006	Blank	Blank	18	Pain	n/a	2.298	n/a	n/a	269.599
244.632	n/a	ConfirmRating	Rate	18	Pain	8	n/a	1.781	0	273.904
244.655	5.604	ITI	Fixation+	19	Pain	n/a	6.689	n/a	n/a	273.927
250.275	3.498	Pic2	Picture	19	Pain	1	3.174	n/a	n/a	279.547
253.774	2.006	Blank	Blank	19	Pain	n/a	1.168	n/a	n/a	283.045
256.948	n/a	ConfirmRating	Rate	19	Pain	1	n/a	0.652	0	286.219
256.973	15.004	Rest	n/a	19	n/a	n/a	-15.029	n/a	n/a	286.245
271.994	5.554	ITI	Fixation+	20	No_Pain	n/a	6.898	n/a	n/a	301.265
277.562	3.501	Pic2	Picture	20	No_Pain	23	3.383	n/a	n/a	306.833
281.062	2.006	Blank	Blank	20	No_Pain	n/a	1.377	n/a	n/a	310.334
284.446	n/a	ConfirmRating	Rate	20	No_Pain	23	n/a	0.861	0	313.717
284.478	5.537	ITI	Fixation+	21	Pain	n/a	7.574	n/a	n/a	313.749
290.031	3.498	Pic2	Picture	21	Pain	10	4.059	n/a	n/a	319.303
293.529	2.006	Blank	Blank	21	Pain	n/a	2.053	n/a	n/a	322.801
297.589	n/a	ConfirmRating	Rate	21	Pain	10	n/a	1.537	0	326.86
297.608	5.156	ITI	Fixation+	22	No_Pain	n/a	6.653	n/a	n/a	326.879
302.781	3.498	Pic2	Picture	22	No_Pain	36	3.139	n/a	n/a	332.052
306.279	2.006	Blank	Blank	22	No_Pain	n/a	1.133	n/a	n/a	335.55
309.417	n/a	ConfirmRating	Rate	22	No_Pain	36	n/a	0.616	0	338.689
309.445	4.41	ITI	Fixation+	23	Pain	n/a	7.424	n/a	n/a	338.717
313.872	3.498	Pic2	Picture	23	Pain	11	3.909	n/a	n/a	343.143
317.37	2.006	Blank	Blank	23	Pain	n/a	1.903	n/a	n/a	346.641
321.279	n/a	ConfirmRating	Rate	23	Pain	11	n/a	1.386	0	350.551
321.299	4.592	ITI	Fixation+	24	Pain	n/a	6.474	n/a	n/a	350.57
325.908	3.498	Pic2	Picture	24	Pain	17	2.959	n/a	n/a	355.18
329.406	2.006	Blank	Blank	24	Pain	n/a	0.953	n/a	n/a	358.678
332.365	n/a	ConfirmRating	Rate	24	Pain	17	n/a	0.436	0	361.637
332.39	5.438	ITI	Fixation+	25	No_Pain	n/a	7.143	n/a	n/a	361.662
337.845	3.498	Pic2	Picture	25	No_Pain	31	3.628	n/a	n/a	367.116
341.343	2.006	Blank	Blank	25	No_Pain	n/a	1.622	n/a	n/a	370.614
344.971	n/a	ConfirmRating	Rate	25	No_Pain	31	n/a	1.105	0	374.243
344.99	5.554	ITI	Fixation+	26	Pain	n/a	7.507	n/a	n/a	374.262
350.56	3.499	Pic2	Picture	26	Pain	18	3.992	n/a	n/a	379.831
354.059	2.006	Blank	Blank	26	Pain	n/a	1.986	n/a	n/a	383.33
358.051	n/a	ConfirmRating	Rate	26	Pain	18	n/a	1.47	0	387.322
358.071	4.095	ITI	Fixation+	27	No_Pain	n/a	7.136	n/a	n/a	387.342
362.182	3.498	Pic2	Picture	27	No_Pain	33	3.621	n/a	n/a	391.454
365.681	2.006	Blank	Blank	27	No_Pain	n/a	1.615	n/a	n/a	394.952
369.302	n/a	ConfirmRating	Rate	27	No_Pain	33	n/a	1.099	0	398.573
369.328	4.775	ITI	Fixation+	28	No_Pain	n/a	7.466	n/a	n/a	398.599
374.119	3.498	Pic2	Picture	28	No_Pain	40	3.951	n/a	n/a	403.391
377.617	2.006	Blank	Blank	28	No_Pain	n/a	1.945	n/a	n/a	406.889
381.569	n/a	ConfirmRating	Rate	28	No_Pain	40	n/a	1.429	0	410.84
381.596	5.073	ITI	Fixation+	29	Pain	n/a	7.001	n/a	n/a	410.868
386.686	3.498	Pic2	Picture	29	Pain	20	3.486	n/a	n/a	415.957
390.184	2.006	Blank	Blank	29	Pain	n/a	1.48	n/a	n/a	419.456
393.67	n/a	ConfirmRating	Rate	29	Pain	20	n/a	0.963	0	422.942
393.699	5.836	ITI	Fixation+	30	No_Pain	n/a	7.306	n/a	n/a	422.97
399.551	3.498	Pic2	Picture	30	No_Pain	27	3.791	n/a	n/a	428.823
403.049	2.006	Blank	Blank	30	No_Pain	n/a	1.785	n/a	n/a	432.321
406.84	n/a	ConfirmRating	Rate	30	No_Pain	27	n/a	1.268	0	436.112
406.862	5.289	ITI	Fixation+	31	Pain	n/a	6.433	n/a	n/a	436.134
412.168	3.498	Pic2	Picture	31	Pain	14	2.918	n/a	n/a	441.439
415.666	2.006	Blank	Blank	31	Pain	n/a	0.912	n/a	n/a	444.937
418.584	n/a	ConfirmRating	Rate	31	Pain	14	n/a	0.396	0	447.856
418.617	5.537	ITI	Fixation+	32	Pain	n/a	6.874	n/a	n/a	447.888
424.171	3.498	Pic2	Picture	32	Pain	9	3.359	n/a	n/a	453.442
427.669	2.006	Blank	Blank	32	Pain	n/a	1.353	n/a	n/a	456.94
431.028	n/a	ConfirmRating	Rate	32	Pain	9	n/a	0.837	0	460.3
431.051	5.289	ITI	Fixation+	33	No_Pain	n/a	6.802	n/a	n/a	460.322
436.356	3.498	Pic2	Picture	33	No_Pain	39	3.288	n/a	n/a	465.628
439.854	2.006	Blank	Blank	33	No_Pain	n/a	1.282	n/a	n/a	469.126
443.142	n/a	ConfirmRating	Rate	33	No_Pain	39	n/a	0.765	0	472.413
443.17	4.891	ITI	Fixation+	34	No_Pain	n/a	6.522	n/a	n/a	472.442
448.077	3.498	Pic2	Picture	34	No_Pain	29	3.007	n/a	n/a	477.349
451.575	2.006	Blank	Blank	34	No_Pain	n/a	1.001	n/a	n/a	480.847
454.583	n/a	ConfirmRating	Rate	34	No_Pain	29	n/a	0.485	0	483.854
454.609	5.405	ITI	Fixation+	35	Pain	n/a	8.904	n/a	n/a	483.881
460.031	3.498	Pic2	Picture	35	Pain	6	5.39	n/a	n/a	489.302
463.529	2.006	Blank	Blank	35	Pain	n/a	3.384	n/a	n/a	492.8
468.919	n/a	ConfirmRating	Rate	35	Pain	6	n/a	2.868	0	498.19
468.95	4.675	ITI	Fixation+	36	No_Pain	n/a	7.55	n/a	n/a	498.222
473.642	3.498	Pic2	Picture	36	No_Pain	35	4.036	n/a	n/a	502.913
477.14	2.006	Blank	Blank	36	No_Pain	n/a	2.03	n/a	n/a	506.411
481.176	n/a	ConfirmRating	Rate	36	No_Pain	35	n/a	1.513	0	510.447
481.202	4.095	ITI	Fixation+	37	No_Pain	n/a	8.15	n/a	n/a	510.473
485.313	3.498	Pic2	Picture	37	No_Pain	34	4.635	n/a	n/a	514.585
488.811	2.006	Blank	Blank	37	No_Pain	n/a	2.629	n/a	n/a	518.083
493.446	n/a	ConfirmRating	Rate	37	No_Pain	34	n/a	2.112	0	522.718
493.47	4.907	ITI	Fixation+	38	Pain	n/a	7.507	n/a	n/a	522.742
498.394	3.498	Pic2	Picture	38	Pain	15	3.992	n/a	n/a	527.666
501.892	2.006	Blank	Blank	38	Pain	n/a	1.986	n/a	n/a	531.164
505.884	n/a	ConfirmRating	Rate	38	Pain	15	n/a	1.469	0	535.156
505.904	4.228	ITI	Fixation+	39	Pain	n/a	7.241	n/a	n/a	535.176
510.148	3.498	Pic2	Picture	39	Pain	7	3.727	n/a	n/a	539.42
513.647	2.006	Blank	Blank	39	Pain	n/a	1.721	n/a	n/a	542.918
517.373	n/a	ConfirmRating	Rate	39	Pain	7	n/a	1.204	0	546.645
