onset	duration	trial_type	event_type	time_until_response	response_time	trial_number	block_num_within_trial	image_seq_num_within_block	question_seq_num_within_block	image_seq_num	picture_number	condition	question_type	block_type	rating	rating_computed	onset_uncorrected	KDEV_imagefile
0.003	10.014	ITI	Fixation+	103.505	n/a	1	n/a	n/a	n/a	n/a	n/a	n/a	n/a	n/a	n/a	n/a	31.146	n/a
10.033	0.497	angry	Picture	102.991	n/a	1	1	1	n/a	1	46	2	n/a	n/a	n/a	n/a	41.176	AF09HAS.jpg
10.53	0.514	Blank	Blank	102.477	n/a	1	1	1	n/a	1	n/a	2	n/a	n/a	n/a	n/a	41.674	n/a
11.061	0.497	angry	Picture	101.963	n/a	1	1	2	n/a	2	69	2	n/a	n/a	n/a	n/a	42.204	AM10HAS.jpg
11.558	0.514	Blank	Blank	101.449	n/a	1	1	2	n/a	2	n/a	2	n/a	n/a	n/a	n/a	42.702	n/a
12.089	0.497	angry	Picture	100.935	n/a	1	1	3	n/a	3	71	2	n/a	n/a	n/a	n/a	43.232	BM12HAS.jpg
12.586	0.514	Blank	Blank	100.421	n/a	1	1	3	n/a	3	n/a	2	n/a	n/a	n/a	n/a	43.729	n/a
13.117	0.497	angry	Picture	99.907	n/a	1	1	4	n/a	4	51	2	n/a	n/a	n/a	n/a	44.26	AF20HAS.jpg
13.614	0.514	Blank	Blank	99.393	n/a	1	1	4	n/a	4	n/a	2	n/a	n/a	n/a	n/a	44.757	n/a
14.144	0.497	angry	Picture	98.879	n/a	1	1	5	n/a	5	67	2	n/a	n/a	n/a	n/a	45.288	BM08HAS.jpg
14.642	0.514	Blank	Blank	98.365	n/a	1	1	5	n/a	5	n/a	2	n/a	n/a	n/a	n/a	45.785	n/a
15.172	0.497	angry	Picture	97.852	n/a	1	1	6	n/a	6	60	2	n/a	n/a	n/a	n/a	46.316	AF32HAS.jpg
15.67	0.514	Blank	Blank	97.338	n/a	1	1	6	n/a	6	n/a	2	n/a	n/a	n/a	n/a	46.813	n/a
16.2	0.497	angry	Picture	96.824	n/a	1	1	7	n/a	7	42	2	n/a	n/a	n/a	n/a	47.343	AF03HAS.jpg
16.698	0.514	Blank	Blank	96.31	n/a	1	1	7	n/a	7	n/a	2	n/a	n/a	n/a	n/a	47.841	n/a
17.228	0.497	angry	Picture	95.796	n/a	1	1	8	n/a	8	55	2	n/a	n/a	n/a	n/a	48.371	AF25HAS.jpg
17.726	0.514	Blank	Blank	95.282	n/a	1	1	8	n/a	8	n/a	2	n/a	n/a	n/a	n/a	48.869	n/a
18.256	0.497	angry	Picture	94.768	n/a	1	1	9	n/a	9	72	2	n/a	n/a	n/a	n/a	49.399	AM14HAS.jpg
18.753	0.514	Blank	Blank	94.254	n/a	1	1	9	n/a	9	n/a	2	n/a	n/a	n/a	n/a	49.897	n/a
19.284	0.497	angry	Picture	93.74	n/a	1	1	10	n/a	10	63	2	n/a	n/a	n/a	n/a	50.427	AM04HAS.jpg
19.781	0.514	Blank	Blank	93.226	n/a	1	1	10	n/a	10	n/a	2	n/a	n/a	n/a	n/a	50.925	n/a
20.312	0.497	angry	Picture	92.712	n/a	1	1	11	n/a	11	58	2	n/a	n/a	n/a	n/a	51.455	BF29HAS.jpg
20.809	0.514	Blank	Blank	92.198	n/a	1	1	11	n/a	11	n/a	2	n/a	n/a	n/a	n/a	51.952	n/a
21.34	0.497	angry	Picture	91.684	n/a	1	1	12	n/a	12	48	2	n/a	n/a	n/a	n/a	52.483	AF14HAS.jpg
21.837	0.514	Blank	Blank	91.17	n/a	1	1	12	n/a	12	n/a	2	n/a	n/a	n/a	n/a	52.98	n/a
22.368	0.497	angry	Picture	90.656	n/a	1	1	13	n/a	13	66	2	n/a	n/a	n/a	n/a	53.511	BM07HAS.jpg
22.865	0.514	Blank	Blank	90.142	n/a	1	1	13	n/a	13	n/a	2	n/a	n/a	n/a	n/a	54.008	n/a
23.395	0.497	angry	Picture	89.628	n/a	1	1	14	n/a	14	70	2	n/a	n/a	n/a	n/a	54.539	BM11HAS.jpg
23.893	0.514	Blank	Blank	89.115	n/a	1	1	14	n/a	14	n/a	2	n/a	n/a	n/a	n/a	55.036	n/a
24.423	0.497	angry	Picture	88.601	n/a	1	1	15	n/a	15	43	2	n/a	n/a	n/a	n/a	55.567	BF04HAS.jpg
24.921	0.514	Blank	Blank	88.087	n/a	1	1	15	n/a	15	n/a	2	n/a	n/a	n/a	n/a	56.064	n/a
25.451	0.497	angry	Picture	87.573	n/a	1	1	16	n/a	16	49	2	n/a	n/a	n/a	n/a	56.594	AF17HAS.jpg
25.948	0.514	Blank	Blank	87.059	n/a	1	1	16	n/a	16	n/a	2	n/a	n/a	n/a	n/a	57.092	n/a
26.479	0.497	angry	Picture	86.545	n/a	1	1	17	n/a	17	75	2	n/a	n/a	n/a	n/a	57.622	AM23HAS.jpg
26.976	0.514	Blank	Blank	86.031	n/a	1	1	17	n/a	17	n/a	2	n/a	n/a	n/a	n/a	58.12	n/a
27.507	0.497	angry	Picture	85.517	n/a	1	1	18	n/a	18	80	2	n/a	n/a	n/a	n/a	58.65	BM35HAS.jpg
28.004	0.514	Blank	Blank	85.003	n/a	1	1	18	n/a	18	n/a	2	n/a	n/a	n/a	n/a	59.148	n/a
28.535	0.497	angry	Picture	84.489	n/a	1	1	19	n/a	19	76	2	n/a	n/a	n/a	n/a	59.678	BM24HAS.jpg
29.032	0.514	Blank	Blank	83.975	n/a	1	1	19	n/a	19	n/a	2	n/a	n/a	n/a	n/a	60.175	n/a
29.563	0.497	angry	Picture	83.461	n/a	1	1	20	n/a	20	74	2	n/a	n/a	n/a	n/a	60.706	AM22HAS.jpg
30.06	0.514	Blank	Blank	82.947	n/a	1	1	20	n/a	20	n/a	2	n/a	n/a	n/a	n/a	61.203	n/a
30.591	10.014	ITI	Fixation+	72.917	n/a	1	n/a	n/a	n/a	n/a	n/a	n/a	n/a	n/a	n/a	n/a	61.734	n/a
40.621	0.497	neutral	Picture	72.403	n/a	1	2	1	n/a	21	33	1	n/a	n/a	n/a	n/a	71.764	AM21NES.jpg
41.118	0.514	Blank	Blank	71.889	n/a	1	2	1	n/a	21	n/a	1	n/a	n/a	n/a	n/a	72.261	n/a
41.649	0.497	neutral	Picture	71.375	n/a	1	2	2	n/a	22	39	1	n/a	n/a	n/a	n/a	72.792	AM28NES.jpg
42.146	0.514	Blank	Blank	70.861	n/a	1	2	2	n/a	22	n/a	1	n/a	n/a	n/a	n/a	73.289	n/a
42.677	0.497	neutral	Picture	70.347	n/a	1	2	3	n/a	23	25	1	n/a	n/a	n/a	n/a	73.82	BM06NES.jpg
43.174	0.514	Blank	Blank	69.833	n/a	1	2	3	n/a	23	n/a	1	n/a	n/a	n/a	n/a	74.317	n/a
43.704	0.497	neutral	Picture	69.32	n/a	1	2	4	n/a	24	5	1	n/a	n/a	n/a	n/a	74.848	BF07NES.jpg
44.202	0.514	Blank	Blank	68.805	n/a	1	2	4	n/a	24	n/a	1	n/a	n/a	n/a	n/a	75.345	n/a
44.732	0.497	neutral	Picture	68.292	n/a	1	2	5	n/a	25	10	1	n/a	n/a	n/a	n/a	75.876	AF18NES.jpg
45.23	0.514	Blank	Blank	67.778	n/a	1	2	5	n/a	25	n/a	1	n/a	n/a	n/a	n/a	76.373	n/a
45.76	0.497	neutral	Picture	67.264	n/a	1	2	6	n/a	26	34	1	n/a	n/a	n/a	n/a	76.903	AM22NES.jpg
46.258	0.514	Blank	Blank	66.75	n/a	1	2	6	n/a	26	n/a	1	n/a	n/a	n/a	n/a	77.401	n/a
46.788	0.497	neutral	Picture	66.236	n/a	1	2	7	n/a	27	36	1	n/a	n/a	n/a	n/a	77.931	BM24NES.jpg
47.285	0.514	Blank	Blank	65.722	n/a	1	2	7	n/a	27	n/a	1	n/a	n/a	n/a	n/a	78.429	n/a
47.816	0.497	neutral	Picture	65.208	n/a	1	2	8	n/a	28	14	1	n/a	n/a	n/a	n/a	78.959	AF23NES.jpg
48.313	0.514	Blank	Blank	64.694	n/a	1	2	8	n/a	28	n/a	1	n/a	n/a	n/a	n/a	79.457	n/a
48.844	0.497	neutral	Picture	64.18	n/a	1	2	9	n/a	29	9	1	n/a	n/a	n/a	n/a	79.987	AF17NES.jpg
49.341	0.514	Blank	Blank	63.666	n/a	1	2	9	n/a	29	n/a	1	n/a	n/a	n/a	n/a	80.484	n/a
49.872	0.497	neutral	Picture	63.152	n/a	1	2	10	n/a	30	19	1	n/a	n/a	n/a	n/a	81.015	AF31NES.jpg
50.369	0.514	Blank	Blank	62.638	n/a	1	2	10	n/a	30	n/a	1	n/a	n/a	n/a	n/a	81.512	n/a
50.9	0.497	neutral	Picture	62.124	n/a	1	2	11	n/a	31	15	1	n/a	n/a	n/a	n/a	82.043	AF25NES.jpg
51.397	0.514	Blank	Blank	61.61	n/a	1	2	11	n/a	31	n/a	1	n/a	n/a	n/a	n/a	82.54	n/a
51.927	0.497	neutral	Picture	61.096	n/a	1	2	12	n/a	32	22	1	n/a	n/a	n/a	n/a	83.071	BM03NES.jpg
52.425	0.514	Blank	Blank	60.583	n/a	1	2	12	n/a	32	n/a	1	n/a	n/a	n/a	n/a	83.568	n/a
52.955	0.497	neutral	Picture	60.069	n/a	1	2	13	n/a	33	11	1	n/a	n/a	n/a	n/a	84.099	AF20NES.jpg
53.453	0.514	Blank	Blank	59.555	n/a	1	2	13	n/a	33	n/a	1	n/a	n/a	n/a	n/a	84.596	n/a
53.983	0.497	neutral	Picture	59.041	n/a	1	2	14	n/a	34	4	1	n/a	n/a	n/a	n/a	85.126	AF05NES.jpg
54.481	0.514	Blank	Blank	58.527	n/a	1	2	14	n/a	34	n/a	1	n/a	n/a	n/a	n/a	85.624	n/a
55.011	0.497	neutral	Picture	58.013	n/a	1	2	15	n/a	35	17	1	n/a	n/a	n/a	n/a	86.154	BF28NES.jpg
55.508	0.514	Blank	Blank	57.499	n/a	1	2	15	n/a	35	n/a	1	n/a	n/a	n/a	n/a	86.652	n/a
56.039	0.497	neutral	Picture	56.985	n/a	1	2	16	n/a	36	13	1	n/a	n/a	n/a	n/a	87.182	BF22NES.jpg
56.536	0.514	Blank	Blank	56.471	n/a	1	2	16	n/a	36	n/a	1	n/a	n/a	n/a	n/a	87.68	n/a
57.067	0.497	neutral	Picture	55.957	n/a	1	2	17	n/a	37	12	1	n/a	n/a	n/a	n/a	88.21	AF21NES.jpg
57.564	0.514	Blank	Blank	55.443	n/a	1	2	17	n/a	37	n/a	1	n/a	n/a	n/a	n/a	88.707	n/a
58.095	0.497	neutral	Picture	54.929	n/a	1	2	18	n/a	38	24	1	n/a	n/a	n/a	n/a	89.238	BM05NES.jpg
58.592	0.514	Blank	Blank	54.415	n/a	1	2	18	n/a	38	n/a	1	n/a	n/a	n/a	n/a	89.735	n/a
59.123	0.497	neutral	Picture	53.901	n/a	1	2	19	n/a	39	29	1	n/a	n/a	n/a	n/a	90.266	AM10NES.jpg
59.62	0.514	Blank	Blank	53.387	n/a	1	2	19	n/a	39	n/a	1	n/a	n/a	n/a	n/a	90.763	n/a
60.151	0.497	neutral	Picture	52.873	n/a	1	2	20	n/a	40	23	1	n/a	n/a	n/a	n/a	91.294	AM04NES.jpg
60.648	0.514	Blank	Blank	52.359	n/a	1	2	20	n/a	40	n/a	1	n/a	n/a	n/a	n/a	91.791	n/a
61.178	10.014	ITI	Fixation+	42.329	n/a	1	n/a	n/a	n/a	n/a	n/a	n/a	n/a	n/a	n/a	n/a	92.322	n/a
71.209	0.497	angry	Picture	41.815	n/a	1	3	1	n/a	41	62	2	n/a	n/a	n/a	n/a	102.352	BM03HAS.jpg
71.706	0.514	Blank	Blank	41.301	n/a	1	3	1	n/a	41	n/a	2	n/a	n/a	n/a	n/a	102.849	n/a
72.236	0.497	angry	Picture	40.787	n/a	1	3	2	n/a	42	52	2	n/a	n/a	n/a	n/a	103.38	AF21HAS.jpg
72.734	0.514	Blank	Blank	40.273	n/a	1	3	2	n/a	42	n/a	2	n/a	n/a	n/a	n/a	103.877	n/a
73.264	0.497	angry	Picture	39.76	n/a	1	3	3	n/a	43	44	2	n/a	n/a	n/a	n/a	104.408	AF05HAS.jpg
73.762	0.514	Blank	Blank	39.246	n/a	1	3	3	n/a	43	n/a	2	n/a	n/a	n/a	n/a	104.905	n/a
74.292	0.497	angry	Picture	38.732	n/a	1	3	4	n/a	44	53	2	n/a	n/a	n/a	n/a	105.436	BF22HAS.jpg
74.79	0.514	Blank	Blank	38.218	n/a	1	3	4	n/a	44	n/a	2	n/a	n/a	n/a	n/a	105.933	n/a
75.32	0.497	angry	Picture	37.704	n/a	1	3	5	n/a	45	54	2	n/a	n/a	n/a	n/a	106.463	AF23HAS.jpg
75.817	0.514	Blank	Blank	37.19	n/a	1	3	5	n/a	45	n/a	2	n/a	n/a	n/a	n/a	106.961	n/a
76.348	0.497	angry	Picture	36.676	n/a	1	3	6	n/a	46	68	2	n/a	n/a	n/a	n/a	107.491	AM09HAS.jpg
76.845	0.514	Blank	Blank	36.162	n/a	1	3	6	n/a	46	n/a	2	n/a	n/a	n/a	n/a	107.989	n/a
77.376	0.497	angry	Picture	35.648	n/a	1	3	7	n/a	47	64	2	n/a	n/a	n/a	n/a	108.519	BM05HAS.jpg
77.873	0.514	Blank	Blank	35.134	n/a	1	3	7	n/a	47	n/a	2	n/a	n/a	n/a	n/a	109.016	n/a
78.404	0.497	angry	Picture	34.62	n/a	1	3	8	n/a	48	59	2	n/a	n/a	n/a	n/a	109.547	AF31HAS.jpg
78.901	0.514	Blank	Blank	34.106	n/a	1	3	8	n/a	48	n/a	2	n/a	n/a	n/a	n/a	110.044	n/a
79.432	0.497	angry	Picture	33.592	n/a	1	3	9	n/a	49	41	2	n/a	n/a	n/a	n/a	110.575	AF01HAS.jpg
79.929	0.514	Blank	Blank	33.078	n/a	1	3	9	n/a	49	n/a	2	n/a	n/a	n/a	n/a	111.072	n/a
80.46	0.497	angry	Picture	32.564	n/a	1	3	10	n/a	50	73	2	n/a	n/a	n/a	n/a	111.603	AM21HAS.jpg
80.957	0.514	Blank	Blank	32.05	n/a	1	3	10	n/a	50	n/a	2	n/a	n/a	n/a	n/a	112.1	n/a
81.487	0.497	angry	Picture	31.537	n/a	1	3	11	n/a	51	65	2	n/a	n/a	n/a	n/a	112.631	BM06HAS.jpg
81.985	0.514	Blank	Blank	31.023	n/a	1	3	11	n/a	51	n/a	2	n/a	n/a	n/a	n/a	113.128	n/a
82.515	0.497	angry	Picture	30.509	n/a	1	3	12	n/a	52	56	2	n/a	n/a	n/a	n/a	113.659	AF26HAS.jpg
83.013	0.514	Blank	Blank	29.995	n/a	1	3	12	n/a	52	n/a	2	n/a	n/a	n/a	n/a	114.156	n/a
83.543	0.497	angry	Picture	29.481	n/a	1	3	13	n/a	53	45	2	n/a	n/a	n/a	n/a	114.686	BF07HAS.jpg
84.041	0.514	Blank	Blank	28.967	n/a	1	3	13	n/a	53	n/a	2	n/a	n/a	n/a	n/a	115.184	n/a
84.571	0.497	angry	Picture	28.453	n/a	1	3	14	n/a	54	78	2	n/a	n/a	n/a	n/a	115.714	BM26HAS.jpg
85.068	0.514	Blank	Blank	27.939	n/a	1	3	14	n/a	54	n/a	2	n/a	n/a	n/a	n/a	116.212	n/a
85.599	0.497	angry	Picture	27.425	n/a	1	3	15	n/a	55	50	2	n/a	n/a	n/a	n/a	116.742	AF18HAS.jpg
86.096	0.514	Blank	Blank	26.911	n/a	1	3	15	n/a	55	n/a	2	n/a	n/a	n/a	n/a	117.24	n/a
86.627	0.497	angry	Picture	26.397	n/a	1	3	16	n/a	56	47	2	n/a	n/a	n/a	n/a	117.77	BF11HAS.jpg
87.124	0.514	Blank	Blank	25.883	n/a	1	3	16	n/a	56	n/a	2	n/a	n/a	n/a	n/a	118.267	n/a
87.655	0.497	angry	Picture	25.369	n/a	1	3	17	n/a	57	77	2	n/a	n/a	n/a	n/a	118.798	BM25HAS.jpg
88.152	0.514	Blank	Blank	24.855	n/a	1	3	17	n/a	57	n/a	2	n/a	n/a	n/a	n/a	119.295	n/a
88.683	0.497	angry	Picture	24.341	n/a	1	3	18	n/a	58	57	2	n/a	n/a	n/a	n/a	119.826	BF28HAS.jpg
89.18	0.514	Blank	Blank	23.827	n/a	1	3	18	n/a	58	n/a	2	n/a	n/a	n/a	n/a	120.323	n/a
89.71	0.497	angry	Picture	23.313	n/a	1	3	19	n/a	59	61	2	n/a	n/a	n/a	n/a	120.854	AM01HAS.jpg
90.208	0.514	Blank	Blank	22.799	n/a	1	3	19	n/a	59	n/a	2	n/a	n/a	n/a	n/a	121.351	n/a
90.738	0.497	angry	Picture	22.286	n/a	1	3	20	n/a	60	79	2	n/a	n/a	n/a	n/a	121.882	BM28HAS.jpg
91.236	0.514	Blank	Blank	21.772	n/a	1	3	20	n/a	60	n/a	2	n/a	n/a	n/a	n/a	122.379	n/a
91.766	10.014	ITI	Fixation+	11.742	n/a	1	n/a	n/a	n/a	n/a	n/a	n/a	n/a	n/a	n/a	n/a	122.909	n/a
113.521	n/a	ConfirmRating	Rate	n/a	11.721	1	n/a	n/a	0	n/a	n/a	n/a	2	Angry	68	51	144.665	n/a
121.927	n/a	ConfirmRating	Rate	n/a	8.388	1	n/a	n/a	1	n/a	n/a	n/a	3	Angry	0	47	153.07	n/a
121.956	10.014	ITI	Fixation+	98.919	n/a	2	n/a	n/a	n/a	n/a	n/a	n/a	n/a	n/a	n/a	n/a	153.099	n/a
131.986	0.497	happy	Picture	98.405	n/a	2	4	1	n/a	61	119	3	n/a	n/a	n/a	n/a	163.13	BM28ANS.jpg
132.484	0.514	Blank	Blank	97.892	n/a	2	4	1	n/a	61	n/a	3	n/a	n/a	n/a	n/a	163.627	n/a
133.014	0.497	happy	Picture	97.378	n/a	2	4	2	n/a	62	100	3	n/a	n/a	n/a	n/a	164.157	AF32ANS.jpg
133.511	0.514	Blank	Blank	96.864	n/a	2	4	2	n/a	62	n/a	3	n/a	n/a	n/a	n/a	164.655	n/a
134.042	0.497	happy	Picture	96.35	n/a	2	4	3	n/a	63	118	3	n/a	n/a	n/a	n/a	165.185	BM26ANS.jpg
134.539	0.514	Blank	Blank	95.836	n/a	2	4	3	n/a	63	n/a	3	n/a	n/a	n/a	n/a	165.683	n/a
135.07	0.497	happy	Picture	95.322	n/a	2	4	4	n/a	64	89	3	n/a	n/a	n/a	n/a	166.213	AF17ANS.jpg
135.567	0.514	Blank	Blank	94.808	n/a	2	4	4	n/a	64	n/a	3	n/a	n/a	n/a	n/a	166.71	n/a
136.098	0.497	happy	Picture	94.294	n/a	2	4	5	n/a	65	116	3	n/a	n/a	n/a	n/a	167.241	BM24ANS.jpg
136.595	0.514	Blank	Blank	93.78	n/a	2	4	5	n/a	65	n/a	3	n/a	n/a	n/a	n/a	167.738	n/a
137.126	0.497	happy	Picture	93.266	n/a	2	4	6	n/a	66	105	3	n/a	n/a	n/a	n/a	168.269	BM06ANS.jpg
137.623	0.514	Blank	Blank	92.752	n/a	2	4	6	n/a	66	n/a	3	n/a	n/a	n/a	n/a	168.766	n/a
138.153	0.497	happy	Picture	92.238	n/a	2	4	7	n/a	67	106	3	n/a	n/a	n/a	n/a	169.297	AM07ANS.jpg
138.651	0.514	Blank	Blank	91.724	n/a	2	4	7	n/a	67	n/a	3	n/a	n/a	n/a	n/a	169.794	n/a
139.181	0.497	happy	Picture	91.21	n/a	2	4	8	n/a	68	94	3	n/a	n/a	n/a	n/a	170.325	AF23ANS.jpg
139.679	0.514	Blank	Blank	90.696	n/a	2	4	8	n/a	68	n/a	3	n/a	n/a	n/a	n/a	170.822	n/a
140.209	0.497	happy	Picture	90.183	n/a	2	4	9	n/a	69	117	3	n/a	n/a	n/a	n/a	171.353	BM25ANS.jpg
140.707	0.514	Blank	Blank	89.668	n/a	2	4	9	n/a	69	n/a	3	n/a	n/a	n/a	n/a	171.85	n/a
141.237	0.497	happy	Picture	89.155	n/a	2	4	10	n/a	70	90	3	n/a	n/a	n/a	n/a	172.38	AF18ANS.jpg
141.734	0.514	Blank	Blank	88.641	n/a	2	4	10	n/a	70	n/a	3	n/a	n/a	n/a	n/a	172.878	n/a
142.265	0.497	happy	Picture	88.127	n/a	2	4	11	n/a	71	83	3	n/a	n/a	n/a	n/a	173.408	BF04ANS.jpg
142.762	0.514	Blank	Blank	87.613	n/a	2	4	11	n/a	71	n/a	3	n/a	n/a	n/a	n/a	173.906	n/a
143.293	0.497	happy	Picture	87.099	n/a	2	4	12	n/a	72	112	3	n/a	n/a	n/a	n/a	174.436	AM14ANS.jpg
143.79	0.514	Blank	Blank	86.585	n/a	2	4	12	n/a	72	n/a	3	n/a	n/a	n/a	n/a	174.934	n/a
144.321	0.497	happy	Picture	86.071	n/a	2	4	13	n/a	73	102	3	n/a	n/a	n/a	n/a	175.464	BM03ANS.jpg
144.818	0.514	Blank	Blank	85.557	n/a	2	4	13	n/a	73	n/a	3	n/a	n/a	n/a	n/a	175.962	n/a
145.349	0.497	happy	Picture	85.043	n/a	2	4	14	n/a	74	95	3	n/a	n/a	n/a	n/a	176.492	AF25ANS.jpg
145.846	0.514	Blank	Blank	84.529	n/a	2	4	14	n/a	74	n/a	3	n/a	n/a	n/a	n/a	176.989	n/a
146.376	0.497	happy	Picture	84.015	n/a	2	4	15	n/a	75	113	3	n/a	n/a	n/a	n/a	177.52	AM21ANS.jpg
146.874	0.514	Blank	Blank	83.501	n/a	2	4	15	n/a	75	n/a	3	n/a	n/a	n/a	n/a	178.017	n/a
147.404	0.497	happy	Picture	82.987	n/a	2	4	16	n/a	76	88	3	n/a	n/a	n/a	n/a	178.548	AF14ANS.jpg
147.902	0.514	Blank	Blank	82.473	n/a	2	4	16	n/a	76	n/a	3	n/a	n/a	n/a	n/a	179.045	n/a
148.432	0.497	happy	Picture	81.959	n/a	2	4	17	n/a	77	93	3	n/a	n/a	n/a	n/a	179.576	BF22ANS.jpg
148.93	0.514	Blank	Blank	81.445	n/a	2	4	17	n/a	77	n/a	3	n/a	n/a	n/a	n/a	180.073	n/a
149.46	0.497	happy	Picture	80.931	n/a	2	4	18	n/a	78	86	3	n/a	n/a	n/a	n/a	180.603	AF09ANS.jpg
149.958	0.514	Blank	Blank	80.418	n/a	2	4	18	n/a	78	n/a	3	n/a	n/a	n/a	n/a	181.101	n/a
150.488	0.497	happy	Picture	79.904	n/a	2	4	19	n/a	79	92	3	n/a	n/a	n/a	n/a	181.631	AF21ANS.jpg
150.985	0.514	Blank	Blank	79.39	n/a	2	4	19	n/a	79	n/a	3	n/a	n/a	n/a	n/a	182.129	n/a
151.516	0.497	happy	Picture	78.876	n/a	2	4	20	n/a	80	84	3	n/a	n/a	n/a	n/a	182.659	AF05ANS.jpg
152.013	0.514	Blank	Blank	78.362	n/a	2	4	20	n/a	80	n/a	3	n/a	n/a	n/a	n/a	183.157	n/a
152.544	10.014	ITI	Fixation+	68.332	n/a	2	n/a	n/a	n/a	n/a	n/a	n/a	n/a	n/a	n/a	n/a	183.687	n/a
162.574	0.497	neutral	Picture	67.818	n/a	2	5	1	n/a	81	4	1	n/a	n/a	n/a	n/a	193.717	AF05NES.jpg
163.071	0.514	Blank	Blank	67.304	n/a	2	5	1	n/a	81	n/a	1	n/a	n/a	n/a	n/a	194.215	n/a
163.602	0.497	neutral	Picture	66.79	n/a	2	5	2	n/a	82	14	1	n/a	n/a	n/a	n/a	194.745	AF23NES.jpg
164.099	0.514	Blank	Blank	66.276	n/a	2	5	2	n/a	82	n/a	1	n/a	n/a	n/a	n/a	195.243	n/a
164.63	0.497	neutral	Picture	65.762	n/a	2	5	3	n/a	83	19	1	n/a	n/a	n/a	n/a	195.773	AF31NES.jpg
165.127	0.514	Blank	Blank	65.248	n/a	2	5	3	n/a	83	n/a	1	n/a	n/a	n/a	n/a	196.27	n/a
165.658	0.497	neutral	Picture	64.734	n/a	2	5	4	n/a	84	8	1	n/a	n/a	n/a	n/a	196.801	AF14NES.jpg
166.155	0.514	Blank	Blank	64.22	n/a	2	5	4	n/a	84	n/a	1	n/a	n/a	n/a	n/a	197.298	n/a
166.685	0.497	neutral	Picture	63.706	n/a	2	5	5	n/a	85	25	1	n/a	n/a	n/a	n/a	197.829	BM06NES.jpg
167.183	0.514	Blank	Blank	63.192	n/a	2	5	5	n/a	85	n/a	1	n/a	n/a	n/a	n/a	198.326	n/a
167.713	0.497	neutral	Picture	62.678	n/a	2	5	6	n/a	86	9	1	n/a	n/a	n/a	n/a	198.857	AF17NES.jpg
168.211	0.514	Blank	Blank	62.164	n/a	2	5	6	n/a	86	n/a	1	n/a	n/a	n/a	n/a	199.354	n/a
168.741	0.497	neutral	Picture	61.65	n/a	2	5	7	n/a	87	2	1	n/a	n/a	n/a	n/a	199.885	AF03NES.jpg
169.239	0.514	Blank	Blank	61.136	n/a	2	5	7	n/a	87	n/a	1	n/a	n/a	n/a	n/a	200.382	n/a
169.769	0.497	neutral	Picture	60.623	n/a	2	5	8	n/a	88	17	1	n/a	n/a	n/a	n/a	200.912	BF28NES.jpg
170.266	0.514	Blank	Blank	60.109	n/a	2	5	8	n/a	88	n/a	1	n/a	n/a	n/a	n/a	201.41	n/a
170.797	0.497	neutral	Picture	59.595	n/a	2	5	9	n/a	89	6	1	n/a	n/a	n/a	n/a	201.94	AF09NES.jpg
171.294	0.514	Blank	Blank	59.081	n/a	2	5	9	n/a	89	n/a	1	n/a	n/a	n/a	n/a	202.438	n/a
171.825	0.497	neutral	Picture	58.567	n/a	2	5	10	n/a	90	12	1	n/a	n/a	n/a	n/a	202.968	AF21NES.jpg
172.322	0.514	Blank	Blank	58.053	n/a	2	5	10	n/a	90	n/a	1	n/a	n/a	n/a	n/a	203.466	n/a
172.853	0.497	neutral	Picture	57.539	n/a	2	5	11	n/a	91	24	1	n/a	n/a	n/a	n/a	203.996	BM05NES.jpg
173.35	0.514	Blank	Blank	57.025	n/a	2	5	11	n/a	91	n/a	1	n/a	n/a	n/a	n/a	204.494	n/a
173.881	0.497	neutral	Picture	56.511	n/a	2	5	12	n/a	92	34	1	n/a	n/a	n/a	n/a	205.024	AM22NES.jpg
174.378	0.514	Blank	Blank	55.997	n/a	2	5	12	n/a	92	n/a	1	n/a	n/a	n/a	n/a	205.521	n/a
174.909	0.497	neutral	Picture	55.483	n/a	2	5	13	n/a	93	23	1	n/a	n/a	n/a	n/a	206.052	AM04NES.jpg
175.406	0.514	Blank	Blank	54.969	n/a	2	5	13	n/a	93	n/a	1	n/a	n/a	n/a	n/a	206.549	n/a
175.936	0.497	neutral	Picture	54.455	n/a	2	5	14	n/a	94	15	1	n/a	n/a	n/a	n/a	207.08	AF25NES.jpg
176.434	0.514	Blank	Blank	53.941	n/a	2	5	14	n/a	94	n/a	1	n/a	n/a	n/a	n/a	207.577	n/a
176.964	0.497	neutral	Picture	53.427	n/a	2	5	15	n/a	95	37	1	n/a	n/a	n/a	n/a	208.108	BM25NES.jpg
177.462	0.514	Blank	Blank	52.913	n/a	2	5	15	n/a	95	n/a	1	n/a	n/a	n/a	n/a	208.605	n/a
177.992	0.497	neutral	Picture	52.399	n/a	2	5	16	n/a	96	32	1	n/a	n/a	n/a	n/a	209.136	AM14NES.jpg
178.49	0.514	Blank	Blank	51.886	n/a	2	5	16	n/a	96	n/a	1	n/a	n/a	n/a	n/a	209.633	n/a
179.02	0.497	neutral	Picture	51.372	n/a	2	5	17	n/a	97	3	1	n/a	n/a	n/a	n/a	210.163	BF04NES.jpg
179.517	0.514	Blank	Blank	50.858	n/a	2	5	17	n/a	97	n/a	1	n/a	n/a	n/a	n/a	210.661	n/a
180.048	0.497	neutral	Picture	50.344	n/a	2	5	18	n/a	98	16	1	n/a	n/a	n/a	n/a	211.191	AF26NES.jpg
180.545	0.514	Blank	Blank	49.83	n/a	2	5	18	n/a	98	n/a	1	n/a	n/a	n/a	n/a	211.689	n/a
181.076	0.497	neutral	Picture	49.316	n/a	2	5	19	n/a	99	27	1	n/a	n/a	n/a	n/a	212.219	BM08NES.jpg
181.573	0.514	Blank	Blank	48.802	n/a	2	5	19	n/a	99	n/a	1	n/a	n/a	n/a	n/a	212.716	n/a
182.104	0.497	neutral	Picture	48.288	n/a	2	5	20	n/a	100	28	1	n/a	n/a	n/a	n/a	213.247	AM09NES.jpg
182.601	0.514	Blank	Blank	47.774	n/a	2	5	20	n/a	100	n/a	1	n/a	n/a	n/a	n/a	213.744	n/a
183.132	10.014	ITI	Fixation+	37.744	n/a	2	n/a	n/a	n/a	n/a	n/a	n/a	n/a	n/a	n/a	n/a	214.275	n/a
193.162	0.497	happy	Picture	37.23	n/a	2	6	1	n/a	101	81	3	n/a	n/a	n/a	n/a	224.305	AF01ANS.jpg
193.659	0.514	Blank	Blank	36.716	n/a	2	6	1	n/a	101	n/a	3	n/a	n/a	n/a	n/a	224.802	n/a
194.19	0.497	happy	Picture	36.202	n/a	2	6	2	n/a	102	120	3	n/a	n/a	n/a	n/a	225.333	AM35ANS.jpg
194.687	0.514	Blank	Blank	35.688	n/a	2	6	2	n/a	102	n/a	3	n/a	n/a	n/a	n/a	225.83	n/a
195.218	0.497	happy	Picture	35.174	n/a	2	6	3	n/a	103	114	3	n/a	n/a	n/a	n/a	226.361	AM22ANS.jpg
195.715	0.514	Blank	Blank	34.66	n/a	2	6	3	n/a	103	n/a	3	n/a	n/a	n/a	n/a	226.858	n/a
196.245	0.497	happy	Picture	34.146	n/a	2	6	4	n/a	104	109	3	n/a	n/a	n/a	n/a	227.389	AM10ANS.jpg
196.743	0.514	Blank	Blank	33.632	n/a	2	6	4	n/a	104	n/a	3	n/a	n/a	n/a	n/a	227.886	n/a
197.273	0.497	happy	Picture	33.118	n/a	2	6	5	n/a	105	96	3	n/a	n/a	n/a	n/a	228.417	AF26ANS.jpg
197.771	0.514	Blank	Blank	32.605	n/a	2	6	5	n/a	105	n/a	3	n/a	n/a	n/a	n/a	228.914	n/a
198.301	0.497	happy	Picture	32.091	n/a	2	6	6	n/a	106	82	3	n/a	n/a	n/a	n/a	229.445	AF03ANS.jpg
198.798	0.514	Blank	Blank	31.577	n/a	2	6	6	n/a	106	n/a	3	n/a	n/a	n/a	n/a	229.942	n/a
199.329	0.497	happy	Picture	31.063	n/a	2	6	7	n/a	107	97	3	n/a	n/a	n/a	n/a	230.472	BF28ANS.jpg
199.826	0.514	Blank	Blank	30.549	n/a	2	6	7	n/a	107	n/a	3	n/a	n/a	n/a	n/a	230.97	n/a
200.357	0.497	happy	Picture	30.035	n/a	2	6	8	n/a	108	115	3	n/a	n/a	n/a	n/a	231.5	AM23ANS.jpg
200.854	0.514	Blank	Blank	29.521	n/a	2	6	8	n/a	108	n/a	3	n/a	n/a	n/a	n/a	231.998	n/a
201.385	0.497	happy	Picture	29.007	n/a	2	6	9	n/a	109	91	3	n/a	n/a	n/a	n/a	232.528	AF20ANS.jpg
201.882	0.514	Blank	Blank	28.493	n/a	2	6	9	n/a	109	n/a	3	n/a	n/a	n/a	n/a	233.025	n/a
202.413	0.497	happy	Picture	27.979	n/a	2	6	10	n/a	110	87	3	n/a	n/a	n/a	n/a	233.556	BF11ANS.jpg
202.91	0.514	Blank	Blank	27.465	n/a	2	6	10	n/a	110	n/a	3	n/a	n/a	n/a	n/a	234.053	n/a
203.441	0.497	happy	Picture	26.951	n/a	2	6	11	n/a	111	85	3	n/a	n/a	n/a	n/a	234.584	BF07ANS.jpg
203.938	0.514	Blank	Blank	26.437	n/a	2	6	11	n/a	111	n/a	3	n/a	n/a	n/a	n/a	235.081	n/a
204.468	0.497	happy	Picture	25.923	n/a	2	6	12	n/a	112	110	3	n/a	n/a	n/a	n/a	235.612	AM11ANS.jpg
204.966	0.514	Blank	Blank	25.409	n/a	2	6	12	n/a	112	n/a	3	n/a	n/a	n/a	n/a	236.109	n/a
205.496	0.497	happy	Picture	24.895	n/a	2	6	13	n/a	113	111	3	n/a	n/a	n/a	n/a	236.64	BM12ANS.jpg
205.994	0.514	Blank	Blank	24.381	n/a	2	6	13	n/a	113	n/a	3	n/a	n/a	n/a	n/a	237.137	n/a
206.524	0.497	happy	Picture	23.868	n/a	2	6	14	n/a	114	103	3	n/a	n/a	n/a	n/a	237.667	AM04ANS.jpg
207.022	0.514	Blank	Blank	23.354	n/a	2	6	14	n/a	114	n/a	3	n/a	n/a	n/a	n/a	238.165	n/a
207.552	0.497	happy	Picture	22.84	n/a	2	6	15	n/a	115	101	3	n/a	n/a	n/a	n/a	238.695	AM01ANS.jpg
208.049	0.514	Blank	Blank	22.326	n/a	2	6	15	n/a	115	n/a	3	n/a	n/a	n/a	n/a	239.193	n/a
208.58	0.497	happy	Picture	21.812	n/a	2	6	16	n/a	116	104	3	n/a	n/a	n/a	n/a	239.723	BM05ANS.jpg
209.077	0.514	Blank	Blank	21.298	n/a	2	6	16	n/a	116	n/a	3	n/a	n/a	n/a	n/a	240.221	n/a
209.608	0.497	happy	Picture	20.784	n/a	2	6	17	n/a	117	107	3	n/a	n/a	n/a	n/a	240.751	BM08ANS.jpg
210.105	0.514	Blank	Blank	20.27	n/a	2	6	17	n/a	117	n/a	3	n/a	n/a	n/a	n/a	241.249	n/a
210.636	0.497	happy	Picture	19.756	n/a	2	6	18	n/a	118	98	3	n/a	n/a	n/a	n/a	241.779	BF29ANS.jpg
211.133	0.514	Blank	Blank	19.242	n/a	2	6	18	n/a	118	n/a	3	n/a	n/a	n/a	n/a	242.276	n/a
211.664	0.497	happy	Picture	18.728	n/a	2	6	19	n/a	119	99	3	n/a	n/a	n/a	n/a	242.807	AF31ANS.jpg
212.161	0.514	Blank	Blank	18.214	n/a	2	6	19	n/a	119	n/a	3	n/a	n/a	n/a	n/a	243.304	n/a
212.691	0.497	happy	Picture	17.7	n/a	2	6	20	n/a	120	108	3	n/a	n/a	n/a	n/a	243.835	AM09ANS.jpg
213.189	0.514	Blank	Blank	17.186	n/a	2	6	20	n/a	120	n/a	3	n/a	n/a	n/a	n/a	244.332	n/a
213.719	10.014	ITI	Fixation+	7.156	n/a	2	n/a	n/a	n/a	n/a	n/a	n/a	n/a	n/a	n/a	n/a	244.863	n/a
230.889	n/a	ConfirmRating	Rate	n/a	7.146	2	n/a	n/a	0	n/a	n/a	n/a	2	Happy	81	53	262.032	n/a
235.845	n/a	ConfirmRating	Rate	n/a	4.941	2	n/a	n/a	1	n/a	n/a	n/a	3	Happy	0	49	266.988	n/a
235.869	15.004	Rest	Picture	n/a	n/a	n/a	n/a	n/a	n/a	n/a	n/a	n/a	0	n/a	0	0	267.012	n/a
250.889	10.014	ITI	Fixation+	100.003	n/a	3	n/a	n/a	n/a	n/a	n/a	n/a	n/a	n/a	n/a	n/a	282.032	n/a
260.919	0.497	angry	Picture	99.489	n/a	3	7	1	n/a	1	46	2	n/a	n/a	n/a	n/a	292.062	AF09HAS.jpg
261.416	0.514	Blank	Blank	98.975	n/a	3	7	1	n/a	1	n/a	2	n/a	n/a	n/a	n/a	292.56	n/a
261.947	0.497	angry	Picture	98.461	n/a	3	7	2	n/a	2	69	2	n/a	n/a	n/a	n/a	293.09	AM10HAS.jpg
262.444	0.514	Blank	Blank	97.947	n/a	3	7	2	n/a	2	n/a	2	n/a	n/a	n/a	n/a	293.588	n/a
262.975	0.497	angry	Picture	97.433	n/a	3	7	3	n/a	3	71	2	n/a	n/a	n/a	n/a	294.118	BM12HAS.jpg
263.472	0.514	Blank	Blank	96.919	n/a	3	7	3	n/a	3	n/a	2	n/a	n/a	n/a	n/a	294.615	n/a
264.003	0.497	angry	Picture	96.406	n/a	3	7	4	n/a	4	51	2	n/a	n/a	n/a	n/a	295.146	AF20HAS.jpg
264.5	0.514	Blank	Blank	95.892	n/a	3	7	4	n/a	4	n/a	2	n/a	n/a	n/a	n/a	295.643	n/a
265.031	0.497	angry	Picture	95.378	n/a	3	7	5	n/a	5	67	2	n/a	n/a	n/a	n/a	296.174	BM08HAS.jpg
265.528	0.514	Blank	Blank	94.864	n/a	3	7	5	n/a	5	n/a	2	n/a	n/a	n/a	n/a	296.671	n/a
266.058	0.497	angry	Picture	94.35	n/a	3	7	6	n/a	6	60	2	n/a	n/a	n/a	n/a	297.202	AF32HAS.jpg
266.556	0.514	Blank	Blank	93.836	n/a	3	7	6	n/a	6	n/a	2	n/a	n/a	n/a	n/a	297.699	n/a
267.086	0.497	angry	Picture	93.322	n/a	3	7	7	n/a	7	42	2	n/a	n/a	n/a	n/a	298.23	AF03HAS.jpg
267.584	0.514	Blank	Blank	92.808	n/a	3	7	7	n/a	7	n/a	2	n/a	n/a	n/a	n/a	298.727	n/a
268.114	0.497	angry	Picture	92.294	n/a	3	7	8	n/a	8	55	2	n/a	n/a	n/a	n/a	299.258	AF25HAS.jpg
268.612	0.514	Blank	Blank	91.78	n/a	3	7	8	n/a	8	n/a	2	n/a	n/a	n/a	n/a	299.755	n/a
269.142	0.497	angry	Picture	91.266	n/a	3	7	9	n/a	9	72	2	n/a	n/a	n/a	n/a	300.286	AM14HAS.jpg
269.639	0.514	Blank	Blank	90.752	n/a	3	7	9	n/a	9	n/a	2	n/a	n/a	n/a	n/a	300.783	n/a
270.17	0.497	angry	Picture	90.238	n/a	3	7	10	n/a	10	63	2	n/a	n/a	n/a	n/a	301.313	AM04HAS.jpg
270.667	0.514	Blank	Blank	89.724	n/a	3	7	10	n/a	10	n/a	2	n/a	n/a	n/a	n/a	301.811	n/a
271.198	0.497	angry	Picture	89.21	n/a	3	7	11	n/a	11	58	2	n/a	n/a	n/a	n/a	302.341	BF29HAS.jpg
271.695	0.514	Blank	Blank	88.697	n/a	3	7	11	n/a	11	n/a	2	n/a	n/a	n/a	n/a	302.839	n/a
272.226	0.497	angry	Picture	88.182	n/a	3	7	12	n/a	12	48	2	n/a	n/a	n/a	n/a	303.369	AF14HAS.jpg
272.723	0.514	Blank	Blank	87.669	n/a	3	7	12	n/a	12	n/a	2	n/a	n/a	n/a	n/a	303.866	n/a
273.254	0.497	angry	Picture	87.155	n/a	3	7	13	n/a	13	66	2	n/a	n/a	n/a	n/a	304.397	BM07HAS.jpg
273.751	0.514	Blank	Blank	86.641	n/a	3	7	13	n/a	13	n/a	2	n/a	n/a	n/a	n/a	304.894	n/a
274.282	0.497	angry	Picture	86.127	n/a	3	7	14	n/a	14	70	2	n/a	n/a	n/a	n/a	305.425	BM11HAS.jpg
274.779	0.514	Blank	Blank	85.613	n/a	3	7	14	n/a	14	n/a	2	n/a	n/a	n/a	n/a	305.922	n/a
275.309	0.497	angry	Picture	85.099	n/a	3	7	15	n/a	15	43	2	n/a	n/a	n/a	n/a	306.453	BF04HAS.jpg
275.807	0.514	Blank	Blank	84.585	n/a	3	7	15	n/a	15	n/a	2	n/a	n/a	n/a	n/a	306.95	n/a
276.337	0.497	angry	Picture	84.071	n/a	3	7	16	n/a	16	49	2	n/a	n/a	n/a	n/a	307.481	AF17HAS.jpg
276.835	0.514	Blank	Blank	83.557	n/a	3	7	16	n/a	16	n/a	2	n/a	n/a	n/a	n/a	307.978	n/a
277.365	0.497	angry	Picture	83.043	n/a	3	7	17	n/a	17	75	2	n/a	n/a	n/a	n/a	308.509	AM23HAS.jpg
277.863	0.514	Blank	Blank	82.529	n/a	3	7	17	n/a	17	n/a	2	n/a	n/a	n/a	n/a	309.006	n/a
278.393	0.497	angry	Picture	82.015	n/a	3	7	18	n/a	18	80	2	n/a	n/a	n/a	n/a	309.536	BM35HAS.jpg
278.89	0.514	Blank	Blank	81.501	n/a	3	7	18	n/a	18	n/a	2	n/a	n/a	n/a	n/a	310.034	n/a
279.421	0.497	angry	Picture	80.987	n/a	3	7	19	n/a	19	76	2	n/a	n/a	n/a	n/a	310.564	BM24HAS.jpg
279.918	0.514	Blank	Blank	80.473	n/a	3	7	19	n/a	19	n/a	2	n/a	n/a	n/a	n/a	311.062	n/a
280.449	0.497	angry	Picture	79.959	n/a	3	7	20	n/a	20	74	2	n/a	n/a	n/a	n/a	311.592	AM22HAS.jpg
280.946	0.514	Blank	Blank	79.445	n/a	3	7	20	n/a	20	n/a	2	n/a	n/a	n/a	n/a	312.089	n/a
281.477	10.014	ITI	Fixation+	69.415	n/a	3	n/a	n/a	n/a	n/a	n/a	n/a	n/a	n/a	n/a	n/a	312.62	n/a
291.507	0.497	neutral	Picture	68.901	n/a	3	8	1	n/a	21	33	1	n/a	n/a	n/a	n/a	322.65	AM21NES.jpg
292.004	0.514	Blank	Blank	68.387	n/a	3	8	1	n/a	21	n/a	1	n/a	n/a	n/a	n/a	323.147	n/a
292.535	0.497	neutral	Picture	67.874	n/a	3	8	2	n/a	22	39	1	n/a	n/a	n/a	n/a	323.678	AM28NES.jpg
293.032	0.514	Blank	Blank	67.36	n/a	3	8	2	n/a	22	n/a	1	n/a	n/a	n/a	n/a	324.175	n/a
293.563	0.497	neutral	Picture	66.846	n/a	3	8	3	n/a	23	25	1	n/a	n/a	n/a	n/a	324.706	BM06NES.jpg
294.06	0.514	Blank	Blank	66.332	n/a	3	8	3	n/a	23	n/a	1	n/a	n/a	n/a	n/a	325.203	n/a
294.59	0.497	neutral	Picture	65.818	n/a	3	8	4	n/a	24	5	1	n/a	n/a	n/a	n/a	325.734	BF07NES.jpg
295.088	0.514	Blank	Blank	65.304	n/a	3	8	4	n/a	24	n/a	1	n/a	n/a	n/a	n/a	326.231	n/a
295.618	0.497	neutral	Picture	64.79	n/a	3	8	5	n/a	25	10	1	n/a	n/a	n/a	n/a	326.762	AF18NES.jpg
296.116	0.514	Blank	Blank	64.276	n/a	3	8	5	n/a	25	n/a	1	n/a	n/a	n/a	n/a	327.259	n/a
296.646	0.497	neutral	Picture	63.762	n/a	3	8	6	n/a	26	34	1	n/a	n/a	n/a	n/a	327.79	AM22NES.jpg
297.144	0.514	Blank	Blank	63.248	n/a	3	8	6	n/a	26	n/a	1	n/a	n/a	n/a	n/a	328.287	n/a
297.674	0.497	neutral	Picture	62.734	n/a	3	8	7	n/a	27	36	1	n/a	n/a	n/a	n/a	328.817	BM24NES.jpg
298.171	0.514	Blank	Blank	62.22	n/a	3	8	7	n/a	27	n/a	1	n/a	n/a	n/a	n/a	329.315	n/a
298.702	0.497	neutral	Picture	61.706	n/a	3	8	8	n/a	28	14	1	n/a	n/a	n/a	n/a	329.845	AF23NES.jpg
299.199	0.514	Blank	Blank	61.192	n/a	3	8	8	n/a	28	n/a	1	n/a	n/a	n/a	n/a	330.343	n/a
299.73	0.497	neutral	Picture	60.678	n/a	3	8	9	n/a	29	9	1	n/a	n/a	n/a	n/a	330.873	AF17NES.jpg
300.227	0.514	Blank	Blank	60.164	n/a	3	8	9	n/a	29	n/a	1	n/a	n/a	n/a	n/a	331.371	n/a
300.758	0.497	neutral	Picture	59.65	n/a	3	8	10	n/a	30	19	1	n/a	n/a	n/a	n/a	331.901	AF31NES.jpg
301.255	0.514	Blank	Blank	59.137	n/a	3	8	10	n/a	30	n/a	1	n/a	n/a	n/a	n/a	332.399	n/a
301.786	0.497	neutral	Picture	58.623	n/a	3	8	11	n/a	31	15	1	n/a	n/a	n/a	n/a	332.929	AF25NES.jpg
302.283	0.514	Blank	Blank	58.109	n/a	3	8	11	n/a	31	n/a	1	n/a	n/a	n/a	n/a	333.426	n/a
302.814	0.497	neutral	Picture	57.595	n/a	3	8	12	n/a	32	22	1	n/a	n/a	n/a	n/a	333.957	BM03NES.jpg
303.311	0.514	Blank	Blank	57.081	n/a	3	8	12	n/a	32	n/a	1	n/a	n/a	n/a	n/a	334.454	n/a
303.841	0.497	neutral	Picture	56.567	n/a	3	8	13	n/a	33	11	1	n/a	n/a	n/a	n/a	334.985	AF20NES.jpg
304.339	0.514	Blank	Blank	56.053	n/a	3	8	13	n/a	33	n/a	1	n/a	n/a	n/a	n/a	335.482	n/a
304.869	0.497	neutral	Picture	55.539	n/a	3	8	14	n/a	34	4	1	n/a	n/a	n/a	n/a	336.013	AF05NES.jpg
305.367	0.514	Blank	Blank	55.025	n/a	3	8	14	n/a	34	n/a	1	n/a	n/a	n/a	n/a	336.51	n/a
305.897	0.497	neutral	Picture	54.511	n/a	3	8	15	n/a	35	17	1	n/a	n/a	n/a	n/a	337.041	BF28NES.jpg
306.395	0.514	Blank	Blank	53.997	n/a	3	8	15	n/a	35	n/a	1	n/a	n/a	n/a	n/a	337.538	n/a
306.925	0.497	neutral	Picture	53.483	n/a	3	8	16	n/a	36	13	1	n/a	n/a	n/a	n/a	338.068	BF22NES.jpg
307.423	0.514	Blank	Blank	52.969	n/a	3	8	16	n/a	36	n/a	1	n/a	n/a	n/a	n/a	338.566	n/a
307.953	0.497	neutral	Picture	52.455	n/a	3	8	17	n/a	37	12	1	n/a	n/a	n/a	n/a	339.096	AF21NES.jpg
308.45	0.514	Blank	Blank	51.941	n/a	3	8	17	n/a	37	n/a	1	n/a	n/a	n/a	n/a	339.594	n/a
308.981	0.497	neutral	Picture	51.428	n/a	3	8	18	n/a	38	24	1	n/a	n/a	n/a	n/a	340.124	BM05NES.jpg
309.478	0.514	Blank	Blank	50.913	n/a	3	8	18	n/a	38	n/a	1	n/a	n/a	n/a	n/a	340.622	n/a
310.009	0.497	neutral	Picture	50.4	n/a	3	8	19	n/a	39	29	1	n/a	n/a	n/a	n/a	341.152	AM10NES.jpg
310.506	0.514	Blank	Blank	49.886	n/a	3	8	19	n/a	39	n/a	1	n/a	n/a	n/a	n/a	341.649	n/a
311.037	0.497	neutral	Picture	49.372	n/a	3	8	20	n/a	40	23	1	n/a	n/a	n/a	n/a	342.18	AM04NES.jpg
311.534	0.514	Blank	Blank	48.858	n/a	3	8	20	n/a	40	n/a	1	n/a	n/a	n/a	n/a	342.677	n/a
312.065	10.014	ITI	Fixation+	38.828	n/a	3	n/a	n/a	n/a	n/a	n/a	n/a	n/a	n/a	n/a	n/a	343.208	n/a
322.095	0.497	angry	Picture	38.314	n/a	3	9	1	n/a	41	62	2	n/a	n/a	n/a	n/a	353.238	BM03HAS.jpg
322.592	0.514	Blank	Blank	37.8	n/a	3	9	1	n/a	41	n/a	2	n/a	n/a	n/a	n/a	353.735	n/a
323.123	0.497	angry	Picture	37.286	n/a	3	9	2	n/a	42	52	2	n/a	n/a	n/a	n/a	354.266	AF21HAS.jpg
323.62	0.514	Blank	Blank	36.772	n/a	3	9	2	n/a	42	n/a	2	n/a	n/a	n/a	n/a	354.763	n/a
324.15	0.497	angry	Picture	36.258	n/a	3	9	3	n/a	43	44	2	n/a	n/a	n/a	n/a	355.294	AF05HAS.jpg
324.648	0.514	Blank	Blank	35.744	n/a	3	9	3	n/a	43	n/a	2	n/a	n/a	n/a	n/a	355.791	n/a
325.178	0.497	angry	Picture	35.23	n/a	3	9	4	n/a	44	53	2	n/a	n/a	n/a	n/a	356.322	BF22HAS.jpg
325.676	0.514	Blank	Blank	34.716	n/a	3	9	4	n/a	44	n/a	2	n/a	n/a	n/a	n/a	356.819	n/a
326.206	0.497	angry	Picture	34.202	n/a	3	9	5	n/a	45	54	2	n/a	n/a	n/a	n/a	357.349	AF23HAS.jpg
326.704	0.514	Blank	Blank	33.688	n/a	3	9	5	n/a	45	n/a	2	n/a	n/a	n/a	n/a	357.847	n/a
327.234	0.497	angry	Picture	33.174	n/a	3	9	6	n/a	46	68	2	n/a	n/a	n/a	n/a	358.377	AM09HAS.jpg
327.731	0.514	Blank	Blank	32.66	n/a	3	9	6	n/a	46	n/a	2	n/a	n/a	n/a	n/a	358.875	n/a
328.262	0.497	angry	Picture	32.146	n/a	3	9	7	n/a	47	64	2	n/a	n/a	n/a	n/a	359.405	BM05HAS.jpg
328.759	0.514	Blank	Blank	31.632	n/a	3	9	7	n/a	47	n/a	2	n/a	n/a	n/a	n/a	359.903	n/a
329.29	0.497	angry	Picture	31.118	n/a	3	9	8	n/a	48	59	2	n/a	n/a	n/a	n/a	360.433	AF31HAS.jpg
329.787	0.514	Blank	Blank	30.605	n/a	3	9	8	n/a	48	n/a	2	n/a	n/a	n/a	n/a	360.93	n/a
330.318	0.497	angry	Picture	30.091	n/a	3	9	9	n/a	49	41	2	n/a	n/a	n/a	n/a	361.461	AF01HAS.jpg
330.815	0.514	Blank	Blank	29.577	n/a	3	9	9	n/a	49	n/a	2	n/a	n/a	n/a	n/a	361.958	n/a
331.346	0.497	angry	Picture	29.063	n/a	3	9	10	n/a	50	73	2	n/a	n/a	n/a	n/a	362.489	AM21HAS.jpg
331.843	0.514	Blank	Blank	28.549	n/a	3	9	10	n/a	50	n/a	2	n/a	n/a	n/a	n/a	362.986	n/a
332.373	0.497	angry	Picture	28.035	n/a	3	9	11	n/a	51	65	2	n/a	n/a	n/a	n/a	363.517	BM06HAS.jpg
332.871	0.514	Blank	Blank	27.521	n/a	3	9	11	n/a	51	n/a	2	n/a	n/a	n/a	n/a	364.014	n/a
333.401	0.497	angry	Picture	27.007	n/a	3	9	12	n/a	52	56	2	n/a	n/a	n/a	n/a	364.545	AF26HAS.jpg
333.899	0.514	Blank	Blank	26.493	n/a	3	9	12	n/a	52	n/a	2	n/a	n/a	n/a	n/a	365.042	n/a
334.429	0.497	angry	Picture	25.979	n/a	3	9	13	n/a	53	45	2	n/a	n/a	n/a	n/a	365.572	BF07HAS.jpg
334.927	0.514	Blank	Blank	25.465	n/a	3	9	13	n/a	53	n/a	2	n/a	n/a	n/a	n/a	366.07	n/a
335.457	0.497	angry	Picture	24.951	n/a	3	9	14	n/a	54	78	2	n/a	n/a	n/a	n/a	366.6	BM26HAS.jpg
335.954	0.514	Blank	Blank	24.437	n/a	3	9	14	n/a	54	n/a	2	n/a	n/a	n/a	n/a	367.098	n/a
336.485	0.497	angry	Picture	23.923	n/a	3	9	15	n/a	55	50	2	n/a	n/a	n/a	n/a	367.628	AF18HAS.jpg
336.982	0.514	Blank	Blank	23.409	n/a	3	9	15	n/a	55	n/a	2	n/a	n/a	n/a	n/a	368.126	n/a
337.513	0.497	angry	Picture	22.895	n/a	3	9	16	n/a	56	47	2	n/a	n/a	n/a	n/a	368.656	BF11HAS.jpg
338.01	0.514	Blank	Blank	22.382	n/a	3	9	16	n/a	56	n/a	2	n/a	n/a	n/a	n/a	369.154	n/a
338.541	0.497	angry	Picture	21.868	n/a	3	9	17	n/a	57	77	2	n/a	n/a	n/a	n/a	369.684	BM25HAS.jpg
339.038	0.514	Blank	Blank	21.354	n/a	3	9	17	n/a	57	n/a	2	n/a	n/a	n/a	n/a	370.181	n/a
339.569	0.497	angry	Picture	20.84	n/a	3	9	18	n/a	58	57	2	n/a	n/a	n/a	n/a	370.712	BF28HAS.jpg
340.066	0.514	Blank	Blank	20.326	n/a	3	9	18	n/a	58	n/a	2	n/a	n/a	n/a	n/a	371.209	n/a
340.596	0.497	angry	Picture	19.812	n/a	3	9	19	n/a	59	61	2	n/a	n/a	n/a	n/a	371.74	AM01HAS.jpg
341.094	0.514	Blank	Blank	19.298	n/a	3	9	19	n/a	59	n/a	2	n/a	n/a	n/a	n/a	372.237	n/a
341.624	0.497	angry	Picture	18.784	n/a	3	9	20	n/a	60	79	2	n/a	n/a	n/a	n/a	372.768	BM28HAS.jpg
342.122	0.514	Blank	Blank	18.27	n/a	3	9	20	n/a	60	n/a	2	n/a	n/a	n/a	n/a	373.265	n/a
342.652	10.014	ITI	Fixation+	8.24	n/a	3	n/a	n/a	n/a	n/a	n/a	n/a	n/a	n/a	n/a	n/a	373.796	n/a
360.906	n/a	ConfirmRating	Rate	n/a	8.24	3	n/a	n/a	0	n/a	n/a	n/a	2	Angry	79	53	392.049	n/a
365.784	n/a	ConfirmRating	Rate	n/a	4.857	3	n/a	n/a	1	n/a	n/a	n/a	3	Angry	0	47	396.927	n/a
365.813	10.014	ITI	Fixation+	100.593	n/a	4	n/a	n/a	n/a	n/a	n/a	n/a	n/a	n/a	n/a	n/a	396.956	n/a
375.843	0.497	happy	Picture	100.079	n/a	4	10	1	n/a	61	119	3	n/a	n/a	n/a	n/a	406.986	BM28ANS.jpg
376.34	0.514	Blank	Blank	99.565	n/a	4	10	1	n/a	61	n/a	3	n/a	n/a	n/a	n/a	407.484	n/a
376.871	0.497	happy	Picture	99.051	n/a	4	10	2	n/a	62	100	3	n/a	n/a	n/a	n/a	408.014	AF32ANS.jpg
377.368	0.514	Blank	Blank	98.537	n/a	4	10	2	n/a	62	n/a	3	n/a	n/a	n/a	n/a	408.512	n/a
377.899	0.497	happy	Picture	98.023	n/a	4	10	3	n/a	63	118	3	n/a	n/a	n/a	n/a	409.042	BM26ANS.jpg
378.396	0.514	Blank	Blank	97.51	n/a	4	10	3	n/a	63	n/a	3	n/a	n/a	n/a	n/a	409.539	n/a
378.927	0.497	happy	Picture	96.995	n/a	4	10	4	n/a	64	89	3	n/a	n/a	n/a	n/a	410.07	AF17ANS.jpg
379.424	0.514	Blank	Blank	96.482	n/a	4	10	4	n/a	64	n/a	3	n/a	n/a	n/a	n/a	410.567	n/a
379.954	0.497	happy	Picture	95.968	n/a	4	10	5	n/a	65	116	3	n/a	n/a	n/a	n/a	411.098	BM24ANS.jpg
380.452	0.514	Blank	Blank	95.454	n/a	4	10	5	n/a	65	n/a	3	n/a	n/a	n/a	n/a	411.595	n/a
380.982	0.497	happy	Picture	94.94	n/a	4	10	6	n/a	66	105	3	n/a	n/a	n/a	n/a	412.126	BM06ANS.jpg
381.48	0.514	Blank	Blank	94.426	n/a	4	10	6	n/a	66	n/a	3	n/a	n/a	n/a	n/a	412.623	n/a
382.01	0.497	happy	Picture	93.912	n/a	4	10	7	n/a	67	106	3	n/a	n/a	n/a	n/a	413.154	AM07ANS.jpg
382.508	0.514	Blank	Blank	93.398	n/a	4	10	7	n/a	67	n/a	3	n/a	n/a	n/a	n/a	413.651	n/a
383.038	0.497	happy	Picture	92.884	n/a	4	10	8	n/a	68	94	3	n/a	n/a	n/a	n/a	414.181	AF23ANS.jpg
383.536	0.514	Blank	Blank	92.37	n/a	4	10	8	n/a	68	n/a	3	n/a	n/a	n/a	n/a	414.679	n/a
384.066	0.497	happy	Picture	91.856	n/a	4	10	9	n/a	69	117	3	n/a	n/a	n/a	n/a	415.209	BM25ANS.jpg
384.563	0.514	Blank	Blank	91.342	n/a	4	10	9	n/a	69	n/a	3	n/a	n/a	n/a	n/a	415.707	n/a
385.094	0.497	happy	Picture	90.828	n/a	4	10	10	n/a	70	90	3	n/a	n/a	n/a	n/a	416.237	AF18ANS.jpg
385.591	0.514	Blank	Blank	90.314	n/a	4	10	10	n/a	70	n/a	3	n/a	n/a	n/a	n/a	416.735	n/a
386.122	0.497	happy	Picture	89.8	n/a	4	10	11	n/a	71	83	3	n/a	n/a	n/a	n/a	417.265	BF04ANS.jpg
386.619	0.514	Blank	Blank	89.286	n/a	4	10	11	n/a	71	n/a	3	n/a	n/a	n/a	n/a	417.762	n/a
387.15	0.497	happy	Picture	88.772	n/a	4	10	12	n/a	72	112	3	n/a	n/a	n/a	n/a	418.293	AM14ANS.jpg
387.647	0.514	Blank	Blank	88.258	n/a	4	10	12	n/a	72	n/a	3	n/a	n/a	n/a	n/a	418.79	n/a
388.178	0.497	happy	Picture	87.745	n/a	4	10	13	n/a	73	102	3	n/a	n/a	n/a	n/a	419.321	BM03ANS.jpg
388.675	0.514	Blank	Blank	87.231	n/a	4	10	13	n/a	73	n/a	3	n/a	n/a	n/a	n/a	419.818	n/a
389.205	0.497	happy	Picture	86.717	n/a	4	10	14	n/a	74	95	3	n/a	n/a	n/a	n/a	420.349	AF25ANS.jpg
389.703	0.514	Blank	Blank	86.203	n/a	4	10	14	n/a	74	n/a	3	n/a	n/a	n/a	n/a	420.846	n/a
390.233	0.497	happy	Picture	85.689	n/a	4	10	15	n/a	75	113	3	n/a	n/a	n/a	n/a	421.377	AM21ANS.jpg
390.731	0.514	Blank	Blank	85.175	n/a	4	10	15	n/a	75	n/a	3	n/a	n/a	n/a	n/a	421.874	n/a
391.261	0.497	happy	Picture	84.661	n/a	4	10	16	n/a	76	88	3	n/a	n/a	n/a	n/a	422.404	AF14ANS.jpg
391.758	0.514	Blank	Blank	84.147	n/a	4	10	16	n/a	76	n/a	3	n/a	n/a	n/a	n/a	422.902	n/a
392.289	0.497	happy	Picture	83.633	n/a	4	10	17	n/a	77	93	3	n/a	n/a	n/a	n/a	423.432	BF22ANS.jpg
392.786	0.514	Blank	Blank	83.119	n/a	4	10	17	n/a	77	n/a	3	n/a	n/a	n/a	n/a	423.93	n/a
393.317	0.497	happy	Picture	82.605	n/a	4	10	18	n/a	78	86	3	n/a	n/a	n/a	n/a	424.46	AF09ANS.jpg
393.814	0.514	Blank	Blank	82.091	n/a	4	10	18	n/a	78	n/a	3	n/a	n/a	n/a	n/a	424.958	n/a
394.345	0.497	happy	Picture	81.577	n/a	4	10	19	n/a	79	92	3	n/a	n/a	n/a	n/a	425.488	AF21ANS.jpg
394.842	0.514	Blank	Blank	81.063	n/a	4	10	19	n/a	79	n/a	3	n/a	n/a	n/a	n/a	425.986	n/a
395.373	0.497	happy	Picture	80.549	n/a	4	10	20	n/a	80	84	3	n/a	n/a	n/a	n/a	426.516	AF05ANS.jpg
395.87	0.514	Blank	Blank	80.036	n/a	4	10	20	n/a	80	n/a	3	n/a	n/a	n/a	n/a	427.013	n/a
396.401	10.014	ITI	Fixation+	70.005	n/a	4	n/a	n/a	n/a	n/a	n/a	n/a	n/a	n/a	n/a	n/a	427.544	n/a
406.431	0.497	neutral	Picture	69.491	n/a	4	11	1	n/a	81	4	1	n/a	n/a	n/a	n/a	437.574	AF05NES.jpg
406.928	0.514	Blank	Blank	68.978	n/a	4	11	1	n/a	81	n/a	1	n/a	n/a	n/a	n/a	438.071	n/a
407.459	0.497	neutral	Picture	68.463	n/a	4	11	2	n/a	82	14	1	n/a	n/a	n/a	n/a	438.602	AF23NES.jpg
407.956	0.514	Blank	Blank	67.95	n/a	4	11	2	n/a	82	n/a	1	n/a	n/a	n/a	n/a	439.099	n/a
408.486	0.497	neutral	Picture	67.436	n/a	4	11	3	n/a	83	19	1	n/a	n/a	n/a	n/a	439.63	AF31NES.jpg
408.984	0.514	Blank	Blank	66.922	n/a	4	11	3	n/a	83	n/a	1	n/a	n/a	n/a	n/a	440.127	n/a
409.514	0.497	neutral	Picture	66.408	n/a	4	11	4	n/a	84	8	1	n/a	n/a	n/a	n/a	440.658	AF14NES.jpg
410.012	0.514	Blank	Blank	65.894	n/a	4	11	4	n/a	84	n/a	1	n/a	n/a	n/a	n/a	441.155	n/a
410.542	0.497	neutral	Picture	65.38	n/a	4	11	5	n/a	85	25	1	n/a	n/a	n/a	n/a	441.686	BM06NES.jpg
411.04	0.514	Blank	Blank	64.866	n/a	4	11	5	n/a	85	n/a	1	n/a	n/a	n/a	n/a	442.183	n/a
411.57	0.497	neutral	Picture	64.352	n/a	4	11	6	n/a	86	9	1	n/a	n/a	n/a	n/a	442.713	AF17NES.jpg
412.067	0.514	Blank	Blank	63.838	n/a	4	11	6	n/a	86	n/a	1	n/a	n/a	n/a	n/a	443.211	n/a
412.598	0.497	neutral	Picture	63.324	n/a	4	11	7	n/a	87	2	1	n/a	n/a	n/a	n/a	443.741	AF03NES.jpg
413.095	0.514	Blank	Blank	62.81	n/a	4	11	7	n/a	87	n/a	1	n/a	n/a	n/a	n/a	444.239	n/a
413.626	0.497	neutral	Picture	62.296	n/a	4	11	8	n/a	88	17	1	n/a	n/a	n/a	n/a	444.769	BF28NES.jpg
414.123	0.514	Blank	Blank	61.782	n/a	4	11	8	n/a	88	n/a	1	n/a	n/a	n/a	n/a	445.267	n/a
414.654	0.497	neutral	Picture	61.268	n/a	4	11	9	n/a	89	6	1	n/a	n/a	n/a	n/a	445.797	AF09NES.jpg
415.151	0.514	Blank	Blank	60.754	n/a	4	11	9	n/a	89	n/a	1	n/a	n/a	n/a	n/a	446.295	n/a
415.682	0.497	neutral	Picture	60.24	n/a	4	11	10	n/a	90	12	1	n/a	n/a	n/a	n/a	446.825	AF21NES.jpg
416.179	0.514	Blank	Blank	59.726	n/a	4	11	10	n/a	90	n/a	1	n/a	n/a	n/a	n/a	447.322	n/a
416.71	0.497	neutral	Picture	59.213	n/a	4	11	11	n/a	91	24	1	n/a	n/a	n/a	n/a	447.853	BM05NES.jpg
417.207	0.514	Blank	Blank	58.699	n/a	4	11	11	n/a	91	n/a	1	n/a	n/a	n/a	n/a	448.35	n/a
417.737	0.497	neutral	Picture	58.185	n/a	4	11	12	n/a	92	34	1	n/a	n/a	n/a	n/a	448.881	AM22NES.jpg
418.235	0.514	Blank	Blank	57.671	n/a	4	11	12	n/a	92	n/a	1	n/a	n/a	n/a	n/a	449.378	n/a
418.765	0.497	neutral	Picture	57.157	n/a	4	11	13	n/a	93	23	1	n/a	n/a	n/a	n/a	449.909	AM04NES.jpg
419.263	0.514	Blank	Blank	56.643	n/a	4	11	13	n/a	93	n/a	1	n/a	n/a	n/a	n/a	450.406	n/a
419.793	0.497	neutral	Picture	56.129	n/a	4	11	14	n/a	94	15	1	n/a	n/a	n/a	n/a	450.937	AF25NES.jpg
420.291	0.514	Blank	Blank	55.615	n/a	4	11	14	n/a	94	n/a	1	n/a	n/a	n/a	n/a	451.434	n/a
420.821	0.497	neutral	Picture	55.101	n/a	4	11	15	n/a	95	37	1	n/a	n/a	n/a	n/a	451.964	BM25NES.jpg
421.318	0.514	Blank	Blank	54.587	n/a	4	11	15	n/a	95	n/a	1	n/a	n/a	n/a	n/a	452.462	n/a
421.849	0.497	neutral	Picture	54.073	n/a	4	11	16	n/a	96	32	1	n/a	n/a	n/a	n/a	452.992	AM14NES.jpg
422.346	0.514	Blank	Blank	53.559	n/a	4	11	16	n/a	96	n/a	1	n/a	n/a	n/a	n/a	453.49	n/a
422.877	0.497	neutral	Picture	53.045	n/a	4	11	17	n/a	97	3	1	n/a	n/a	n/a	n/a	454.02	BF04NES.jpg
423.374	0.514	Blank	Blank	52.531	n/a	4	11	17	n/a	97	n/a	1	n/a	n/a	n/a	n/a	454.517	n/a
423.905	0.497	neutral	Picture	52.017	n/a	4	11	18	n/a	98	16	1	n/a	n/a	n/a	n/a	455.048	AF26NES.jpg
424.402	0.514	Blank	Blank	51.504	n/a	4	11	18	n/a	98	n/a	1	n/a	n/a	n/a	n/a	455.545	n/a
424.933	0.497	neutral	Picture	50.989	n/a	4	11	19	n/a	99	27	1	n/a	n/a	n/a	n/a	456.076	BM08NES.jpg
425.43	0.514	Blank	Blank	50.476	n/a	4	11	19	n/a	99	n/a	1	n/a	n/a	n/a	n/a	456.573	n/a
425.96	0.497	neutral	Picture	49.962	n/a	4	11	20	n/a	100	28	1	n/a	n/a	n/a	n/a	457.104	AM09NES.jpg
426.458	0.514	Blank	Blank	49.448	n/a	4	11	20	n/a	100	n/a	1	n/a	n/a	n/a	n/a	457.601	n/a
426.988	10.014	ITI	Fixation+	39.418	n/a	4	n/a	n/a	n/a	n/a	n/a	n/a	n/a	n/a	n/a	n/a	458.132	n/a
437.019	0.497	happy	Picture	38.904	n/a	4	12	1	n/a	101	81	3	n/a	n/a	n/a	n/a	468.162	AF01ANS.jpg
437.516	0.514	Blank	Blank	38.39	n/a	4	12	1	n/a	101	n/a	3	n/a	n/a	n/a	n/a	468.659	n/a
438.046	0.497	happy	Picture	37.876	n/a	4	12	2	n/a	102	120	3	n/a	n/a	n/a	n/a	469.19	AM35ANS.jpg
438.544	0.514	Blank	Blank	37.362	n/a	4	12	2	n/a	102	n/a	3	n/a	n/a	n/a	n/a	469.687	n/a
439.074	0.497	happy	Picture	36.848	n/a	4	12	3	n/a	103	114	3	n/a	n/a	n/a	n/a	470.218	AM22ANS.jpg
439.572	0.514	Blank	Blank	36.334	n/a	4	12	3	n/a	103	n/a	3	n/a	n/a	n/a	n/a	470.715	n/a
440.102	0.497	happy	Picture	35.82	n/a	4	12	4	n/a	104	109	3	n/a	n/a	n/a	n/a	471.245	AM10ANS.jpg
440.599	0.514	Blank	Blank	35.306	n/a	4	12	4	n/a	104	n/a	3	n/a	n/a	n/a	n/a	471.743	n/a
441.13	0.497	happy	Picture	34.792	n/a	4	12	5	n/a	105	96	3	n/a	n/a	n/a	n/a	472.273	AF26ANS.jpg
441.627	0.514	Blank	Blank	34.278	n/a	4	12	5	n/a	105	n/a	3	n/a	n/a	n/a	n/a	472.771	n/a
442.158	0.497	happy	Picture	33.764	n/a	4	12	6	n/a	106	82	3	n/a	n/a	n/a	n/a	473.301	AF03ANS.jpg
442.655	0.514	Blank	Blank	33.25	n/a	4	12	6	n/a	106	n/a	3	n/a	n/a	n/a	n/a	473.799	n/a
443.186	0.497	happy	Picture	32.736	n/a	4	12	7	n/a	107	97	3	n/a	n/a	n/a	n/a	474.329	BF28ANS.jpg
443.683	0.514	Blank	Blank	32.222	n/a	4	12	7	n/a	107	n/a	3	n/a	n/a	n/a	n/a	474.827	n/a
444.214	0.497	happy	Picture	31.708	n/a	4	12	8	n/a	108	115	3	n/a	n/a	n/a	n/a	475.357	AM23ANS.jpg
444.711	0.514	Blank	Blank	31.195	n/a	4	12	8	n/a	108	n/a	3	n/a	n/a	n/a	n/a	475.854	n/a
445.242	0.497	happy	Picture	30.681	n/a	4	12	9	n/a	109	91	3	n/a	n/a	n/a	n/a	476.385	AF20ANS.jpg
445.739	0.514	Blank	Blank	30.167	n/a	4	12	9	n/a	109	n/a	3	n/a	n/a	n/a	n/a	476.882	n/a
446.269	0.497	happy	Picture	29.653	n/a	4	12	10	n/a	110	87	3	n/a	n/a	n/a	n/a	477.413	BF11ANS.jpg
446.767	0.514	Blank	Blank	29.139	n/a	4	12	10	n/a	110	n/a	3	n/a	n/a	n/a	n/a	477.91	n/a
447.297	0.497	happy	Picture	28.625	n/a	4	12	11	n/a	111	85	3	n/a	n/a	n/a	n/a	478.441	BF07ANS.jpg
447.795	0.514	Blank	Blank	28.111	n/a	4	12	11	n/a	111	n/a	3	n/a	n/a	n/a	n/a	478.938	n/a
448.325	0.497	happy	Picture	27.597	n/a	4	12	12	n/a	112	110	3	n/a	n/a	n/a	n/a	479.469	AM11ANS.jpg
448.823	0.514	Blank	Blank	27.083	n/a	4	12	12	n/a	112	n/a	3	n/a	n/a	n/a	n/a	479.966	n/a
449.353	0.497	happy	Picture	26.569	n/a	4	12	13	n/a	113	111	3	n/a	n/a	n/a	n/a	480.496	BM12ANS.jpg
449.851	0.514	Blank	Blank	26.055	n/a	4	12	13	n/a	113	n/a	3	n/a	n/a	n/a	n/a	480.994	n/a
450.381	0.497	happy	Picture	25.541	n/a	4	12	14	n/a	114	103	3	n/a	n/a	n/a	n/a	481.524	AM04ANS.jpg
450.878	0.514	Blank	Blank	25.027	n/a	4	12	14	n/a	114	n/a	3	n/a	n/a	n/a	n/a	482.022	n/a
451.409	0.497	happy	Picture	24.513	n/a	4	12	15	n/a	115	101	3	n/a	n/a	n/a	n/a	482.552	AM01ANS.jpg
451.906	0.514	Blank	Blank	23.999	n/a	4	12	15	n/a	115	n/a	3	n/a	n/a	n/a	n/a	483.05	n/a
452.437	0.497	happy	Picture	23.485	n/a	4	12	16	n/a	116	104	3	n/a	n/a	n/a	n/a	483.58	BM05ANS.jpg
452.934	0.514	Blank	Blank	22.971	n/a	4	12	16	n/a	116	n/a	3	n/a	n/a	n/a	n/a	484.077	n/a
453.465	0.497	happy	Picture	22.457	n/a	4	12	17	n/a	117	107	3	n/a	n/a	n/a	n/a	484.608	BM08ANS.jpg
453.962	0.514	Blank	Blank	21.944	n/a	4	12	17	n/a	117	n/a	3	n/a	n/a	n/a	n/a	485.105	n/a
454.493	0.497	happy	Picture	21.43	n/a	4	12	18	n/a	118	98	3	n/a	n/a	n/a	n/a	485.636	BF29ANS.jpg
454.99	0.514	Blank	Blank	20.916	n/a	4	12	18	n/a	118	n/a	3	n/a	n/a	n/a	n/a	486.133	n/a
455.52	0.497	happy	Picture	20.402	n/a	4	12	19	n/a	119	99	3	n/a	n/a	n/a	n/a	486.664	AF31ANS.jpg
456.018	0.514	Blank	Blank	19.888	n/a	4	12	19	n/a	119	n/a	3	n/a	n/a	n/a	n/a	487.161	n/a
456.548	0.497	happy	Picture	19.374	n/a	4	12	20	n/a	120	108	3	n/a	n/a	n/a	n/a	487.692	AM09ANS.jpg
457.046	0.514	Blank	Blank	18.86	n/a	4	12	20	n/a	120	n/a	3	n/a	n/a	n/a	n/a	488.189	n/a
457.576	10.014	ITI	Fixation+	8.83	n/a	4	n/a	n/a	n/a	n/a	n/a	n/a	n/a	n/a	n/a	n/a	488.719	n/a
476.419	n/a	ConfirmRating	Rate	n/a	8.82	4	n/a	n/a	0	n/a	n/a	n/a	2	Happy	82	54	507.563	n/a
479.347	n/a	ConfirmRating	Rate	n/a	2.917	4	n/a	n/a	1	n/a	n/a	n/a	3	Happy	0	49	510.491	n/a
