onset	duration	trial_type	event_type	time_until_response	response_time	trial_number	block_num_within_trial	image_seq_num_within_block	question_seq_num_within_block	image_seq_num	picture_number	condition	question_type	block_type	rating	rating_computed	onset_uncorrected	KDEV_imagefile
0.007	10.014	ITI	Fixation+	100.386	n/a	1	n/a	n/a	n/a	n/a	n/a	n/a	n/a	n/a	n/a	n/a	27.797	n/a
10.037	0.497	angry	Picture	99.872	n/a	1	1	1	n/a	1	108	3	n/a	n/a	n/a	n/a	37.828	AM09ANS.jpg
10.535	0.514	Blank	Blank	99.358	n/a	1	1	1	n/a	1	n/a	3	n/a	n/a	n/a	n/a	38.325	n/a
11.065	0.497	angry	Picture	98.844	n/a	1	1	2	n/a	2	99	3	n/a	n/a	n/a	n/a	38.856	AF31ANS.jpg
11.563	0.514	Blank	Blank	98.33	n/a	1	1	2	n/a	2	n/a	3	n/a	n/a	n/a	n/a	39.353	n/a
12.093	0.497	angry	Picture	97.817	n/a	1	1	3	n/a	3	98	3	n/a	n/a	n/a	n/a	39.883	BF29ANS.jpg
12.591	0.514	Blank	Blank	97.303	n/a	1	1	3	n/a	3	n/a	3	n/a	n/a	n/a	n/a	40.381	n/a
13.121	0.497	angry	Picture	96.789	n/a	1	1	4	n/a	4	107	3	n/a	n/a	n/a	n/a	40.911	BM08ANS.jpg
13.618	0.514	Blank	Blank	96.275	n/a	1	1	4	n/a	4	n/a	3	n/a	n/a	n/a	n/a	41.409	n/a
14.149	0.497	angry	Picture	95.761	n/a	1	1	5	n/a	5	104	3	n/a	n/a	n/a	n/a	41.939	BM05ANS.jpg
14.646	0.514	Blank	Blank	95.247	n/a	1	1	5	n/a	5	n/a	3	n/a	n/a	n/a	n/a	42.437	n/a
15.177	0.497	angry	Picture	94.733	n/a	1	1	6	n/a	6	101	3	n/a	n/a	n/a	n/a	42.967	AM01ANS.jpg
15.674	0.514	Blank	Blank	94.219	n/a	1	1	6	n/a	6	n/a	3	n/a	n/a	n/a	n/a	43.465	n/a
16.205	0.497	angry	Picture	93.705	n/a	1	1	7	n/a	7	103	3	n/a	n/a	n/a	n/a	43.995	AM04ANS.jpg
16.702	0.514	Blank	Blank	93.191	n/a	1	1	7	n/a	7	n/a	3	n/a	n/a	n/a	n/a	44.492	n/a
17.233	0.497	angry	Picture	92.677	n/a	1	1	8	n/a	8	111	3	n/a	n/a	n/a	n/a	45.023	BM12ANS.jpg
17.73	0.514	Blank	Blank	92.163	n/a	1	1	8	n/a	8	n/a	3	n/a	n/a	n/a	n/a	45.52	n/a
18.261	0.497	angry	Picture	91.649	n/a	1	1	9	n/a	9	110	3	n/a	n/a	n/a	n/a	46.051	AM11ANS.jpg
18.758	0.514	Blank	Blank	91.135	n/a	1	1	9	n/a	9	n/a	3	n/a	n/a	n/a	n/a	46.548	n/a
19.288	0.497	angry	Picture	90.621	n/a	1	1	10	n/a	10	85	3	n/a	n/a	n/a	n/a	47.079	BF07ANS.jpg
19.786	0.514	Blank	Blank	90.107	n/a	1	1	10	n/a	10	n/a	3	n/a	n/a	n/a	n/a	47.576	n/a
20.316	0.497	angry	Picture	89.593	n/a	1	1	11	n/a	11	87	3	n/a	n/a	n/a	n/a	48.107	BF11ANS.jpg
20.814	0.514	Blank	Blank	89.079	n/a	1	1	11	n/a	11	n/a	3	n/a	n/a	n/a	n/a	48.604	n/a
21.344	0.497	angry	Picture	88.566	n/a	1	1	12	n/a	12	91	3	n/a	n/a	n/a	n/a	49.135	AF20ANS.jpg
21.841	0.514	Blank	Blank	88.052	n/a	1	1	12	n/a	12	n/a	3	n/a	n/a	n/a	n/a	49.632	n/a
22.372	0.497	angry	Picture	87.538	n/a	1	1	13	n/a	13	115	3	n/a	n/a	n/a	n/a	50.162	AM23ANS.jpg
22.869	0.514	Blank	Blank	87.024	n/a	1	1	13	n/a	13	n/a	3	n/a	n/a	n/a	n/a	50.66	n/a
23.4	0.497	angry	Picture	86.51	n/a	1	1	14	n/a	14	97	3	n/a	n/a	n/a	n/a	51.19	BF28ANS.jpg
23.897	0.514	Blank	Blank	85.996	n/a	1	1	14	n/a	14	n/a	3	n/a	n/a	n/a	n/a	51.688	n/a
24.428	0.497	angry	Picture	85.482	n/a	1	1	15	n/a	15	82	3	n/a	n/a	n/a	n/a	52.218	AF03ANS.jpg
24.925	0.514	Blank	Blank	84.968	n/a	1	1	15	n/a	15	n/a	3	n/a	n/a	n/a	n/a	52.715	n/a
25.456	0.497	angry	Picture	84.454	n/a	1	1	16	n/a	16	96	3	n/a	n/a	n/a	n/a	53.246	AF26ANS.jpg
25.953	0.514	Blank	Blank	83.94	n/a	1	1	16	n/a	16	n/a	3	n/a	n/a	n/a	n/a	53.743	n/a
26.484	0.497	angry	Picture	83.426	n/a	1	1	17	n/a	17	109	3	n/a	n/a	n/a	n/a	54.274	AM10ANS.jpg
26.981	0.514	Blank	Blank	82.912	n/a	1	1	17	n/a	17	n/a	3	n/a	n/a	n/a	n/a	54.771	n/a
27.512	0.497	angry	Picture	82.398	n/a	1	1	18	n/a	18	114	3	n/a	n/a	n/a	n/a	55.302	AM22ANS.jpg
28.009	0.514	Blank	Blank	81.884	n/a	1	1	18	n/a	18	n/a	3	n/a	n/a	n/a	n/a	55.799	n/a
28.539	0.497	angry	Picture	81.37	n/a	1	1	19	n/a	19	120	3	n/a	n/a	n/a	n/a	56.33	AM35ANS.jpg
29.037	0.514	Blank	Blank	80.856	n/a	1	1	19	n/a	19	n/a	3	n/a	n/a	n/a	n/a	56.827	n/a
29.567	0.497	angry	Picture	80.342	n/a	1	1	20	n/a	20	81	3	n/a	n/a	n/a	n/a	57.358	AF01ANS.jpg
30.065	0.514	Blank	Blank	79.828	n/a	1	1	20	n/a	20	n/a	3	n/a	n/a	n/a	n/a	57.855	n/a
30.595	10.014	ITI	Fixation+	69.798	n/a	1	n/a	n/a	n/a	n/a	n/a	n/a	n/a	n/a	n/a	n/a	58.386	n/a
40.625	0.497	neutral	Picture	69.284	n/a	1	2	1	n/a	21	28	1	n/a	n/a	n/a	n/a	68.416	AM09NES.jpg
41.123	0.514	Blank	Blank	68.77	n/a	1	2	1	n/a	21	n/a	1	n/a	n/a	n/a	n/a	68.913	n/a
41.653	0.497	neutral	Picture	68.256	n/a	1	2	2	n/a	22	27	1	n/a	n/a	n/a	n/a	69.444	BM08NES.jpg
42.151	0.514	Blank	Blank	67.742	n/a	1	2	2	n/a	22	n/a	1	n/a	n/a	n/a	n/a	69.941	n/a
42.681	0.497	neutral	Picture	67.228	n/a	1	2	3	n/a	23	16	1	n/a	n/a	n/a	n/a	70.472	AF26NES.jpg
43.178	0.514	Blank	Blank	66.715	n/a	1	2	3	n/a	23	n/a	1	n/a	n/a	n/a	n/a	70.969	n/a
43.709	0.497	neutral	Picture	66.201	n/a	1	2	4	n/a	24	3	1	n/a	n/a	n/a	n/a	71.499	BF04NES.jpg
44.206	0.514	Blank	Blank	65.687	n/a	1	2	4	n/a	24	n/a	1	n/a	n/a	n/a	n/a	71.997	n/a
44.737	0.497	neutral	Picture	65.173	n/a	1	2	5	n/a	25	32	1	n/a	n/a	n/a	n/a	72.527	AM14NES.jpg
45.234	0.514	Blank	Blank	64.659	n/a	1	2	5	n/a	25	n/a	1	n/a	n/a	n/a	n/a	73.025	n/a
45.765	0.497	neutral	Picture	64.145	n/a	1	2	6	n/a	26	37	1	n/a	n/a	n/a	n/a	73.555	BM25NES.jpg
46.262	0.514	Blank	Blank	63.631	n/a	1	2	6	n/a	26	n/a	1	n/a	n/a	n/a	n/a	74.052	n/a
46.793	0.497	neutral	Picture	63.117	n/a	1	2	7	n/a	27	15	1	n/a	n/a	n/a	n/a	74.583	AF25NES.jpg
47.29	0.514	Blank	Blank	62.603	n/a	1	2	7	n/a	27	n/a	1	n/a	n/a	n/a	n/a	75.08	n/a
47.821	0.497	neutral	Picture	62.089	n/a	1	2	8	n/a	28	23	1	n/a	n/a	n/a	n/a	75.611	AM04NES.jpg
48.318	0.514	Blank	Blank	61.575	n/a	1	2	8	n/a	28	n/a	1	n/a	n/a	n/a	n/a	76.108	n/a
48.849	0.497	neutral	Picture	61.061	n/a	1	2	9	n/a	29	34	1	n/a	n/a	n/a	n/a	76.639	AM22NES.jpg
49.346	0.514	Blank	Blank	60.547	n/a	1	2	9	n/a	29	n/a	1	n/a	n/a	n/a	n/a	77.136	n/a
49.876	0.497	neutral	Picture	60.033	n/a	1	2	10	n/a	30	24	1	n/a	n/a	n/a	n/a	77.667	BM05NES.jpg
50.374	0.514	Blank	Blank	59.519	n/a	1	2	10	n/a	30	n/a	1	n/a	n/a	n/a	n/a	78.164	n/a
50.904	0.497	neutral	Picture	59.005	n/a	1	2	11	n/a	31	12	1	n/a	n/a	n/a	n/a	78.695	AF21NES.jpg
51.402	0.514	Blank	Blank	58.491	n/a	1	2	11	n/a	31	n/a	1	n/a	n/a	n/a	n/a	79.192	n/a
51.932	0.497	neutral	Picture	57.977	n/a	1	2	12	n/a	32	6	1	n/a	n/a	n/a	n/a	79.722	AF09NES.jpg
52.43	0.514	Blank	Blank	57.464	n/a	1	2	12	n/a	32	n/a	1	n/a	n/a	n/a	n/a	80.22	n/a
52.96	0.497	neutral	Picture	56.95	n/a	1	2	13	n/a	33	17	1	n/a	n/a	n/a	n/a	80.75	BF28NES.jpg
53.457	0.514	Blank	Blank	56.436	n/a	1	2	13	n/a	33	n/a	1	n/a	n/a	n/a	n/a	81.248	n/a
53.988	0.497	neutral	Picture	55.922	n/a	1	2	14	n/a	34	2	1	n/a	n/a	n/a	n/a	81.778	AF03NES.jpg
54.485	0.514	Blank	Blank	55.408	n/a	1	2	14	n/a	34	n/a	1	n/a	n/a	n/a	n/a	82.276	n/a
55.016	0.497	neutral	Picture	54.894	n/a	1	2	15	n/a	35	9	1	n/a	n/a	n/a	n/a	82.806	AF17NES.jpg
55.513	0.514	Blank	Blank	54.38	n/a	1	2	15	n/a	35	n/a	1	n/a	n/a	n/a	n/a	83.303	n/a
56.044	0.497	neutral	Picture	53.866	n/a	1	2	16	n/a	36	25	1	n/a	n/a	n/a	n/a	83.834	BM06NES.jpg
56.541	0.514	Blank	Blank	53.352	n/a	1	2	16	n/a	36	n/a	1	n/a	n/a	n/a	n/a	84.331	n/a
57.072	0.497	neutral	Picture	52.838	n/a	1	2	17	n/a	37	8	1	n/a	n/a	n/a	n/a	84.862	AF14NES.jpg
57.569	0.514	Blank	Blank	52.324	n/a	1	2	17	n/a	37	n/a	1	n/a	n/a	n/a	n/a	85.359	n/a
58.099	0.497	neutral	Picture	51.81	n/a	1	2	18	n/a	38	19	1	n/a	n/a	n/a	n/a	85.89	AF31NES.jpg
58.597	0.514	Blank	Blank	51.296	n/a	1	2	18	n/a	38	n/a	1	n/a	n/a	n/a	n/a	86.387	n/a
59.127	0.497	neutral	Picture	50.782	n/a	1	2	19	n/a	39	14	1	n/a	n/a	n/a	n/a	86.918	AF23NES.jpg
59.625	0.514	Blank	Blank	50.268	n/a	1	2	19	n/a	39	n/a	1	n/a	n/a	n/a	n/a	87.415	n/a
60.155	0.497	neutral	Picture	49.754	n/a	1	2	20	n/a	40	4	1	n/a	n/a	n/a	n/a	87.946	AF05NES.jpg
60.653	0.514	Blank	Blank	49.24	n/a	1	2	20	n/a	40	n/a	1	n/a	n/a	n/a	n/a	88.443	n/a
61.183	10.014	ITI	Fixation+	39.21	n/a	1	n/a	n/a	n/a	n/a	n/a	n/a	n/a	n/a	n/a	n/a	88.974	n/a
71.213	0.497	angry	Picture	38.696	n/a	1	3	1	n/a	41	84	3	n/a	n/a	n/a	n/a	99.004	AF05ANS.jpg
71.711	0.514	Blank	Blank	38.182	n/a	1	3	1	n/a	41	n/a	3	n/a	n/a	n/a	n/a	99.501	n/a
72.241	0.497	angry	Picture	37.668	n/a	1	3	2	n/a	42	92	3	n/a	n/a	n/a	n/a	100.032	AF21ANS.jpg
72.739	0.514	Blank	Blank	37.154	n/a	1	3	2	n/a	42	n/a	3	n/a	n/a	n/a	n/a	100.529	n/a
73.269	0.497	angry	Picture	36.64	n/a	1	3	3	n/a	43	86	3	n/a	n/a	n/a	n/a	101.059	AF09ANS.jpg
73.767	0.514	Blank	Blank	36.127	n/a	1	3	3	n/a	43	n/a	3	n/a	n/a	n/a	n/a	101.557	n/a
74.297	0.497	angry	Picture	35.613	n/a	1	3	4	n/a	44	93	3	n/a	n/a	n/a	n/a	102.087	BF22ANS.jpg
74.794	0.514	Blank	Blank	35.099	n/a	1	3	4	n/a	44	n/a	3	n/a	n/a	n/a	n/a	102.585	n/a
75.325	0.497	angry	Picture	34.585	n/a	1	3	5	n/a	45	88	3	n/a	n/a	n/a	n/a	103.115	AF14ANS.jpg
75.822	0.514	Blank	Blank	34.071	n/a	1	3	5	n/a	45	n/a	3	n/a	n/a	n/a	n/a	103.613	n/a
76.353	0.497	angry	Picture	33.557	n/a	1	3	6	n/a	46	113	3	n/a	n/a	n/a	n/a	104.143	AM21ANS.jpg
76.85	0.514	Blank	Blank	33.043	n/a	1	3	6	n/a	46	n/a	3	n/a	n/a	n/a	n/a	104.641	n/a
77.381	0.497	angry	Picture	32.529	n/a	1	3	7	n/a	47	95	3	n/a	n/a	n/a	n/a	105.171	AF25ANS.jpg
77.878	0.514	Blank	Blank	32.015	n/a	1	3	7	n/a	47	n/a	3	n/a	n/a	n/a	n/a	105.668	n/a
78.409	0.497	angry	Picture	31.501	n/a	1	3	8	n/a	48	102	3	n/a	n/a	n/a	n/a	106.199	BM03ANS.jpg
78.906	0.514	Blank	Blank	30.987	n/a	1	3	8	n/a	48	n/a	3	n/a	n/a	n/a	n/a	106.696	n/a
79.437	0.497	angry	Picture	30.473	n/a	1	3	9	n/a	49	112	3	n/a	n/a	n/a	n/a	107.227	AM14ANS.jpg
79.934	0.514	Blank	Blank	29.959	n/a	1	3	9	n/a	49	n/a	3	n/a	n/a	n/a	n/a	107.724	n/a
80.464	0.497	angry	Picture	29.445	n/a	1	3	10	n/a	50	83	3	n/a	n/a	n/a	n/a	108.255	BF04ANS.jpg
80.962	0.514	Blank	Blank	28.931	n/a	1	3	10	n/a	50	n/a	3	n/a	n/a	n/a	n/a	108.752	n/a
81.492	0.497	angry	Picture	28.417	n/a	1	3	11	n/a	51	90	3	n/a	n/a	n/a	n/a	109.283	AF18ANS.jpg
81.99	0.514	Blank	Blank	27.903	n/a	1	3	11	n/a	51	n/a	3	n/a	n/a	n/a	n/a	109.78	n/a
82.52	0.497	angry	Picture	27.389	n/a	1	3	12	n/a	52	117	3	n/a	n/a	n/a	n/a	110.311	BM25ANS.jpg
83.018	0.514	Blank	Blank	26.876	n/a	1	3	12	n/a	52	n/a	3	n/a	n/a	n/a	n/a	110.808	n/a
83.548	0.497	angry	Picture	26.362	n/a	1	3	13	n/a	53	94	3	n/a	n/a	n/a	n/a	111.338	AF23ANS.jpg
84.046	0.514	Blank	Blank	25.848	n/a	1	3	13	n/a	53	n/a	3	n/a	n/a	n/a	n/a	111.836	n/a
84.576	0.497	angry	Picture	25.334	n/a	1	3	14	n/a	54	106	3	n/a	n/a	n/a	n/a	112.366	AM07ANS.jpg
85.073	0.514	Blank	Blank	24.82	n/a	1	3	14	n/a	54	n/a	3	n/a	n/a	n/a	n/a	112.864	n/a
85.604	0.497	angry	Picture	24.306	n/a	1	3	15	n/a	55	105	3	n/a	n/a	n/a	n/a	113.394	BM06ANS.jpg
86.101	0.514	Blank	Blank	23.792	n/a	1	3	15	n/a	55	n/a	3	n/a	n/a	n/a	n/a	113.892	n/a
86.632	0.497	angry	Picture	23.278	n/a	1	3	16	n/a	56	116	3	n/a	n/a	n/a	n/a	114.422	BM24ANS.jpg
87.129	0.514	Blank	Blank	22.764	n/a	1	3	16	n/a	56	n/a	3	n/a	n/a	n/a	n/a	114.919	n/a
87.66	0.497	angry	Picture	22.25	n/a	1	3	17	n/a	57	89	3	n/a	n/a	n/a	n/a	115.45	AF17ANS.jpg
88.157	0.514	Blank	Blank	21.736	n/a	1	3	17	n/a	57	n/a	3	n/a	n/a	n/a	n/a	115.947	n/a
88.688	0.497	angry	Picture	21.222	n/a	1	3	18	n/a	58	118	3	n/a	n/a	n/a	n/a	116.478	BM26ANS.jpg
89.185	0.514	Blank	Blank	20.708	n/a	1	3	18	n/a	58	n/a	3	n/a	n/a	n/a	n/a	116.975	n/a
89.715	0.497	angry	Picture	20.194	n/a	1	3	19	n/a	59	100	3	n/a	n/a	n/a	n/a	117.506	AF32ANS.jpg
90.213	0.514	Blank	Blank	19.68	n/a	1	3	19	n/a	59	n/a	3	n/a	n/a	n/a	n/a	118.003	n/a
90.743	0.497	angry	Picture	19.166	n/a	1	3	20	n/a	60	119	3	n/a	n/a	n/a	n/a	118.534	BM28ANS.jpg
91.241	0.514	Blank	Blank	18.652	n/a	1	3	20	n/a	60	n/a	3	n/a	n/a	n/a	n/a	119.031	n/a
91.771	10.014	ITI	Fixation+	8.622	n/a	1	n/a	n/a	n/a	n/a	n/a	n/a	n/a	n/a	n/a	n/a	119.561	n/a
110.407	n/a	ConfirmRating	Rate	n/a	8.621	1	n/a	n/a	0	n/a	n/a	n/a	2	Angry	55	50	138.197	n/a
115.947	n/a	ConfirmRating	Rate	n/a	5.521	1	n/a	n/a	1	n/a	n/a	n/a	3	Angry	39	49	143.737	n/a
115.976	10.014	ITI	Fixation+	95.296	n/a	2	n/a	n/a	n/a	n/a	n/a	n/a	n/a	n/a	n/a	n/a	143.767	n/a
126.007	0.497	happy	Picture	94.782	n/a	2	4	1	n/a	61	79	2	n/a	n/a	n/a	n/a	153.797	BM28HAS.jpg
126.504	0.514	Blank	Blank	94.268	n/a	2	4	1	n/a	61	n/a	2	n/a	n/a	n/a	n/a	154.294	n/a
127.035	0.497	happy	Picture	93.754	n/a	2	4	2	n/a	62	61	2	n/a	n/a	n/a	n/a	154.825	AM01HAS.jpg
127.532	0.514	Blank	Blank	93.24	n/a	2	4	2	n/a	62	n/a	2	n/a	n/a	n/a	n/a	155.322	n/a
128.062	0.497	happy	Picture	92.726	n/a	2	4	3	n/a	63	57	2	n/a	n/a	n/a	n/a	155.853	BF28HAS.jpg
128.56	0.514	Blank	Blank	92.212	n/a	2	4	3	n/a	63	n/a	2	n/a	n/a	n/a	n/a	156.35	n/a
129.09	0.497	happy	Picture	91.698	n/a	2	4	4	n/a	64	77	2	n/a	n/a	n/a	n/a	156.881	BM25HAS.jpg
129.588	0.514	Blank	Blank	91.184	n/a	2	4	4	n/a	64	n/a	2	n/a	n/a	n/a	n/a	157.378	n/a
130.118	0.497	happy	Picture	90.67	n/a	2	4	5	n/a	65	47	2	n/a	n/a	n/a	n/a	157.909	BF11HAS.jpg
130.615	0.514	Blank	Blank	90.156	n/a	2	4	5	n/a	65	n/a	2	n/a	n/a	n/a	n/a	158.406	n/a
131.146	0.497	happy	Picture	89.643	n/a	2	4	6	n/a	66	50	2	n/a	n/a	n/a	n/a	158.936	AF18HAS.jpg
131.643	0.514	Blank	Blank	89.129	n/a	2	4	6	n/a	66	n/a	2	n/a	n/a	n/a	n/a	159.434	n/a
132.174	0.497	happy	Picture	88.615	n/a	2	4	7	n/a	67	78	2	n/a	n/a	n/a	n/a	159.964	BM26HAS.jpg
132.671	0.514	Blank	Blank	88.101	n/a	2	4	7	n/a	67	n/a	2	n/a	n/a	n/a	n/a	160.462	n/a
133.202	0.497	happy	Picture	87.587	n/a	2	4	8	n/a	68	45	2	n/a	n/a	n/a	n/a	160.992	BF07HAS.jpg
133.699	0.514	Blank	Blank	87.073	n/a	2	4	8	n/a	68	n/a	2	n/a	n/a	n/a	n/a	161.489	n/a
134.23	0.497	happy	Picture	86.559	n/a	2	4	9	n/a	69	56	2	n/a	n/a	n/a	n/a	162.02	AF26HAS.jpg
134.727	0.514	Blank	Blank	86.045	n/a	2	4	9	n/a	69	n/a	2	n/a	n/a	n/a	n/a	162.517	n/a
135.258	0.497	happy	Picture	85.531	n/a	2	4	10	n/a	70	65	2	n/a	n/a	n/a	n/a	163.048	BM06HAS.jpg
135.755	0.514	Blank	Blank	85.017	n/a	2	4	10	n/a	70	n/a	2	n/a	n/a	n/a	n/a	163.545	n/a
136.285	0.497	happy	Picture	84.503	n/a	2	4	11	n/a	71	73	2	n/a	n/a	n/a	n/a	164.076	AM21HAS.jpg
136.783	0.514	Blank	Blank	83.989	n/a	2	4	11	n/a	71	n/a	2	n/a	n/a	n/a	n/a	164.573	n/a
137.313	0.497	happy	Picture	83.475	n/a	2	4	12	n/a	72	41	2	n/a	n/a	n/a	n/a	165.104	AF01HAS.jpg
137.811	0.514	Blank	Blank	82.961	n/a	2	4	12	n/a	72	n/a	2	n/a	n/a	n/a	n/a	165.601	n/a
138.341	0.497	happy	Picture	82.447	n/a	2	4	13	n/a	73	59	2	n/a	n/a	n/a	n/a	166.132	AF31HAS.jpg
138.839	0.514	Blank	Blank	81.933	n/a	2	4	13	n/a	73	n/a	2	n/a	n/a	n/a	n/a	166.629	n/a
139.369	0.497	happy	Picture	81.419	n/a	2	4	14	n/a	74	64	2	n/a	n/a	n/a	n/a	167.16	BM05HAS.jpg
139.867	0.514	Blank	Blank	80.905	n/a	2	4	14	n/a	74	n/a	2	n/a	n/a	n/a	n/a	167.657	n/a
140.397	0.497	happy	Picture	80.391	n/a	2	4	15	n/a	75	68	2	n/a	n/a	n/a	n/a	168.187	AM09HAS.jpg
140.894	0.514	Blank	Blank	79.877	n/a	2	4	15	n/a	75	n/a	2	n/a	n/a	n/a	n/a	168.685	n/a
141.425	0.497	happy	Picture	79.364	n/a	2	4	16	n/a	76	54	2	n/a	n/a	n/a	n/a	169.215	AF23HAS.jpg
141.922	0.514	Blank	Blank	78.85	n/a	2	4	16	n/a	76	n/a	2	n/a	n/a	n/a	n/a	169.713	n/a
142.453	0.497	happy	Picture	78.336	n/a	2	4	17	n/a	77	53	2	n/a	n/a	n/a	n/a	170.243	BF22HAS.jpg
142.95	0.514	Blank	Blank	77.822	n/a	2	4	17	n/a	77	n/a	2	n/a	n/a	n/a	n/a	170.74	n/a
143.481	0.497	happy	Picture	77.308	n/a	2	4	18	n/a	78	44	2	n/a	n/a	n/a	n/a	171.271	AF05HAS.jpg
143.978	0.514	Blank	Blank	76.794	n/a	2	4	18	n/a	78	n/a	2	n/a	n/a	n/a	n/a	171.768	n/a
144.509	0.497	happy	Picture	76.28	n/a	2	4	19	n/a	79	52	2	n/a	n/a	n/a	n/a	172.299	AF21HAS.jpg
145.006	0.514	Blank	Blank	75.766	n/a	2	4	19	n/a	79	n/a	2	n/a	n/a	n/a	n/a	172.796	n/a
145.536	0.497	happy	Picture	75.252	n/a	2	4	20	n/a	80	62	2	n/a	n/a	n/a	n/a	173.327	BM03HAS.jpg
146.034	0.514	Blank	Blank	74.738	n/a	2	4	20	n/a	80	n/a	2	n/a	n/a	n/a	n/a	173.824	n/a
146.564	10.014	ITI	Fixation+	64.708	n/a	2	n/a	n/a	n/a	n/a	n/a	n/a	n/a	n/a	n/a	n/a	174.355	n/a
156.595	0.497	neutral	Picture	64.194	n/a	2	5	1	n/a	81	23	1	n/a	n/a	n/a	n/a	184.385	AM04NES.jpg
157.092	0.514	Blank	Blank	63.68	n/a	2	5	1	n/a	81	n/a	1	n/a	n/a	n/a	n/a	184.882	n/a
157.623	0.497	neutral	Picture	63.166	n/a	2	5	2	n/a	82	29	1	n/a	n/a	n/a	n/a	185.413	AM10NES.jpg
158.12	0.514	Blank	Blank	62.652	n/a	2	5	2	n/a	82	n/a	1	n/a	n/a	n/a	n/a	185.91	n/a
158.65	0.497	neutral	Picture	62.138	n/a	2	5	3	n/a	83	24	1	n/a	n/a	n/a	n/a	186.441	BM05NES.jpg
159.148	0.514	Blank	Blank	61.624	n/a	2	5	3	n/a	83	n/a	1	n/a	n/a	n/a	n/a	186.938	n/a
159.678	0.497	neutral	Picture	61.11	n/a	2	5	4	n/a	84	12	1	n/a	n/a	n/a	n/a	187.469	AF21NES.jpg
160.176	0.514	Blank	Blank	60.596	n/a	2	5	4	n/a	84	n/a	1	n/a	n/a	n/a	n/a	187.966	n/a
160.706	0.497	neutral	Picture	60.082	n/a	2	5	5	n/a	85	13	1	n/a	n/a	n/a	n/a	188.496	BF22NES.jpg
161.204	0.514	Blank	Blank	59.568	n/a	2	5	5	n/a	85	n/a	1	n/a	n/a	n/a	n/a	188.994	n/a
161.734	0.497	neutral	Picture	59.054	n/a	2	5	6	n/a	86	17	1	n/a	n/a	n/a	n/a	189.524	BF28NES.jpg
162.232	0.514	Blank	Blank	58.54	n/a	2	5	6	n/a	86	n/a	1	n/a	n/a	n/a	n/a	190.022	n/a
162.762	0.497	neutral	Picture	58.026	n/a	2	5	7	n/a	87	4	1	n/a	n/a	n/a	n/a	190.552	AF05NES.jpg
163.259	0.514	Blank	Blank	57.513	n/a	2	5	7	n/a	87	n/a	1	n/a	n/a	n/a	n/a	191.05	n/a
163.79	0.497	neutral	Picture	56.999	n/a	2	5	8	n/a	88	11	1	n/a	n/a	n/a	n/a	191.58	AF20NES.jpg
164.287	0.514	Blank	Blank	56.485	n/a	2	5	8	n/a	88	n/a	1	n/a	n/a	n/a	n/a	192.077	n/a
164.818	0.497	neutral	Picture	55.971	n/a	2	5	9	n/a	89	22	1	n/a	n/a	n/a	n/a	192.608	BM03NES.jpg
165.315	0.514	Blank	Blank	55.457	n/a	2	5	9	n/a	89	n/a	1	n/a	n/a	n/a	n/a	193.105	n/a
165.846	0.497	neutral	Picture	54.943	n/a	2	5	10	n/a	90	15	1	n/a	n/a	n/a	n/a	193.636	AF25NES.jpg
166.343	0.514	Blank	Blank	54.429	n/a	2	5	10	n/a	90	n/a	1	n/a	n/a	n/a	n/a	194.133	n/a
166.874	0.497	neutral	Picture	53.915	n/a	2	5	11	n/a	91	19	1	n/a	n/a	n/a	n/a	194.664	AF31NES.jpg
167.371	0.514	Blank	Blank	53.401	n/a	2	5	11	n/a	91	n/a	1	n/a	n/a	n/a	n/a	195.161	n/a
167.901	0.497	neutral	Picture	52.887	n/a	2	5	12	n/a	92	9	1	n/a	n/a	n/a	n/a	195.692	AF17NES.jpg
168.399	0.514	Blank	Blank	52.373	n/a	2	5	12	n/a	92	n/a	1	n/a	n/a	n/a	n/a	196.189	n/a
168.929	0.497	neutral	Picture	51.859	n/a	2	5	13	n/a	93	14	1	n/a	n/a	n/a	n/a	196.72	AF23NES.jpg
169.427	0.514	Blank	Blank	51.345	n/a	2	5	13	n/a	93	n/a	1	n/a	n/a	n/a	n/a	197.217	n/a
169.957	0.497	neutral	Picture	50.831	n/a	2	5	14	n/a	94	36	1	n/a	n/a	n/a	n/a	197.748	BM24NES.jpg
170.455	0.514	Blank	Blank	50.317	n/a	2	5	14	n/a	94	n/a	1	n/a	n/a	n/a	n/a	198.245	n/a
170.985	0.497	neutral	Picture	49.803	n/a	2	5	15	n/a	95	34	1	n/a	n/a	n/a	n/a	198.775	AM22NES.jpg
171.482	0.514	Blank	Blank	49.29	n/a	2	5	15	n/a	95	n/a	1	n/a	n/a	n/a	n/a	199.273	n/a
172.013	0.497	neutral	Picture	48.775	n/a	2	5	16	n/a	96	10	1	n/a	n/a	n/a	n/a	199.803	AF18NES.jpg
172.51	0.514	Blank	Blank	48.262	n/a	2	5	16	n/a	96	n/a	1	n/a	n/a	n/a	n/a	200.301	n/a
173.041	0.497	neutral	Picture	47.748	n/a	2	5	17	n/a	97	5	1	n/a	n/a	n/a	n/a	200.831	BF07NES.jpg
173.538	0.514	Blank	Blank	47.234	n/a	2	5	17	n/a	97	n/a	1	n/a	n/a	n/a	n/a	201.329	n/a
174.069	0.497	neutral	Picture	46.72	n/a	2	5	18	n/a	98	25	1	n/a	n/a	n/a	n/a	201.859	BM06NES.jpg
174.566	0.514	Blank	Blank	46.206	n/a	2	5	18	n/a	98	n/a	1	n/a	n/a	n/a	n/a	202.357	n/a
175.097	0.497	neutral	Picture	45.692	n/a	2	5	19	n/a	99	39	1	n/a	n/a	n/a	n/a	202.887	AM28NES.jpg
175.594	0.514	Blank	Blank	45.178	n/a	2	5	19	n/a	99	n/a	1	n/a	n/a	n/a	n/a	203.384	n/a
176.125	0.497	neutral	Picture	44.664	n/a	2	5	20	n/a	100	33	1	n/a	n/a	n/a	n/a	203.915	AM21NES.jpg
176.622	0.514	Blank	Blank	44.15	n/a	2	5	20	n/a	100	n/a	1	n/a	n/a	n/a	n/a	204.412	n/a
177.153	10.014	ITI	Fixation+	34.12	n/a	2	n/a	n/a	n/a	n/a	n/a	n/a	n/a	n/a	n/a	n/a	204.943	n/a
187.183	0.497	happy	Picture	33.606	n/a	2	6	1	n/a	101	74	2	n/a	n/a	n/a	n/a	214.973	AM22HAS.jpg
187.68	0.514	Blank	Blank	33.092	n/a	2	6	1	n/a	101	n/a	2	n/a	n/a	n/a	n/a	215.47	n/a
188.211	0.497	happy	Picture	32.578	n/a	2	6	2	n/a	102	76	2	n/a	n/a	n/a	n/a	216.001	BM24HAS.jpg
188.708	0.514	Blank	Blank	32.064	n/a	2	6	2	n/a	102	n/a	2	n/a	n/a	n/a	n/a	216.498	n/a
189.238	0.497	happy	Picture	31.55	n/a	2	6	3	n/a	103	80	2	n/a	n/a	n/a	n/a	217.029	BM35HAS.jpg
189.736	0.514	Blank	Blank	31.036	n/a	2	6	3	n/a	103	n/a	2	n/a	n/a	n/a	n/a	217.526	n/a
190.266	0.497	happy	Picture	30.522	n/a	2	6	4	n/a	104	75	2	n/a	n/a	n/a	n/a	218.057	AM23HAS.jpg
190.764	0.514	Blank	Blank	30.008	n/a	2	6	4	n/a	104	n/a	2	n/a	n/a	n/a	n/a	218.554	n/a
191.294	0.497	happy	Picture	29.494	n/a	2	6	5	n/a	105	49	2	n/a	n/a	n/a	n/a	219.084	AF17HAS.jpg
191.792	0.514	Blank	Blank	28.98	n/a	2	6	5	n/a	105	n/a	2	n/a	n/a	n/a	n/a	219.582	n/a
192.322	0.497	happy	Picture	28.466	n/a	2	6	6	n/a	106	43	2	n/a	n/a	n/a	n/a	220.112	BF04HAS.jpg
192.82	0.514	Blank	Blank	27.952	n/a	2	6	6	n/a	106	n/a	2	n/a	n/a	n/a	n/a	220.61	n/a
193.35	0.497	happy	Picture	27.439	n/a	2	6	7	n/a	107	70	2	n/a	n/a	n/a	n/a	221.14	BM11HAS.jpg
193.847	0.514	Blank	Blank	26.925	n/a	2	6	7	n/a	107	n/a	2	n/a	n/a	n/a	n/a	221.638	n/a
194.378	0.497	happy	Picture	26.411	n/a	2	6	8	n/a	108	66	2	n/a	n/a	n/a	n/a	222.168	BM07HAS.jpg
194.875	0.514	Blank	Blank	25.897	n/a	2	6	8	n/a	108	n/a	2	n/a	n/a	n/a	n/a	222.666	n/a
195.406	0.497	happy	Picture	25.383	n/a	2	6	9	n/a	109	48	2	n/a	n/a	n/a	n/a	223.196	AF14HAS.jpg
195.903	0.514	Blank	Blank	24.869	n/a	2	6	9	n/a	109	n/a	2	n/a	n/a	n/a	n/a	223.694	n/a
196.434	0.497	happy	Picture	24.355	n/a	2	6	10	n/a	110	58	2	n/a	n/a	n/a	n/a	224.224	BF29HAS.jpg
196.931	0.514	Blank	Blank	23.841	n/a	2	6	10	n/a	110	n/a	2	n/a	n/a	n/a	n/a	224.721	n/a
197.462	0.497	happy	Picture	23.327	n/a	2	6	11	n/a	111	63	2	n/a	n/a	n/a	n/a	225.252	AM04HAS.jpg
197.959	0.514	Blank	Blank	22.813	n/a	2	6	11	n/a	111	n/a	2	n/a	n/a	n/a	n/a	225.749	n/a
198.489	0.497	happy	Picture	22.299	n/a	2	6	12	n/a	112	72	2	n/a	n/a	n/a	n/a	226.28	AM14HAS.jpg
198.987	0.514	Blank	Blank	21.785	n/a	2	6	12	n/a	112	n/a	2	n/a	n/a	n/a	n/a	226.777	n/a
199.517	0.497	happy	Picture	21.271	n/a	2	6	13	n/a	113	55	2	n/a	n/a	n/a	n/a	227.308	AF25HAS.jpg
200.015	0.514	Blank	Blank	20.757	n/a	2	6	13	n/a	113	n/a	2	n/a	n/a	n/a	n/a	227.805	n/a
200.545	0.497	happy	Picture	20.243	n/a	2	6	14	n/a	114	42	2	n/a	n/a	n/a	n/a	228.336	AF03HAS.jpg
201.043	0.514	Blank	Blank	19.729	n/a	2	6	14	n/a	114	n/a	2	n/a	n/a	n/a	n/a	228.833	n/a
201.573	0.497	happy	Picture	19.215	n/a	2	6	15	n/a	115	60	2	n/a	n/a	n/a	n/a	229.363	AF32HAS.jpg
202.071	0.514	Blank	Blank	18.701	n/a	2	6	15	n/a	115	n/a	2	n/a	n/a	n/a	n/a	229.861	n/a
202.601	0.497	happy	Picture	18.188	n/a	2	6	16	n/a	116	67	2	n/a	n/a	n/a	n/a	230.391	BM08HAS.jpg
203.098	0.514	Blank	Blank	17.674	n/a	2	6	16	n/a	116	n/a	2	n/a	n/a	n/a	n/a	230.889	n/a
203.629	0.497	happy	Picture	17.16	n/a	2	6	17	n/a	117	51	2	n/a	n/a	n/a	n/a	231.419	AF20HAS.jpg
204.126	0.514	Blank	Blank	16.646	n/a	2	6	17	n/a	117	n/a	2	n/a	n/a	n/a	n/a	231.917	n/a
204.657	0.497	happy	Picture	16.132	n/a	2	6	18	n/a	118	71	2	n/a	n/a	n/a	n/a	232.447	BM12HAS.jpg
205.154	0.514	Blank	Blank	15.618	n/a	2	6	18	n/a	118	n/a	2	n/a	n/a	n/a	n/a	232.945	n/a
205.685	0.497	happy	Picture	15.104	n/a	2	6	19	n/a	119	69	2	n/a	n/a	n/a	n/a	233.475	AM10HAS.jpg
206.182	0.514	Blank	Blank	14.59	n/a	2	6	19	n/a	119	n/a	2	n/a	n/a	n/a	n/a	233.972	n/a
206.713	0.497	happy	Picture	14.076	n/a	2	6	20	n/a	120	46	2	n/a	n/a	n/a	n/a	234.503	AF09HAS.jpg
207.21	0.514	Blank	Blank	13.562	n/a	2	6	20	n/a	120	n/a	2	n/a	n/a	n/a	n/a	235.0	n/a
207.74	10.014	ITI	Fixation+	3.532	n/a	2	n/a	n/a	n/a	n/a	n/a	n/a	n/a	n/a	n/a	n/a	235.531	n/a
221.286	n/a	ConfirmRating	Rate	n/a	3.531	2	n/a	n/a	0	n/a	n/a	n/a	2	Happy	67	51	249.076	n/a
225.993	n/a	ConfirmRating	Rate	n/a	4.676	2	n/a	n/a	1	n/a	n/a	n/a	3	Happy	0	46	253.783	n/a
226.01	15.004	Rest	Picture	n/a	n/a	n/a	n/a	n/a	n/a	n/a	n/a	n/a	0	n/a	0	0	253.801	n/a
241.031	10.014	ITI	Fixation+	94.529	n/a	3	n/a	n/a	n/a	n/a	n/a	n/a	n/a	n/a	n/a	n/a	268.821	n/a
251.061	0.497	angry	Picture	94.015	n/a	3	7	1	n/a	1	108	3	n/a	n/a	n/a	n/a	278.851	AM09ANS.jpg
251.558	0.514	Blank	Blank	93.501	n/a	3	7	1	n/a	1	n/a	3	n/a	n/a	n/a	n/a	279.349	n/a
252.089	0.497	angry	Picture	92.987	n/a	3	7	2	n/a	2	99	3	n/a	n/a	n/a	n/a	279.879	AF31ANS.jpg
252.586	0.514	Blank	Blank	92.473	n/a	3	7	2	n/a	2	n/a	3	n/a	n/a	n/a	n/a	280.377	n/a
253.117	0.497	angry	Picture	91.959	n/a	3	7	3	n/a	3	98	3	n/a	n/a	n/a	n/a	280.907	BF29ANS.jpg
253.614	0.514	Blank	Blank	91.445	n/a	3	7	3	n/a	3	n/a	3	n/a	n/a	n/a	n/a	281.404	n/a
254.145	0.497	angry	Picture	90.931	n/a	3	7	4	n/a	4	107	3	n/a	n/a	n/a	n/a	281.935	BM08ANS.jpg
254.642	0.514	Blank	Blank	90.417	n/a	3	7	4	n/a	4	n/a	3	n/a	n/a	n/a	n/a	282.432	n/a
255.173	0.497	angry	Picture	89.904	n/a	3	7	5	n/a	5	104	3	n/a	n/a	n/a	n/a	282.963	BM05ANS.jpg
255.67	0.514	Blank	Blank	89.389	n/a	3	7	5	n/a	5	n/a	3	n/a	n/a	n/a	n/a	283.46	n/a
256.201	0.497	angry	Picture	88.876	n/a	3	7	6	n/a	6	101	3	n/a	n/a	n/a	n/a	283.991	AM01ANS.jpg
256.698	0.514	Blank	Blank	88.362	n/a	3	7	6	n/a	6	n/a	3	n/a	n/a	n/a	n/a	284.488	n/a
257.228	0.497	angry	Picture	87.848	n/a	3	7	7	n/a	7	103	3	n/a	n/a	n/a	n/a	285.019	AM04ANS.jpg
257.726	0.514	Blank	Blank	87.334	n/a	3	7	7	n/a	7	n/a	3	n/a	n/a	n/a	n/a	285.516	n/a
258.256	0.497	angry	Picture	86.82	n/a	3	7	8	n/a	8	111	3	n/a	n/a	n/a	n/a	286.047	BM12ANS.jpg
258.754	0.514	Blank	Blank	86.306	n/a	3	7	8	n/a	8	n/a	3	n/a	n/a	n/a	n/a	286.544	n/a
259.284	0.497	angry	Picture	85.792	n/a	3	7	9	n/a	9	110	3	n/a	n/a	n/a	n/a	287.075	AM11ANS.jpg
259.782	0.514	Blank	Blank	85.278	n/a	3	7	9	n/a	9	n/a	3	n/a	n/a	n/a	n/a	287.572	n/a
260.312	0.497	angry	Picture	84.764	n/a	3	7	10	n/a	10	85	3	n/a	n/a	n/a	n/a	288.102	BF07ANS.jpg
260.81	0.514	Blank	Blank	84.25	n/a	3	7	10	n/a	10	n/a	3	n/a	n/a	n/a	n/a	288.6	n/a
261.34	0.497	angry	Picture	83.736	n/a	3	7	11	n/a	11	87	3	n/a	n/a	n/a	n/a	289.13	BF11ANS.jpg
261.837	0.514	Blank	Blank	83.222	n/a	3	7	11	n/a	11	n/a	3	n/a	n/a	n/a	n/a	289.628	n/a
262.368	0.497	angry	Picture	82.708	n/a	3	7	12	n/a	12	91	3	n/a	n/a	n/a	n/a	290.158	AF20ANS.jpg
262.865	0.514	Blank	Blank	82.194	n/a	3	7	12	n/a	12	n/a	3	n/a	n/a	n/a	n/a	290.656	n/a
263.396	0.497	angry	Picture	81.68	n/a	3	7	13	n/a	13	115	3	n/a	n/a	n/a	n/a	291.186	AM23ANS.jpg
263.893	0.514	Blank	Blank	81.166	n/a	3	7	13	n/a	13	n/a	3	n/a	n/a	n/a	n/a	291.683	n/a
264.424	0.497	angry	Picture	80.653	n/a	3	7	14	n/a	14	97	3	n/a	n/a	n/a	n/a	292.214	BF28ANS.jpg
264.921	0.514	Blank	Blank	80.139	n/a	3	7	14	n/a	14	n/a	3	n/a	n/a	n/a	n/a	292.711	n/a
265.452	0.497	angry	Picture	79.625	n/a	3	7	15	n/a	15	82	3	n/a	n/a	n/a	n/a	293.242	AF03ANS.jpg
265.949	0.514	Blank	Blank	79.111	n/a	3	7	15	n/a	15	n/a	3	n/a	n/a	n/a	n/a	293.739	n/a
266.479	0.497	angry	Picture	78.597	n/a	3	7	16	n/a	16	96	3	n/a	n/a	n/a	n/a	294.27	AF26ANS.jpg
266.977	0.514	Blank	Blank	78.083	n/a	3	7	16	n/a	16	n/a	3	n/a	n/a	n/a	n/a	294.767	n/a
267.507	0.497	angry	Picture	77.569	n/a	3	7	17	n/a	17	109	3	n/a	n/a	n/a	n/a	295.298	AM10ANS.jpg
268.005	0.514	Blank	Blank	77.055	n/a	3	7	17	n/a	17	n/a	3	n/a	n/a	n/a	n/a	295.795	n/a
268.535	0.497	angry	Picture	76.541	n/a	3	7	18	n/a	18	114	3	n/a	n/a	n/a	n/a	296.325	AM22ANS.jpg
269.033	0.514	Blank	Blank	76.027	n/a	3	7	18	n/a	18	n/a	3	n/a	n/a	n/a	n/a	296.823	n/a
269.563	0.497	angry	Picture	75.513	n/a	3	7	19	n/a	19	120	3	n/a	n/a	n/a	n/a	297.353	AM35ANS.jpg
270.06	0.514	Blank	Blank	74.999	n/a	3	7	19	n/a	19	n/a	3	n/a	n/a	n/a	n/a	297.851	n/a
270.591	0.497	angry	Picture	74.485	n/a	3	7	20	n/a	20	81	3	n/a	n/a	n/a	n/a	298.381	AF01ANS.jpg
271.088	0.514	Blank	Blank	73.971	n/a	3	7	20	n/a	20	n/a	3	n/a	n/a	n/a	n/a	298.879	n/a
271.619	10.014	ITI	Fixation+	63.941	n/a	3	n/a	n/a	n/a	n/a	n/a	n/a	n/a	n/a	n/a	n/a	299.409	n/a
281.649	0.497	neutral	Picture	63.427	n/a	3	8	1	n/a	21	28	1	n/a	n/a	n/a	n/a	309.439	AM09NES.jpg
282.147	0.514	Blank	Blank	62.913	n/a	3	8	1	n/a	21	n/a	1	n/a	n/a	n/a	n/a	309.937	n/a
282.677	0.497	neutral	Picture	62.399	n/a	3	8	2	n/a	22	27	1	n/a	n/a	n/a	n/a	310.467	BM08NES.jpg
283.174	0.514	Blank	Blank	61.885	n/a	3	8	2	n/a	22	n/a	1	n/a	n/a	n/a	n/a	310.965	n/a
283.705	0.497	neutral	Picture	61.371	n/a	3	8	3	n/a	23	16	1	n/a	n/a	n/a	n/a	311.495	AF26NES.jpg
284.202	0.514	Blank	Blank	60.857	n/a	3	8	3	n/a	23	n/a	1	n/a	n/a	n/a	n/a	311.993	n/a
284.733	0.497	neutral	Picture	60.343	n/a	3	8	4	n/a	24	3	1	n/a	n/a	n/a	n/a	312.523	BF04NES.jpg
285.23	0.514	Blank	Blank	59.829	n/a	3	8	4	n/a	24	n/a	1	n/a	n/a	n/a	n/a	313.021	n/a
285.761	0.497	neutral	Picture	59.315	n/a	3	8	5	n/a	25	32	1	n/a	n/a	n/a	n/a	313.551	AM14NES.jpg
286.258	0.514	Blank	Blank	58.802	n/a	3	8	5	n/a	25	n/a	1	n/a	n/a	n/a	n/a	314.048	n/a
286.789	0.497	neutral	Picture	58.288	n/a	3	8	6	n/a	26	37	1	n/a	n/a	n/a	n/a	314.579	BM25NES.jpg
287.286	0.514	Blank	Blank	57.774	n/a	3	8	6	n/a	26	n/a	1	n/a	n/a	n/a	n/a	315.076	n/a
287.817	0.497	neutral	Picture	57.26	n/a	3	8	7	n/a	27	15	1	n/a	n/a	n/a	n/a	315.607	AF25NES.jpg
288.314	0.514	Blank	Blank	56.746	n/a	3	8	7	n/a	27	n/a	1	n/a	n/a	n/a	n/a	316.104	n/a
288.844	0.497	neutral	Picture	56.232	n/a	3	8	8	n/a	28	23	1	n/a	n/a	n/a	n/a	316.635	AM04NES.jpg
289.342	0.514	Blank	Blank	55.718	n/a	3	8	8	n/a	28	n/a	1	n/a	n/a	n/a	n/a	317.132	n/a
289.872	0.497	neutral	Picture	55.204	n/a	3	8	9	n/a	29	34	1	n/a	n/a	n/a	n/a	317.663	AM22NES.jpg
290.37	0.514	Blank	Blank	54.69	n/a	3	8	9	n/a	29	n/a	1	n/a	n/a	n/a	n/a	318.16	n/a
290.9	0.497	neutral	Picture	54.176	n/a	3	8	10	n/a	30	24	1	n/a	n/a	n/a	n/a	318.69	BM05NES.jpg
291.397	0.514	Blank	Blank	53.662	n/a	3	8	10	n/a	30	n/a	1	n/a	n/a	n/a	n/a	319.188	n/a
291.928	0.497	neutral	Picture	53.148	n/a	3	8	11	n/a	31	12	1	n/a	n/a	n/a	n/a	319.718	AF21NES.jpg
292.425	0.514	Blank	Blank	52.634	n/a	3	8	11	n/a	31	n/a	1	n/a	n/a	n/a	n/a	320.216	n/a
292.956	0.497	neutral	Picture	52.12	n/a	3	8	12	n/a	32	6	1	n/a	n/a	n/a	n/a	320.746	AF09NES.jpg
293.453	0.514	Blank	Blank	51.606	n/a	3	8	12	n/a	32	n/a	1	n/a	n/a	n/a	n/a	321.244	n/a
293.984	0.497	neutral	Picture	51.092	n/a	3	8	13	n/a	33	17	1	n/a	n/a	n/a	n/a	321.774	BF28NES.jpg
294.481	0.514	Blank	Blank	50.578	n/a	3	8	13	n/a	33	n/a	1	n/a	n/a	n/a	n/a	322.272	n/a
295.012	0.497	neutral	Picture	50.064	n/a	3	8	14	n/a	34	2	1	n/a	n/a	n/a	n/a	322.802	AF03NES.jpg
295.509	0.514	Blank	Blank	49.551	n/a	3	8	14	n/a	34	n/a	1	n/a	n/a	n/a	n/a	323.299	n/a
296.04	0.497	neutral	Picture	49.036	n/a	3	8	15	n/a	35	9	1	n/a	n/a	n/a	n/a	323.83	AF17NES.jpg
296.537	0.514	Blank	Blank	48.523	n/a	3	8	15	n/a	35	n/a	1	n/a	n/a	n/a	n/a	324.327	n/a
297.067	0.497	neutral	Picture	48.009	n/a	3	8	16	n/a	36	25	1	n/a	n/a	n/a	n/a	324.858	BM06NES.jpg
297.565	0.514	Blank	Blank	47.495	n/a	3	8	16	n/a	36	n/a	1	n/a	n/a	n/a	n/a	325.355	n/a
298.095	0.497	neutral	Picture	46.981	n/a	3	8	17	n/a	37	8	1	n/a	n/a	n/a	n/a	325.886	AF14NES.jpg
298.593	0.514	Blank	Blank	46.467	n/a	3	8	17	n/a	37	n/a	1	n/a	n/a	n/a	n/a	326.383	n/a
299.123	0.497	neutral	Picture	45.953	n/a	3	8	18	n/a	38	19	1	n/a	n/a	n/a	n/a	326.914	AF31NES.jpg
299.621	0.514	Blank	Blank	45.439	n/a	3	8	18	n/a	38	n/a	1	n/a	n/a	n/a	n/a	327.411	n/a
300.151	0.497	neutral	Picture	44.925	n/a	3	8	19	n/a	39	14	1	n/a	n/a	n/a	n/a	327.942	AF23NES.jpg
300.649	0.514	Blank	Blank	44.411	n/a	3	8	19	n/a	39	n/a	1	n/a	n/a	n/a	n/a	328.439	n/a
301.179	0.497	neutral	Picture	43.897	n/a	3	8	20	n/a	40	4	1	n/a	n/a	n/a	n/a	328.969	AF05NES.jpg
301.676	0.514	Blank	Blank	43.383	n/a	3	8	20	n/a	40	n/a	1	n/a	n/a	n/a	n/a	329.467	n/a
302.207	10.014	ITI	Fixation+	33.353	n/a	3	n/a	n/a	n/a	n/a	n/a	n/a	n/a	n/a	n/a	n/a	329.997	n/a
312.237	0.497	angry	Picture	32.839	n/a	3	9	1	n/a	41	84	3	n/a	n/a	n/a	n/a	340.027	AF05ANS.jpg
312.735	0.514	Blank	Blank	32.325	n/a	3	9	1	n/a	41	n/a	3	n/a	n/a	n/a	n/a	340.525	n/a
313.265	0.497	angry	Picture	31.811	n/a	3	9	2	n/a	42	92	3	n/a	n/a	n/a	n/a	341.055	AF21ANS.jpg
313.762	0.514	Blank	Blank	31.297	n/a	3	9	2	n/a	42	n/a	3	n/a	n/a	n/a	n/a	341.553	n/a
314.293	0.497	angry	Picture	30.783	n/a	3	9	3	n/a	43	86	3	n/a	n/a	n/a	n/a	342.083	AF09ANS.jpg
314.79	0.514	Blank	Blank	30.269	n/a	3	9	3	n/a	43	n/a	3	n/a	n/a	n/a	n/a	342.581	n/a
315.321	0.497	angry	Picture	29.755	n/a	3	9	4	n/a	44	93	3	n/a	n/a	n/a	n/a	343.111	BF22ANS.jpg
315.818	0.514	Blank	Blank	29.241	n/a	3	9	4	n/a	44	n/a	3	n/a	n/a	n/a	n/a	343.608	n/a
316.349	0.497	angry	Picture	28.727	n/a	3	9	5	n/a	45	88	3	n/a	n/a	n/a	n/a	344.139	AF14ANS.jpg
316.846	0.514	Blank	Blank	28.214	n/a	3	9	5	n/a	45	n/a	3	n/a	n/a	n/a	n/a	344.636	n/a
317.377	0.497	angry	Picture	27.7	n/a	3	9	6	n/a	46	113	3	n/a	n/a	n/a	n/a	345.167	AM21ANS.jpg
317.874	0.514	Blank	Blank	27.186	n/a	3	9	6	n/a	46	n/a	3	n/a	n/a	n/a	n/a	345.664	n/a
318.404	0.497	angry	Picture	26.672	n/a	3	9	7	n/a	47	95	3	n/a	n/a	n/a	n/a	346.195	AF25ANS.jpg
318.902	0.514	Blank	Blank	26.158	n/a	3	9	7	n/a	47	n/a	3	n/a	n/a	n/a	n/a	346.692	n/a
319.432	0.497	angry	Picture	25.644	n/a	3	9	8	n/a	48	102	3	n/a	n/a	n/a	n/a	347.223	BM03ANS.jpg
319.93	0.514	Blank	Blank	25.13	n/a	3	9	8	n/a	48	n/a	3	n/a	n/a	n/a	n/a	347.72	n/a
320.46	0.497	angry	Picture	24.616	n/a	3	9	9	n/a	49	112	3	n/a	n/a	n/a	n/a	348.251	AM14ANS.jpg
320.958	0.514	Blank	Blank	24.102	n/a	3	9	9	n/a	49	n/a	3	n/a	n/a	n/a	n/a	348.748	n/a
321.488	0.497	angry	Picture	23.588	n/a	3	9	10	n/a	50	83	3	n/a	n/a	n/a	n/a	349.279	BF04ANS.jpg
321.986	0.514	Blank	Blank	23.074	n/a	3	9	10	n/a	50	n/a	3	n/a	n/a	n/a	n/a	349.776	n/a
322.516	0.497	angry	Picture	22.56	n/a	3	9	11	n/a	51	90	3	n/a	n/a	n/a	n/a	350.306	AF18ANS.jpg
323.013	0.514	Blank	Blank	22.046	n/a	3	9	11	n/a	51	n/a	3	n/a	n/a	n/a	n/a	350.804	n/a
323.544	0.497	angry	Picture	21.532	n/a	3	9	12	n/a	52	117	3	n/a	n/a	n/a	n/a	351.334	BM25ANS.jpg
324.041	0.514	Blank	Blank	21.018	n/a	3	9	12	n/a	52	n/a	3	n/a	n/a	n/a	n/a	351.832	n/a
324.572	0.497	angry	Picture	20.504	n/a	3	9	13	n/a	53	94	3	n/a	n/a	n/a	n/a	352.362	AF23ANS.jpg
325.069	0.514	Blank	Blank	19.99	n/a	3	9	13	n/a	53	n/a	3	n/a	n/a	n/a	n/a	352.86	n/a
325.6	0.497	angry	Picture	19.476	n/a	3	9	14	n/a	54	106	3	n/a	n/a	n/a	n/a	353.39	AM07ANS.jpg
326.097	0.514	Blank	Blank	18.963	n/a	3	9	14	n/a	54	n/a	3	n/a	n/a	n/a	n/a	353.887	n/a
326.628	0.497	angry	Picture	18.449	n/a	3	9	15	n/a	55	105	3	n/a	n/a	n/a	n/a	354.418	BM06ANS.jpg
327.125	0.514	Blank	Blank	17.935	n/a	3	9	15	n/a	55	n/a	3	n/a	n/a	n/a	n/a	354.915	n/a
327.656	0.497	angry	Picture	17.421	n/a	3	9	16	n/a	56	116	3	n/a	n/a	n/a	n/a	355.446	BM24ANS.jpg
328.153	0.514	Blank	Blank	16.907	n/a	3	9	16	n/a	56	n/a	3	n/a	n/a	n/a	n/a	355.943	n/a
328.683	0.497	angry	Picture	16.393	n/a	3	9	17	n/a	57	89	3	n/a	n/a	n/a	n/a	356.474	AF17ANS.jpg
329.181	0.514	Blank	Blank	15.879	n/a	3	9	17	n/a	57	n/a	3	n/a	n/a	n/a	n/a	356.971	n/a
329.711	0.497	angry	Picture	15.365	n/a	3	9	18	n/a	58	118	3	n/a	n/a	n/a	n/a	357.502	BM26ANS.jpg
330.209	0.514	Blank	Blank	14.851	n/a	3	9	18	n/a	58	n/a	3	n/a	n/a	n/a	n/a	357.999	n/a
330.739	0.497	angry	Picture	14.337	n/a	3	9	19	n/a	59	100	3	n/a	n/a	n/a	n/a	358.529	AF32ANS.jpg
331.237	0.514	Blank	Blank	13.823	n/a	3	9	19	n/a	59	n/a	3	n/a	n/a	n/a	n/a	359.027	n/a
331.767	0.497	angry	Picture	13.309	n/a	3	9	20	n/a	60	119	3	n/a	n/a	n/a	n/a	359.557	BM28ANS.jpg
332.264	0.514	Blank	Blank	12.795	n/a	3	9	20	n/a	60	n/a	3	n/a	n/a	n/a	n/a	360.055	n/a
332.795	10.014	ITI	Fixation+	2.765	n/a	3	n/a	n/a	n/a	n/a	n/a	n/a	n/a	n/a	n/a	n/a	360.585	n/a
345.574	n/a	ConfirmRating	Rate	n/a	2.752	3	n/a	n/a	0	n/a	n/a	n/a	2	Angry	69	52	373.364	n/a
348.622	n/a	ConfirmRating	Rate	n/a	3.034	3	n/a	n/a	1	n/a	n/a	n/a	3	Angry	6	48	376.412	n/a
348.644	10.014	ITI	Fixation+	94.989	n/a	4	n/a	n/a	n/a	n/a	n/a	n/a	n/a	n/a	n/a	n/a	376.435	n/a
358.675	0.497	happy	Picture	94.475	n/a	4	10	1	n/a	61	79	2	n/a	n/a	n/a	n/a	386.465	BM28HAS.jpg
359.172	0.514	Blank	Blank	93.962	n/a	4	10	1	n/a	61	n/a	2	n/a	n/a	n/a	n/a	386.962	n/a
359.702	0.497	happy	Picture	93.447	n/a	4	10	2	n/a	62	61	2	n/a	n/a	n/a	n/a	387.493	AM01HAS.jpg
360.2	0.514	Blank	Blank	92.934	n/a	4	10	2	n/a	62	n/a	2	n/a	n/a	n/a	n/a	387.99	n/a
360.73	0.497	happy	Picture	92.42	n/a	4	10	3	n/a	63	57	2	n/a	n/a	n/a	n/a	388.521	BF28HAS.jpg
361.228	0.514	Blank	Blank	91.906	n/a	4	10	3	n/a	63	n/a	2	n/a	n/a	n/a	n/a	389.018	n/a
361.758	0.497	happy	Picture	91.392	n/a	4	10	4	n/a	64	77	2	n/a	n/a	n/a	n/a	389.549	BM25HAS.jpg
362.256	0.514	Blank	Blank	90.878	n/a	4	10	4	n/a	64	n/a	2	n/a	n/a	n/a	n/a	390.046	n/a
362.786	0.497	happy	Picture	90.364	n/a	4	10	5	n/a	65	47	2	n/a	n/a	n/a	n/a	390.577	BF11HAS.jpg
363.284	0.514	Blank	Blank	89.85	n/a	4	10	5	n/a	65	n/a	2	n/a	n/a	n/a	n/a	391.074	n/a
363.814	0.497	happy	Picture	89.336	n/a	4	10	6	n/a	66	50	2	n/a	n/a	n/a	n/a	391.604	AF18HAS.jpg
364.311	0.514	Blank	Blank	88.822	n/a	4	10	6	n/a	66	n/a	2	n/a	n/a	n/a	n/a	392.102	n/a
364.842	0.497	happy	Picture	88.308	n/a	4	10	7	n/a	67	78	2	n/a	n/a	n/a	n/a	392.632	BM26HAS.jpg
365.339	0.514	Blank	Blank	87.794	n/a	4	10	7	n/a	67	n/a	2	n/a	n/a	n/a	n/a	393.13	n/a
365.87	0.497	happy	Picture	87.28	n/a	4	10	8	n/a	68	45	2	n/a	n/a	n/a	n/a	393.66	BF07HAS.jpg
366.367	0.514	Blank	Blank	86.766	n/a	4	10	8	n/a	68	n/a	2	n/a	n/a	n/a	n/a	394.158	n/a
366.898	0.497	happy	Picture	86.252	n/a	4	10	9	n/a	69	56	2	n/a	n/a	n/a	n/a	394.688	AF26HAS.jpg
367.395	0.514	Blank	Blank	85.738	n/a	4	10	9	n/a	69	n/a	2	n/a	n/a	n/a	n/a	395.185	n/a
367.926	0.497	happy	Picture	85.224	n/a	4	10	10	n/a	70	65	2	n/a	n/a	n/a	n/a	395.716	BM06HAS.jpg
368.423	0.514	Blank	Blank	84.711	n/a	4	10	10	n/a	70	n/a	2	n/a	n/a	n/a	n/a	396.213	n/a
368.954	0.497	happy	Picture	84.196	n/a	4	10	11	n/a	71	73	2	n/a	n/a	n/a	n/a	396.744	AM21HAS.jpg
369.451	0.514	Blank	Blank	83.683	n/a	4	10	11	n/a	71	n/a	2	n/a	n/a	n/a	n/a	397.241	n/a
369.981	0.497	happy	Picture	83.169	n/a	4	10	12	n/a	72	41	2	n/a	n/a	n/a	n/a	397.772	AF01HAS.jpg
370.479	0.514	Blank	Blank	82.655	n/a	4	10	12	n/a	72	n/a	2	n/a	n/a	n/a	n/a	398.269	n/a
371.009	0.497	happy	Picture	82.141	n/a	4	10	13	n/a	73	59	2	n/a	n/a	n/a	n/a	398.8	AF31HAS.jpg
371.507	0.514	Blank	Blank	81.627	n/a	4	10	13	n/a	73	n/a	2	n/a	n/a	n/a	n/a	399.297	n/a
372.037	0.497	happy	Picture	81.113	n/a	4	10	14	n/a	74	64	2	n/a	n/a	n/a	n/a	399.827	BM05HAS.jpg
372.534	0.514	Blank	Blank	80.599	n/a	4	10	14	n/a	74	n/a	2	n/a	n/a	n/a	n/a	400.325	n/a
373.065	0.497	happy	Picture	80.085	n/a	4	10	15	n/a	75	68	2	n/a	n/a	n/a	n/a	400.855	AM09HAS.jpg
373.562	0.514	Blank	Blank	79.571	n/a	4	10	15	n/a	75	n/a	2	n/a	n/a	n/a	n/a	401.353	n/a
374.093	0.497	happy	Picture	79.057	n/a	4	10	16	n/a	76	54	2	n/a	n/a	n/a	n/a	401.883	AF23HAS.jpg
374.59	0.514	Blank	Blank	78.543	n/a	4	10	16	n/a	76	n/a	2	n/a	n/a	n/a	n/a	402.381	n/a
375.121	0.497	happy	Picture	78.029	n/a	4	10	17	n/a	77	53	2	n/a	n/a	n/a	n/a	402.911	BF22HAS.jpg
375.618	0.514	Blank	Blank	77.515	n/a	4	10	17	n/a	77	n/a	2	n/a	n/a	n/a	n/a	403.409	n/a
376.149	0.497	happy	Picture	77.001	n/a	4	10	18	n/a	78	44	2	n/a	n/a	n/a	n/a	403.939	AF05HAS.jpg
376.646	0.514	Blank	Blank	76.487	n/a	4	10	18	n/a	78	n/a	2	n/a	n/a	n/a	n/a	404.436	n/a
377.177	0.497	happy	Picture	75.973	n/a	4	10	19	n/a	79	52	2	n/a	n/a	n/a	n/a	404.967	AF21HAS.jpg
377.674	0.514	Blank	Blank	75.46	n/a	4	10	19	n/a	79	n/a	2	n/a	n/a	n/a	n/a	405.464	n/a
378.204	0.497	happy	Picture	74.945	n/a	4	10	20	n/a	80	62	2	n/a	n/a	n/a	n/a	405.995	BM03HAS.jpg
378.702	0.514	Blank	Blank	74.432	n/a	4	10	20	n/a	80	n/a	2	n/a	n/a	n/a	n/a	406.492	n/a
379.232	10.014	ITI	Fixation+	64.401	n/a	4	n/a	n/a	n/a	n/a	n/a	n/a	n/a	n/a	n/a	n/a	407.023	n/a
389.263	0.497	neutral	Picture	63.887	n/a	4	11	1	n/a	81	23	1	n/a	n/a	n/a	n/a	417.053	AM04NES.jpg
389.76	0.514	Blank	Blank	63.374	n/a	4	11	1	n/a	81	n/a	1	n/a	n/a	n/a	n/a	417.55	n/a
390.291	0.497	neutral	Picture	62.859	n/a	4	11	2	n/a	82	29	1	n/a	n/a	n/a	n/a	418.081	AM10NES.jpg
390.788	0.514	Blank	Blank	62.346	n/a	4	11	2	n/a	82	n/a	1	n/a	n/a	n/a	n/a	418.578	n/a
391.318	0.497	neutral	Picture	61.832	n/a	4	11	3	n/a	83	24	1	n/a	n/a	n/a	n/a	419.109	BM05NES.jpg
391.816	0.514	Blank	Blank	61.318	n/a	4	11	3	n/a	83	n/a	1	n/a	n/a	n/a	n/a	419.606	n/a
392.346	0.497	neutral	Picture	60.804	n/a	4	11	4	n/a	84	12	1	n/a	n/a	n/a	n/a	420.137	AF21NES.jpg
392.844	0.514	Blank	Blank	60.29	n/a	4	11	4	n/a	84	n/a	1	n/a	n/a	n/a	n/a	420.634	n/a
393.374	0.497	neutral	Picture	59.776	n/a	4	11	5	n/a	85	13	1	n/a	n/a	n/a	n/a	421.164	BF22NES.jpg
393.872	0.514	Blank	Blank	59.262	n/a	4	11	5	n/a	85	n/a	1	n/a	n/a	n/a	n/a	421.662	n/a
394.402	0.497	neutral	Picture	58.748	n/a	4	11	6	n/a	86	17	1	n/a	n/a	n/a	n/a	422.192	BF28NES.jpg
394.899	0.514	Blank	Blank	58.234	n/a	4	11	6	n/a	86	n/a	1	n/a	n/a	n/a	n/a	422.69	n/a
395.43	0.497	neutral	Picture	57.72	n/a	4	11	7	n/a	87	4	1	n/a	n/a	n/a	n/a	423.22	AF05NES.jpg
395.927	0.514	Blank	Blank	57.206	n/a	4	11	7	n/a	87	n/a	1	n/a	n/a	n/a	n/a	423.718	n/a
396.458	0.497	neutral	Picture	56.692	n/a	4	11	8	n/a	88	11	1	n/a	n/a	n/a	n/a	424.248	AF20NES.jpg
396.955	0.514	Blank	Blank	56.178	n/a	4	11	8	n/a	88	n/a	1	n/a	n/a	n/a	n/a	424.745	n/a
397.486	0.497	neutral	Picture	55.664	n/a	4	11	9	n/a	89	22	1	n/a	n/a	n/a	n/a	425.276	BM03NES.jpg
397.983	0.514	Blank	Blank	55.15	n/a	4	11	9	n/a	89	n/a	1	n/a	n/a	n/a	n/a	425.773	n/a
398.514	0.497	neutral	Picture	54.636	n/a	4	11	10	n/a	90	15	1	n/a	n/a	n/a	n/a	426.304	AF25NES.jpg
399.011	0.514	Blank	Blank	54.122	n/a	4	11	10	n/a	90	n/a	1	n/a	n/a	n/a	n/a	426.801	n/a
399.541	0.497	neutral	Picture	53.608	n/a	4	11	11	n/a	91	19	1	n/a	n/a	n/a	n/a	427.332	AF31NES.jpg
400.039	0.514	Blank	Blank	53.095	n/a	4	11	11	n/a	91	n/a	1	n/a	n/a	n/a	n/a	427.829	n/a
400.569	0.497	neutral	Picture	52.581	n/a	4	11	12	n/a	92	9	1	n/a	n/a	n/a	n/a	428.36	AF17NES.jpg
401.067	0.514	Blank	Blank	52.067	n/a	4	11	12	n/a	92	n/a	1	n/a	n/a	n/a	n/a	428.857	n/a
401.597	0.497	neutral	Picture	51.553	n/a	4	11	13	n/a	93	14	1	n/a	n/a	n/a	n/a	429.388	AF23NES.jpg
402.095	0.514	Blank	Blank	51.039	n/a	4	11	13	n/a	93	n/a	1	n/a	n/a	n/a	n/a	429.885	n/a
402.625	0.497	neutral	Picture	50.525	n/a	4	11	14	n/a	94	36	1	n/a	n/a	n/a	n/a	430.416	BM24NES.jpg
403.123	0.514	Blank	Blank	50.011	n/a	4	11	14	n/a	94	n/a	1	n/a	n/a	n/a	n/a	430.913	n/a
403.653	0.497	neutral	Picture	49.497	n/a	4	11	15	n/a	95	34	1	n/a	n/a	n/a	n/a	431.443	AM22NES.jpg
404.151	0.514	Blank	Blank	48.983	n/a	4	11	15	n/a	95	n/a	1	n/a	n/a	n/a	n/a	431.941	n/a
404.681	0.497	neutral	Picture	48.469	n/a	4	11	16	n/a	96	10	1	n/a	n/a	n/a	n/a	432.471	AF18NES.jpg
405.178	0.514	Blank	Blank	47.955	n/a	4	11	16	n/a	96	n/a	1	n/a	n/a	n/a	n/a	432.969	n/a
405.709	0.497	neutral	Picture	47.441	n/a	4	11	17	n/a	97	5	1	n/a	n/a	n/a	n/a	433.499	BF07NES.jpg
406.206	0.514	Blank	Blank	46.927	n/a	4	11	17	n/a	97	n/a	1	n/a	n/a	n/a	n/a	433.997	n/a
406.737	0.497	neutral	Picture	46.413	n/a	4	11	18	n/a	98	25	1	n/a	n/a	n/a	n/a	434.527	BM06NES.jpg
407.234	0.514	Blank	Blank	45.899	n/a	4	11	18	n/a	98	n/a	1	n/a	n/a	n/a	n/a	435.024	n/a
407.765	0.497	neutral	Picture	45.385	n/a	4	11	19	n/a	99	39	1	n/a	n/a	n/a	n/a	435.555	AM28NES.jpg
408.262	0.514	Blank	Blank	44.871	n/a	4	11	19	n/a	99	n/a	1	n/a	n/a	n/a	n/a	436.052	n/a
408.793	0.497	neutral	Picture	44.357	n/a	4	11	20	n/a	100	33	1	n/a	n/a	n/a	n/a	436.583	AM21NES.jpg
409.29	0.514	Blank	Blank	43.844	n/a	4	11	20	n/a	100	n/a	1	n/a	n/a	n/a	n/a	437.08	n/a
409.82	10.014	ITI	Fixation+	33.813	n/a	4	n/a	n/a	n/a	n/a	n/a	n/a	n/a	n/a	n/a	n/a	437.611	n/a
419.851	0.497	happy	Picture	33.299	n/a	4	12	1	n/a	101	74	2	n/a	n/a	n/a	n/a	447.641	AM22HAS.jpg
420.348	0.514	Blank	Blank	32.785	n/a	4	12	1	n/a	101	n/a	2	n/a	n/a	n/a	n/a	448.138	n/a
420.878	0.497	happy	Picture	32.272	n/a	4	12	2	n/a	102	76	2	n/a	n/a	n/a	n/a	448.669	BM24HAS.jpg
421.376	0.514	Blank	Blank	31.757	n/a	4	12	2	n/a	102	n/a	2	n/a	n/a	n/a	n/a	449.166	n/a
421.906	0.497	happy	Picture	31.244	n/a	4	12	3	n/a	103	80	2	n/a	n/a	n/a	n/a	449.697	BM35HAS.jpg
422.404	0.514	Blank	Blank	30.73	n/a	4	12	3	n/a	103	n/a	2	n/a	n/a	n/a	n/a	450.194	n/a
422.934	0.497	happy	Picture	30.216	n/a	4	12	4	n/a	104	75	2	n/a	n/a	n/a	n/a	450.725	AM23HAS.jpg
423.432	0.514	Blank	Blank	29.702	n/a	4	12	4	n/a	104	n/a	2	n/a	n/a	n/a	n/a	451.222	n/a
423.962	0.497	happy	Picture	29.188	n/a	4	12	5	n/a	105	49	2	n/a	n/a	n/a	n/a	451.752	AF17HAS.jpg
424.46	0.514	Blank	Blank	28.674	n/a	4	12	5	n/a	105	n/a	2	n/a	n/a	n/a	n/a	452.25	n/a
424.99	0.497	happy	Picture	28.16	n/a	4	12	6	n/a	106	43	2	n/a	n/a	n/a	n/a	452.78	BF04HAS.jpg
425.488	0.514	Blank	Blank	27.646	n/a	4	12	6	n/a	106	n/a	2	n/a	n/a	n/a	n/a	453.278	n/a
426.018	0.497	happy	Picture	27.132	n/a	4	12	7	n/a	107	70	2	n/a	n/a	n/a	n/a	453.808	BM11HAS.jpg
426.515	0.514	Blank	Blank	26.618	n/a	4	12	7	n/a	107	n/a	2	n/a	n/a	n/a	n/a	454.306	n/a
427.046	0.497	happy	Picture	26.104	n/a	4	12	8	n/a	108	66	2	n/a	n/a	n/a	n/a	454.836	BM07HAS.jpg
427.543	0.514	Blank	Blank	25.59	n/a	4	12	8	n/a	108	n/a	2	n/a	n/a	n/a	n/a	455.334	n/a
428.074	0.497	happy	Picture	25.076	n/a	4	12	9	n/a	109	48	2	n/a	n/a	n/a	n/a	455.864	AF14HAS.jpg
428.571	0.514	Blank	Blank	24.562	n/a	4	12	9	n/a	109	n/a	2	n/a	n/a	n/a	n/a	456.361	n/a
429.102	0.497	happy	Picture	24.048	n/a	4	12	10	n/a	110	58	2	n/a	n/a	n/a	n/a	456.892	BF29HAS.jpg
429.599	0.514	Blank	Blank	23.534	n/a	4	12	10	n/a	110	n/a	2	n/a	n/a	n/a	n/a	457.389	n/a
430.13	0.497	happy	Picture	23.021	n/a	4	12	11	n/a	111	63	2	n/a	n/a	n/a	n/a	457.92	AM04HAS.jpg
430.627	0.514	Blank	Blank	22.507	n/a	4	12	11	n/a	111	n/a	2	n/a	n/a	n/a	n/a	458.417	n/a
431.157	0.497	happy	Picture	21.993	n/a	4	12	12	n/a	112	72	2	n/a	n/a	n/a	n/a	458.948	AM14HAS.jpg
431.655	0.514	Blank	Blank	21.479	n/a	4	12	12	n/a	112	n/a	2	n/a	n/a	n/a	n/a	459.445	n/a
432.185	0.497	happy	Picture	20.965	n/a	4	12	13	n/a	113	55	2	n/a	n/a	n/a	n/a	459.976	AF25HAS.jpg
432.683	0.514	Blank	Blank	20.451	n/a	4	12	13	n/a	113	n/a	2	n/a	n/a	n/a	n/a	460.473	n/a
433.213	0.497	happy	Picture	19.937	n/a	4	12	14	n/a	114	42	2	n/a	n/a	n/a	n/a	461.003	AF03HAS.jpg
433.711	0.514	Blank	Blank	19.423	n/a	4	12	14	n/a	114	n/a	2	n/a	n/a	n/a	n/a	461.501	n/a
434.241	0.497	happy	Picture	18.909	n/a	4	12	15	n/a	115	60	2	n/a	n/a	n/a	n/a	462.031	AF32HAS.jpg
434.738	0.514	Blank	Blank	18.395	n/a	4	12	15	n/a	115	n/a	2	n/a	n/a	n/a	n/a	462.529	n/a
435.269	0.497	happy	Picture	17.881	n/a	4	12	16	n/a	116	67	2	n/a	n/a	n/a	n/a	463.059	BM08HAS.jpg
435.766	0.514	Blank	Blank	17.367	n/a	4	12	16	n/a	116	n/a	2	n/a	n/a	n/a	n/a	463.557	n/a
436.297	0.497	happy	Picture	16.853	n/a	4	12	17	n/a	117	51	2	n/a	n/a	n/a	n/a	464.087	AF20HAS.jpg
436.794	0.514	Blank	Blank	16.339	n/a	4	12	17	n/a	117	n/a	2	n/a	n/a	n/a	n/a	464.585	n/a
437.325	0.497	happy	Picture	15.825	n/a	4	12	18	n/a	118	71	2	n/a	n/a	n/a	n/a	465.115	BM12HAS.jpg
437.822	0.514	Blank	Blank	15.311	n/a	4	12	18	n/a	118	n/a	2	n/a	n/a	n/a	n/a	465.613	n/a
438.353	0.497	happy	Picture	14.797	n/a	4	12	19	n/a	119	69	2	n/a	n/a	n/a	n/a	466.143	AM10HAS.jpg
438.85	0.514	Blank	Blank	14.283	n/a	4	12	19	n/a	119	n/a	2	n/a	n/a	n/a	n/a	466.64	n/a
439.381	0.497	happy	Picture	13.769	n/a	4	12	20	n/a	120	46	2	n/a	n/a	n/a	n/a	467.171	AF09HAS.jpg
439.878	0.514	Blank	Blank	13.255	n/a	4	12	20	n/a	120	n/a	2	n/a	n/a	n/a	n/a	467.668	n/a
440.409	10.014	ITI	Fixation+	3.225	n/a	4	n/a	n/a	n/a	n/a	n/a	n/a	n/a	n/a	n/a	n/a	468.199	n/a
453.647	n/a	ConfirmRating	Rate	n/a	3.216	4	n/a	n/a	0	n/a	n/a	n/a	2	Happy	67	52	481.438	n/a
455.74	n/a	ConfirmRating	Rate	n/a	2.073	4	n/a	n/a	1	n/a	n/a	n/a	3	Happy	0	49	483.531	n/a
