onset	duration	trial_type	trial_number	event_type	cue_to_participant	stimulus_type	time_until_response	rated_success_of_regulation	onset_uncorrected
0.008	10.014	Instruction	-1	Picture	Instruction	n/a	n/a	n/a	30.002
10.038	5.007	ITI	0	Picture	Fixation+	1	14.07	n/a	40.032
15.061	2.006	Cue	0	Picture	Maintain	1	12.047	n/a	45.056
17.067	4.99	Pic	0	Picture	IAPS_01	1	7.057	n/a	47.062
22.057	2.006	Blank	0	Picture	BLANK	1	5.051	n/a	52.052
29.114	n/a	ConfirmRating	0	Response	n/a	1	n/a	7	59.109
29.136	6.002	ITI	1	Picture	Fixation+	2	11.324	n/a	59.131
35.154	2.006	Cue	1	Picture	Enhance	2	9.302	n/a	65.149
37.16	4.99	Pic	1	Picture	IAPS_26	2	4.311	n/a	67.155
42.151	2.006	Blank	1	Picture	BLANK	2	2.305	n/a	72.145
46.462	n/a	ConfirmRating	1	Response	n/a	2	n/a	7	76.457
46.494	4.012	ITI	2	Picture	Fixation+	3	14.219	n/a	76.489
50.523	2.006	Cue	2	Picture	Suppress	3	12.196	n/a	80.517
52.529	4.99	Pic	2	Picture	IAPS_36	3	7.206	n/a	82.523
57.519	2.006	Blank	2	Picture	BLANK	3	5.2	n/a	87.514
64.725	n/a	ConfirmRating	2	Response	n/a	3	n/a	2	94.719
64.748	5.007	ITI	3	Picture	Fixation+	4	12.047	n/a	94.742
69.771	2.006	Cue	3	Picture	Maintain	4	10.025	n/a	99.765
71.777	4.99	Pic	3	Picture	IAPS_46	4	5.035	n/a	101.771
76.767	2.006	Blank	3	Picture	BLANK	4	3.029	n/a	106.761
81.802	n/a	ConfirmRating	3	Response	n/a	4	n/a	6	111.796
81.823	5.007	ITI	4	Picture	Fixation+	4	11.171	n/a	111.818
86.847	2.006	Cue	4	Picture	Maintain	4	9.148	n/a	116.841
88.853	4.99	Pic	4	Picture	IAPS_49	4	4.158	n/a	118.847
93.843	2.006	Blank	4	Picture	BLANK	4	2.152	n/a	123.838
98.001	n/a	ConfirmRating	4	Response	n/a	4	n/a	7	127.996
98.021	6.002	ITI	5	Picture	Fixation+	2	11.514	n/a	128.015
104.039	2.006	Cue	5	Picture	Enhance	2	9.491	n/a	134.033
106.045	4.99	Pic	5	Picture	IAPS_27	2	4.501	n/a	136.039
111.035	2.006	Blank	5	Picture	BLANK	2	2.495	n/a	141.03
115.536	n/a	ConfirmRating	5	Response	n/a	2	n/a	6	145.53
115.56	4.013	ITI	6	Picture	Fixation+	1	12.861	n/a	145.555
119.59	2.006	Cue	6	Picture	Maintain	1	10.839	n/a	149.584
121.596	4.99	Pic	6	Picture	IAPS_02	1	5.849	n/a	151.59
126.586	2.006	Blank	6	Picture	BLANK	1	3.843	n/a	156.58
132.435	n/a	ConfirmRating	6	Response	n/a	1	n/a	7	162.429
132.455	6.001	ITI	7	Picture	Fixation+	3	10.817	n/a	162.449
138.473	2.006	Cue	7	Picture	Suppress	3	8.794	n/a	168.467
140.479	4.99	Pic	7	Picture	IAPS_37	3	3.804	n/a	170.473
145.469	2.006	Blank	7	Picture	BLANK	3	1.798	n/a	175.464
149.273	n/a	ConfirmRating	7	Response	n/a	3	n/a	7	179.268
149.299	5.007	ITI	8	Picture	Fixation+	4	10.179	n/a	179.293
154.322	2.006	Cue	8	Picture	Maintain	4	8.157	n/a	184.316
156.328	4.99	Pic	8	Picture	IAPS_52	4	3.167	n/a	186.323
161.318	2.006	Blank	8	Picture	BLANK	4	1.161	n/a	191.313
164.485	n/a	ConfirmRating	8	Response	n/a	4	n/a	7	194.479
164.518	6.002	ITI	9	Picture	Fixation+	1	12.833	n/a	194.512
170.536	2.006	Cue	9	Picture	Maintain	1	10.811	n/a	200.53
172.542	4.99	Pic	9	Picture	IAPS_03	1	5.82	n/a	202.536
177.532	2.006	Blank	9	Picture	BLANK	1	3.814	n/a	207.527
183.353	n/a	ConfirmRating	9	Response	n/a	1	n/a	6	213.347
183.385	5.007	ITI	10	Picture	Fixation+	2	13.362	n/a	213.379
188.408	2.006	Cue	10	Picture	Enhance	2	11.339	n/a	218.402
190.414	4.99	Pic	10	Picture	IAPS_28	2	6.349	n/a	220.408
195.404	2.006	Blank	10	Picture	BLANK	2	4.343	n/a	225.399
201.753	n/a	ConfirmRating	10	Response	n/a	2	n/a	3	231.748
201.77	4.012	ITI	11	Picture	Fixation+	3	11.127	n/a	231.765
205.799	2.006	Cue	11	Picture	Suppress	3	9.104	n/a	235.793
207.805	4.99	Pic	11	Picture	IAPS_38	3	4.114	n/a	237.799
212.795	2.006	Blank	11	Picture	BLANK	3	2.108	n/a	242.79
216.909	n/a	ConfirmRating	11	Response	n/a	3	n/a	6	246.904
216.94	6.002	ITI	12	Picture	Fixation+	2	10.513	n/a	246.934
222.958	2.006	Cue	12	Picture	Enhance	2	8.491	n/a	252.952
224.964	4.99	Pic	12	Picture	IAPS_29	2	3.501	n/a	254.958
229.954	2.006	Blank	12	Picture	BLANK	2	1.495	n/a	259.949
233.455	n/a	ConfirmRating	12	Response	n/a	2	n/a	5	263.449
233.485	5.007	ITI	13	Picture	Fixation+	1	10.563	n/a	263.48
238.509	2.006	Cue	13	Picture	Maintain	1	8.541	n/a	268.503
240.515	4.99	Pic	13	Picture	IAPS_04	1	3.55	n/a	270.509
245.505	2.006	Blank	13	Picture	BLANK	1	1.544	n/a	275.499
249.055	n/a	ConfirmRating	13	Response	n/a	1	n/a	7	279.05
249.086	4.012	ITI	14	Picture	Fixation+	4	10.289	n/a	279.08
253.115	2.006	Cue	14	Picture	Maintain	4	8.267	n/a	283.109
255.121	4.99	Pic	14	Picture	IAPS_55	4	3.276	n/a	285.115
260.111	2.006	Blank	14	Picture	BLANK	4	1.27	n/a	290.105
263.387	n/a	ConfirmRating	14	Response	n/a	4	n/a	7	293.382
263.41	5.007	ITI	15	Picture	Fixation+	3	10.513	n/a	293.404
268.433	2.006	Cue	15	Picture	Suppress	3	8.491	n/a	298.428
270.439	4.99	Pic	15	Picture	IAPS_39	3	3.5	n/a	300.434
275.43	2.006	Blank	15	Picture	BLANK	3	1.494	n/a	305.424
278.93	n/a	ConfirmRating	15	Response	n/a	3	n/a	6	308.924
278.961	6.002	ITI	16	Picture	Fixation+	2	13.383	n/a	308.955
284.979	2.006	Cue	16	Picture	Enhance	2	11.361	n/a	314.973
286.985	4.99	Pic	16	Picture	IAPS_30	2	6.371	n/a	316.979
291.975	2.006	Blank	16	Picture	BLANK	2	4.365	n/a	321.969
298.346	n/a	ConfirmRating	16	Response	n/a	2	n/a	1	328.34
298.374	6.002	ITI	17	Picture	Fixation+	1	10.404	n/a	328.369
304.393	2.006	Cue	17	Picture	Maintain	1	8.382	n/a	334.387
306.399	4.99	Pic	17	Picture	IAPS_05	1	3.392	n/a	336.393
311.389	2.006	Blank	17	Picture	BLANK	1	1.386	n/a	341.383
314.78	n/a	ConfirmRating	17	Response	n/a	1	n/a	7	344.775
314.804	4.012	ITI	18	Picture	Fixation+	3	10.678	n/a	344.798
318.833	2.006	Cue	18	Picture	Suppress	3	8.656	n/a	348.827
320.839	4.99	Pic	18	Picture	IAPS_40	3	3.665	n/a	350.833
325.829	2.006	Blank	18	Picture	BLANK	3	1.659	n/a	355.823
329.494	n/a	ConfirmRating	18	Response	n/a	3	n/a	3	359.488
329.526	5.007	ITI	19	Picture	Fixation+	4	10.665	n/a	359.52
334.549	2.005	Cue	19	Picture	Maintain	4	8.643	n/a	364.543
336.554	4.991	Pic	19	Picture	IAPS_58	4	3.652	n/a	366.549
341.545	2.006	Blank	19	Picture	BLANK	4	1.646	n/a	371.54
345.198	n/a	ConfirmRating	19	Response	n/a	4	n/a	7	375.192
345.226	6.002	ITI	20	Picture	Fixation+	4	10.441	n/a	375.22
351.244	2.006	Cue	20	Picture	Maintain	4	8.418	n/a	381.238
353.25	4.99	Pic	20	Picture	IAPS_47	4	3.428	n/a	383.244
358.24	2.006	Blank	20	Picture	BLANK	4	1.422	n/a	388.235
361.668	n/a	ConfirmRating	20	Response	n/a	4	n/a	7	391.663
361.688	5.007	ITI	21	Picture	Fixation+	3	11.381	n/a	391.683
366.712	2.006	Cue	21	Picture	Suppress	3	9.358	n/a	396.706
368.718	4.99	Pic	21	Picture	IAPS_41	3	4.368	n/a	398.712
373.708	2.006	Blank	21	Picture	BLANK	3	2.362	n/a	403.702
378.076	n/a	ConfirmRating	21	Response	n/a	3	n/a	7	408.07
378.101	4.012	ITI	22	Picture	Fixation+	1	10.949	n/a	408.096
382.13	2.006	Cue	22	Picture	Maintain	1	8.927	n/a	412.124
384.136	4.99	Pic	22	Picture	IAPS_06	1	3.937	n/a	414.13
389.126	2.006	Blank	22	Picture	BLANK	1	1.931	n/a	419.121
393.063	n/a	ConfirmRating	22	Response	n/a	1	n/a	7	423.057
393.089	4.012	ITI	23	Picture	Fixation+	2	11.783	n/a	423.083
397.117	2.006	Cue	23	Picture	Enhance	2	9.76	n/a	427.111
399.123	4.99	Pic	23	Picture	IAPS_16	2	4.77	n/a	429.118
404.113	2.006	Blank	23	Picture	BLANK	2	2.764	n/a	434.108
408.884	n/a	ConfirmRating	23	Response	n/a	2	n/a	6	438.878
408.905	5.007	ITI	24	Picture	Fixation+	1	10.322	n/a	438.899
413.928	2.006	Cue	24	Picture	Maintain	1	8.299	n/a	443.922
415.934	4.99	Pic	24	Picture	IAPS_07	1	3.309	n/a	445.928
420.924	2.006	Blank	24	Picture	BLANK	1	1.303	n/a	450.918
424.233	n/a	ConfirmRating	24	Response	n/a	1	n/a	7	454.228
424.256	4.012	ITI	25	Picture	Fixation+	2	13.753	n/a	454.251
428.285	2.006	Cue	25	Picture	Enhance	2	11.731	n/a	458.279
430.291	4.99	Pic	25	Picture	IAPS_17	2	6.741	n/a	460.285
435.281	2.006	Blank	25	Picture	BLANK	2	4.735	n/a	465.276
442.022	n/a	ConfirmRating	25	Response	n/a	2	n/a	6	472.016
442.045	6.002	ITI	26	Picture	Fixation+	4	13.408	n/a	472.04
448.063	2.006	Cue	26	Picture	Maintain	4	11.385	n/a	478.058
450.069	4.99	Pic	26	Picture	IAPS_50	4	6.395	n/a	480.064
455.06	2.006	Blank	26	Picture	BLANK	4	4.389	n/a	485.054
461.454	n/a	ConfirmRating	26	Response	n/a	4	n/a	7	491.449
461.476	5.007	ITI	27	Picture	Fixation+	3	11.761	n/a	491.47
466.499	2.006	Cue	27	Picture	Suppress	3	9.738	n/a	496.493
468.505	4.99	Pic	27	Picture	IAPS_42	3	4.748	n/a	498.499
473.495	2.006	Blank	27	Picture	BLANK	3	2.742	n/a	503.49
478.243	n/a	ConfirmRating	27	Response	n/a	3	n/a	6	508.238
478.27	5.007	ITI	28	Picture	Fixation+	2	14.04	n/a	508.264
483.293	2.006	Cue	28	Picture	Enhance	2	12.018	n/a	513.288
485.299	4.99	Pic	28	Picture	IAPS_18	2	7.028	n/a	515.294
490.289	2.006	Blank	28	Picture	BLANK	2	5.022	n/a	520.284
497.317	n/a	ConfirmRating	28	Response	n/a	2	n/a	2	527.311
497.335	4.012	ITI	29	Picture	Fixation+	3	12.533	n/a	527.33
501.364	2.006	Cue	29	Picture	Suppress	3	10.511	n/a	531.358
503.37	4.99	Pic	29	Picture	IAPS_43	3	5.52	n/a	533.364
508.36	2.006	Blank	29	Picture	BLANK	3	3.514	n/a	538.355
513.881	n/a	ConfirmRating	29	Response	n/a	3	n/a	5	543.875
513.897	15.004	Rest	29	Picture	Rest	n/a	-15.02	n/a	543.892
528.918	5.007	ITI	30	Picture	Fixation+	4	10.644	n/a	558.912
533.941	2.006	Cue	30	Picture	Maintain	4	8.621	n/a	563.935
535.947	4.99	Pic	30	Picture	IAPS_53	4	3.631	n/a	565.942
540.937	2.006	Blank	30	Picture	BLANK	4	1.625	n/a	570.932
544.568	n/a	ConfirmRating	30	Response	n/a	4	n/a	7	574.562
544.585	6.001	ITI	31	Picture	Fixation+	1	10.594	n/a	574.579
550.603	2.006	Cue	31	Picture	Maintain	1	8.571	n/a	580.597
552.609	4.99	Pic	31	Picture	IAPS_08	1	3.581	n/a	582.603
557.599	2.006	Blank	31	Picture	BLANK	1	1.575	n/a	587.593
561.18	n/a	ConfirmRating	31	Response	n/a	1	n/a	7	591.174
561.196	4.012	ITI	32	Picture	Fixation+	3	11.348	n/a	591.191
565.225	2.006	Cue	32	Picture	Suppress	3	9.325	n/a	595.219
567.231	4.99	Pic	32	Picture	IAPS_44	3	4.335	n/a	597.225
572.221	2.006	Blank	32	Picture	BLANK	3	2.329	n/a	602.216
576.556	n/a	ConfirmRating	32	Response	n/a	3	n/a	6	606.551
576.581	5.007	ITI	33	Picture	Fixation+	1	10.452	n/a	606.576
581.605	2.006	Cue	33	Picture	Maintain	1	8.429	n/a	611.599
583.611	4.99	Pic	33	Picture	IAPS_09	1	3.439	n/a	613.605
588.601	2.006	Blank	33	Picture	BLANK	1	1.433	n/a	618.595
592.04	n/a	ConfirmRating	33	Response	n/a	1	n/a	0	622.034
592.066	4.012	ITI	34	Picture	Fixation+	2	9.689	n/a	622.06
596.094	2.006	Cue	34	Picture	Enhance	2	7.666	n/a	626.089
598.101	4.99	Pic	34	Picture	IAPS_19	2	2.676	n/a	628.095
603.091	2.006	Blank	34	Picture	BLANK	2	0.67	n/a	633.085
605.767	n/a	ConfirmRating	34	Response	n/a	2	n/a	3	635.761
605.793	6.002	ITI	35	Picture	Fixation+	4	10.501	n/a	635.788
611.811	2.006	Cue	35	Picture	Maintain	4	8.478	n/a	641.806
613.817	4.99	Pic	35	Picture	IAPS_56	4	3.488	n/a	643.812
618.807	2.006	Blank	35	Picture	BLANK	4	1.482	n/a	648.802
622.295	n/a	ConfirmRating	35	Response	n/a	4	n/a	7	652.29
622.322	5.007	ITI	36	Picture	Fixation+	3	11.201	n/a	652.316
627.345	2.006	Cue	36	Picture	Suppress	3	9.179	n/a	657.34
629.351	4.99	Pic	36	Picture	IAPS_45	3	4.189	n/a	659.346
634.342	2.006	Blank	36	Picture	BLANK	3	2.183	n/a	664.336
638.53	n/a	ConfirmRating	36	Response	n/a	3	n/a	7	668.525
638.553	6.002	ITI	37	Picture	Fixation+	4	10.331	n/a	668.547
644.571	2.006	Cue	37	Picture	Maintain	4	8.308	n/a	674.565
646.577	4.99	Pic	37	Picture	IAPS_59	4	3.318	n/a	676.571
651.567	2.006	Blank	37	Picture	BLANK	4	1.312	n/a	681.561
654.885	n/a	ConfirmRating	37	Response	n/a	4	n/a	7	684.879
654.916	5.007	ITI	38	Picture	Fixation+	2	10.364	n/a	684.91
659.939	2.006	Cue	38	Picture	Enhance	2	8.342	n/a	689.933
661.945	4.99	Pic	38	Picture	IAPS_20	2	3.351	n/a	691.939
666.935	2.006	Blank	38	Picture	BLANK	2	1.345	n/a	696.93
670.287	n/a	ConfirmRating	38	Response	n/a	2	n/a	6	700.281
670.317	4.012	ITI	39	Picture	Fixation+	1	14.692	n/a	700.312
674.346	2.006	Cue	39	Picture	Maintain	1	12.669	n/a	704.34
676.352	4.99	Pic	39	Picture	IAPS_10	1	7.679	n/a	706.346
681.342	2.006	Blank	39	Picture	BLANK	1	5.673	n/a	711.337
689.021	n/a	ConfirmRating	39	Response	n/a	1	n/a	6	719.016
689.051	6.002	ITI	40	Picture	Fixation+	4	10.684	n/a	719.046
695.069	2.006	Cue	40	Picture	Maintain	4	8.662	n/a	725.064
697.075	4.99	Pic	40	Picture	IAPS_48	4	3.672	n/a	727.07
702.065	2.006	Blank	40	Picture	BLANK	4	1.665	n/a	732.06
705.737	n/a	ConfirmRating	40	Response	n/a	4	n/a	7	735.731
705.763	5.007	ITI	41	Picture	Fixation+	3	11.439	n/a	735.757
710.786	2.006	Cue	41	Picture	Suppress	3	9.417	n/a	740.78
712.792	4.99	Pic	41	Picture	IAPS_31	3	4.427	n/a	742.786
717.782	2.006	Blank	41	Picture	BLANK	3	2.42	n/a	747.777
722.209	0.017	ConfirmRating	41	Response	n/a	3	-0.016	7	752.203
722.242	6.002	ITI	42	Picture	Fixation+	2	11.55	n/a	752.236
728.26	2.006	Cue	42	Picture	Enhance	2	9.528	n/a	758.254
730.266	4.99	Pic	42	Picture	IAPS_21	2	4.537	n/a	760.26
735.256	2.006	Blank	42	Picture	BLANK	2	2.531	n/a	765.25
739.793	n/a	ConfirmRating	42	Response	n/a	2	n/a	7	769.788
739.815	4.012	ITI	43	Picture	Fixation+	1	10.072	n/a	769.81
743.844	2.006	Cue	43	Picture	Maintain	1	8.049	n/a	773.838
745.85	4.99	Pic	43	Picture	IAPS_11	1	3.059	n/a	775.844
750.84	2.006	Blank	43	Picture	BLANK	1	1.053	n/a	780.835
753.899	n/a	ConfirmRating	43	Response	n/a	1	n/a	7	783.894
753.924	5.007	ITI	44	Picture	Fixation+	2	11.046	n/a	783.918
758.947	2.006	Cue	44	Picture	Enhance	2	9.024	n/a	788.941
760.953	4.99	Pic	44	Picture	IAPS_22	2	4.034	n/a	790.947
765.943	2.006	Blank	44	Picture	BLANK	2	2.028	n/a	795.938
769.977	n/a	ConfirmRating	44	Response	n/a	2	n/a	6	799.971
770.005	5.007	ITI	45	Picture	Fixation+	4	10.77	n/a	799.999
775.028	2.006	Cue	45	Picture	Maintain	4	8.747	n/a	805.023
777.034	4.99	Pic	45	Picture	IAPS_51	4	3.757	n/a	807.029
782.025	2.006	Blank	45	Picture	BLANK	4	1.751	n/a	812.019
785.782	n/a	ConfirmRating	45	Response	n/a	4	n/a	7	815.776
785.804	4.012	ITI	46	Picture	Fixation+	3	10.008	n/a	815.799
789.833	2.006	Cue	46	Picture	Suppress	3	7.985	n/a	819.827
791.839	4.99	Pic	46	Picture	IAPS_32	3	2.995	n/a	821.834
796.829	2.006	Blank	46	Picture	BLANK	3	0.989	n/a	826.824
799.824	n/a	ConfirmRating	46	Response	n/a	3	n/a	6	829.819
799.847	5.007	ITI	47	Picture	Fixation+	1	14.502	n/a	829.841
804.87	2.006	Cue	47	Picture	Maintain	1	12.48	n/a	834.864
806.876	4.99	Pic	47	Picture	IAPS_12	1	7.49	n/a	836.87
811.866	2.006	Blank	47	Picture	BLANK	1	5.484	n/a	841.861
819.356	n/a	ConfirmRating	47	Response	n/a	1	n/a	6	849.35
819.376	4.012	ITI	48	Picture	Fixation+	3	12.408	n/a	849.371
823.405	2.006	Cue	48	Picture	Suppress	3	10.386	n/a	853.399
825.411	4.99	Pic	48	Picture	IAPS_33	3	5.396	n/a	855.405
830.401	2.006	Blank	48	Picture	BLANK	3	3.39	n/a	860.396
835.797	n/a	ConfirmRating	48	Response	n/a	3	n/a	1	865.791
835.822	5.007	ITI	49	Picture	Fixation+	4	11.0	n/a	865.817
840.846	2.006	Cue	49	Picture	Maintain	4	8.978	n/a	870.84
842.852	4.99	Pic	49	Picture	IAPS_54	4	3.987	n/a	872.846
847.842	2.006	Blank	49	Picture	BLANK	4	1.981	n/a	877.836
851.829	n/a	ConfirmRating	49	Response	n/a	4	n/a	7	881.824
851.854	5.007	ITI	50	Picture	Fixation+	1	10.672	n/a	881.848
856.877	2.006	Cue	50	Picture	Maintain	1	8.65	n/a	886.872
858.883	4.99	Pic	50	Picture	IAPS_13	1	3.659	n/a	888.878
863.874	2.006	Blank	50	Picture	BLANK	1	1.653	n/a	893.868
867.533	n/a	ConfirmRating	50	Response	n/a	1	n/a	7	897.527
867.554	4.012	ITI	51	Picture	Fixation+	2	11.949	n/a	897.548
871.583	2.006	Cue	51	Picture	Enhance	2	9.926	n/a	901.577
873.589	4.99	Pic	51	Picture	IAPS_23	2	4.936	n/a	903.583
878.579	2.006	Blank	51	Picture	BLANK	2	2.93	n/a	908.573
883.515	n/a	ConfirmRating	51	Response	n/a	2	n/a	3	913.509
883.536	5.007	ITI	52	Picture	Fixation+	1	10.32	n/a	913.53
888.559	2.006	Cue	52	Picture	Maintain	1	8.297	n/a	918.554
890.565	4.99	Pic	52	Picture	IAPS_14	1	3.307	n/a	920.56
895.555	2.006	Blank	52	Picture	BLANK	1	1.301	n/a	925.55
898.862	n/a	ConfirmRating	52	Response	n/a	1	n/a	6	928.857
898.888	5.007	ITI	53	Picture	Fixation+	4	10.463	n/a	928.882
903.911	2.006	Cue	53	Picture	Maintain	4	8.44	n/a	933.905
905.917	4.99	Pic	53	Picture	IAPS_57	4	3.45	n/a	935.912
910.907	2.006	Blank	53	Picture	BLANK	4	1.444	n/a	940.902
914.357	n/a	ConfirmRating	53	Response	n/a	4	n/a	7	944.352
914.389	6.002	ITI	54	Picture	Fixation+	3	10.526	n/a	944.383
920.407	2.006	Cue	54	Picture	Suppress	3	8.503	n/a	950.401
922.413	4.99	Pic	54	Picture	IAPS_34	3	3.513	n/a	952.407
927.403	2.006	Blank	54	Picture	BLANK	3	1.507	n/a	957.398
930.916	n/a	ConfirmRating	54	Response	n/a	3	n/a	7	960.91
930.934	5.007	ITI	55	Picture	Fixation+	2	10.876	n/a	960.929
935.958	2.006	Cue	55	Picture	Enhance	2	8.854	n/a	965.952
937.964	4.99	Pic	55	Picture	IAPS_24	2	3.864	n/a	967.958
942.954	2.006	Blank	55	Picture	BLANK	2	1.858	n/a	972.948
946.818	n/a	ConfirmRating	55	Response	n/a	2	n/a	6	976.812
946.85	5.007	ITI	56	Picture	Fixation+	1	10.16	n/a	976.844
951.873	2.006	Cue	56	Picture	Maintain	1	8.137	n/a	981.868
953.879	4.99	Pic	56	Picture	IAPS_15	1	3.147	n/a	983.874
958.869	2.006	Blank	56	Picture	BLANK	1	1.141	n/a	988.864
962.016	n/a	ConfirmRating	56	Response	n/a	1	n/a	7	992.011
962.036	6.002	ITI	57	Picture	Fixation+	3	13.534	n/a	992.03
968.054	2.006	Cue	57	Picture	Suppress	3	11.511	n/a	998.048
970.06	4.99	Pic	57	Picture	IAPS_35	3	6.521	n/a	1000.054
975.05	2.006	Blank	57	Picture	BLANK	3	4.515	n/a	1005.045
981.571	n/a	ConfirmRating	57	Response	n/a	3	n/a	6	1011.565
981.599	4.012	ITI	58	Picture	Fixation+	4	10.314	n/a	1011.593
985.627	2.006	Cue	58	Picture	Maintain	4	8.291	n/a	1015.622
987.633	4.99	Pic	58	Picture	IAPS_60	4	3.301	n/a	1017.628
992.624	2.006	Blank	58	Picture	BLANK	4	1.295	n/a	1022.618
995.925	n/a	ConfirmRating	58	Response	n/a	4	n/a	7	1025.919
995.956	6.002	ITI	59	Picture	Fixation+	2	11.469	n/a	1025.95
1001.974	2.006	Cue	59	Picture	Enhance	2	9.446	n/a	1031.968
1003.98	4.99	Pic	59	Picture	IAPS_25	2	4.456	n/a	1033.975
1008.97	2.006	Blank	59	Picture	BLANK	2	2.45	n/a	1038.965
1013.426	n/a	ConfirmRating	59	Response	n/a	2	n/a	6	1043.421
