onset	duration	trial_type	event_type	time_until_response	response_time	trial_number	block_num_within_trial	image_seq_num_within_block	question_seq_num_within_block	image_seq_num	picture_number	condition	question_type	block_type	rating	rating_computed	onset_uncorrected	KDEV_imagefile
0.014	10.014	ITI	Fixation+	96.655	n/a	1	n/a	n/a	n/a	n/a	n/a	n/a	n/a	n/a	n/a	n/a	57.407	n/a
10.044	0.497	happy	Picture	96.141	n/a	1	1	1	n/a	1	108	3	n/a	n/a	n/a	n/a	67.437	AM09ANS.jpg
10.542	0.514	Blank	Blank	95.627	n/a	1	1	1	n/a	1	n/a	3	n/a	n/a	n/a	n/a	67.934	n/a
11.072	0.497	happy	Picture	95.113	n/a	1	1	2	n/a	2	99	3	n/a	n/a	n/a	n/a	68.465	AF31ANS.jpg
11.569	0.514	Blank	Blank	94.599	n/a	1	1	2	n/a	2	n/a	3	n/a	n/a	n/a	n/a	68.962	n/a
12.1	0.497	happy	Picture	94.085	n/a	1	1	3	n/a	3	98	3	n/a	n/a	n/a	n/a	69.493	BF29ANS.jpg
12.597	0.514	Blank	Blank	93.571	n/a	1	1	3	n/a	3	n/a	3	n/a	n/a	n/a	n/a	69.99	n/a
13.128	0.497	happy	Picture	93.057	n/a	1	1	4	n/a	4	107	3	n/a	n/a	n/a	n/a	70.52	BM08ANS.jpg
13.625	0.514	Blank	Blank	92.544	n/a	1	1	4	n/a	4	n/a	3	n/a	n/a	n/a	n/a	71.018	n/a
14.156	0.497	happy	Picture	92.029	n/a	1	1	5	n/a	5	104	3	n/a	n/a	n/a	n/a	71.548	BM05ANS.jpg
14.653	0.514	Blank	Blank	91.516	n/a	1	1	5	n/a	5	n/a	3	n/a	n/a	n/a	n/a	72.046	n/a
15.184	0.497	happy	Picture	91.002	n/a	1	1	6	n/a	6	101	3	n/a	n/a	n/a	n/a	72.576	AM01ANS.jpg
15.681	0.514	Blank	Blank	90.488	n/a	1	1	6	n/a	6	n/a	3	n/a	n/a	n/a	n/a	73.074	n/a
16.211	0.497	happy	Picture	89.974	n/a	1	1	7	n/a	7	103	3	n/a	n/a	n/a	n/a	73.604	AM04ANS.jpg
16.709	0.514	Blank	Blank	89.46	n/a	1	1	7	n/a	7	n/a	3	n/a	n/a	n/a	n/a	74.101	n/a
17.239	0.497	happy	Picture	88.946	n/a	1	1	8	n/a	8	111	3	n/a	n/a	n/a	n/a	74.632	BM12ANS.jpg
17.737	0.514	Blank	Blank	88.432	n/a	1	1	8	n/a	8	n/a	3	n/a	n/a	n/a	n/a	75.129	n/a
18.267	0.497	happy	Picture	87.918	n/a	1	1	9	n/a	9	110	3	n/a	n/a	n/a	n/a	75.66	AM11ANS.jpg
18.765	0.514	Blank	Blank	87.404	n/a	1	1	9	n/a	9	n/a	3	n/a	n/a	n/a	n/a	76.157	n/a
19.295	0.497	happy	Picture	86.89	n/a	1	1	10	n/a	10	85	3	n/a	n/a	n/a	n/a	76.688	BF07ANS.jpg
19.792	0.514	Blank	Blank	86.376	n/a	1	1	10	n/a	10	n/a	3	n/a	n/a	n/a	n/a	77.185	n/a
20.323	0.497	happy	Picture	85.862	n/a	1	1	11	n/a	11	87	3	n/a	n/a	n/a	n/a	77.716	BF11ANS.jpg
20.82	0.514	Blank	Blank	85.348	n/a	1	1	11	n/a	11	n/a	3	n/a	n/a	n/a	n/a	78.213	n/a
21.351	0.497	happy	Picture	84.834	n/a	1	1	12	n/a	12	91	3	n/a	n/a	n/a	n/a	78.743	AF20ANS.jpg
21.848	0.514	Blank	Blank	84.32	n/a	1	1	12	n/a	12	n/a	3	n/a	n/a	n/a	n/a	79.241	n/a
22.379	0.497	happy	Picture	83.806	n/a	1	1	13	n/a	13	115	3	n/a	n/a	n/a	n/a	79.771	AM23ANS.jpg
22.876	0.514	Blank	Blank	83.293	n/a	1	1	13	n/a	13	n/a	3	n/a	n/a	n/a	n/a	80.269	n/a
23.407	0.497	happy	Picture	82.779	n/a	1	1	14	n/a	14	97	3	n/a	n/a	n/a	n/a	80.799	BF28ANS.jpg
23.904	0.514	Blank	Blank	82.265	n/a	1	1	14	n/a	14	n/a	3	n/a	n/a	n/a	n/a	81.297	n/a
24.434	0.497	happy	Picture	81.751	n/a	1	1	15	n/a	15	82	3	n/a	n/a	n/a	n/a	81.827	AF03ANS.jpg
24.932	0.514	Blank	Blank	81.237	n/a	1	1	15	n/a	15	n/a	3	n/a	n/a	n/a	n/a	82.325	n/a
25.462	0.497	happy	Picture	80.723	n/a	1	1	16	n/a	16	96	3	n/a	n/a	n/a	n/a	82.855	AF26ANS.jpg
25.96	0.514	Blank	Blank	80.209	n/a	1	1	16	n/a	16	n/a	3	n/a	n/a	n/a	n/a	83.352	n/a
26.49	0.497	happy	Picture	79.695	n/a	1	1	17	n/a	17	109	3	n/a	n/a	n/a	n/a	83.883	AM10ANS.jpg
26.988	0.514	Blank	Blank	79.181	n/a	1	1	17	n/a	17	n/a	3	n/a	n/a	n/a	n/a	84.38	n/a
27.518	0.497	happy	Picture	78.667	n/a	1	1	18	n/a	18	114	3	n/a	n/a	n/a	n/a	84.911	AM22ANS.jpg
28.015	0.514	Blank	Blank	78.153	n/a	1	1	18	n/a	18	n/a	3	n/a	n/a	n/a	n/a	85.408	n/a
28.546	0.497	happy	Picture	77.639	n/a	1	1	19	n/a	19	120	3	n/a	n/a	n/a	n/a	85.939	AM35ANS.jpg
29.043	0.514	Blank	Blank	77.125	n/a	1	1	19	n/a	19	n/a	3	n/a	n/a	n/a	n/a	86.436	n/a
29.574	0.497	happy	Picture	76.611	n/a	1	1	20	n/a	20	81	3	n/a	n/a	n/a	n/a	86.966	AF01ANS.jpg
30.071	0.514	Blank	Blank	76.097	n/a	1	1	20	n/a	20	n/a	3	n/a	n/a	n/a	n/a	87.464	n/a
30.602	10.014	ITI	Fixation+	66.067	n/a	1	n/a	n/a	n/a	n/a	n/a	n/a	n/a	n/a	n/a	n/a	87.994	n/a
40.632	0.497	neutral	Picture	65.553	n/a	1	2	1	n/a	21	28	1	n/a	n/a	n/a	n/a	98.025	AM09NES.jpg
41.129	0.514	Blank	Blank	65.039	n/a	1	2	1	n/a	21	n/a	1	n/a	n/a	n/a	n/a	98.522	n/a
41.66	0.497	neutral	Picture	64.525	n/a	1	2	2	n/a	22	27	1	n/a	n/a	n/a	n/a	99.052	BM08NES.jpg
42.157	0.514	Blank	Blank	64.011	n/a	1	2	2	n/a	22	n/a	1	n/a	n/a	n/a	n/a	99.55	n/a
42.688	0.497	neutral	Picture	63.498	n/a	1	2	3	n/a	23	16	1	n/a	n/a	n/a	n/a	100.08	AF26NES.jpg
43.185	0.514	Blank	Blank	62.984	n/a	1	2	3	n/a	23	n/a	1	n/a	n/a	n/a	n/a	100.578	n/a
43.715	0.497	neutral	Picture	62.47	n/a	1	2	4	n/a	24	3	1	n/a	n/a	n/a	n/a	101.108	BF04NES.jpg
44.213	0.514	Blank	Blank	61.956	n/a	1	2	4	n/a	24	n/a	1	n/a	n/a	n/a	n/a	101.606	n/a
44.743	0.497	neutral	Picture	61.442	n/a	1	2	5	n/a	25	32	1	n/a	n/a	n/a	n/a	102.136	AM14NES.jpg
45.241	0.514	Blank	Blank	60.928	n/a	1	2	5	n/a	25	n/a	1	n/a	n/a	n/a	n/a	102.633	n/a
45.771	0.497	neutral	Picture	60.414	n/a	1	2	6	n/a	26	37	1	n/a	n/a	n/a	n/a	103.164	BM25NES.jpg
46.268	0.514	Blank	Blank	59.9	n/a	1	2	6	n/a	26	n/a	1	n/a	n/a	n/a	n/a	103.661	n/a
46.799	0.497	neutral	Picture	59.386	n/a	1	2	7	n/a	27	15	1	n/a	n/a	n/a	n/a	104.192	AF25NES.jpg
47.296	0.514	Blank	Blank	58.872	n/a	1	2	7	n/a	27	n/a	1	n/a	n/a	n/a	n/a	104.689	n/a
47.827	0.497	neutral	Picture	58.358	n/a	1	2	8	n/a	28	23	1	n/a	n/a	n/a	n/a	105.22	AM04NES.jpg
48.324	0.514	Blank	Blank	57.844	n/a	1	2	8	n/a	28	n/a	1	n/a	n/a	n/a	n/a	105.717	n/a
48.855	0.497	neutral	Picture	57.33	n/a	1	2	9	n/a	29	34	1	n/a	n/a	n/a	n/a	106.248	AM22NES.jpg
49.352	0.514	Blank	Blank	56.816	n/a	1	2	9	n/a	29	n/a	1	n/a	n/a	n/a	n/a	106.745	n/a
49.883	0.497	neutral	Picture	56.302	n/a	1	2	10	n/a	30	24	1	n/a	n/a	n/a	n/a	107.275	BM05NES.jpg
50.38	0.514	Blank	Blank	55.788	n/a	1	2	10	n/a	30	n/a	1	n/a	n/a	n/a	n/a	107.773	n/a
50.911	0.497	neutral	Picture	55.275	n/a	1	2	11	n/a	31	12	1	n/a	n/a	n/a	n/a	108.303	AF21NES.jpg
51.408	0.514	Blank	Blank	54.761	n/a	1	2	11	n/a	31	n/a	1	n/a	n/a	n/a	n/a	108.801	n/a
51.938	0.497	neutral	Picture	54.247	n/a	1	2	12	n/a	32	6	1	n/a	n/a	n/a	n/a	109.331	AF09NES.jpg
52.436	0.514	Blank	Blank	53.733	n/a	1	2	12	n/a	32	n/a	1	n/a	n/a	n/a	n/a	109.829	n/a
52.966	0.497	neutral	Picture	53.219	n/a	1	2	13	n/a	33	17	1	n/a	n/a	n/a	n/a	110.359	BF28NES.jpg
53.464	0.514	Blank	Blank	52.705	n/a	1	2	13	n/a	33	n/a	1	n/a	n/a	n/a	n/a	110.856	n/a
53.994	0.497	neutral	Picture	52.191	n/a	1	2	14	n/a	34	2	1	n/a	n/a	n/a	n/a	111.387	AF03NES.jpg
54.492	0.514	Blank	Blank	51.677	n/a	1	2	14	n/a	34	n/a	1	n/a	n/a	n/a	n/a	111.884	n/a
55.022	0.497	neutral	Picture	51.163	n/a	1	2	15	n/a	35	9	1	n/a	n/a	n/a	n/a	112.415	AF17NES.jpg
55.52	0.514	Blank	Blank	50.649	n/a	1	2	15	n/a	35	n/a	1	n/a	n/a	n/a	n/a	112.912	n/a
56.05	0.497	neutral	Picture	50.135	n/a	1	2	16	n/a	36	25	1	n/a	n/a	n/a	n/a	113.443	BM06NES.jpg
56.547	0.514	Blank	Blank	49.621	n/a	1	2	16	n/a	36	n/a	1	n/a	n/a	n/a	n/a	113.94	n/a
57.078	0.497	neutral	Picture	49.107	n/a	1	2	17	n/a	37	8	1	n/a	n/a	n/a	n/a	114.471	AF14NES.jpg
57.575	0.514	Blank	Blank	48.593	n/a	1	2	17	n/a	37	n/a	1	n/a	n/a	n/a	n/a	114.968	n/a
58.106	0.497	neutral	Picture	48.079	n/a	1	2	18	n/a	38	19	1	n/a	n/a	n/a	n/a	115.498	AF31NES.jpg
58.603	0.514	Blank	Blank	47.566	n/a	1	2	18	n/a	38	n/a	1	n/a	n/a	n/a	n/a	115.996	n/a
59.134	0.497	neutral	Picture	47.051	n/a	1	2	19	n/a	39	14	1	n/a	n/a	n/a	n/a	116.526	AF23NES.jpg
59.631	0.514	Blank	Blank	46.538	n/a	1	2	19	n/a	39	n/a	1	n/a	n/a	n/a	n/a	117.024	n/a
60.161	0.497	neutral	Picture	46.024	n/a	1	2	20	n/a	40	4	1	n/a	n/a	n/a	n/a	117.554	AF05NES.jpg
60.659	0.514	Blank	Blank	45.51	n/a	1	2	20	n/a	40	n/a	1	n/a	n/a	n/a	n/a	118.052	n/a
61.189	10.014	ITI	Fixation+	35.48	n/a	1	n/a	n/a	n/a	n/a	n/a	n/a	n/a	n/a	n/a	n/a	118.582	n/a
71.22	0.497	happy	Picture	34.966	n/a	1	3	1	n/a	41	84	3	n/a	n/a	n/a	n/a	128.612	AF05ANS.jpg
71.717	0.514	Blank	Blank	34.452	n/a	1	3	1	n/a	41	n/a	3	n/a	n/a	n/a	n/a	129.109	n/a
72.247	0.497	happy	Picture	33.938	n/a	1	3	2	n/a	42	92	3	n/a	n/a	n/a	n/a	129.64	AF21ANS.jpg
72.745	0.514	Blank	Blank	33.424	n/a	1	3	2	n/a	42	n/a	3	n/a	n/a	n/a	n/a	130.137	n/a
73.275	0.497	happy	Picture	32.91	n/a	1	3	3	n/a	43	86	3	n/a	n/a	n/a	n/a	130.668	AF09ANS.jpg
73.773	0.514	Blank	Blank	32.396	n/a	1	3	3	n/a	43	n/a	3	n/a	n/a	n/a	n/a	131.165	n/a
74.303	0.497	happy	Picture	31.882	n/a	1	3	4	n/a	44	93	3	n/a	n/a	n/a	n/a	131.696	BF22ANS.jpg
74.8	0.514	Blank	Blank	31.368	n/a	1	3	4	n/a	44	n/a	3	n/a	n/a	n/a	n/a	132.193	n/a
75.331	0.497	happy	Picture	30.854	n/a	1	3	5	n/a	45	88	3	n/a	n/a	n/a	n/a	132.724	AF14ANS.jpg
75.828	0.514	Blank	Blank	30.34	n/a	1	3	5	n/a	45	n/a	3	n/a	n/a	n/a	n/a	133.221	n/a
76.359	0.497	happy	Picture	29.826	n/a	1	3	6	n/a	46	113	3	n/a	n/a	n/a	n/a	133.752	AM21ANS.jpg
76.856	0.514	Blank	Blank	29.312	n/a	1	3	6	n/a	46	n/a	3	n/a	n/a	n/a	n/a	134.249	n/a
77.387	0.497	happy	Picture	28.798	n/a	1	3	7	n/a	47	95	3	n/a	n/a	n/a	n/a	134.78	AF25ANS.jpg
77.884	0.514	Blank	Blank	28.284	n/a	1	3	7	n/a	47	n/a	3	n/a	n/a	n/a	n/a	135.277	n/a
78.415	0.497	happy	Picture	27.77	n/a	1	3	8	n/a	48	102	3	n/a	n/a	n/a	n/a	135.807	BM03ANS.jpg
78.912	0.514	Blank	Blank	27.257	n/a	1	3	8	n/a	48	n/a	3	n/a	n/a	n/a	n/a	136.305	n/a
79.442	0.497	happy	Picture	26.743	n/a	1	3	9	n/a	49	112	3	n/a	n/a	n/a	n/a	136.835	AM14ANS.jpg
79.94	0.514	Blank	Blank	26.229	n/a	1	3	9	n/a	49	n/a	3	n/a	n/a	n/a	n/a	137.333	n/a
80.47	0.497	happy	Picture	25.715	n/a	1	3	10	n/a	50	83	3	n/a	n/a	n/a	n/a	137.863	BF04ANS.jpg
80.968	0.514	Blank	Blank	25.201	n/a	1	3	10	n/a	50	n/a	3	n/a	n/a	n/a	n/a	138.361	n/a
81.498	0.497	happy	Picture	24.687	n/a	1	3	11	n/a	51	90	3	n/a	n/a	n/a	n/a	138.891	AF18ANS.jpg
81.996	0.514	Blank	Blank	24.173	n/a	1	3	11	n/a	51	n/a	3	n/a	n/a	n/a	n/a	139.388	n/a
82.526	0.497	happy	Picture	23.659	n/a	1	3	12	n/a	52	117	3	n/a	n/a	n/a	n/a	139.919	BM25ANS.jpg
83.024	0.514	Blank	Blank	23.145	n/a	1	3	12	n/a	52	n/a	3	n/a	n/a	n/a	n/a	140.416	n/a
83.554	0.497	happy	Picture	22.631	n/a	1	3	13	n/a	53	94	3	n/a	n/a	n/a	n/a	140.947	AF23ANS.jpg
84.051	0.514	Blank	Blank	22.117	n/a	1	3	13	n/a	53	n/a	3	n/a	n/a	n/a	n/a	141.444	n/a
84.582	0.497	happy	Picture	21.603	n/a	1	3	14	n/a	54	106	3	n/a	n/a	n/a	n/a	141.975	AM07ANS.jpg
85.079	0.514	Blank	Blank	21.089	n/a	1	3	14	n/a	54	n/a	3	n/a	n/a	n/a	n/a	142.472	n/a
85.61	0.497	happy	Picture	20.575	n/a	1	3	15	n/a	55	105	3	n/a	n/a	n/a	n/a	143.002	BM06ANS.jpg
86.107	0.514	Blank	Blank	20.061	n/a	1	3	15	n/a	55	n/a	3	n/a	n/a	n/a	n/a	143.5	n/a
86.638	0.497	happy	Picture	19.548	n/a	1	3	16	n/a	56	116	3	n/a	n/a	n/a	n/a	144.03	BM24ANS.jpg
87.135	0.514	Blank	Blank	19.033	n/a	1	3	16	n/a	56	n/a	3	n/a	n/a	n/a	n/a	144.528	n/a
87.666	0.497	happy	Picture	18.52	n/a	1	3	17	n/a	57	89	3	n/a	n/a	n/a	n/a	145.058	AF17ANS.jpg
88.163	0.514	Blank	Blank	18.006	n/a	1	3	17	n/a	57	n/a	3	n/a	n/a	n/a	n/a	145.556	n/a
88.693	0.497	happy	Picture	17.492	n/a	1	3	18	n/a	58	118	3	n/a	n/a	n/a	n/a	146.086	BM26ANS.jpg
89.191	0.514	Blank	Blank	16.978	n/a	1	3	18	n/a	58	n/a	3	n/a	n/a	n/a	n/a	146.583	n/a
89.721	0.497	happy	Picture	16.464	n/a	1	3	19	n/a	59	100	3	n/a	n/a	n/a	n/a	147.114	AF32ANS.jpg
90.219	0.514	Blank	Blank	15.95	n/a	1	3	19	n/a	59	n/a	3	n/a	n/a	n/a	n/a	147.611	n/a
90.749	0.497	happy	Picture	15.436	n/a	1	3	20	n/a	60	119	3	n/a	n/a	n/a	n/a	148.142	BM28ANS.jpg
91.247	0.514	Blank	Blank	14.922	n/a	1	3	20	n/a	60	n/a	3	n/a	n/a	n/a	n/a	148.639	n/a
91.777	10.014	ITI	Fixation+	4.892	n/a	1	n/a	n/a	n/a	n/a	n/a	n/a	n/a	n/a	n/a	n/a	149.17	n/a
106.683	n/a	ConfirmRating	Rate	n/a	4.874	1	n/a	n/a	0	n/a	n/a	n/a	2	Happy	24	49	164.075	n/a
110.013	n/a	ConfirmRating	Rate	n/a	3.302	1	n/a	n/a	1	n/a	n/a	n/a	3	Happy	13	49	167.406	n/a
110.03	10.014	ITI	Fixation+	96.665	n/a	2	n/a	n/a	n/a	n/a	n/a	n/a	n/a	n/a	n/a	n/a	167.423	n/a
120.06	0.497	angry	Picture	96.151	n/a	2	4	1	n/a	61	79	2	n/a	n/a	n/a	n/a	177.453	BM28HAS.jpg
120.558	0.514	Blank	Blank	95.637	n/a	2	4	1	n/a	61	n/a	2	n/a	n/a	n/a	n/a	177.95	n/a
121.088	0.497	angry	Picture	95.123	n/a	2	4	2	n/a	62	61	2	n/a	n/a	n/a	n/a	178.481	AM01HAS.jpg
121.586	0.514	Blank	Blank	94.609	n/a	2	4	2	n/a	62	n/a	2	n/a	n/a	n/a	n/a	178.978	n/a
122.116	0.497	angry	Picture	94.095	n/a	2	4	3	n/a	63	57	2	n/a	n/a	n/a	n/a	179.509	BF28HAS.jpg
122.614	0.514	Blank	Blank	93.581	n/a	2	4	3	n/a	63	n/a	2	n/a	n/a	n/a	n/a	180.006	n/a
123.144	0.497	angry	Picture	93.067	n/a	2	4	4	n/a	64	77	2	n/a	n/a	n/a	n/a	180.537	BM25HAS.jpg
123.641	0.514	Blank	Blank	92.553	n/a	2	4	4	n/a	64	n/a	2	n/a	n/a	n/a	n/a	181.034	n/a
124.172	0.497	angry	Picture	92.039	n/a	2	4	5	n/a	65	47	2	n/a	n/a	n/a	n/a	181.565	BF11HAS.jpg
124.669	0.514	Blank	Blank	91.525	n/a	2	4	5	n/a	65	n/a	2	n/a	n/a	n/a	n/a	182.062	n/a
125.2	0.497	angry	Picture	91.011	n/a	2	4	6	n/a	66	50	2	n/a	n/a	n/a	n/a	182.592	AF18HAS.jpg
125.697	0.514	Blank	Blank	90.498	n/a	2	4	6	n/a	66	n/a	2	n/a	n/a	n/a	n/a	183.09	n/a
126.228	0.497	angry	Picture	89.984	n/a	2	4	7	n/a	67	78	2	n/a	n/a	n/a	n/a	183.62	BM26HAS.jpg
126.725	0.514	Blank	Blank	89.47	n/a	2	4	7	n/a	67	n/a	2	n/a	n/a	n/a	n/a	184.118	n/a
127.256	0.497	angry	Picture	88.956	n/a	2	4	8	n/a	68	45	2	n/a	n/a	n/a	n/a	184.648	BF07HAS.jpg
127.753	0.514	Blank	Blank	88.442	n/a	2	4	8	n/a	68	n/a	2	n/a	n/a	n/a	n/a	185.145	n/a
128.283	0.497	angry	Picture	87.928	n/a	2	4	9	n/a	69	56	2	n/a	n/a	n/a	n/a	185.676	AF26HAS.jpg
128.781	0.514	Blank	Blank	87.414	n/a	2	4	9	n/a	69	n/a	2	n/a	n/a	n/a	n/a	186.173	n/a
129.311	0.497	angry	Picture	86.9	n/a	2	4	10	n/a	70	65	2	n/a	n/a	n/a	n/a	186.704	BM06HAS.jpg
129.809	0.514	Blank	Blank	86.386	n/a	2	4	10	n/a	70	n/a	2	n/a	n/a	n/a	n/a	187.201	n/a
130.339	0.497	angry	Picture	85.872	n/a	2	4	11	n/a	71	73	2	n/a	n/a	n/a	n/a	187.732	AM21HAS.jpg
130.837	0.514	Blank	Blank	85.358	n/a	2	4	11	n/a	71	n/a	2	n/a	n/a	n/a	n/a	188.229	n/a
131.367	0.497	angry	Picture	84.844	n/a	2	4	12	n/a	72	41	2	n/a	n/a	n/a	n/a	188.76	AF01HAS.jpg
131.864	0.514	Blank	Blank	84.33	n/a	2	4	12	n/a	72	n/a	2	n/a	n/a	n/a	n/a	189.257	n/a
132.395	0.497	angry	Picture	83.816	n/a	2	4	13	n/a	73	59	2	n/a	n/a	n/a	n/a	189.788	AF31HAS.jpg
132.892	0.514	Blank	Blank	83.302	n/a	2	4	13	n/a	73	n/a	2	n/a	n/a	n/a	n/a	190.285	n/a
133.423	0.497	angry	Picture	82.788	n/a	2	4	14	n/a	74	64	2	n/a	n/a	n/a	n/a	190.815	BM05HAS.jpg
133.92	0.514	Blank	Blank	82.274	n/a	2	4	14	n/a	74	n/a	2	n/a	n/a	n/a	n/a	191.313	n/a
134.451	0.497	angry	Picture	81.761	n/a	2	4	15	n/a	75	68	2	n/a	n/a	n/a	n/a	191.843	AM09HAS.jpg
134.948	0.514	Blank	Blank	81.247	n/a	2	4	15	n/a	75	n/a	2	n/a	n/a	n/a	n/a	192.341	n/a
135.478	0.497	angry	Picture	80.733	n/a	2	4	16	n/a	76	54	2	n/a	n/a	n/a	n/a	192.871	AF23HAS.jpg
135.976	0.514	Blank	Blank	80.219	n/a	2	4	16	n/a	76	n/a	2	n/a	n/a	n/a	n/a	193.369	n/a
136.506	0.497	angry	Picture	79.705	n/a	2	4	17	n/a	77	53	2	n/a	n/a	n/a	n/a	193.899	BF22HAS.jpg
137.004	0.514	Blank	Blank	79.191	n/a	2	4	17	n/a	77	n/a	2	n/a	n/a	n/a	n/a	194.397	n/a
137.534	0.497	angry	Picture	78.677	n/a	2	4	18	n/a	78	44	2	n/a	n/a	n/a	n/a	194.927	AF05HAS.jpg
138.032	0.514	Blank	Blank	78.163	n/a	2	4	18	n/a	78	n/a	2	n/a	n/a	n/a	n/a	195.424	n/a
138.562	0.497	angry	Picture	77.649	n/a	2	4	19	n/a	79	52	2	n/a	n/a	n/a	n/a	195.955	AF21HAS.jpg
139.06	0.514	Blank	Blank	77.135	n/a	2	4	19	n/a	79	n/a	2	n/a	n/a	n/a	n/a	196.452	n/a
139.59	0.497	angry	Picture	76.621	n/a	2	4	20	n/a	80	62	2	n/a	n/a	n/a	n/a	196.983	BM03HAS.jpg
140.087	0.514	Blank	Blank	76.107	n/a	2	4	20	n/a	80	n/a	2	n/a	n/a	n/a	n/a	197.48	n/a
140.618	10.014	ITI	Fixation+	66.077	n/a	2	n/a	n/a	n/a	n/a	n/a	n/a	n/a	n/a	n/a	n/a	198.011	n/a
150.648	0.497	neutral	Picture	65.563	n/a	2	5	1	n/a	81	23	1	n/a	n/a	n/a	n/a	208.041	AM04NES.jpg
151.145	0.514	Blank	Blank	65.049	n/a	2	5	1	n/a	81	n/a	1	n/a	n/a	n/a	n/a	208.538	n/a
151.676	0.497	neutral	Picture	64.535	n/a	2	5	2	n/a	82	29	1	n/a	n/a	n/a	n/a	209.069	AM10NES.jpg
152.173	0.514	Blank	Blank	64.021	n/a	2	5	2	n/a	82	n/a	1	n/a	n/a	n/a	n/a	209.566	n/a
152.704	0.497	neutral	Picture	63.507	n/a	2	5	3	n/a	83	24	1	n/a	n/a	n/a	n/a	210.096	BM05NES.jpg
153.201	0.514	Blank	Blank	62.993	n/a	2	5	3	n/a	83	n/a	1	n/a	n/a	n/a	n/a	210.594	n/a
153.732	0.497	neutral	Picture	62.48	n/a	2	5	4	n/a	84	12	1	n/a	n/a	n/a	n/a	211.124	AF21NES.jpg
154.229	0.514	Blank	Blank	61.965	n/a	2	5	4	n/a	84	n/a	1	n/a	n/a	n/a	n/a	211.622	n/a
154.76	0.497	neutral	Picture	61.452	n/a	2	5	5	n/a	85	13	1	n/a	n/a	n/a	n/a	212.152	BF22NES.jpg
155.257	0.514	Blank	Blank	60.938	n/a	2	5	5	n/a	85	n/a	1	n/a	n/a	n/a	n/a	212.65	n/a
155.787	0.497	neutral	Picture	60.424	n/a	2	5	6	n/a	86	17	1	n/a	n/a	n/a	n/a	213.18	BF28NES.jpg
156.285	0.514	Blank	Blank	59.91	n/a	2	5	6	n/a	86	n/a	1	n/a	n/a	n/a	n/a	213.678	n/a
156.815	0.497	neutral	Picture	59.396	n/a	2	5	7	n/a	87	4	1	n/a	n/a	n/a	n/a	214.208	AF05NES.jpg
157.313	0.514	Blank	Blank	58.882	n/a	2	5	7	n/a	87	n/a	1	n/a	n/a	n/a	n/a	214.705	n/a
157.843	0.497	neutral	Picture	58.368	n/a	2	5	8	n/a	88	11	1	n/a	n/a	n/a	n/a	215.236	AF20NES.jpg
158.341	0.514	Blank	Blank	57.854	n/a	2	5	8	n/a	88	n/a	1	n/a	n/a	n/a	n/a	215.733	n/a
158.871	0.497	neutral	Picture	57.34	n/a	2	5	9	n/a	89	22	1	n/a	n/a	n/a	n/a	216.264	BM03NES.jpg
159.368	0.514	Blank	Blank	56.826	n/a	2	5	9	n/a	89	n/a	1	n/a	n/a	n/a	n/a	216.761	n/a
159.899	0.497	neutral	Picture	56.312	n/a	2	5	10	n/a	90	15	1	n/a	n/a	n/a	n/a	217.292	AF25NES.jpg
160.396	0.514	Blank	Blank	55.798	n/a	2	5	10	n/a	90	n/a	1	n/a	n/a	n/a	n/a	217.789	n/a
160.927	0.497	neutral	Picture	55.284	n/a	2	5	11	n/a	91	19	1	n/a	n/a	n/a	n/a	218.32	AF31NES.jpg
161.424	0.514	Blank	Blank	54.77	n/a	2	5	11	n/a	91	n/a	1	n/a	n/a	n/a	n/a	218.817	n/a
161.955	0.497	neutral	Picture	54.256	n/a	2	5	12	n/a	92	9	1	n/a	n/a	n/a	n/a	219.347	AF17NES.jpg
162.452	0.514	Blank	Blank	53.743	n/a	2	5	12	n/a	92	n/a	1	n/a	n/a	n/a	n/a	219.845	n/a
162.983	0.497	neutral	Picture	53.229	n/a	2	5	13	n/a	93	14	1	n/a	n/a	n/a	n/a	220.375	AF23NES.jpg
163.48	0.514	Blank	Blank	52.715	n/a	2	5	13	n/a	93	n/a	1	n/a	n/a	n/a	n/a	220.873	n/a
164.011	0.497	neutral	Picture	52.201	n/a	2	5	14	n/a	94	36	1	n/a	n/a	n/a	n/a	221.403	BM24NES.jpg
164.508	0.514	Blank	Blank	51.687	n/a	2	5	14	n/a	94	n/a	1	n/a	n/a	n/a	n/a	221.9	n/a
165.038	0.497	neutral	Picture	51.173	n/a	2	5	15	n/a	95	34	1	n/a	n/a	n/a	n/a	222.431	AM22NES.jpg
165.536	0.514	Blank	Blank	50.659	n/a	2	5	15	n/a	95	n/a	1	n/a	n/a	n/a	n/a	222.928	n/a
166.066	0.497	neutral	Picture	50.145	n/a	2	5	16	n/a	96	10	1	n/a	n/a	n/a	n/a	223.459	AF18NES.jpg
166.564	0.514	Blank	Blank	49.631	n/a	2	5	16	n/a	96	n/a	1	n/a	n/a	n/a	n/a	223.956	n/a
167.094	0.497	neutral	Picture	49.117	n/a	2	5	17	n/a	97	5	1	n/a	n/a	n/a	n/a	224.487	BF07NES.jpg
167.591	0.514	Blank	Blank	48.603	n/a	2	5	17	n/a	97	n/a	1	n/a	n/a	n/a	n/a	224.984	n/a
168.122	0.497	neutral	Picture	48.089	n/a	2	5	18	n/a	98	25	1	n/a	n/a	n/a	n/a	225.515	BM06NES.jpg
168.619	0.514	Blank	Blank	47.575	n/a	2	5	18	n/a	98	n/a	1	n/a	n/a	n/a	n/a	226.012	n/a
169.15	0.497	neutral	Picture	47.061	n/a	2	5	19	n/a	99	39	1	n/a	n/a	n/a	n/a	226.543	AM28NES.jpg
169.647	0.514	Blank	Blank	46.547	n/a	2	5	19	n/a	99	n/a	1	n/a	n/a	n/a	n/a	227.04	n/a
170.178	0.497	neutral	Picture	46.033	n/a	2	5	20	n/a	100	33	1	n/a	n/a	n/a	n/a	227.57	AM21NES.jpg
170.675	0.514	Blank	Blank	45.519	n/a	2	5	20	n/a	100	n/a	1	n/a	n/a	n/a	n/a	228.068	n/a
171.206	10.014	ITI	Fixation+	35.489	n/a	2	n/a	n/a	n/a	n/a	n/a	n/a	n/a	n/a	n/a	n/a	228.598	n/a
181.236	0.497	angry	Picture	34.975	n/a	2	6	1	n/a	101	74	2	n/a	n/a	n/a	n/a	238.628	AM22HAS.jpg
181.733	0.514	Blank	Blank	34.462	n/a	2	6	1	n/a	101	n/a	2	n/a	n/a	n/a	n/a	239.126	n/a
182.264	0.497	angry	Picture	33.948	n/a	2	6	2	n/a	102	76	2	n/a	n/a	n/a	n/a	239.656	BM24HAS.jpg
182.761	0.514	Blank	Blank	33.434	n/a	2	6	2	n/a	102	n/a	2	n/a	n/a	n/a	n/a	240.154	n/a
183.292	0.497	angry	Picture	32.92	n/a	2	6	3	n/a	103	80	2	n/a	n/a	n/a	n/a	240.684	BM35HAS.jpg
183.789	0.514	Blank	Blank	32.406	n/a	2	6	3	n/a	103	n/a	2	n/a	n/a	n/a	n/a	241.181	n/a
184.319	0.497	angry	Picture	31.892	n/a	2	6	4	n/a	104	75	2	n/a	n/a	n/a	n/a	241.712	AM23HAS.jpg
184.817	0.514	Blank	Blank	31.378	n/a	2	6	4	n/a	104	n/a	2	n/a	n/a	n/a	n/a	242.209	n/a
185.347	0.497	angry	Picture	30.864	n/a	2	6	5	n/a	105	49	2	n/a	n/a	n/a	n/a	242.74	AF17HAS.jpg
185.845	0.514	Blank	Blank	30.35	n/a	2	6	5	n/a	105	n/a	2	n/a	n/a	n/a	n/a	243.237	n/a
186.375	0.497	angry	Picture	29.836	n/a	2	6	6	n/a	106	43	2	n/a	n/a	n/a	n/a	243.768	BF04HAS.jpg
186.873	0.514	Blank	Blank	29.322	n/a	2	6	6	n/a	106	n/a	2	n/a	n/a	n/a	n/a	244.265	n/a
187.403	0.497	angry	Picture	28.808	n/a	2	6	7	n/a	107	70	2	n/a	n/a	n/a	n/a	244.796	BM11HAS.jpg
187.9	0.514	Blank	Blank	28.294	n/a	2	6	7	n/a	107	n/a	2	n/a	n/a	n/a	n/a	245.293	n/a
188.431	0.497	angry	Picture	27.78	n/a	2	6	8	n/a	108	66	2	n/a	n/a	n/a	n/a	245.824	BM07HAS.jpg
188.928	0.514	Blank	Blank	27.266	n/a	2	6	8	n/a	108	n/a	2	n/a	n/a	n/a	n/a	246.321	n/a
189.459	0.497	angry	Picture	26.752	n/a	2	6	9	n/a	109	48	2	n/a	n/a	n/a	n/a	246.851	AF14HAS.jpg
189.956	0.514	Blank	Blank	26.238	n/a	2	6	9	n/a	109	n/a	2	n/a	n/a	n/a	n/a	247.349	n/a
190.487	0.497	angry	Picture	25.725	n/a	2	6	10	n/a	110	58	2	n/a	n/a	n/a	n/a	247.879	BF29HAS.jpg
190.984	0.514	Blank	Blank	25.211	n/a	2	6	10	n/a	110	n/a	2	n/a	n/a	n/a	n/a	248.377	n/a
191.514	0.494	angry	Picture	24.7	n/a	2	6	11	n/a	111	63	2	n/a	n/a	n/a	n/a	248.907	AM04HAS.jpg
192.009	0.517	Blank	Blank	24.183	n/a	2	6	11	n/a	111	n/a	2	n/a	n/a	n/a	n/a	249.402	n/a
192.542	0.497	angry	Picture	23.669	n/a	2	6	12	n/a	112	72	2	n/a	n/a	n/a	n/a	249.935	AM14HAS.jpg
193.04	0.514	Blank	Blank	23.155	n/a	2	6	12	n/a	112	n/a	2	n/a	n/a	n/a	n/a	250.433	n/a
193.57	0.497	angry	Picture	22.641	n/a	2	6	13	n/a	113	55	2	n/a	n/a	n/a	n/a	250.963	AF25HAS.jpg
194.068	0.514	Blank	Blank	22.127	n/a	2	6	13	n/a	113	n/a	2	n/a	n/a	n/a	n/a	251.46	n/a
194.598	0.497	angry	Picture	21.613	n/a	2	6	14	n/a	114	42	2	n/a	n/a	n/a	n/a	251.991	AF03HAS.jpg
195.096	0.514	Blank	Blank	21.099	n/a	2	6	14	n/a	114	n/a	2	n/a	n/a	n/a	n/a	252.488	n/a
195.626	0.497	angry	Picture	20.585	n/a	2	6	15	n/a	115	60	2	n/a	n/a	n/a	n/a	253.019	AF32HAS.jpg
196.123	0.514	Blank	Blank	20.071	n/a	2	6	15	n/a	115	n/a	2	n/a	n/a	n/a	n/a	253.516	n/a
196.654	0.497	angry	Picture	19.557	n/a	2	6	16	n/a	116	67	2	n/a	n/a	n/a	n/a	254.047	BM08HAS.jpg
197.151	0.514	Blank	Blank	19.043	n/a	2	6	16	n/a	116	n/a	2	n/a	n/a	n/a	n/a	254.544	n/a
197.682	0.497	angry	Picture	18.529	n/a	2	6	17	n/a	117	51	2	n/a	n/a	n/a	n/a	255.075	AF20HAS.jpg
198.179	0.514	Blank	Blank	18.015	n/a	2	6	17	n/a	117	n/a	2	n/a	n/a	n/a	n/a	255.572	n/a
198.71	0.497	angry	Picture	17.502	n/a	2	6	18	n/a	118	71	2	n/a	n/a	n/a	n/a	256.102	BM12HAS.jpg
199.207	0.514	Blank	Blank	16.988	n/a	2	6	18	n/a	118	n/a	2	n/a	n/a	n/a	n/a	256.6	n/a
199.738	0.497	angry	Picture	16.474	n/a	2	6	19	n/a	119	69	2	n/a	n/a	n/a	n/a	257.13	AM10HAS.jpg
200.235	0.514	Blank	Blank	15.96	n/a	2	6	19	n/a	119	n/a	2	n/a	n/a	n/a	n/a	257.628	n/a
200.765	0.497	angry	Picture	15.446	n/a	2	6	20	n/a	120	46	2	n/a	n/a	n/a	n/a	258.158	AF09HAS.jpg
201.263	0.514	Blank	Blank	14.932	n/a	2	6	20	n/a	120	n/a	2	n/a	n/a	n/a	n/a	258.656	n/a
201.793	10.014	ITI	Fixation+	4.902	n/a	2	n/a	n/a	n/a	n/a	n/a	n/a	n/a	n/a	n/a	n/a	259.186	n/a
216.709	n/a	ConfirmRating	Rate	n/a	4.89	2	n/a	n/a	0	n/a	n/a	n/a	2	Angry	8	48	274.101	n/a
219.065	n/a	ConfirmRating	Rate	n/a	2.338	2	n/a	n/a	1	n/a	n/a	n/a	3	Angry	0	49	276.458	n/a
219.085	15.004	Rest	Picture	n/a	n/a	n/a	n/a	n/a	n/a	n/a	n/a	n/a	0	n/a	0	0	276.478	n/a
234.105	10.014	ITI	Fixation+	96.701	n/a	3	n/a	n/a	n/a	n/a	n/a	n/a	n/a	n/a	n/a	n/a	291.498	n/a
244.135	0.497	happy	Picture	96.186	n/a	3	7	1	n/a	1	108	3	n/a	n/a	n/a	n/a	301.528	AM09ANS.jpg
244.633	0.514	Blank	Blank	95.673	n/a	3	7	1	n/a	1	n/a	3	n/a	n/a	n/a	n/a	302.025	n/a
245.163	0.497	happy	Picture	95.159	n/a	3	7	2	n/a	2	99	3	n/a	n/a	n/a	n/a	302.556	AF31ANS.jpg
245.661	0.514	Blank	Blank	94.645	n/a	3	7	2	n/a	2	n/a	3	n/a	n/a	n/a	n/a	303.053	n/a
246.191	0.497	happy	Picture	94.131	n/a	3	7	3	n/a	3	98	3	n/a	n/a	n/a	n/a	303.584	BF29ANS.jpg
246.688	0.514	Blank	Blank	93.617	n/a	3	7	3	n/a	3	n/a	3	n/a	n/a	n/a	n/a	304.081	n/a
247.219	0.497	happy	Picture	93.103	n/a	3	7	4	n/a	4	107	3	n/a	n/a	n/a	n/a	304.612	BM08ANS.jpg
247.716	0.514	Blank	Blank	92.589	n/a	3	7	4	n/a	4	n/a	3	n/a	n/a	n/a	n/a	305.109	n/a
248.247	0.497	happy	Picture	92.075	n/a	3	7	5	n/a	5	104	3	n/a	n/a	n/a	n/a	305.639	BM05ANS.jpg
248.744	0.514	Blank	Blank	91.561	n/a	3	7	5	n/a	5	n/a	3	n/a	n/a	n/a	n/a	306.137	n/a
249.275	0.497	happy	Picture	91.047	n/a	3	7	6	n/a	6	101	3	n/a	n/a	n/a	n/a	306.667	AM01ANS.jpg
249.772	0.514	Blank	Blank	90.533	n/a	3	7	6	n/a	6	n/a	3	n/a	n/a	n/a	n/a	307.165	n/a
250.303	0.497	happy	Picture	90.019	n/a	3	7	7	n/a	7	103	3	n/a	n/a	n/a	n/a	307.695	AM04ANS.jpg
250.8	0.514	Blank	Blank	89.505	n/a	3	7	7	n/a	7	n/a	3	n/a	n/a	n/a	n/a	308.193	n/a
251.331	0.497	happy	Picture	88.991	n/a	3	7	8	n/a	8	111	3	n/a	n/a	n/a	n/a	308.723	BM12ANS.jpg
251.828	0.514	Blank	Blank	88.477	n/a	3	7	8	n/a	8	n/a	3	n/a	n/a	n/a	n/a	309.221	n/a
252.358	0.497	happy	Picture	87.964	n/a	3	7	9	n/a	9	110	3	n/a	n/a	n/a	n/a	309.751	AM11ANS.jpg
252.856	0.514	Blank	Blank	87.45	n/a	3	7	9	n/a	9	n/a	3	n/a	n/a	n/a	n/a	310.248	n/a
253.386	0.497	happy	Picture	86.936	n/a	3	7	10	n/a	10	85	3	n/a	n/a	n/a	n/a	310.779	BF07ANS.jpg
253.884	0.514	Blank	Blank	86.422	n/a	3	7	10	n/a	10	n/a	3	n/a	n/a	n/a	n/a	311.276	n/a
254.414	0.497	happy	Picture	85.908	n/a	3	7	11	n/a	11	87	3	n/a	n/a	n/a	n/a	311.807	BF11ANS.jpg
254.911	0.514	Blank	Blank	85.394	n/a	3	7	11	n/a	11	n/a	3	n/a	n/a	n/a	n/a	312.304	n/a
255.442	0.497	happy	Picture	84.88	n/a	3	7	12	n/a	12	91	3	n/a	n/a	n/a	n/a	312.835	AF20ANS.jpg
255.939	0.514	Blank	Blank	84.366	n/a	3	7	12	n/a	12	n/a	3	n/a	n/a	n/a	n/a	313.332	n/a
256.47	0.497	happy	Picture	83.852	n/a	3	7	13	n/a	13	115	3	n/a	n/a	n/a	n/a	313.863	AM23ANS.jpg
256.967	0.514	Blank	Blank	83.338	n/a	3	7	13	n/a	13	n/a	3	n/a	n/a	n/a	n/a	314.36	n/a
257.498	0.497	happy	Picture	82.824	n/a	3	7	14	n/a	14	97	3	n/a	n/a	n/a	n/a	314.89	BF28ANS.jpg
257.995	0.514	Blank	Blank	82.31	n/a	3	7	14	n/a	14	n/a	3	n/a	n/a	n/a	n/a	315.388	n/a
258.526	0.497	happy	Picture	81.796	n/a	3	7	15	n/a	15	82	3	n/a	n/a	n/a	n/a	315.918	AF03ANS.jpg
259.023	0.514	Blank	Blank	81.282	n/a	3	7	15	n/a	15	n/a	3	n/a	n/a	n/a	n/a	316.416	n/a
259.553	0.497	happy	Picture	80.768	n/a	3	7	16	n/a	16	96	3	n/a	n/a	n/a	n/a	316.946	AF26ANS.jpg
260.051	0.514	Blank	Blank	80.254	n/a	3	7	16	n/a	16	n/a	3	n/a	n/a	n/a	n/a	317.444	n/a
260.581	0.497	happy	Picture	79.74	n/a	3	7	17	n/a	17	109	3	n/a	n/a	n/a	n/a	317.974	AM10ANS.jpg
261.079	0.514	Blank	Blank	79.226	n/a	3	7	17	n/a	17	n/a	3	n/a	n/a	n/a	n/a	318.471	n/a
261.609	0.497	happy	Picture	78.713	n/a	3	7	18	n/a	18	114	3	n/a	n/a	n/a	n/a	319.002	AM22ANS.jpg
262.107	0.514	Blank	Blank	78.199	n/a	3	7	18	n/a	18	n/a	3	n/a	n/a	n/a	n/a	319.499	n/a
262.637	0.497	happy	Picture	77.685	n/a	3	7	19	n/a	19	120	3	n/a	n/a	n/a	n/a	320.03	AM35ANS.jpg
263.135	0.514	Blank	Blank	77.171	n/a	3	7	19	n/a	19	n/a	3	n/a	n/a	n/a	n/a	320.527	n/a
263.665	0.497	happy	Picture	76.657	n/a	3	7	20	n/a	20	81	3	n/a	n/a	n/a	n/a	321.058	AF01ANS.jpg
264.162	0.514	Blank	Blank	76.143	n/a	3	7	20	n/a	20	n/a	3	n/a	n/a	n/a	n/a	321.555	n/a
264.693	10.014	ITI	Fixation+	66.113	n/a	3	n/a	n/a	n/a	n/a	n/a	n/a	n/a	n/a	n/a	n/a	322.086	n/a
274.723	0.497	neutral	Picture	65.599	n/a	3	8	1	n/a	21	28	1	n/a	n/a	n/a	n/a	332.116	AM09NES.jpg
275.22	0.514	Blank	Blank	65.085	n/a	3	8	1	n/a	21	n/a	1	n/a	n/a	n/a	n/a	332.613	n/a
275.751	0.497	neutral	Picture	64.571	n/a	3	8	2	n/a	22	27	1	n/a	n/a	n/a	n/a	333.144	BM08NES.jpg
276.248	0.514	Blank	Blank	64.057	n/a	3	8	2	n/a	22	n/a	1	n/a	n/a	n/a	n/a	333.641	n/a
276.779	0.497	neutral	Picture	63.543	n/a	3	8	3	n/a	23	16	1	n/a	n/a	n/a	n/a	334.171	AF26NES.jpg
277.276	0.514	Blank	Blank	63.029	n/a	3	8	3	n/a	23	n/a	1	n/a	n/a	n/a	n/a	334.669	n/a
277.807	0.497	neutral	Picture	62.515	n/a	3	8	4	n/a	24	3	1	n/a	n/a	n/a	n/a	335.199	BF04NES.jpg
278.304	0.514	Blank	Blank	62.001	n/a	3	8	4	n/a	24	n/a	1	n/a	n/a	n/a	n/a	335.697	n/a
278.834	0.497	neutral	Picture	61.487	n/a	3	8	5	n/a	25	32	1	n/a	n/a	n/a	n/a	336.227	AM14NES.jpg
279.332	0.514	Blank	Blank	60.973	n/a	3	8	5	n/a	25	n/a	1	n/a	n/a	n/a	n/a	336.725	n/a
279.862	0.497	neutral	Picture	60.459	n/a	3	8	6	n/a	26	37	1	n/a	n/a	n/a	n/a	337.255	BM25NES.jpg
280.36	0.514	Blank	Blank	59.946	n/a	3	8	6	n/a	26	n/a	1	n/a	n/a	n/a	n/a	337.752	n/a
280.89	0.497	neutral	Picture	59.432	n/a	3	8	7	n/a	27	15	1	n/a	n/a	n/a	n/a	338.283	AF25NES.jpg
281.388	0.514	Blank	Blank	58.918	n/a	3	8	7	n/a	27	n/a	1	n/a	n/a	n/a	n/a	338.78	n/a
281.918	0.497	neutral	Picture	58.404	n/a	3	8	8	n/a	28	23	1	n/a	n/a	n/a	n/a	339.311	AM04NES.jpg
282.416	0.514	Blank	Blank	57.89	n/a	3	8	8	n/a	28	n/a	1	n/a	n/a	n/a	n/a	339.808	n/a
282.946	0.497	neutral	Picture	57.376	n/a	3	8	9	n/a	29	34	1	n/a	n/a	n/a	n/a	340.339	AM22NES.jpg
283.443	0.514	Blank	Blank	56.862	n/a	3	8	9	n/a	29	n/a	1	n/a	n/a	n/a	n/a	340.836	n/a
283.974	0.497	neutral	Picture	56.348	n/a	3	8	10	n/a	30	24	1	n/a	n/a	n/a	n/a	341.367	BM05NES.jpg
284.471	0.514	Blank	Blank	55.834	n/a	3	8	10	n/a	30	n/a	1	n/a	n/a	n/a	n/a	341.864	n/a
285.002	0.497	neutral	Picture	55.32	n/a	3	8	11	n/a	31	12	1	n/a	n/a	n/a	n/a	342.394	AF21NES.jpg
285.499	0.514	Blank	Blank	54.806	n/a	3	8	11	n/a	31	n/a	1	n/a	n/a	n/a	n/a	342.892	n/a
286.03	0.497	neutral	Picture	54.292	n/a	3	8	12	n/a	32	6	1	n/a	n/a	n/a	n/a	343.422	AF09NES.jpg
286.527	0.514	Blank	Blank	53.778	n/a	3	8	12	n/a	32	n/a	1	n/a	n/a	n/a	n/a	343.92	n/a
287.058	0.497	neutral	Picture	53.264	n/a	3	8	13	n/a	33	17	1	n/a	n/a	n/a	n/a	344.45	BF28NES.jpg
287.555	0.514	Blank	Blank	52.75	n/a	3	8	13	n/a	33	n/a	1	n/a	n/a	n/a	n/a	344.948	n/a
288.085	0.497	neutral	Picture	52.236	n/a	3	8	14	n/a	34	2	1	n/a	n/a	n/a	n/a	345.478	AF03NES.jpg
288.583	0.514	Blank	Blank	51.723	n/a	3	8	14	n/a	34	n/a	1	n/a	n/a	n/a	n/a	345.976	n/a
289.113	0.497	neutral	Picture	51.209	n/a	3	8	15	n/a	35	9	1	n/a	n/a	n/a	n/a	346.506	AF17NES.jpg
289.611	0.514	Blank	Blank	50.695	n/a	3	8	15	n/a	35	n/a	1	n/a	n/a	n/a	n/a	347.003	n/a
290.141	0.497	neutral	Picture	50.181	n/a	3	8	16	n/a	36	25	1	n/a	n/a	n/a	n/a	347.534	BM06NES.jpg
290.639	0.514	Blank	Blank	49.667	n/a	3	8	16	n/a	36	n/a	1	n/a	n/a	n/a	n/a	348.031	n/a
291.169	0.497	neutral	Picture	49.153	n/a	3	8	17	n/a	37	8	1	n/a	n/a	n/a	n/a	348.562	AF14NES.jpg
291.666	0.514	Blank	Blank	48.639	n/a	3	8	17	n/a	37	n/a	1	n/a	n/a	n/a	n/a	349.059	n/a
292.197	0.497	neutral	Picture	48.125	n/a	3	8	18	n/a	38	19	1	n/a	n/a	n/a	n/a	349.59	AF31NES.jpg
292.694	0.514	Blank	Blank	47.611	n/a	3	8	18	n/a	38	n/a	1	n/a	n/a	n/a	n/a	350.087	n/a
293.225	0.497	neutral	Picture	47.097	n/a	3	8	19	n/a	39	14	1	n/a	n/a	n/a	n/a	350.618	AF23NES.jpg
293.722	0.514	Blank	Blank	46.583	n/a	3	8	19	n/a	39	n/a	1	n/a	n/a	n/a	n/a	351.115	n/a
294.253	0.497	neutral	Picture	46.069	n/a	3	8	20	n/a	40	4	1	n/a	n/a	n/a	n/a	351.645	AF05NES.jpg
294.75	0.514	Blank	Blank	45.555	n/a	3	8	20	n/a	40	n/a	1	n/a	n/a	n/a	n/a	352.143	n/a
295.281	10.014	ITI	Fixation+	35.525	n/a	3	n/a	n/a	n/a	n/a	n/a	n/a	n/a	n/a	n/a	n/a	352.673	n/a
305.311	0.497	happy	Picture	35.011	n/a	3	9	1	n/a	41	84	3	n/a	n/a	n/a	n/a	362.703	AF05ANS.jpg
305.808	0.514	Blank	Blank	34.497	n/a	3	9	1	n/a	41	n/a	3	n/a	n/a	n/a	n/a	363.201	n/a
306.339	0.497	happy	Picture	33.983	n/a	3	9	2	n/a	42	92	3	n/a	n/a	n/a	n/a	363.731	AF21ANS.jpg
306.836	0.514	Blank	Blank	33.469	n/a	3	9	2	n/a	42	n/a	3	n/a	n/a	n/a	n/a	364.229	n/a
307.367	0.497	happy	Picture	32.955	n/a	3	9	3	n/a	43	86	3	n/a	n/a	n/a	n/a	364.759	AF09ANS.jpg
307.864	0.514	Blank	Blank	32.441	n/a	3	9	3	n/a	43	n/a	3	n/a	n/a	n/a	n/a	365.257	n/a
308.394	0.497	happy	Picture	31.928	n/a	3	9	4	n/a	44	93	3	n/a	n/a	n/a	n/a	365.787	BF22ANS.jpg
308.892	0.514	Blank	Blank	31.414	n/a	3	9	4	n/a	44	n/a	3	n/a	n/a	n/a	n/a	366.284	n/a
309.422	0.497	happy	Picture	30.9	n/a	3	9	5	n/a	45	88	3	n/a	n/a	n/a	n/a	366.815	AF14ANS.jpg
309.92	0.514	Blank	Blank	30.386	n/a	3	9	5	n/a	45	n/a	3	n/a	n/a	n/a	n/a	367.312	n/a
310.45	0.497	happy	Picture	29.872	n/a	3	9	6	n/a	46	113	3	n/a	n/a	n/a	n/a	367.843	AM21ANS.jpg
310.947	0.514	Blank	Blank	29.358	n/a	3	9	6	n/a	46	n/a	3	n/a	n/a	n/a	n/a	368.34	n/a
311.478	0.497	happy	Picture	28.844	n/a	3	9	7	n/a	47	95	3	n/a	n/a	n/a	n/a	368.871	AF25ANS.jpg
311.975	0.514	Blank	Blank	28.33	n/a	3	9	7	n/a	47	n/a	3	n/a	n/a	n/a	n/a	369.368	n/a
312.506	0.497	happy	Picture	27.816	n/a	3	9	8	n/a	48	102	3	n/a	n/a	n/a	n/a	369.899	BM03ANS.jpg
313.003	0.514	Blank	Blank	27.302	n/a	3	9	8	n/a	48	n/a	3	n/a	n/a	n/a	n/a	370.396	n/a
313.534	0.497	happy	Picture	26.788	n/a	3	9	9	n/a	49	112	3	n/a	n/a	n/a	n/a	370.926	AM14ANS.jpg
314.031	0.514	Blank	Blank	26.274	n/a	3	9	9	n/a	49	n/a	3	n/a	n/a	n/a	n/a	371.424	n/a
314.562	0.497	happy	Picture	25.76	n/a	3	9	10	n/a	50	83	3	n/a	n/a	n/a	n/a	371.954	BF04ANS.jpg
315.059	0.514	Blank	Blank	25.246	n/a	3	9	10	n/a	50	n/a	3	n/a	n/a	n/a	n/a	372.452	n/a
315.589	0.497	happy	Picture	24.732	n/a	3	9	11	n/a	51	90	3	n/a	n/a	n/a	n/a	372.982	AF18ANS.jpg
316.087	0.514	Blank	Blank	24.218	n/a	3	9	11	n/a	51	n/a	3	n/a	n/a	n/a	n/a	373.479	n/a
316.617	0.497	happy	Picture	23.704	n/a	3	9	12	n/a	52	117	3	n/a	n/a	n/a	n/a	374.01	BM25ANS.jpg
317.115	0.514	Blank	Blank	23.19	n/a	3	9	12	n/a	52	n/a	3	n/a	n/a	n/a	n/a	374.507	n/a
317.645	0.497	happy	Picture	22.677	n/a	3	9	13	n/a	53	94	3	n/a	n/a	n/a	n/a	375.038	AF23ANS.jpg
318.143	0.514	Blank	Blank	22.163	n/a	3	9	13	n/a	53	n/a	3	n/a	n/a	n/a	n/a	375.535	n/a
318.673	0.497	happy	Picture	21.649	n/a	3	9	14	n/a	54	106	3	n/a	n/a	n/a	n/a	376.066	AM07ANS.jpg
319.171	0.514	Blank	Blank	21.135	n/a	3	9	14	n/a	54	n/a	3	n/a	n/a	n/a	n/a	376.563	n/a
319.701	0.497	happy	Picture	20.621	n/a	3	9	15	n/a	55	105	3	n/a	n/a	n/a	n/a	377.094	BM06ANS.jpg
320.198	0.514	Blank	Blank	20.107	n/a	3	9	15	n/a	55	n/a	3	n/a	n/a	n/a	n/a	377.591	n/a
320.729	0.497	happy	Picture	19.593	n/a	3	9	16	n/a	56	116	3	n/a	n/a	n/a	n/a	378.122	BM24ANS.jpg
321.226	0.514	Blank	Blank	19.079	n/a	3	9	16	n/a	56	n/a	3	n/a	n/a	n/a	n/a	378.619	n/a
321.757	0.497	happy	Picture	18.565	n/a	3	9	17	n/a	57	89	3	n/a	n/a	n/a	n/a	379.149	AF17ANS.jpg
322.254	0.514	Blank	Blank	18.051	n/a	3	9	17	n/a	57	n/a	3	n/a	n/a	n/a	n/a	379.647	n/a
322.785	0.497	happy	Picture	17.537	n/a	3	9	18	n/a	58	118	3	n/a	n/a	n/a	n/a	380.177	BM26ANS.jpg
323.282	0.514	Blank	Blank	17.023	n/a	3	9	18	n/a	58	n/a	3	n/a	n/a	n/a	n/a	380.675	n/a
323.813	0.497	happy	Picture	16.509	n/a	3	9	19	n/a	59	100	3	n/a	n/a	n/a	n/a	381.205	AF32ANS.jpg
324.31	0.514	Blank	Blank	15.995	n/a	3	9	19	n/a	59	n/a	3	n/a	n/a	n/a	n/a	381.703	n/a
324.84	0.497	happy	Picture	15.481	n/a	3	9	20	n/a	60	119	3	n/a	n/a	n/a	n/a	382.233	BM28ANS.jpg
325.338	0.514	Blank	Blank	14.968	n/a	3	9	20	n/a	60	n/a	3	n/a	n/a	n/a	n/a	382.731	n/a
325.868	10.014	ITI	Fixation+	4.937	n/a	3	n/a	n/a	n/a	n/a	n/a	n/a	n/a	n/a	n/a	n/a	383.261	n/a
340.819	n/a	ConfirmRating	Rate	n/a	4.924	3	n/a	n/a	0	n/a	n/a	n/a	2	Happy	35	49	398.212	n/a
344.772	n/a	ConfirmRating	Rate	n/a	3.946	3	n/a	n/a	1	n/a	n/a	n/a	3	Happy	7	49	402.165	n/a
344.801	10.014	ITI	Fixation+	95.044	n/a	4	n/a	n/a	n/a	n/a	n/a	n/a	n/a	n/a	n/a	n/a	402.194	n/a
354.831	0.497	angry	Picture	94.531	n/a	4	10	1	n/a	61	79	2	n/a	n/a	n/a	n/a	412.224	BM28HAS.jpg
355.329	0.514	Blank	Blank	94.017	n/a	4	10	1	n/a	61	n/a	2	n/a	n/a	n/a	n/a	412.721	n/a
355.859	0.497	angry	Picture	93.503	n/a	4	10	2	n/a	62	61	2	n/a	n/a	n/a	n/a	413.252	AM01HAS.jpg
356.356	0.514	Blank	Blank	92.989	n/a	4	10	2	n/a	62	n/a	2	n/a	n/a	n/a	n/a	413.749	n/a
356.887	0.497	angry	Picture	92.475	n/a	4	10	3	n/a	63	57	2	n/a	n/a	n/a	n/a	414.28	BF28HAS.jpg
357.384	0.514	Blank	Blank	91.961	n/a	4	10	3	n/a	63	n/a	2	n/a	n/a	n/a	n/a	414.777	n/a
357.915	0.497	angry	Picture	91.447	n/a	4	10	4	n/a	64	77	2	n/a	n/a	n/a	n/a	415.308	BM25HAS.jpg
358.412	0.514	Blank	Blank	90.933	n/a	4	10	4	n/a	64	n/a	2	n/a	n/a	n/a	n/a	415.805	n/a
358.943	0.497	angry	Picture	90.419	n/a	4	10	5	n/a	65	47	2	n/a	n/a	n/a	n/a	416.336	BF11HAS.jpg
359.44	0.514	Blank	Blank	89.905	n/a	4	10	5	n/a	65	n/a	2	n/a	n/a	n/a	n/a	416.833	n/a
359.971	0.497	angry	Picture	89.391	n/a	4	10	6	n/a	66	50	2	n/a	n/a	n/a	n/a	417.363	AF18HAS.jpg
360.468	0.514	Blank	Blank	88.877	n/a	4	10	6	n/a	66	n/a	2	n/a	n/a	n/a	n/a	417.861	n/a
360.999	0.497	angry	Picture	88.363	n/a	4	10	7	n/a	67	78	2	n/a	n/a	n/a	n/a	418.391	BM26HAS.jpg
361.496	0.514	Blank	Blank	87.849	n/a	4	10	7	n/a	67	n/a	2	n/a	n/a	n/a	n/a	418.889	n/a
362.026	0.497	angry	Picture	87.335	n/a	4	10	8	n/a	68	45	2	n/a	n/a	n/a	n/a	419.419	BF07HAS.jpg
362.524	0.514	Blank	Blank	86.822	n/a	4	10	8	n/a	68	n/a	2	n/a	n/a	n/a	n/a	419.916	n/a
363.054	0.497	angry	Picture	86.307	n/a	4	10	9	n/a	69	56	2	n/a	n/a	n/a	n/a	420.447	AF26HAS.jpg
363.552	0.514	Blank	Blank	85.794	n/a	4	10	9	n/a	69	n/a	2	n/a	n/a	n/a	n/a	420.944	n/a
364.082	0.497	angry	Picture	85.28	n/a	4	10	10	n/a	70	65	2	n/a	n/a	n/a	n/a	421.475	BM06HAS.jpg
364.579	0.514	Blank	Blank	84.766	n/a	4	10	10	n/a	70	n/a	2	n/a	n/a	n/a	n/a	421.972	n/a
365.11	0.497	angry	Picture	84.252	n/a	4	10	11	n/a	71	73	2	n/a	n/a	n/a	n/a	422.503	AM21HAS.jpg
365.607	0.514	Blank	Blank	83.738	n/a	4	10	11	n/a	71	n/a	2	n/a	n/a	n/a	n/a	423.0	n/a
366.138	0.497	angry	Picture	83.224	n/a	4	10	12	n/a	72	41	2	n/a	n/a	n/a	n/a	423.531	AF01HAS.jpg
366.635	0.514	Blank	Blank	82.71	n/a	4	10	12	n/a	72	n/a	2	n/a	n/a	n/a	n/a	424.028	n/a
367.166	0.497	angry	Picture	82.196	n/a	4	10	13	n/a	73	59	2	n/a	n/a	n/a	n/a	424.558	AF31HAS.jpg
367.663	0.514	Blank	Blank	81.682	n/a	4	10	13	n/a	73	n/a	2	n/a	n/a	n/a	n/a	425.056	n/a
368.194	0.497	angry	Picture	81.168	n/a	4	10	14	n/a	74	64	2	n/a	n/a	n/a	n/a	425.586	BM05HAS.jpg
368.691	0.514	Blank	Blank	80.654	n/a	4	10	14	n/a	74	n/a	2	n/a	n/a	n/a	n/a	426.084	n/a
369.222	0.497	angry	Picture	80.14	n/a	4	10	15	n/a	75	68	2	n/a	n/a	n/a	n/a	426.614	AM09HAS.jpg
369.719	0.514	Blank	Blank	79.626	n/a	4	10	15	n/a	75	n/a	2	n/a	n/a	n/a	n/a	427.112	n/a
370.25	0.497	angry	Picture	79.112	n/a	4	10	16	n/a	76	54	2	n/a	n/a	n/a	n/a	427.642	AF23HAS.jpg
370.747	0.514	Blank	Blank	78.598	n/a	4	10	16	n/a	76	n/a	2	n/a	n/a	n/a	n/a	428.139	n/a
371.277	0.497	angry	Picture	78.084	n/a	4	10	17	n/a	77	53	2	n/a	n/a	n/a	n/a	428.67	BF22HAS.jpg
371.775	0.514	Blank	Blank	77.571	n/a	4	10	17	n/a	77	n/a	2	n/a	n/a	n/a	n/a	429.167	n/a
372.305	0.497	angry	Picture	77.057	n/a	4	10	18	n/a	78	44	2	n/a	n/a	n/a	n/a	429.698	AF05HAS.jpg
372.803	0.514	Blank	Blank	76.543	n/a	4	10	18	n/a	78	n/a	2	n/a	n/a	n/a	n/a	430.195	n/a
373.333	0.497	angry	Picture	76.029	n/a	4	10	19	n/a	79	52	2	n/a	n/a	n/a	n/a	430.726	AF21HAS.jpg
373.83	0.514	Blank	Blank	75.515	n/a	4	10	19	n/a	79	n/a	2	n/a	n/a	n/a	n/a	431.223	n/a
374.361	0.497	angry	Picture	75.001	n/a	4	10	20	n/a	80	62	2	n/a	n/a	n/a	n/a	431.754	BM03HAS.jpg
374.858	0.514	Blank	Blank	74.487	n/a	4	10	20	n/a	80	n/a	2	n/a	n/a	n/a	n/a	432.251	n/a
375.389	10.014	ITI	Fixation+	64.457	n/a	4	n/a	n/a	n/a	n/a	n/a	n/a	n/a	n/a	n/a	n/a	432.781	n/a
385.419	0.497	neutral	Picture	63.943	n/a	4	11	1	n/a	81	23	1	n/a	n/a	n/a	n/a	442.812	AM04NES.jpg
385.916	0.514	Blank	Blank	63.429	n/a	4	11	1	n/a	81	n/a	1	n/a	n/a	n/a	n/a	443.309	n/a
386.447	0.497	neutral	Picture	62.915	n/a	4	11	2	n/a	82	29	1	n/a	n/a	n/a	n/a	443.839	AM10NES.jpg
386.944	0.514	Blank	Blank	62.401	n/a	4	11	2	n/a	82	n/a	1	n/a	n/a	n/a	n/a	444.337	n/a
387.475	0.497	neutral	Picture	61.887	n/a	4	11	3	n/a	83	24	1	n/a	n/a	n/a	n/a	444.867	BM05NES.jpg
387.972	0.514	Blank	Blank	61.373	n/a	4	11	3	n/a	83	n/a	1	n/a	n/a	n/a	n/a	445.365	n/a
388.503	0.497	neutral	Picture	60.859	n/a	4	11	4	n/a	84	12	1	n/a	n/a	n/a	n/a	445.895	AF21NES.jpg
389.0	0.514	Blank	Blank	60.345	n/a	4	11	4	n/a	84	n/a	1	n/a	n/a	n/a	n/a	446.393	n/a
389.531	0.497	neutral	Picture	59.831	n/a	4	11	5	n/a	85	13	1	n/a	n/a	n/a	n/a	446.923	BF22NES.jpg
390.028	0.514	Blank	Blank	59.317	n/a	4	11	5	n/a	85	n/a	1	n/a	n/a	n/a	n/a	447.421	n/a
390.558	0.497	neutral	Picture	58.803	n/a	4	11	6	n/a	86	17	1	n/a	n/a	n/a	n/a	447.951	BF28NES.jpg
391.056	0.514	Blank	Blank	58.289	n/a	4	11	6	n/a	86	n/a	1	n/a	n/a	n/a	n/a	448.448	n/a
391.586	0.497	neutral	Picture	57.776	n/a	4	11	7	n/a	87	4	1	n/a	n/a	n/a	n/a	448.979	AF05NES.jpg
392.084	0.514	Blank	Blank	57.262	n/a	4	11	7	n/a	87	n/a	1	n/a	n/a	n/a	n/a	449.476	n/a
392.614	0.497	neutral	Picture	56.748	n/a	4	11	8	n/a	88	11	1	n/a	n/a	n/a	n/a	450.007	AF20NES.jpg
393.112	0.514	Blank	Blank	56.234	n/a	4	11	8	n/a	88	n/a	1	n/a	n/a	n/a	n/a	450.504	n/a
393.642	0.497	neutral	Picture	55.72	n/a	4	11	9	n/a	89	22	1	n/a	n/a	n/a	n/a	451.035	BM03NES.jpg
394.139	0.514	Blank	Blank	55.206	n/a	4	11	9	n/a	89	n/a	1	n/a	n/a	n/a	n/a	451.532	n/a
394.67	0.497	neutral	Picture	54.692	n/a	4	11	10	n/a	90	15	1	n/a	n/a	n/a	n/a	452.063	AF25NES.jpg
395.167	0.514	Blank	Blank	54.178	n/a	4	11	10	n/a	90	n/a	1	n/a	n/a	n/a	n/a	452.56	n/a
395.698	0.497	neutral	Picture	53.664	n/a	4	11	11	n/a	91	19	1	n/a	n/a	n/a	n/a	453.091	AF31NES.jpg
396.195	0.514	Blank	Blank	53.15	n/a	4	11	11	n/a	91	n/a	1	n/a	n/a	n/a	n/a	453.588	n/a
396.726	0.497	neutral	Picture	52.636	n/a	4	11	12	n/a	92	9	1	n/a	n/a	n/a	n/a	454.118	AF17NES.jpg
397.223	0.514	Blank	Blank	52.122	n/a	4	11	12	n/a	92	n/a	1	n/a	n/a	n/a	n/a	454.616	n/a
397.754	0.497	neutral	Picture	51.608	n/a	4	11	13	n/a	93	14	1	n/a	n/a	n/a	n/a	455.146	AF23NES.jpg
398.251	0.514	Blank	Blank	51.094	n/a	4	11	13	n/a	93	n/a	1	n/a	n/a	n/a	n/a	455.644	n/a
398.781	0.497	neutral	Picture	50.58	n/a	4	11	14	n/a	94	36	1	n/a	n/a	n/a	n/a	456.174	BM24NES.jpg
399.279	0.514	Blank	Blank	50.066	n/a	4	11	14	n/a	94	n/a	1	n/a	n/a	n/a	n/a	456.671	n/a
399.809	0.497	neutral	Picture	49.553	n/a	4	11	15	n/a	95	34	1	n/a	n/a	n/a	n/a	457.202	AM22NES.jpg
400.307	0.514	Blank	Blank	49.039	n/a	4	11	15	n/a	95	n/a	1	n/a	n/a	n/a	n/a	457.699	n/a
400.837	0.497	neutral	Picture	48.525	n/a	4	11	16	n/a	96	10	1	n/a	n/a	n/a	n/a	458.23	AF18NES.jpg
401.334	0.514	Blank	Blank	48.011	n/a	4	11	16	n/a	96	n/a	1	n/a	n/a	n/a	n/a	458.727	n/a
401.865	0.497	neutral	Picture	47.497	n/a	4	11	17	n/a	97	5	1	n/a	n/a	n/a	n/a	459.258	BF07NES.jpg
402.362	0.514	Blank	Blank	46.983	n/a	4	11	17	n/a	97	n/a	1	n/a	n/a	n/a	n/a	459.755	n/a
402.893	0.497	neutral	Picture	46.469	n/a	4	11	18	n/a	98	25	1	n/a	n/a	n/a	n/a	460.286	BM06NES.jpg
403.39	0.514	Blank	Blank	45.955	n/a	4	11	18	n/a	98	n/a	1	n/a	n/a	n/a	n/a	460.783	n/a
403.921	0.497	neutral	Picture	45.441	n/a	4	11	19	n/a	99	39	1	n/a	n/a	n/a	n/a	461.313	AM28NES.jpg
404.418	0.514	Blank	Blank	44.927	n/a	4	11	19	n/a	99	n/a	1	n/a	n/a	n/a	n/a	461.811	n/a
404.949	0.497	neutral	Picture	44.413	n/a	4	11	20	n/a	100	33	1	n/a	n/a	n/a	n/a	462.341	AM21NES.jpg
405.446	0.514	Blank	Blank	43.899	n/a	4	11	20	n/a	100	n/a	1	n/a	n/a	n/a	n/a	462.839	n/a
405.976	10.014	ITI	Fixation+	33.869	n/a	4	n/a	n/a	n/a	n/a	n/a	n/a	n/a	n/a	n/a	n/a	463.369	n/a
416.007	0.497	angry	Picture	33.355	n/a	4	12	1	n/a	101	74	2	n/a	n/a	n/a	n/a	473.399	AM22HAS.jpg
416.504	0.514	Blank	Blank	32.841	n/a	4	12	1	n/a	101	n/a	2	n/a	n/a	n/a	n/a	473.897	n/a
417.035	0.497	angry	Picture	32.327	n/a	4	12	2	n/a	102	76	2	n/a	n/a	n/a	n/a	474.427	BM24HAS.jpg
417.532	0.514	Blank	Blank	31.813	n/a	4	12	2	n/a	102	n/a	2	n/a	n/a	n/a	n/a	474.925	n/a
418.062	0.497	angry	Picture	31.299	n/a	4	12	3	n/a	103	80	2	n/a	n/a	n/a	n/a	475.455	BM35HAS.jpg
418.56	0.514	Blank	Blank	30.786	n/a	4	12	3	n/a	103	n/a	2	n/a	n/a	n/a	n/a	475.952	n/a
419.09	0.497	angry	Picture	30.271	n/a	4	12	4	n/a	104	75	2	n/a	n/a	n/a	n/a	476.483	AM23HAS.jpg
419.588	0.514	Blank	Blank	29.758	n/a	4	12	4	n/a	104	n/a	2	n/a	n/a	n/a	n/a	476.98	n/a
420.118	0.497	angry	Picture	29.244	n/a	4	12	5	n/a	105	49	2	n/a	n/a	n/a	n/a	477.511	AF17HAS.jpg
420.615	0.514	Blank	Blank	28.73	n/a	4	12	5	n/a	105	n/a	2	n/a	n/a	n/a	n/a	478.008	n/a
421.146	0.497	angry	Picture	28.216	n/a	4	12	6	n/a	106	43	2	n/a	n/a	n/a	n/a	478.539	BF04HAS.jpg
421.643	0.514	Blank	Blank	27.702	n/a	4	12	6	n/a	106	n/a	2	n/a	n/a	n/a	n/a	479.036	n/a
422.174	0.497	angry	Picture	27.188	n/a	4	12	7	n/a	107	70	2	n/a	n/a	n/a	n/a	479.567	BM11HAS.jpg
422.671	0.514	Blank	Blank	26.674	n/a	4	12	7	n/a	107	n/a	2	n/a	n/a	n/a	n/a	480.064	n/a
423.202	0.497	angry	Picture	26.16	n/a	4	12	8	n/a	108	66	2	n/a	n/a	n/a	n/a	480.594	BM07HAS.jpg
423.699	0.514	Blank	Blank	25.646	n/a	4	12	8	n/a	108	n/a	2	n/a	n/a	n/a	n/a	481.092	n/a
424.23	0.497	angry	Picture	25.132	n/a	4	12	9	n/a	109	48	2	n/a	n/a	n/a	n/a	481.622	AF14HAS.jpg
424.727	0.514	Blank	Blank	24.618	n/a	4	12	9	n/a	109	n/a	2	n/a	n/a	n/a	n/a	482.12	n/a
425.258	0.497	angry	Picture	24.104	n/a	4	12	10	n/a	110	58	2	n/a	n/a	n/a	n/a	482.65	BF29HAS.jpg
425.755	0.514	Blank	Blank	23.59	n/a	4	12	10	n/a	110	n/a	2	n/a	n/a	n/a	n/a	483.148	n/a
426.285	0.497	angry	Picture	23.076	n/a	4	12	11	n/a	111	63	2	n/a	n/a	n/a	n/a	483.678	AM04HAS.jpg
426.783	0.514	Blank	Blank	22.562	n/a	4	12	11	n/a	111	n/a	2	n/a	n/a	n/a	n/a	484.175	n/a
427.313	0.497	angry	Picture	22.048	n/a	4	12	12	n/a	112	72	2	n/a	n/a	n/a	n/a	484.706	AM14HAS.jpg
427.811	0.514	Blank	Blank	21.535	n/a	4	12	12	n/a	112	n/a	2	n/a	n/a	n/a	n/a	485.203	n/a
428.341	0.497	angry	Picture	21.021	n/a	4	12	13	n/a	113	55	2	n/a	n/a	n/a	n/a	485.734	AF25HAS.jpg
428.839	0.514	Blank	Blank	20.507	n/a	4	12	13	n/a	113	n/a	2	n/a	n/a	n/a	n/a	486.231	n/a
429.369	0.497	angry	Picture	19.993	n/a	4	12	14	n/a	114	42	2	n/a	n/a	n/a	n/a	486.762	AF03HAS.jpg
429.866	0.514	Blank	Blank	19.479	n/a	4	12	14	n/a	114	n/a	2	n/a	n/a	n/a	n/a	487.259	n/a
430.397	0.497	angry	Picture	18.965	n/a	4	12	15	n/a	115	60	2	n/a	n/a	n/a	n/a	487.79	AF32HAS.jpg
430.894	0.514	Blank	Blank	18.451	n/a	4	12	15	n/a	115	n/a	2	n/a	n/a	n/a	n/a	488.287	n/a
431.425	0.497	angry	Picture	17.937	n/a	4	12	16	n/a	116	67	2	n/a	n/a	n/a	n/a	488.817	BM08HAS.jpg
431.922	0.514	Blank	Blank	17.423	n/a	4	12	16	n/a	116	n/a	2	n/a	n/a	n/a	n/a	489.315	n/a
432.453	0.497	angry	Picture	16.909	n/a	4	12	17	n/a	117	51	2	n/a	n/a	n/a	n/a	489.845	AF20HAS.jpg
432.95	0.514	Blank	Blank	16.395	n/a	4	12	17	n/a	117	n/a	2	n/a	n/a	n/a	n/a	490.343	n/a
433.481	0.497	angry	Picture	15.881	n/a	4	12	18	n/a	118	71	2	n/a	n/a	n/a	n/a	490.873	BM12HAS.jpg
433.978	0.514	Blank	Blank	15.367	n/a	4	12	18	n/a	118	n/a	2	n/a	n/a	n/a	n/a	491.371	n/a
434.509	0.497	angry	Picture	14.853	n/a	4	12	19	n/a	119	69	2	n/a	n/a	n/a	n/a	491.901	AM10HAS.jpg
435.006	0.514	Blank	Blank	14.339	n/a	4	12	19	n/a	119	n/a	2	n/a	n/a	n/a	n/a	492.399	n/a
435.536	0.497	angry	Picture	13.825	n/a	4	12	20	n/a	120	46	2	n/a	n/a	n/a	n/a	492.929	AF09HAS.jpg
436.034	0.514	Blank	Blank	13.311	n/a	4	12	20	n/a	120	n/a	2	n/a	n/a	n/a	n/a	493.426	n/a
436.564	10.014	ITI	Fixation+	3.281	n/a	4	n/a	n/a	n/a	n/a	n/a	n/a	n/a	n/a	n/a	n/a	493.957	n/a
449.859	n/a	ConfirmRating	Rate	n/a	3.266	4	n/a	n/a	0	n/a	n/a	n/a	2	Angry	9	49	507.252	n/a
456.094	n/a	ConfirmRating	Rate	n/a	6.234	4	n/a	n/a	1	n/a	n/a	n/a	3	Angry	0	47	513.487	n/a
