onset	duration	trial_type	event_type	time_until_response	response_time	trial_number	block_num_within_trial	image_seq_num_within_block	question_seq_num_within_block	image_seq_num	picture_number	condition	question_type	block_type	rating	rating_computed	onset_uncorrected	KDEV_imagefile
0.002	10.014	ITI	Fixation+	100.015	n/a	1	n/a	n/a	n/a	n/a	n/a	n/a	n/a	n/a	n/a	n/a	29.621	n/a
10.032	0.497	happy	Picture	99.501	n/a	1	1	1	n/a	1	46	2	n/a	n/a	n/a	n/a	39.651	AF09HAS.jpg
10.53	0.514	Blank	Blank	98.988	n/a	1	1	1	n/a	1	n/a	2	n/a	n/a	n/a	n/a	40.149	n/a
11.06	0.497	happy	Picture	98.474	n/a	1	1	2	n/a	2	69	2	n/a	n/a	n/a	n/a	40.679	AM10HAS.jpg
11.558	0.514	Blank	Blank	97.96	n/a	1	1	2	n/a	2	n/a	2	n/a	n/a	n/a	n/a	41.176	n/a
12.088	0.497	happy	Picture	97.446	n/a	1	1	3	n/a	3	71	2	n/a	n/a	n/a	n/a	41.707	BM12HAS.jpg
12.586	0.514	Blank	Blank	96.932	n/a	1	1	3	n/a	3	n/a	2	n/a	n/a	n/a	n/a	42.204	n/a
13.116	0.497	happy	Picture	96.418	n/a	1	1	4	n/a	4	51	2	n/a	n/a	n/a	n/a	42.735	AF20HAS.jpg
13.613	0.514	Blank	Blank	95.904	n/a	1	1	4	n/a	4	n/a	2	n/a	n/a	n/a	n/a	43.232	n/a
14.144	0.497	happy	Picture	95.39	n/a	1	1	5	n/a	5	67	2	n/a	n/a	n/a	n/a	43.763	BM08HAS.jpg
14.641	0.514	Blank	Blank	94.876	n/a	1	1	5	n/a	5	n/a	2	n/a	n/a	n/a	n/a	44.26	n/a
15.172	0.497	happy	Picture	94.362	n/a	1	1	6	n/a	6	60	2	n/a	n/a	n/a	n/a	44.791	AF32HAS.jpg
15.669	0.514	Blank	Blank	93.848	n/a	1	1	6	n/a	6	n/a	2	n/a	n/a	n/a	n/a	45.288	n/a
16.2	0.497	happy	Picture	93.334	n/a	1	1	7	n/a	7	42	2	n/a	n/a	n/a	n/a	45.819	AF03HAS.jpg
16.697	0.514	Blank	Blank	92.82	n/a	1	1	7	n/a	7	n/a	2	n/a	n/a	n/a	n/a	46.316	n/a
17.228	0.497	happy	Picture	92.306	n/a	1	1	8	n/a	8	55	2	n/a	n/a	n/a	n/a	46.846	AF25HAS.jpg
17.725	0.514	Blank	Blank	91.792	n/a	1	1	8	n/a	8	n/a	2	n/a	n/a	n/a	n/a	47.344	n/a
18.255	0.497	happy	Picture	91.278	n/a	1	1	9	n/a	9	72	2	n/a	n/a	n/a	n/a	47.874	AM14HAS.jpg
18.753	0.514	Blank	Blank	90.764	n/a	1	1	9	n/a	9	n/a	2	n/a	n/a	n/a	n/a	48.372	n/a
19.283	0.497	happy	Picture	90.25	n/a	1	1	10	n/a	10	63	2	n/a	n/a	n/a	n/a	48.902	AM04HAS.jpg
19.781	0.514	Blank	Blank	89.737	n/a	1	1	10	n/a	10	n/a	2	n/a	n/a	n/a	n/a	49.4	n/a
20.311	0.497	happy	Picture	89.223	n/a	1	1	11	n/a	11	58	2	n/a	n/a	n/a	n/a	49.93	BF29HAS.jpg
20.809	0.514	Blank	Blank	88.709	n/a	1	1	11	n/a	11	n/a	2	n/a	n/a	n/a	n/a	50.427	n/a
21.339	0.497	happy	Picture	88.195	n/a	1	1	12	n/a	12	48	2	n/a	n/a	n/a	n/a	50.958	AF14HAS.jpg
21.837	0.514	Blank	Blank	87.681	n/a	1	1	12	n/a	12	n/a	2	n/a	n/a	n/a	n/a	51.455	n/a
22.367	0.497	happy	Picture	87.167	n/a	1	1	13	n/a	13	66	2	n/a	n/a	n/a	n/a	51.986	BM07HAS.jpg
22.864	0.514	Blank	Blank	86.653	n/a	1	1	13	n/a	13	n/a	2	n/a	n/a	n/a	n/a	52.483	n/a
23.395	0.497	happy	Picture	86.139	n/a	1	1	14	n/a	14	70	2	n/a	n/a	n/a	n/a	53.014	BM11HAS.jpg
23.892	0.514	Blank	Blank	85.625	n/a	1	1	14	n/a	14	n/a	2	n/a	n/a	n/a	n/a	53.511	n/a
24.423	0.497	happy	Picture	85.111	n/a	1	1	15	n/a	15	43	2	n/a	n/a	n/a	n/a	54.042	BF04HAS.jpg
24.92	0.514	Blank	Blank	84.597	n/a	1	1	15	n/a	15	n/a	2	n/a	n/a	n/a	n/a	54.539	n/a
25.451	0.497	happy	Picture	84.083	n/a	1	1	16	n/a	16	49	2	n/a	n/a	n/a	n/a	55.069	AF17HAS.jpg
25.948	0.514	Blank	Blank	83.569	n/a	1	1	16	n/a	16	n/a	2	n/a	n/a	n/a	n/a	55.567	n/a
26.479	0.497	happy	Picture	83.055	n/a	1	1	17	n/a	17	75	2	n/a	n/a	n/a	n/a	56.097	AM23HAS.jpg
26.976	0.514	Blank	Blank	82.541	n/a	1	1	17	n/a	17	n/a	2	n/a	n/a	n/a	n/a	56.595	n/a
27.507	0.497	happy	Picture	82.027	n/a	1	1	18	n/a	18	80	2	n/a	n/a	n/a	n/a	57.125	BM35HAS.jpg
28.004	0.514	Blank	Blank	81.513	n/a	1	1	18	n/a	18	n/a	2	n/a	n/a	n/a	n/a	57.623	n/a
28.534	0.497	happy	Picture	81.0	n/a	1	1	19	n/a	19	76	2	n/a	n/a	n/a	n/a	58.153	BM24HAS.jpg
29.032	0.514	Blank	Blank	80.486	n/a	1	1	19	n/a	19	n/a	2	n/a	n/a	n/a	n/a	58.651	n/a
29.562	0.497	happy	Picture	79.972	n/a	1	1	20	n/a	20	74	2	n/a	n/a	n/a	n/a	59.181	AM22HAS.jpg
30.06	0.514	Blank	Blank	79.458	n/a	1	1	20	n/a	20	n/a	2	n/a	n/a	n/a	n/a	59.678	n/a
30.59	10.014	ITI	Fixation+	69.427	n/a	1	n/a	n/a	n/a	n/a	n/a	n/a	n/a	n/a	n/a	n/a	60.209	n/a
40.62	0.497	neutral	Picture	68.914	n/a	1	2	1	n/a	21	33	1	n/a	n/a	n/a	n/a	70.239	AM21NES.jpg
41.118	0.514	Blank	Blank	68.4	n/a	1	2	1	n/a	21	n/a	1	n/a	n/a	n/a	n/a	70.737	n/a
41.648	0.497	neutral	Picture	67.886	n/a	1	2	2	n/a	22	39	1	n/a	n/a	n/a	n/a	71.267	AM28NES.jpg
42.146	0.514	Blank	Blank	67.372	n/a	1	2	2	n/a	22	n/a	1	n/a	n/a	n/a	n/a	71.764	n/a
42.676	0.497	neutral	Picture	66.858	n/a	1	2	3	n/a	23	25	1	n/a	n/a	n/a	n/a	72.295	BM06NES.jpg
43.173	0.514	Blank	Blank	66.344	n/a	1	2	3	n/a	23	n/a	1	n/a	n/a	n/a	n/a	72.792	n/a
43.704	0.497	neutral	Picture	65.83	n/a	1	2	4	n/a	24	5	1	n/a	n/a	n/a	n/a	73.323	BF07NES.jpg
44.201	0.514	Blank	Blank	65.316	n/a	1	2	4	n/a	24	n/a	1	n/a	n/a	n/a	n/a	73.82	n/a
44.732	0.497	neutral	Picture	64.802	n/a	1	2	5	n/a	25	10	1	n/a	n/a	n/a	n/a	74.351	AF18NES.jpg
45.229	0.514	Blank	Blank	64.288	n/a	1	2	5	n/a	25	n/a	1	n/a	n/a	n/a	n/a	74.848	n/a
45.76	0.497	neutral	Picture	63.774	n/a	1	2	6	n/a	26	34	1	n/a	n/a	n/a	n/a	75.379	AM22NES.jpg
46.257	0.514	Blank	Blank	63.26	n/a	1	2	6	n/a	26	n/a	1	n/a	n/a	n/a	n/a	75.876	n/a
46.788	0.497	neutral	Picture	62.746	n/a	1	2	7	n/a	27	36	1	n/a	n/a	n/a	n/a	76.406	BM24NES.jpg
47.285	0.514	Blank	Blank	62.232	n/a	1	2	7	n/a	27	n/a	1	n/a	n/a	n/a	n/a	76.904	n/a
47.815	0.497	neutral	Picture	61.718	n/a	1	2	8	n/a	28	14	1	n/a	n/a	n/a	n/a	77.434	AF23NES.jpg
48.313	0.514	Blank	Blank	61.204	n/a	1	2	8	n/a	28	n/a	1	n/a	n/a	n/a	n/a	77.932	n/a
48.843	0.497	neutral	Picture	60.69	n/a	1	2	9	n/a	29	9	1	n/a	n/a	n/a	n/a	78.462	AF17NES.jpg
49.341	0.514	Blank	Blank	60.177	n/a	1	2	9	n/a	29	n/a	1	n/a	n/a	n/a	n/a	78.96	n/a
49.871	0.497	neutral	Picture	59.663	n/a	1	2	10	n/a	30	19	1	n/a	n/a	n/a	n/a	79.49	AF31NES.jpg
50.369	0.514	Blank	Blank	59.149	n/a	1	2	10	n/a	30	n/a	1	n/a	n/a	n/a	n/a	79.987	n/a
50.899	0.497	neutral	Picture	58.635	n/a	1	2	11	n/a	31	15	1	n/a	n/a	n/a	n/a	80.518	AF25NES.jpg
51.397	0.514	Blank	Blank	58.121	n/a	1	2	11	n/a	31	n/a	1	n/a	n/a	n/a	n/a	81.015	n/a
51.927	0.497	neutral	Picture	57.607	n/a	1	2	12	n/a	32	22	1	n/a	n/a	n/a	n/a	81.546	BM03NES.jpg
52.425	0.514	Blank	Blank	57.093	n/a	1	2	12	n/a	32	n/a	1	n/a	n/a	n/a	n/a	82.043	n/a
52.955	0.497	neutral	Picture	56.579	n/a	1	2	13	n/a	33	11	1	n/a	n/a	n/a	n/a	82.574	AF20NES.jpg
53.452	0.514	Blank	Blank	56.065	n/a	1	2	13	n/a	33	n/a	1	n/a	n/a	n/a	n/a	83.071	n/a
53.983	0.497	neutral	Picture	55.551	n/a	1	2	14	n/a	34	4	1	n/a	n/a	n/a	n/a	83.602	AF05NES.jpg
54.48	0.514	Blank	Blank	55.037	n/a	1	2	14	n/a	34	n/a	1	n/a	n/a	n/a	n/a	84.099	n/a
55.011	0.497	neutral	Picture	54.523	n/a	1	2	15	n/a	35	17	1	n/a	n/a	n/a	n/a	84.629	BF28NES.jpg
55.508	0.514	Blank	Blank	54.009	n/a	1	2	15	n/a	35	n/a	1	n/a	n/a	n/a	n/a	85.127	n/a
56.039	0.497	neutral	Picture	53.495	n/a	1	2	16	n/a	36	13	1	n/a	n/a	n/a	n/a	85.657	BF22NES.jpg
56.536	0.514	Blank	Blank	52.981	n/a	1	2	16	n/a	36	n/a	1	n/a	n/a	n/a	n/a	86.155	n/a
57.066	0.497	neutral	Picture	52.467	n/a	1	2	17	n/a	37	12	1	n/a	n/a	n/a	n/a	86.685	AF21NES.jpg
57.564	0.514	Blank	Blank	51.953	n/a	1	2	17	n/a	37	n/a	1	n/a	n/a	n/a	n/a	87.183	n/a
58.094	0.497	neutral	Picture	51.439	n/a	1	2	18	n/a	38	24	1	n/a	n/a	n/a	n/a	87.713	BM05NES.jpg
58.592	0.514	Blank	Blank	50.926	n/a	1	2	18	n/a	38	n/a	1	n/a	n/a	n/a	n/a	88.211	n/a
59.122	0.497	neutral	Picture	50.412	n/a	1	2	19	n/a	39	29	1	n/a	n/a	n/a	n/a	88.741	AM10NES.jpg
59.62	0.514	Blank	Blank	49.898	n/a	1	2	19	n/a	39	n/a	1	n/a	n/a	n/a	n/a	89.239	n/a
60.15	0.497	neutral	Picture	49.384	n/a	1	2	20	n/a	40	23	1	n/a	n/a	n/a	n/a	89.769	AM04NES.jpg
60.648	0.514	Blank	Blank	48.87	n/a	1	2	20	n/a	40	n/a	1	n/a	n/a	n/a	n/a	90.266	n/a
61.178	10.014	ITI	Fixation+	38.84	n/a	1	n/a	n/a	n/a	n/a	n/a	n/a	n/a	n/a	n/a	n/a	90.797	n/a
71.208	0.497	happy	Picture	38.326	n/a	1	3	1	n/a	41	62	2	n/a	n/a	n/a	n/a	100.827	BM03HAS.jpg
71.706	0.514	Blank	Blank	37.812	n/a	1	3	1	n/a	41	n/a	2	n/a	n/a	n/a	n/a	101.324	n/a
72.236	0.497	happy	Picture	37.298	n/a	1	3	2	n/a	42	52	2	n/a	n/a	n/a	n/a	101.855	AF21HAS.jpg
72.733	0.514	Blank	Blank	36.784	n/a	1	3	2	n/a	42	n/a	2	n/a	n/a	n/a	n/a	102.352	n/a
73.264	0.497	happy	Picture	36.27	n/a	1	3	3	n/a	43	44	2	n/a	n/a	n/a	n/a	102.883	AF05HAS.jpg
73.761	0.514	Blank	Blank	35.756	n/a	1	3	3	n/a	43	n/a	2	n/a	n/a	n/a	n/a	103.38	n/a
74.292	0.497	happy	Picture	35.242	n/a	1	3	4	n/a	44	53	2	n/a	n/a	n/a	n/a	103.911	BF22HAS.jpg
74.789	0.514	Blank	Blank	34.728	n/a	1	3	4	n/a	44	n/a	2	n/a	n/a	n/a	n/a	104.408	n/a
75.32	0.497	happy	Picture	34.214	n/a	1	3	5	n/a	45	54	2	n/a	n/a	n/a	n/a	104.939	AF23HAS.jpg
75.817	0.514	Blank	Blank	33.7	n/a	1	3	5	n/a	45	n/a	2	n/a	n/a	n/a	n/a	105.436	n/a
76.348	0.497	happy	Picture	33.186	n/a	1	3	6	n/a	46	68	2	n/a	n/a	n/a	n/a	105.966	AM09HAS.jpg
76.845	0.514	Blank	Blank	32.672	n/a	1	3	6	n/a	46	n/a	2	n/a	n/a	n/a	n/a	106.464	n/a
77.376	0.497	happy	Picture	32.158	n/a	1	3	7	n/a	47	64	2	n/a	n/a	n/a	n/a	106.994	BM05HAS.jpg
77.873	0.514	Blank	Blank	31.644	n/a	1	3	7	n/a	47	n/a	2	n/a	n/a	n/a	n/a	107.492	n/a
78.404	0.497	happy	Picture	31.13	n/a	1	3	8	n/a	48	59	2	n/a	n/a	n/a	n/a	108.022	AF31HAS.jpg
78.901	0.514	Blank	Blank	30.616	n/a	1	3	8	n/a	48	n/a	2	n/a	n/a	n/a	n/a	108.52	n/a
79.431	0.497	happy	Picture	30.103	n/a	1	3	9	n/a	49	41	2	n/a	n/a	n/a	n/a	109.05	AF01HAS.jpg
79.928	0.515	Blank	Blank	29.589	n/a	1	3	9	n/a	49	n/a	2	n/a	n/a	n/a	n/a	109.547	n/a
80.459	0.497	happy	Picture	29.075	n/a	1	3	10	n/a	50	73	2	n/a	n/a	n/a	n/a	110.078	AM21HAS.jpg
80.957	0.514	Blank	Blank	28.561	n/a	1	3	10	n/a	50	n/a	2	n/a	n/a	n/a	n/a	110.575	n/a
81.487	0.497	happy	Picture	28.047	n/a	1	3	11	n/a	51	65	2	n/a	n/a	n/a	n/a	111.106	BM06HAS.jpg
81.984	0.514	Blank	Blank	27.533	n/a	1	3	11	n/a	51	n/a	2	n/a	n/a	n/a	n/a	111.603	n/a
82.515	0.497	happy	Picture	27.019	n/a	1	3	12	n/a	52	56	2	n/a	n/a	n/a	n/a	112.134	AF26HAS.jpg
83.012	0.514	Blank	Blank	26.505	n/a	1	3	12	n/a	52	n/a	2	n/a	n/a	n/a	n/a	112.631	n/a
83.543	0.497	happy	Picture	25.991	n/a	1	3	13	n/a	53	45	2	n/a	n/a	n/a	n/a	113.162	BF07HAS.jpg
84.04	0.514	Blank	Blank	25.477	n/a	1	3	13	n/a	53	n/a	2	n/a	n/a	n/a	n/a	113.659	n/a
84.571	0.497	happy	Picture	24.963	n/a	1	3	14	n/a	54	78	2	n/a	n/a	n/a	n/a	114.19	BM26HAS.jpg
85.068	0.514	Blank	Blank	24.449	n/a	1	3	14	n/a	54	n/a	2	n/a	n/a	n/a	n/a	114.687	n/a
85.599	0.497	happy	Picture	23.935	n/a	1	3	15	n/a	55	50	2	n/a	n/a	n/a	n/a	115.218	AF18HAS.jpg
86.096	0.514	Blank	Blank	23.421	n/a	1	3	15	n/a	55	n/a	2	n/a	n/a	n/a	n/a	115.715	n/a
86.627	0.497	happy	Picture	22.907	n/a	1	3	16	n/a	56	47	2	n/a	n/a	n/a	n/a	116.245	BF11HAS.jpg
87.124	0.514	Blank	Blank	22.393	n/a	1	3	16	n/a	56	n/a	2	n/a	n/a	n/a	n/a	116.743	n/a
87.655	0.497	happy	Picture	21.879	n/a	1	3	17	n/a	57	77	2	n/a	n/a	n/a	n/a	117.273	BM25HAS.jpg
88.152	0.514	Blank	Blank	21.365	n/a	1	3	17	n/a	57	n/a	2	n/a	n/a	n/a	n/a	117.771	n/a
88.682	0.497	happy	Picture	20.852	n/a	1	3	18	n/a	58	57	2	n/a	n/a	n/a	n/a	118.301	BF28HAS.jpg
89.18	0.514	Blank	Blank	20.338	n/a	1	3	18	n/a	58	n/a	2	n/a	n/a	n/a	n/a	118.799	n/a
89.71	0.497	happy	Picture	19.824	n/a	1	3	19	n/a	59	61	2	n/a	n/a	n/a	n/a	119.329	AM01HAS.jpg
90.208	0.514	Blank	Blank	19.31	n/a	1	3	19	n/a	59	n/a	2	n/a	n/a	n/a	n/a	119.826	n/a
90.738	0.497	happy	Picture	18.796	n/a	1	3	20	n/a	60	79	2	n/a	n/a	n/a	n/a	120.357	BM28HAS.jpg
91.236	0.514	Blank	Blank	18.282	n/a	1	3	20	n/a	60	n/a	2	n/a	n/a	n/a	n/a	120.854	n/a
91.766	10.014	ITI	Fixation+	8.252	n/a	1	n/a	n/a	n/a	n/a	n/a	n/a	n/a	n/a	n/a	n/a	121.385	n/a
110.031	n/a	ConfirmRating	Rate	n/a	8.239	1	n/a	n/a	0	n/a	n/a	n/a	2	Happy	69	53	139.65	n/a
120.53	n/a	ConfirmRating	Rate	n/a	10.478	1	n/a	n/a	1	n/a	n/a	n/a	3	Happy	11	44	150.149	n/a
120.547	10.014	ITI	Fixation+	101.17	n/a	2	n/a	n/a	n/a	n/a	n/a	n/a	n/a	n/a	n/a	n/a	150.166	n/a
130.577	0.497	angry	Picture	100.656	n/a	2	4	1	n/a	61	119	3	n/a	n/a	n/a	n/a	160.196	BM28ANS.jpg
131.074	0.514	Blank	Blank	100.143	n/a	2	4	1	n/a	61	n/a	3	n/a	n/a	n/a	n/a	160.693	n/a
131.605	0.497	angry	Picture	99.629	n/a	2	4	2	n/a	62	100	3	n/a	n/a	n/a	n/a	161.224	AF32ANS.jpg
132.102	0.514	Blank	Blank	99.115	n/a	2	4	2	n/a	62	n/a	3	n/a	n/a	n/a	n/a	161.721	n/a
132.633	0.497	angry	Picture	98.601	n/a	2	4	3	n/a	63	118	3	n/a	n/a	n/a	n/a	162.252	BM26ANS.jpg
133.13	0.514	Blank	Blank	98.087	n/a	2	4	3	n/a	63	n/a	3	n/a	n/a	n/a	n/a	162.749	n/a
133.661	0.497	angry	Picture	97.573	n/a	2	4	4	n/a	64	89	3	n/a	n/a	n/a	n/a	163.28	AF17ANS.jpg
134.158	0.514	Blank	Blank	97.059	n/a	2	4	4	n/a	64	n/a	3	n/a	n/a	n/a	n/a	163.777	n/a
134.689	0.497	angry	Picture	96.545	n/a	2	4	5	n/a	65	116	3	n/a	n/a	n/a	n/a	164.307	BM24ANS.jpg
135.186	0.514	Blank	Blank	96.031	n/a	2	4	5	n/a	65	n/a	3	n/a	n/a	n/a	n/a	164.805	n/a
135.716	0.497	angry	Picture	95.517	n/a	2	4	6	n/a	66	105	3	n/a	n/a	n/a	n/a	165.335	BM06ANS.jpg
136.214	0.514	Blank	Blank	95.003	n/a	2	4	6	n/a	66	n/a	3	n/a	n/a	n/a	n/a	165.833	n/a
136.744	0.497	angry	Picture	94.489	n/a	2	4	7	n/a	67	106	3	n/a	n/a	n/a	n/a	166.363	AM07ANS.jpg
137.242	0.514	Blank	Blank	93.975	n/a	2	4	7	n/a	67	n/a	3	n/a	n/a	n/a	n/a	166.861	n/a
137.772	0.497	angry	Picture	93.461	n/a	2	4	8	n/a	68	94	3	n/a	n/a	n/a	n/a	167.391	AF23ANS.jpg
138.27	0.514	Blank	Blank	92.947	n/a	2	4	8	n/a	68	n/a	3	n/a	n/a	n/a	n/a	167.888	n/a
138.8	0.497	angry	Picture	92.433	n/a	2	4	9	n/a	69	117	3	n/a	n/a	n/a	n/a	168.419	BM25ANS.jpg
139.298	0.514	Blank	Blank	91.919	n/a	2	4	9	n/a	69	n/a	3	n/a	n/a	n/a	n/a	168.916	n/a
139.828	0.497	angry	Picture	91.405	n/a	2	4	10	n/a	70	90	3	n/a	n/a	n/a	n/a	169.447	AF18ANS.jpg
140.325	0.514	Blank	Blank	90.892	n/a	2	4	10	n/a	70	n/a	3	n/a	n/a	n/a	n/a	169.944	n/a
140.856	0.497	angry	Picture	90.378	n/a	2	4	11	n/a	71	83	3	n/a	n/a	n/a	n/a	170.475	BF04ANS.jpg
141.353	0.514	Blank	Blank	89.864	n/a	2	4	11	n/a	71	n/a	3	n/a	n/a	n/a	n/a	170.972	n/a
141.884	0.497	angry	Picture	89.35	n/a	2	4	12	n/a	72	112	3	n/a	n/a	n/a	n/a	171.503	AM14ANS.jpg
142.381	0.514	Blank	Blank	88.836	n/a	2	4	12	n/a	72	n/a	3	n/a	n/a	n/a	n/a	172.0	n/a
142.912	0.497	angry	Picture	88.322	n/a	2	4	13	n/a	73	102	3	n/a	n/a	n/a	n/a	172.53	BM03ANS.jpg
143.409	0.514	Blank	Blank	87.808	n/a	2	4	13	n/a	73	n/a	3	n/a	n/a	n/a	n/a	173.028	n/a
143.94	0.497	angry	Picture	87.294	n/a	2	4	14	n/a	74	95	3	n/a	n/a	n/a	n/a	173.558	AF25ANS.jpg
144.437	0.514	Blank	Blank	86.78	n/a	2	4	14	n/a	74	n/a	3	n/a	n/a	n/a	n/a	174.056	n/a
144.968	0.497	angry	Picture	86.266	n/a	2	4	15	n/a	75	113	3	n/a	n/a	n/a	n/a	174.586	AM21ANS.jpg
145.465	0.514	Blank	Blank	85.752	n/a	2	4	15	n/a	75	n/a	3	n/a	n/a	n/a	n/a	175.084	n/a
145.995	0.497	angry	Picture	85.238	n/a	2	4	16	n/a	76	88	3	n/a	n/a	n/a	n/a	175.614	AF14ANS.jpg
146.493	0.514	Blank	Blank	84.724	n/a	2	4	16	n/a	76	n/a	3	n/a	n/a	n/a	n/a	176.112	n/a
147.023	0.497	angry	Picture	84.21	n/a	2	4	17	n/a	77	93	3	n/a	n/a	n/a	n/a	176.642	BF22ANS.jpg
147.521	0.514	Blank	Blank	83.696	n/a	2	4	17	n/a	77	n/a	3	n/a	n/a	n/a	n/a	177.139	n/a
148.051	0.497	angry	Picture	83.182	n/a	2	4	18	n/a	78	86	3	n/a	n/a	n/a	n/a	177.67	AF09ANS.jpg
148.549	0.514	Blank	Blank	82.668	n/a	2	4	18	n/a	78	n/a	3	n/a	n/a	n/a	n/a	178.167	n/a
149.079	0.497	angry	Picture	82.154	n/a	2	4	19	n/a	79	92	3	n/a	n/a	n/a	n/a	178.698	AF21ANS.jpg
149.576	0.514	Blank	Blank	81.641	n/a	2	4	19	n/a	79	n/a	3	n/a	n/a	n/a	n/a	179.195	n/a
150.107	0.497	angry	Picture	81.127	n/a	2	4	20	n/a	80	84	3	n/a	n/a	n/a	n/a	179.726	AF05ANS.jpg
150.604	0.514	Blank	Blank	80.613	n/a	2	4	20	n/a	80	n/a	3	n/a	n/a	n/a	n/a	180.223	n/a
151.135	10.014	ITI	Fixation+	70.582	n/a	2	n/a	n/a	n/a	n/a	n/a	n/a	n/a	n/a	n/a	n/a	180.754	n/a
161.165	0.497	neutral	Picture	70.069	n/a	2	5	1	n/a	81	4	1	n/a	n/a	n/a	n/a	190.784	AF05NES.jpg
161.662	0.514	Blank	Blank	69.555	n/a	2	5	1	n/a	81	n/a	1	n/a	n/a	n/a	n/a	191.281	n/a
162.193	0.497	neutral	Picture	69.041	n/a	2	5	2	n/a	82	14	1	n/a	n/a	n/a	n/a	191.812	AF23NES.jpg
162.69	0.514	Blank	Blank	68.527	n/a	2	5	2	n/a	82	n/a	1	n/a	n/a	n/a	n/a	192.309	n/a
163.221	0.497	neutral	Picture	68.013	n/a	2	5	3	n/a	83	19	1	n/a	n/a	n/a	n/a	192.839	AF31NES.jpg
163.718	0.514	Blank	Blank	67.499	n/a	2	5	3	n/a	83	n/a	1	n/a	n/a	n/a	n/a	193.337	n/a
164.249	0.497	neutral	Picture	66.985	n/a	2	5	4	n/a	84	8	1	n/a	n/a	n/a	n/a	193.867	AF14NES.jpg
164.746	0.514	Blank	Blank	66.471	n/a	2	5	4	n/a	84	n/a	1	n/a	n/a	n/a	n/a	194.365	n/a
165.276	0.497	neutral	Picture	65.957	n/a	2	5	5	n/a	85	25	1	n/a	n/a	n/a	n/a	194.895	BM06NES.jpg
165.774	0.514	Blank	Blank	65.443	n/a	2	5	5	n/a	85	n/a	1	n/a	n/a	n/a	n/a	195.393	n/a
166.304	0.497	neutral	Picture	64.929	n/a	2	5	6	n/a	86	9	1	n/a	n/a	n/a	n/a	195.923	AF17NES.jpg
166.802	0.514	Blank	Blank	64.415	n/a	2	5	6	n/a	86	n/a	1	n/a	n/a	n/a	n/a	196.421	n/a
167.332	0.497	neutral	Picture	63.901	n/a	2	5	7	n/a	87	2	1	n/a	n/a	n/a	n/a	196.951	AF03NES.jpg
167.83	0.514	Blank	Blank	63.387	n/a	2	5	7	n/a	87	n/a	1	n/a	n/a	n/a	n/a	197.448	n/a
168.36	0.497	neutral	Picture	62.873	n/a	2	5	8	n/a	88	17	1	n/a	n/a	n/a	n/a	197.979	BF28NES.jpg
168.858	0.514	Blank	Blank	62.359	n/a	2	5	8	n/a	88	n/a	1	n/a	n/a	n/a	n/a	198.476	n/a
169.388	0.497	neutral	Picture	61.845	n/a	2	5	9	n/a	89	6	1	n/a	n/a	n/a	n/a	199.007	AF09NES.jpg
169.885	0.514	Blank	Blank	61.331	n/a	2	5	9	n/a	89	n/a	1	n/a	n/a	n/a	n/a	199.504	n/a
170.416	0.497	neutral	Picture	60.818	n/a	2	5	10	n/a	90	12	1	n/a	n/a	n/a	n/a	200.035	AF21NES.jpg
170.913	0.514	Blank	Blank	60.304	n/a	2	5	10	n/a	90	n/a	1	n/a	n/a	n/a	n/a	200.532	n/a
171.444	0.497	neutral	Picture	59.79	n/a	2	5	11	n/a	91	24	1	n/a	n/a	n/a	n/a	201.063	BM05NES.jpg
171.941	0.514	Blank	Blank	59.276	n/a	2	5	11	n/a	91	n/a	1	n/a	n/a	n/a	n/a	201.56	n/a
172.472	0.497	neutral	Picture	58.762	n/a	2	5	12	n/a	92	34	1	n/a	n/a	n/a	n/a	202.09	AM22NES.jpg
172.969	0.514	Blank	Blank	58.248	n/a	2	5	12	n/a	92	n/a	1	n/a	n/a	n/a	n/a	202.588	n/a
173.5	0.497	neutral	Picture	57.734	n/a	2	5	13	n/a	93	23	1	n/a	n/a	n/a	n/a	203.118	AM04NES.jpg
173.997	0.514	Blank	Blank	57.22	n/a	2	5	13	n/a	93	n/a	1	n/a	n/a	n/a	n/a	203.616	n/a
174.528	0.497	neutral	Picture	56.706	n/a	2	5	14	n/a	94	15	1	n/a	n/a	n/a	n/a	204.146	AF25NES.jpg
175.025	0.514	Blank	Blank	56.192	n/a	2	5	14	n/a	94	n/a	1	n/a	n/a	n/a	n/a	204.644	n/a
175.555	0.497	neutral	Picture	55.678	n/a	2	5	15	n/a	95	37	1	n/a	n/a	n/a	n/a	205.174	BM25NES.jpg
176.053	0.514	Blank	Blank	55.164	n/a	2	5	15	n/a	95	n/a	1	n/a	n/a	n/a	n/a	205.672	n/a
176.583	0.497	neutral	Picture	54.65	n/a	2	5	16	n/a	96	32	1	n/a	n/a	n/a	n/a	206.202	AM14NES.jpg
177.081	0.514	Blank	Blank	54.136	n/a	2	5	16	n/a	96	n/a	1	n/a	n/a	n/a	n/a	206.699	n/a
177.611	0.497	neutral	Picture	53.622	n/a	2	5	17	n/a	97	3	1	n/a	n/a	n/a	n/a	207.23	BF04NES.jpg
178.109	0.514	Blank	Blank	53.108	n/a	2	5	17	n/a	97	n/a	1	n/a	n/a	n/a	n/a	207.727	n/a
178.639	0.497	neutral	Picture	52.594	n/a	2	5	18	n/a	98	16	1	n/a	n/a	n/a	n/a	208.258	AF26NES.jpg
179.136	0.514	Blank	Blank	52.081	n/a	2	5	18	n/a	98	n/a	1	n/a	n/a	n/a	n/a	208.755	n/a
179.667	0.497	neutral	Picture	51.567	n/a	2	5	19	n/a	99	27	1	n/a	n/a	n/a	n/a	209.286	BM08NES.jpg
180.164	0.514	Blank	Blank	51.053	n/a	2	5	19	n/a	99	n/a	1	n/a	n/a	n/a	n/a	209.783	n/a
180.695	0.497	neutral	Picture	50.539	n/a	2	5	20	n/a	100	28	1	n/a	n/a	n/a	n/a	210.314	AM09NES.jpg
181.192	0.514	Blank	Blank	50.025	n/a	2	5	20	n/a	100	n/a	1	n/a	n/a	n/a	n/a	210.811	n/a
181.723	10.014	ITI	Fixation+	39.995	n/a	2	n/a	n/a	n/a	n/a	n/a	n/a	n/a	n/a	n/a	n/a	211.341	n/a
191.753	0.497	angry	Picture	39.481	n/a	2	6	1	n/a	101	81	3	n/a	n/a	n/a	n/a	221.372	AF01ANS.jpg
192.25	0.514	Blank	Blank	38.967	n/a	2	6	1	n/a	101	n/a	3	n/a	n/a	n/a	n/a	221.869	n/a
192.781	0.497	angry	Picture	38.453	n/a	2	6	2	n/a	102	120	3	n/a	n/a	n/a	n/a	222.4	AM35ANS.jpg
193.278	0.514	Blank	Blank	37.939	n/a	2	6	2	n/a	102	n/a	3	n/a	n/a	n/a	n/a	222.897	n/a
193.809	0.497	angry	Picture	37.425	n/a	2	6	3	n/a	103	114	3	n/a	n/a	n/a	n/a	223.428	AM22ANS.jpg
194.306	0.514	Blank	Blank	36.911	n/a	2	6	3	n/a	103	n/a	3	n/a	n/a	n/a	n/a	223.925	n/a
194.837	0.497	angry	Picture	36.397	n/a	2	6	4	n/a	104	109	3	n/a	n/a	n/a	n/a	224.455	AM10ANS.jpg
195.334	0.514	Blank	Blank	35.883	n/a	2	6	4	n/a	104	n/a	3	n/a	n/a	n/a	n/a	224.953	n/a
195.864	0.497	angry	Picture	35.369	n/a	2	6	5	n/a	105	96	3	n/a	n/a	n/a	n/a	225.483	AF26ANS.jpg
196.362	0.514	Blank	Blank	34.855	n/a	2	6	5	n/a	105	n/a	3	n/a	n/a	n/a	n/a	225.981	n/a
196.892	0.497	angry	Picture	34.341	n/a	2	6	6	n/a	106	82	3	n/a	n/a	n/a	n/a	226.511	AF03ANS.jpg
197.39	0.514	Blank	Blank	33.827	n/a	2	6	6	n/a	106	n/a	3	n/a	n/a	n/a	n/a	227.008	n/a
197.92	0.497	angry	Picture	33.313	n/a	2	6	7	n/a	107	97	3	n/a	n/a	n/a	n/a	227.539	BF28ANS.jpg
198.418	0.514	Blank	Blank	32.799	n/a	2	6	7	n/a	107	n/a	3	n/a	n/a	n/a	n/a	228.036	n/a
198.948	0.497	angry	Picture	32.285	n/a	2	6	8	n/a	108	115	3	n/a	n/a	n/a	n/a	228.567	AM23ANS.jpg
199.446	0.514	Blank	Blank	31.771	n/a	2	6	8	n/a	108	n/a	3	n/a	n/a	n/a	n/a	229.064	n/a
199.976	0.497	angry	Picture	31.257	n/a	2	6	9	n/a	109	91	3	n/a	n/a	n/a	n/a	229.595	AF20ANS.jpg
200.473	0.514	Blank	Blank	30.744	n/a	2	6	9	n/a	109	n/a	3	n/a	n/a	n/a	n/a	230.092	n/a
201.004	0.497	angry	Picture	30.23	n/a	2	6	10	n/a	110	87	3	n/a	n/a	n/a	n/a	230.623	BF11ANS.jpg
201.501	0.514	Blank	Blank	29.716	n/a	2	6	10	n/a	110	n/a	3	n/a	n/a	n/a	n/a	231.12	n/a
202.032	0.497	angry	Picture	29.202	n/a	2	6	11	n/a	111	85	3	n/a	n/a	n/a	n/a	231.651	BF07ANS.jpg
202.529	0.514	Blank	Blank	28.688	n/a	2	6	11	n/a	111	n/a	3	n/a	n/a	n/a	n/a	232.148	n/a
203.06	0.497	angry	Picture	28.174	n/a	2	6	12	n/a	112	110	3	n/a	n/a	n/a	n/a	232.679	AM11ANS.jpg
203.557	0.514	Blank	Blank	27.66	n/a	2	6	12	n/a	112	n/a	3	n/a	n/a	n/a	n/a	233.176	n/a
204.088	0.497	angry	Picture	27.146	n/a	2	6	13	n/a	113	111	3	n/a	n/a	n/a	n/a	233.706	BM12ANS.jpg
204.585	0.514	Blank	Blank	26.632	n/a	2	6	13	n/a	113	n/a	3	n/a	n/a	n/a	n/a	234.204	n/a
205.115	0.497	angry	Picture	26.118	n/a	2	6	14	n/a	114	103	3	n/a	n/a	n/a	n/a	234.734	AM04ANS.jpg
205.613	0.514	Blank	Blank	25.604	n/a	2	6	14	n/a	114	n/a	3	n/a	n/a	n/a	n/a	235.232	n/a
206.143	0.497	angry	Picture	25.09	n/a	2	6	15	n/a	115	101	3	n/a	n/a	n/a	n/a	235.762	AM01ANS.jpg
206.641	0.514	Blank	Blank	24.576	n/a	2	6	15	n/a	115	n/a	3	n/a	n/a	n/a	n/a	236.26	n/a
207.171	0.497	angry	Picture	24.062	n/a	2	6	16	n/a	116	104	3	n/a	n/a	n/a	n/a	236.79	BM05ANS.jpg
207.669	0.514	Blank	Blank	23.548	n/a	2	6	16	n/a	116	n/a	3	n/a	n/a	n/a	n/a	237.287	n/a
208.199	0.497	angry	Picture	23.034	n/a	2	6	17	n/a	117	107	3	n/a	n/a	n/a	n/a	237.818	BM08ANS.jpg
208.696	0.514	Blank	Blank	22.52	n/a	2	6	17	n/a	117	n/a	3	n/a	n/a	n/a	n/a	238.315	n/a
209.227	0.497	angry	Picture	22.007	n/a	2	6	18	n/a	118	98	3	n/a	n/a	n/a	n/a	238.846	BF29ANS.jpg
209.724	0.514	Blank	Blank	21.493	n/a	2	6	18	n/a	118	n/a	3	n/a	n/a	n/a	n/a	239.343	n/a
210.255	0.497	angry	Picture	20.979	n/a	2	6	19	n/a	119	99	3	n/a	n/a	n/a	n/a	239.874	AF31ANS.jpg
210.752	0.514	Blank	Blank	20.465	n/a	2	6	19	n/a	119	n/a	3	n/a	n/a	n/a	n/a	240.371	n/a
211.283	0.497	angry	Picture	19.951	n/a	2	6	20	n/a	120	108	3	n/a	n/a	n/a	n/a	240.901	AM09ANS.jpg
211.78	0.514	Blank	Blank	19.437	n/a	2	6	20	n/a	120	n/a	3	n/a	n/a	n/a	n/a	241.399	n/a
212.311	10.014	ITI	Fixation+	9.407	n/a	2	n/a	n/a	n/a	n/a	n/a	n/a	n/a	n/a	n/a	n/a	241.929	n/a
231.731	n/a	ConfirmRating	Rate	n/a	9.4	2	n/a	n/a	0	n/a	n/a	n/a	2	Angry	38	48	261.35	n/a
235.39	n/a	ConfirmRating	Rate	n/a	3.647	2	n/a	n/a	1	n/a	n/a	n/a	3	Angry	57	51	265.009	n/a
235.422	15.004	Rest	Picture	n/a	n/a	n/a	n/a	n/a	n/a	n/a	n/a	n/a	0	n/a	0	0	265.04	n/a
250.442	10.014	ITI	Fixation+	103.641	n/a	3	n/a	n/a	n/a	n/a	n/a	n/a	n/a	n/a	n/a	n/a	280.061	n/a
260.472	0.497	happy	Picture	103.127	n/a	3	7	1	n/a	1	46	2	n/a	n/a	n/a	n/a	290.091	AF09HAS.jpg
260.969	0.514	Blank	Blank	102.613	n/a	3	7	1	n/a	1	n/a	2	n/a	n/a	n/a	n/a	290.588	n/a
261.5	0.497	happy	Picture	102.099	n/a	3	7	2	n/a	2	69	2	n/a	n/a	n/a	n/a	291.119	AM10HAS.jpg
261.997	0.514	Blank	Blank	101.585	n/a	3	7	2	n/a	2	n/a	2	n/a	n/a	n/a	n/a	291.616	n/a
262.528	0.497	happy	Picture	101.071	n/a	3	7	3	n/a	3	71	2	n/a	n/a	n/a	n/a	292.147	BM12HAS.jpg
263.025	0.514	Blank	Blank	100.557	n/a	3	7	3	n/a	3	n/a	2	n/a	n/a	n/a	n/a	292.644	n/a
263.556	0.497	happy	Picture	100.043	n/a	3	7	4	n/a	4	51	2	n/a	n/a	n/a	n/a	293.175	AF20HAS.jpg
264.053	0.514	Blank	Blank	99.529	n/a	3	7	4	n/a	4	n/a	2	n/a	n/a	n/a	n/a	293.672	n/a
264.584	0.497	happy	Picture	99.016	n/a	3	7	5	n/a	5	67	2	n/a	n/a	n/a	n/a	294.202	BM08HAS.jpg
265.081	0.514	Blank	Blank	98.502	n/a	3	7	5	n/a	5	n/a	2	n/a	n/a	n/a	n/a	294.7	n/a
265.611	0.497	happy	Picture	97.988	n/a	3	7	6	n/a	6	60	2	n/a	n/a	n/a	n/a	295.23	AF32HAS.jpg
266.109	0.514	Blank	Blank	97.474	n/a	3	7	6	n/a	6	n/a	2	n/a	n/a	n/a	n/a	295.728	n/a
266.639	0.497	happy	Picture	96.96	n/a	3	7	7	n/a	7	42	2	n/a	n/a	n/a	n/a	296.258	AF03HAS.jpg
267.137	0.514	Blank	Blank	96.446	n/a	3	7	7	n/a	7	n/a	2	n/a	n/a	n/a	n/a	296.756	n/a
267.667	0.497	happy	Picture	95.932	n/a	3	7	8	n/a	8	55	2	n/a	n/a	n/a	n/a	297.286	AF25HAS.jpg
268.165	0.514	Blank	Blank	95.418	n/a	3	7	8	n/a	8	n/a	2	n/a	n/a	n/a	n/a	297.784	n/a
268.695	0.497	happy	Picture	94.904	n/a	3	7	9	n/a	9	72	2	n/a	n/a	n/a	n/a	298.314	AM14HAS.jpg
269.193	0.514	Blank	Blank	94.39	n/a	3	7	9	n/a	9	n/a	2	n/a	n/a	n/a	n/a	298.811	n/a
269.723	0.497	happy	Picture	93.876	n/a	3	7	10	n/a	10	63	2	n/a	n/a	n/a	n/a	299.342	AM04HAS.jpg
270.22	0.514	Blank	Blank	93.362	n/a	3	7	10	n/a	10	n/a	2	n/a	n/a	n/a	n/a	299.839	n/a
270.751	0.497	happy	Picture	92.848	n/a	3	7	11	n/a	11	58	2	n/a	n/a	n/a	n/a	300.37	BF29HAS.jpg
271.248	0.514	Blank	Blank	92.334	n/a	3	7	11	n/a	11	n/a	2	n/a	n/a	n/a	n/a	300.867	n/a
271.779	0.497	happy	Picture	91.82	n/a	3	7	12	n/a	12	48	2	n/a	n/a	n/a	n/a	301.398	AF14HAS.jpg
272.276	0.514	Blank	Blank	91.306	n/a	3	7	12	n/a	12	n/a	2	n/a	n/a	n/a	n/a	301.895	n/a
272.807	0.497	happy	Picture	90.793	n/a	3	7	13	n/a	13	66	2	n/a	n/a	n/a	n/a	302.426	BM07HAS.jpg
273.304	0.514	Blank	Blank	90.278	n/a	3	7	13	n/a	13	n/a	2	n/a	n/a	n/a	n/a	302.923	n/a
273.835	0.497	happy	Picture	89.765	n/a	3	7	14	n/a	14	70	2	n/a	n/a	n/a	n/a	303.453	BM11HAS.jpg
274.332	0.514	Blank	Blank	89.251	n/a	3	7	14	n/a	14	n/a	2	n/a	n/a	n/a	n/a	303.951	n/a
274.862	0.497	happy	Picture	88.737	n/a	3	7	15	n/a	15	43	2	n/a	n/a	n/a	n/a	304.481	BF04HAS.jpg
275.36	0.514	Blank	Blank	88.223	n/a	3	7	15	n/a	15	n/a	2	n/a	n/a	n/a	n/a	304.979	n/a
275.89	0.497	happy	Picture	87.709	n/a	3	7	16	n/a	16	49	2	n/a	n/a	n/a	n/a	305.509	AF17HAS.jpg
276.388	0.514	Blank	Blank	87.195	n/a	3	7	16	n/a	16	n/a	2	n/a	n/a	n/a	n/a	306.007	n/a
276.918	0.497	happy	Picture	86.681	n/a	3	7	17	n/a	17	75	2	n/a	n/a	n/a	n/a	306.537	AM23HAS.jpg
277.416	0.514	Blank	Blank	86.167	n/a	3	7	17	n/a	17	n/a	2	n/a	n/a	n/a	n/a	307.034	n/a
277.946	0.497	happy	Picture	85.653	n/a	3	7	18	n/a	18	80	2	n/a	n/a	n/a	n/a	307.565	BM35HAS.jpg
278.444	0.514	Blank	Blank	85.139	n/a	3	7	18	n/a	18	n/a	2	n/a	n/a	n/a	n/a	308.062	n/a
278.974	0.497	happy	Picture	84.625	n/a	3	7	19	n/a	19	76	2	n/a	n/a	n/a	n/a	308.593	BM24HAS.jpg
279.471	0.514	Blank	Blank	84.111	n/a	3	7	19	n/a	19	n/a	2	n/a	n/a	n/a	n/a	309.09	n/a
280.002	0.497	happy	Picture	83.597	n/a	3	7	20	n/a	20	74	2	n/a	n/a	n/a	n/a	309.621	AM22HAS.jpg
280.499	0.514	Blank	Blank	83.083	n/a	3	7	20	n/a	20	n/a	2	n/a	n/a	n/a	n/a	310.118	n/a
281.03	10.014	ITI	Fixation+	73.053	n/a	3	n/a	n/a	n/a	n/a	n/a	n/a	n/a	n/a	n/a	n/a	310.649	n/a
291.06	0.497	neutral	Picture	72.539	n/a	3	8	1	n/a	21	33	1	n/a	n/a	n/a	n/a	320.679	AM21NES.jpg
291.557	0.514	Blank	Blank	72.025	n/a	3	8	1	n/a	21	n/a	1	n/a	n/a	n/a	n/a	321.176	n/a
292.088	0.497	neutral	Picture	71.511	n/a	3	8	2	n/a	22	39	1	n/a	n/a	n/a	n/a	321.707	AM28NES.jpg
292.585	0.514	Blank	Blank	70.997	n/a	3	8	2	n/a	22	n/a	1	n/a	n/a	n/a	n/a	322.204	n/a
293.116	0.497	neutral	Picture	70.483	n/a	3	8	3	n/a	23	25	1	n/a	n/a	n/a	n/a	322.735	BM06NES.jpg
293.613	0.514	Blank	Blank	69.969	n/a	3	8	3	n/a	23	n/a	1	n/a	n/a	n/a	n/a	323.232	n/a
294.144	0.497	neutral	Picture	69.455	n/a	3	8	4	n/a	24	5	1	n/a	n/a	n/a	n/a	323.762	BF07NES.jpg
294.641	0.514	Blank	Blank	68.942	n/a	3	8	4	n/a	24	n/a	1	n/a	n/a	n/a	n/a	324.26	n/a
295.172	0.497	neutral	Picture	68.428	n/a	3	8	5	n/a	25	10	1	n/a	n/a	n/a	n/a	324.79	AF18NES.jpg
295.669	0.514	Blank	Blank	67.914	n/a	3	8	5	n/a	25	n/a	1	n/a	n/a	n/a	n/a	325.288	n/a
296.2	0.497	neutral	Picture	67.4	n/a	3	8	6	n/a	26	34	1	n/a	n/a	n/a	n/a	325.818	AM22NES.jpg
296.697	0.514	Blank	Blank	66.886	n/a	3	8	6	n/a	26	n/a	1	n/a	n/a	n/a	n/a	326.316	n/a
297.227	0.497	neutral	Picture	66.372	n/a	3	8	7	n/a	27	36	1	n/a	n/a	n/a	n/a	326.846	BM24NES.jpg
297.725	0.514	Blank	Blank	65.858	n/a	3	8	7	n/a	27	n/a	1	n/a	n/a	n/a	n/a	327.344	n/a
298.255	0.497	neutral	Picture	65.344	n/a	3	8	8	n/a	28	14	1	n/a	n/a	n/a	n/a	327.874	AF23NES.jpg
298.753	0.514	Blank	Blank	64.83	n/a	3	8	8	n/a	28	n/a	1	n/a	n/a	n/a	n/a	328.371	n/a
299.283	0.497	neutral	Picture	64.316	n/a	3	8	9	n/a	29	9	1	n/a	n/a	n/a	n/a	328.902	AF17NES.jpg
299.78	0.514	Blank	Blank	63.802	n/a	3	8	9	n/a	29	n/a	1	n/a	n/a	n/a	n/a	329.399	n/a
300.311	0.497	neutral	Picture	63.288	n/a	3	8	10	n/a	30	19	1	n/a	n/a	n/a	n/a	329.93	AF31NES.jpg
300.808	0.514	Blank	Blank	62.774	n/a	3	8	10	n/a	30	n/a	1	n/a	n/a	n/a	n/a	330.427	n/a
301.339	0.497	neutral	Picture	62.26	n/a	3	8	11	n/a	31	15	1	n/a	n/a	n/a	n/a	330.958	AF25NES.jpg
301.836	0.514	Blank	Blank	61.746	n/a	3	8	11	n/a	31	n/a	1	n/a	n/a	n/a	n/a	331.455	n/a
302.367	0.497	neutral	Picture	61.233	n/a	3	8	12	n/a	32	22	1	n/a	n/a	n/a	n/a	331.986	BM03NES.jpg
302.864	0.514	Blank	Blank	60.719	n/a	3	8	12	n/a	32	n/a	1	n/a	n/a	n/a	n/a	332.483	n/a
303.395	0.497	neutral	Picture	60.205	n/a	3	8	13	n/a	33	11	1	n/a	n/a	n/a	n/a	333.014	AF20NES.jpg
303.892	0.514	Blank	Blank	59.691	n/a	3	8	13	n/a	33	n/a	1	n/a	n/a	n/a	n/a	333.511	n/a
304.423	0.496	neutral	Picture	59.177	n/a	3	8	14	n/a	34	4	1	n/a	n/a	n/a	n/a	334.041	AF05NES.jpg
304.919	0.515	Blank	Blank	58.663	n/a	3	8	14	n/a	34	n/a	1	n/a	n/a	n/a	n/a	334.538	n/a
305.45	0.497	neutral	Picture	58.149	n/a	3	8	15	n/a	35	17	1	n/a	n/a	n/a	n/a	335.069	BF28NES.jpg
305.948	0.514	Blank	Blank	57.635	n/a	3	8	15	n/a	35	n/a	1	n/a	n/a	n/a	n/a	335.567	n/a
306.478	0.497	neutral	Picture	57.121	n/a	3	8	16	n/a	36	13	1	n/a	n/a	n/a	n/a	336.097	BF22NES.jpg
306.976	0.514	Blank	Blank	56.607	n/a	3	8	16	n/a	36	n/a	1	n/a	n/a	n/a	n/a	336.594	n/a
307.506	0.497	neutral	Picture	56.093	n/a	3	8	17	n/a	37	12	1	n/a	n/a	n/a	n/a	337.125	AF21NES.jpg
308.004	0.514	Blank	Blank	55.579	n/a	3	8	17	n/a	37	n/a	1	n/a	n/a	n/a	n/a	337.622	n/a
308.534	0.497	neutral	Picture	55.065	n/a	3	8	18	n/a	38	24	1	n/a	n/a	n/a	n/a	338.153	BM05NES.jpg
309.031	0.514	Blank	Blank	54.551	n/a	3	8	18	n/a	38	n/a	1	n/a	n/a	n/a	n/a	338.65	n/a
309.562	0.497	neutral	Picture	54.037	n/a	3	8	19	n/a	39	29	1	n/a	n/a	n/a	n/a	339.181	AM10NES.jpg
310.059	0.514	Blank	Blank	53.523	n/a	3	8	19	n/a	39	n/a	1	n/a	n/a	n/a	n/a	339.678	n/a
310.59	0.497	neutral	Picture	53.009	n/a	3	8	20	n/a	40	23	1	n/a	n/a	n/a	n/a	340.209	AM04NES.jpg
311.087	0.514	Blank	Blank	52.495	n/a	3	8	20	n/a	40	n/a	1	n/a	n/a	n/a	n/a	340.706	n/a
311.618	10.014	ITI	Fixation+	42.465	n/a	3	n/a	n/a	n/a	n/a	n/a	n/a	n/a	n/a	n/a	n/a	341.237	n/a
321.648	0.497	happy	Picture	41.951	n/a	3	9	1	n/a	41	62	2	n/a	n/a	n/a	n/a	351.267	BM03HAS.jpg
322.145	0.514	Blank	Blank	41.437	n/a	3	9	1	n/a	41	n/a	2	n/a	n/a	n/a	n/a	351.764	n/a
322.676	0.497	happy	Picture	40.923	n/a	3	9	2	n/a	42	52	2	n/a	n/a	n/a	n/a	352.295	AF21HAS.jpg
323.173	0.514	Blank	Blank	40.409	n/a	3	9	2	n/a	42	n/a	2	n/a	n/a	n/a	n/a	352.792	n/a
323.704	0.497	happy	Picture	39.895	n/a	3	9	3	n/a	43	44	2	n/a	n/a	n/a	n/a	353.322	AF05HAS.jpg
324.201	0.514	Blank	Blank	39.381	n/a	3	9	3	n/a	43	n/a	2	n/a	n/a	n/a	n/a	353.82	n/a
324.732	0.497	happy	Picture	38.868	n/a	3	9	4	n/a	44	53	2	n/a	n/a	n/a	n/a	354.35	BF22HAS.jpg
325.229	0.514	Blank	Blank	38.354	n/a	3	9	4	n/a	44	n/a	2	n/a	n/a	n/a	n/a	354.848	n/a
325.76	0.497	happy	Picture	37.84	n/a	3	9	5	n/a	45	54	2	n/a	n/a	n/a	n/a	355.378	AF23HAS.jpg
326.257	0.514	Blank	Blank	37.326	n/a	3	9	5	n/a	45	n/a	2	n/a	n/a	n/a	n/a	355.876	n/a
326.787	0.497	happy	Picture	36.812	n/a	3	9	6	n/a	46	68	2	n/a	n/a	n/a	n/a	356.406	AM09HAS.jpg
327.285	0.514	Blank	Blank	36.298	n/a	3	9	6	n/a	46	n/a	2	n/a	n/a	n/a	n/a	356.904	n/a
327.815	0.497	happy	Picture	35.784	n/a	3	9	7	n/a	47	64	2	n/a	n/a	n/a	n/a	357.434	BM05HAS.jpg
328.313	0.514	Blank	Blank	35.27	n/a	3	9	7	n/a	47	n/a	2	n/a	n/a	n/a	n/a	357.932	n/a
328.843	0.497	happy	Picture	34.756	n/a	3	9	8	n/a	48	59	2	n/a	n/a	n/a	n/a	358.462	AF31HAS.jpg
329.34	0.514	Blank	Blank	34.242	n/a	3	9	8	n/a	48	n/a	2	n/a	n/a	n/a	n/a	358.959	n/a
329.871	0.497	happy	Picture	33.728	n/a	3	9	9	n/a	49	41	2	n/a	n/a	n/a	n/a	359.49	AF01HAS.jpg
330.368	0.514	Blank	Blank	33.214	n/a	3	9	9	n/a	49	n/a	2	n/a	n/a	n/a	n/a	359.987	n/a
330.899	0.497	happy	Picture	32.7	n/a	3	9	10	n/a	50	73	2	n/a	n/a	n/a	n/a	360.518	AM21HAS.jpg
331.396	0.514	Blank	Blank	32.186	n/a	3	9	10	n/a	50	n/a	2	n/a	n/a	n/a	n/a	361.015	n/a
331.927	0.497	happy	Picture	31.672	n/a	3	9	11	n/a	51	65	2	n/a	n/a	n/a	n/a	361.546	BM06HAS.jpg
332.424	0.514	Blank	Blank	31.159	n/a	3	9	11	n/a	51	n/a	2	n/a	n/a	n/a	n/a	362.043	n/a
332.955	0.497	happy	Picture	30.644	n/a	3	9	12	n/a	52	56	2	n/a	n/a	n/a	n/a	362.574	AF26HAS.jpg
333.452	0.514	Blank	Blank	30.131	n/a	3	9	12	n/a	52	n/a	2	n/a	n/a	n/a	n/a	363.071	n/a
333.983	0.497	happy	Picture	29.617	n/a	3	9	13	n/a	53	45	2	n/a	n/a	n/a	n/a	363.601	BF07HAS.jpg
334.48	0.514	Blank	Blank	29.103	n/a	3	9	13	n/a	53	n/a	2	n/a	n/a	n/a	n/a	364.099	n/a
335.01	0.497	happy	Picture	28.589	n/a	3	9	14	n/a	54	78	2	n/a	n/a	n/a	n/a	364.629	BM26HAS.jpg
335.508	0.514	Blank	Blank	28.075	n/a	3	9	14	n/a	54	n/a	2	n/a	n/a	n/a	n/a	365.127	n/a
336.038	0.497	happy	Picture	27.561	n/a	3	9	15	n/a	55	50	2	n/a	n/a	n/a	n/a	365.657	AF18HAS.jpg
336.536	0.514	Blank	Blank	27.047	n/a	3	9	15	n/a	55	n/a	2	n/a	n/a	n/a	n/a	366.154	n/a
337.066	0.497	happy	Picture	26.533	n/a	3	9	16	n/a	56	47	2	n/a	n/a	n/a	n/a	366.685	BF11HAS.jpg
337.564	0.514	Blank	Blank	26.019	n/a	3	9	16	n/a	56	n/a	2	n/a	n/a	n/a	n/a	367.182	n/a
338.094	0.497	happy	Picture	25.505	n/a	3	9	17	n/a	57	77	2	n/a	n/a	n/a	n/a	367.713	BM25HAS.jpg
338.591	0.514	Blank	Blank	24.991	n/a	3	9	17	n/a	57	n/a	2	n/a	n/a	n/a	n/a	368.21	n/a
339.122	0.497	happy	Picture	24.477	n/a	3	9	18	n/a	58	57	2	n/a	n/a	n/a	n/a	368.741	BF28HAS.jpg
339.619	0.514	Blank	Blank	23.963	n/a	3	9	18	n/a	58	n/a	2	n/a	n/a	n/a	n/a	369.238	n/a
340.15	0.497	happy	Picture	23.449	n/a	3	9	19	n/a	59	61	2	n/a	n/a	n/a	n/a	369.769	AM01HAS.jpg
340.647	0.514	Blank	Blank	22.935	n/a	3	9	19	n/a	59	n/a	2	n/a	n/a	n/a	n/a	370.266	n/a
341.178	0.497	happy	Picture	22.421	n/a	3	9	20	n/a	60	79	2	n/a	n/a	n/a	n/a	370.797	BM28HAS.jpg
341.675	0.514	Blank	Blank	21.908	n/a	3	9	20	n/a	60	n/a	2	n/a	n/a	n/a	n/a	371.294	n/a
342.206	10.014	ITI	Fixation+	11.877	n/a	3	n/a	n/a	n/a	n/a	n/a	n/a	n/a	n/a	n/a	n/a	371.825	n/a
364.097	n/a	ConfirmRating	Rate	n/a	11.871	3	n/a	n/a	0	n/a	n/a	n/a	2	Happy	66	52	393.715	n/a
378.461	n/a	ConfirmRating	Rate	n/a	14.341	3	n/a	n/a	1	n/a	n/a	n/a	3	Happy	51	50	408.08	n/a
378.48	10.014	ITI	Fixation+	98.953	n/a	4	n/a	n/a	n/a	n/a	n/a	n/a	n/a	n/a	n/a	n/a	408.099	n/a
388.51	0.497	angry	Picture	98.439	n/a	4	10	1	n/a	61	119	3	n/a	n/a	n/a	n/a	418.129	BM28ANS.jpg
389.008	0.514	Blank	Blank	97.925	n/a	4	10	1	n/a	61	n/a	3	n/a	n/a	n/a	n/a	418.627	n/a
389.538	0.497	angry	Picture	97.411	n/a	4	10	2	n/a	62	100	3	n/a	n/a	n/a	n/a	419.157	AF32ANS.jpg
390.036	0.514	Blank	Blank	96.897	n/a	4	10	2	n/a	62	n/a	3	n/a	n/a	n/a	n/a	419.654	n/a
390.566	0.497	angry	Picture	96.383	n/a	4	10	3	n/a	63	118	3	n/a	n/a	n/a	n/a	420.185	BM26ANS.jpg
391.063	0.514	Blank	Blank	95.869	n/a	4	10	3	n/a	63	n/a	3	n/a	n/a	n/a	n/a	420.682	n/a
391.594	0.497	angry	Picture	95.355	n/a	4	10	4	n/a	64	89	3	n/a	n/a	n/a	n/a	421.213	AF17ANS.jpg
392.091	0.514	Blank	Blank	94.841	n/a	4	10	4	n/a	64	n/a	3	n/a	n/a	n/a	n/a	421.71	n/a
392.622	0.497	angry	Picture	94.327	n/a	4	10	5	n/a	65	116	3	n/a	n/a	n/a	n/a	422.241	BM24ANS.jpg
393.119	0.514	Blank	Blank	93.813	n/a	4	10	5	n/a	65	n/a	3	n/a	n/a	n/a	n/a	422.738	n/a
393.65	0.497	angry	Picture	93.299	n/a	4	10	6	n/a	66	105	3	n/a	n/a	n/a	n/a	423.269	BM06ANS.jpg
394.147	0.514	Blank	Blank	92.785	n/a	4	10	6	n/a	66	n/a	3	n/a	n/a	n/a	n/a	423.766	n/a
394.678	0.497	angry	Picture	92.271	n/a	4	10	7	n/a	67	106	3	n/a	n/a	n/a	n/a	424.296	AM07ANS.jpg
395.175	0.514	Blank	Blank	91.757	n/a	4	10	7	n/a	67	n/a	3	n/a	n/a	n/a	n/a	424.794	n/a
395.706	0.497	angry	Picture	91.243	n/a	4	10	8	n/a	68	94	3	n/a	n/a	n/a	n/a	425.324	AF23ANS.jpg
396.203	0.514	Blank	Blank	90.729	n/a	4	10	8	n/a	68	n/a	3	n/a	n/a	n/a	n/a	425.822	n/a
396.733	0.497	angry	Picture	90.216	n/a	4	10	9	n/a	69	117	3	n/a	n/a	n/a	n/a	426.352	BM25ANS.jpg
397.231	0.514	Blank	Blank	89.702	n/a	4	10	9	n/a	69	n/a	3	n/a	n/a	n/a	n/a	426.85	n/a
397.761	0.497	angry	Picture	89.188	n/a	4	10	10	n/a	70	90	3	n/a	n/a	n/a	n/a	427.38	AF18ANS.jpg
398.259	0.514	Blank	Blank	88.674	n/a	4	10	10	n/a	70	n/a	3	n/a	n/a	n/a	n/a	427.877	n/a
398.789	0.497	angry	Picture	88.16	n/a	4	10	11	n/a	71	83	3	n/a	n/a	n/a	n/a	428.408	BF04ANS.jpg
399.287	0.514	Blank	Blank	87.646	n/a	4	10	11	n/a	71	n/a	3	n/a	n/a	n/a	n/a	428.905	n/a
399.817	0.497	angry	Picture	87.132	n/a	4	10	12	n/a	72	112	3	n/a	n/a	n/a	n/a	429.436	AM14ANS.jpg
400.314	0.514	Blank	Blank	86.618	n/a	4	10	12	n/a	72	n/a	3	n/a	n/a	n/a	n/a	429.933	n/a
400.845	0.497	angry	Picture	86.104	n/a	4	10	13	n/a	73	102	3	n/a	n/a	n/a	n/a	430.464	BM03ANS.jpg
401.342	0.514	Blank	Blank	85.59	n/a	4	10	13	n/a	73	n/a	3	n/a	n/a	n/a	n/a	430.961	n/a
401.873	0.497	angry	Picture	85.076	n/a	4	10	14	n/a	74	95	3	n/a	n/a	n/a	n/a	431.492	AF25ANS.jpg
402.37	0.514	Blank	Blank	84.562	n/a	4	10	14	n/a	74	n/a	3	n/a	n/a	n/a	n/a	431.989	n/a
402.901	0.497	angry	Picture	84.048	n/a	4	10	15	n/a	75	113	3	n/a	n/a	n/a	n/a	432.52	AM21ANS.jpg
403.398	0.514	Blank	Blank	83.534	n/a	4	10	15	n/a	75	n/a	3	n/a	n/a	n/a	n/a	433.017	n/a
403.929	0.497	angry	Picture	83.02	n/a	4	10	16	n/a	76	88	3	n/a	n/a	n/a	n/a	433.548	AF14ANS.jpg
404.426	0.514	Blank	Blank	82.506	n/a	4	10	16	n/a	76	n/a	3	n/a	n/a	n/a	n/a	434.045	n/a
404.957	0.497	angry	Picture	81.992	n/a	4	10	17	n/a	77	93	3	n/a	n/a	n/a	n/a	434.575	BF22ANS.jpg
405.454	0.514	Blank	Blank	81.478	n/a	4	10	17	n/a	77	n/a	3	n/a	n/a	n/a	n/a	435.073	n/a
405.984	0.497	angry	Picture	80.964	n/a	4	10	18	n/a	78	86	3	n/a	n/a	n/a	n/a	435.603	AF09ANS.jpg
406.482	0.514	Blank	Blank	80.451	n/a	4	10	18	n/a	78	n/a	3	n/a	n/a	n/a	n/a	436.101	n/a
407.012	0.497	angry	Picture	79.937	n/a	4	10	19	n/a	79	92	3	n/a	n/a	n/a	n/a	436.631	AF21ANS.jpg
407.51	0.514	Blank	Blank	79.423	n/a	4	10	19	n/a	79	n/a	3	n/a	n/a	n/a	n/a	437.128	n/a
408.04	0.497	angry	Picture	78.909	n/a	4	10	20	n/a	80	84	3	n/a	n/a	n/a	n/a	437.659	AF05ANS.jpg
408.538	0.514	Blank	Blank	78.395	n/a	4	10	20	n/a	80	n/a	3	n/a	n/a	n/a	n/a	438.156	n/a
409.068	10.014	ITI	Fixation+	68.365	n/a	4	n/a	n/a	n/a	n/a	n/a	n/a	n/a	n/a	n/a	n/a	438.687	n/a
419.098	0.497	neutral	Picture	67.851	n/a	4	11	1	n/a	81	4	1	n/a	n/a	n/a	n/a	448.717	AF05NES.jpg
419.596	0.514	Blank	Blank	67.337	n/a	4	11	1	n/a	81	n/a	1	n/a	n/a	n/a	n/a	449.214	n/a
420.126	0.497	neutral	Picture	66.823	n/a	4	11	2	n/a	82	14	1	n/a	n/a	n/a	n/a	449.745	AF23NES.jpg
420.623	0.514	Blank	Blank	66.309	n/a	4	11	2	n/a	82	n/a	1	n/a	n/a	n/a	n/a	450.242	n/a
421.154	0.497	neutral	Picture	65.795	n/a	4	11	3	n/a	83	19	1	n/a	n/a	n/a	n/a	450.773	AF31NES.jpg
421.651	0.514	Blank	Blank	65.281	n/a	4	11	3	n/a	83	n/a	1	n/a	n/a	n/a	n/a	451.27	n/a
422.182	0.497	neutral	Picture	64.767	n/a	4	11	4	n/a	84	8	1	n/a	n/a	n/a	n/a	451.801	AF14NES.jpg
422.679	0.514	Blank	Blank	64.253	n/a	4	11	4	n/a	84	n/a	1	n/a	n/a	n/a	n/a	452.298	n/a
423.21	0.497	neutral	Picture	63.739	n/a	4	11	5	n/a	85	25	1	n/a	n/a	n/a	n/a	452.829	BM06NES.jpg
423.707	0.514	Blank	Blank	63.225	n/a	4	11	5	n/a	85	n/a	1	n/a	n/a	n/a	n/a	453.326	n/a
424.238	0.497	neutral	Picture	62.711	n/a	4	11	6	n/a	86	9	1	n/a	n/a	n/a	n/a	453.856	AF17NES.jpg
424.735	0.514	Blank	Blank	62.197	n/a	4	11	6	n/a	86	n/a	1	n/a	n/a	n/a	n/a	454.354	n/a
425.266	0.497	neutral	Picture	61.683	n/a	4	11	7	n/a	87	2	1	n/a	n/a	n/a	n/a	454.884	AF03NES.jpg
425.763	0.514	Blank	Blank	61.169	n/a	4	11	7	n/a	87	n/a	1	n/a	n/a	n/a	n/a	455.382	n/a
426.293	0.497	neutral	Picture	60.655	n/a	4	11	8	n/a	88	17	1	n/a	n/a	n/a	n/a	455.912	BF28NES.jpg
426.791	0.514	Blank	Blank	60.142	n/a	4	11	8	n/a	88	n/a	1	n/a	n/a	n/a	n/a	456.41	n/a
427.321	0.497	neutral	Picture	59.628	n/a	4	11	9	n/a	89	6	1	n/a	n/a	n/a	n/a	456.94	AF09NES.jpg
427.819	0.514	Blank	Blank	59.114	n/a	4	11	9	n/a	89	n/a	1	n/a	n/a	n/a	n/a	457.438	n/a
428.349	0.497	neutral	Picture	58.6	n/a	4	11	10	n/a	90	12	1	n/a	n/a	n/a	n/a	457.968	AF21NES.jpg
428.847	0.514	Blank	Blank	58.086	n/a	4	11	10	n/a	90	n/a	1	n/a	n/a	n/a	n/a	458.465	n/a
429.377	0.497	neutral	Picture	57.572	n/a	4	11	11	n/a	91	24	1	n/a	n/a	n/a	n/a	458.996	BM05NES.jpg
429.874	0.514	Blank	Blank	57.058	n/a	4	11	11	n/a	91	n/a	1	n/a	n/a	n/a	n/a	459.493	n/a
430.405	0.497	neutral	Picture	56.544	n/a	4	11	12	n/a	92	34	1	n/a	n/a	n/a	n/a	460.024	AM22NES.jpg
430.902	0.514	Blank	Blank	56.03	n/a	4	11	12	n/a	92	n/a	1	n/a	n/a	n/a	n/a	460.521	n/a
431.433	0.497	neutral	Picture	55.516	n/a	4	11	13	n/a	93	23	1	n/a	n/a	n/a	n/a	461.052	AM04NES.jpg
431.93	0.514	Blank	Blank	55.002	n/a	4	11	13	n/a	93	n/a	1	n/a	n/a	n/a	n/a	461.549	n/a
432.461	0.497	neutral	Picture	54.488	n/a	4	11	14	n/a	94	15	1	n/a	n/a	n/a	n/a	462.08	AF25NES.jpg
432.958	0.514	Blank	Blank	53.974	n/a	4	11	14	n/a	94	n/a	1	n/a	n/a	n/a	n/a	462.577	n/a
433.489	0.497	neutral	Picture	53.46	n/a	4	11	15	n/a	95	37	1	n/a	n/a	n/a	n/a	463.108	BM25NES.jpg
433.986	0.514	Blank	Blank	52.946	n/a	4	11	15	n/a	95	n/a	1	n/a	n/a	n/a	n/a	463.605	n/a
434.517	0.497	neutral	Picture	52.432	n/a	4	11	16	n/a	96	32	1	n/a	n/a	n/a	n/a	464.135	AM14NES.jpg
435.014	0.514	Blank	Blank	51.918	n/a	4	11	16	n/a	96	n/a	1	n/a	n/a	n/a	n/a	464.633	n/a
435.544	0.497	neutral	Picture	51.405	n/a	4	11	17	n/a	97	3	1	n/a	n/a	n/a	n/a	465.163	BF04NES.jpg
436.042	0.514	Blank	Blank	50.891	n/a	4	11	17	n/a	97	n/a	1	n/a	n/a	n/a	n/a	465.661	n/a
436.572	0.497	neutral	Picture	50.377	n/a	4	11	18	n/a	98	16	1	n/a	n/a	n/a	n/a	466.191	AF26NES.jpg
437.07	0.514	Blank	Blank	49.863	n/a	4	11	18	n/a	98	n/a	1	n/a	n/a	n/a	n/a	466.688	n/a
437.6	0.497	neutral	Picture	49.349	n/a	4	11	19	n/a	99	27	1	n/a	n/a	n/a	n/a	467.219	BM08NES.jpg
438.098	0.514	Blank	Blank	48.835	n/a	4	11	19	n/a	99	n/a	1	n/a	n/a	n/a	n/a	467.716	n/a
438.628	0.497	neutral	Picture	48.321	n/a	4	11	20	n/a	100	28	1	n/a	n/a	n/a	n/a	468.247	AM09NES.jpg
439.125	0.514	Blank	Blank	47.807	n/a	4	11	20	n/a	100	n/a	1	n/a	n/a	n/a	n/a	468.744	n/a
439.656	10.014	ITI	Fixation+	37.777	n/a	4	n/a	n/a	n/a	n/a	n/a	n/a	n/a	n/a	n/a	n/a	469.275	n/a
449.686	0.497	angry	Picture	37.263	n/a	4	12	1	n/a	101	81	3	n/a	n/a	n/a	n/a	479.305	AF01ANS.jpg
450.184	0.514	Blank	Blank	36.749	n/a	4	12	1	n/a	101	n/a	3	n/a	n/a	n/a	n/a	479.802	n/a
450.714	0.497	angry	Picture	36.235	n/a	4	12	2	n/a	102	120	3	n/a	n/a	n/a	n/a	480.333	AM35ANS.jpg
451.212	0.514	Blank	Blank	35.721	n/a	4	12	2	n/a	102	n/a	3	n/a	n/a	n/a	n/a	480.83	n/a
451.742	0.497	angry	Picture	35.207	n/a	4	12	3	n/a	103	114	3	n/a	n/a	n/a	n/a	481.361	AM22ANS.jpg
452.239	0.514	Blank	Blank	34.693	n/a	4	12	3	n/a	103	n/a	3	n/a	n/a	n/a	n/a	481.858	n/a
452.77	0.497	angry	Picture	34.179	n/a	4	12	4	n/a	104	109	3	n/a	n/a	n/a	n/a	482.389	AM10ANS.jpg
453.267	0.514	Blank	Blank	33.665	n/a	4	12	4	n/a	104	n/a	3	n/a	n/a	n/a	n/a	482.886	n/a
453.798	0.497	angry	Picture	33.151	n/a	4	12	5	n/a	105	96	3	n/a	n/a	n/a	n/a	483.417	AF26ANS.jpg
454.295	0.514	Blank	Blank	32.637	n/a	4	12	5	n/a	105	n/a	3	n/a	n/a	n/a	n/a	483.914	n/a
454.826	0.497	angry	Picture	32.123	n/a	4	12	6	n/a	106	82	3	n/a	n/a	n/a	n/a	484.445	AF03ANS.jpg
455.323	0.514	Blank	Blank	31.609	n/a	4	12	6	n/a	106	n/a	3	n/a	n/a	n/a	n/a	484.942	n/a
455.853	0.497	angry	Picture	31.095	n/a	4	12	7	n/a	107	97	3	n/a	n/a	n/a	n/a	485.472	BF28ANS.jpg
456.351	0.514	Blank	Blank	30.581	n/a	4	12	7	n/a	107	n/a	3	n/a	n/a	n/a	n/a	485.97	n/a
456.881	0.497	angry	Picture	30.067	n/a	4	12	8	n/a	108	115	3	n/a	n/a	n/a	n/a	486.5	AM23ANS.jpg
457.379	0.514	Blank	Blank	29.554	n/a	4	12	8	n/a	108	n/a	3	n/a	n/a	n/a	n/a	486.998	n/a
457.909	0.497	angry	Picture	29.04	n/a	4	12	9	n/a	109	91	3	n/a	n/a	n/a	n/a	487.528	AF20ANS.jpg
458.407	0.514	Blank	Blank	28.526	n/a	4	12	9	n/a	109	n/a	3	n/a	n/a	n/a	n/a	488.026	n/a
458.937	0.497	angry	Picture	28.012	n/a	4	12	10	n/a	110	87	3	n/a	n/a	n/a	n/a	488.556	BF11ANS.jpg
459.435	0.514	Blank	Blank	27.498	n/a	4	12	10	n/a	110	n/a	3	n/a	n/a	n/a	n/a	489.053	n/a
459.965	0.497	angry	Picture	26.984	n/a	4	12	11	n/a	111	85	3	n/a	n/a	n/a	n/a	489.584	BF07ANS.jpg
460.462	0.514	Blank	Blank	26.47	n/a	4	12	11	n/a	111	n/a	3	n/a	n/a	n/a	n/a	490.081	n/a
460.993	0.497	angry	Picture	25.956	n/a	4	12	12	n/a	112	110	3	n/a	n/a	n/a	n/a	490.612	AM11ANS.jpg
461.49	0.514	Blank	Blank	25.442	n/a	4	12	12	n/a	112	n/a	3	n/a	n/a	n/a	n/a	491.109	n/a
462.021	0.497	angry	Picture	24.928	n/a	4	12	13	n/a	113	111	3	n/a	n/a	n/a	n/a	491.64	BM12ANS.jpg
462.518	0.514	Blank	Blank	24.414	n/a	4	12	13	n/a	113	n/a	3	n/a	n/a	n/a	n/a	492.137	n/a
463.049	0.497	angry	Picture	23.9	n/a	4	12	14	n/a	114	103	3	n/a	n/a	n/a	n/a	492.668	AM04ANS.jpg
463.546	0.514	Blank	Blank	23.386	n/a	4	12	14	n/a	114	n/a	3	n/a	n/a	n/a	n/a	493.165	n/a
464.077	0.497	angry	Picture	22.872	n/a	4	12	15	n/a	115	101	3	n/a	n/a	n/a	n/a	493.695	AM01ANS.jpg
464.574	0.514	Blank	Blank	22.358	n/a	4	12	15	n/a	115	n/a	3	n/a	n/a	n/a	n/a	494.193	n/a
465.104	0.497	angry	Picture	21.844	n/a	4	12	16	n/a	116	104	3	n/a	n/a	n/a	n/a	494.723	BM05ANS.jpg
465.602	0.514	Blank	Blank	21.331	n/a	4	12	16	n/a	116	n/a	3	n/a	n/a	n/a	n/a	495.221	n/a
466.132	0.497	angry	Picture	20.817	n/a	4	12	17	n/a	117	107	3	n/a	n/a	n/a	n/a	495.751	BM08ANS.jpg
466.63	0.514	Blank	Blank	20.303	n/a	4	12	17	n/a	117	n/a	3	n/a	n/a	n/a	n/a	496.249	n/a
467.16	0.497	angry	Picture	19.789	n/a	4	12	18	n/a	118	98	3	n/a	n/a	n/a	n/a	496.779	BF29ANS.jpg
467.658	0.514	Blank	Blank	19.275	n/a	4	12	18	n/a	118	n/a	3	n/a	n/a	n/a	n/a	497.276	n/a
468.188	0.497	angry	Picture	18.761	n/a	4	12	19	n/a	119	99	3	n/a	n/a	n/a	n/a	497.807	AF31ANS.jpg
468.685	0.514	Blank	Blank	18.247	n/a	4	12	19	n/a	119	n/a	3	n/a	n/a	n/a	n/a	498.304	n/a
469.216	0.497	angry	Picture	17.733	n/a	4	12	20	n/a	120	108	3	n/a	n/a	n/a	n/a	498.835	AM09ANS.jpg
469.713	0.514	Blank	Blank	17.219	n/a	4	12	20	n/a	120	n/a	3	n/a	n/a	n/a	n/a	499.332	n/a
470.244	10.014	ITI	Fixation+	7.189	n/a	4	n/a	n/a	n/a	n/a	n/a	n/a	n/a	n/a	n/a	n/a	499.863	n/a
487.446	n/a	ConfirmRating	Rate	n/a	7.178	4	n/a	n/a	0	n/a	n/a	n/a	2	Angry	35	49	517.065	n/a
493.68	n/a	ConfirmRating	Rate	n/a	6.217	4	n/a	n/a	1	n/a	n/a	n/a	3	Angry	66	52	523.299	n/a
