onset	duration	trial_type	event_type	trial_number	condition	picture_number	time_until_response	response_time	unpleasantness_rating	onset_uncorrected
0.007	4.377	ITI	Fixation+	0	No_Pain	n/a	17.084	n/a	n/a	33.02
4.4	3.498	Pic2	Picture	0	No_Pain	24	13.569	n/a	n/a	37.413
7.898	2.006	Blank	Blank	0	No_Pain	n/a	11.563	n/a	n/a	40.911
21.467	n/a	ConfirmRating	Rate	0	No_Pain	24	n/a	11.047	35	54.48
21.493	5.272	ITI	Fixation+	1	No_Pain	n/a	9.24	n/a	n/a	54.506
26.782	3.498	Pic2	Picture	1	No_Pain	25	5.726	n/a	n/a	59.794
30.28	2.006	Blank	Blank	1	No_Pain	n/a	3.72	n/a	n/a	63.293
36.005	n/a	ConfirmRating	Rate	1	No_Pain	25	n/a	3.203	58	69.018
36.033	4.078	ITI	Fixation+	2	Pain	n/a	14.087	n/a	n/a	69.046
40.127	3.498	Pic2	Picture	2	Pain	19	10.572	n/a	n/a	73.14
43.626	2.006	Blank	Blank	2	Pain	n/a	8.566	n/a	n/a	76.639
54.198	n/a	ConfirmRating	Rate	2	Pain	19	n/a	8.049	56	87.211
54.219	4.957	ITI	Fixation+	3	No_Pain	n/a	15.766	n/a	n/a	87.232
59.193	3.498	Pic2	Picture	3	No_Pain	37	12.251	n/a	n/a	92.206
62.691	2.006	Blank	Blank	3	No_Pain	n/a	10.245	n/a	n/a	95.704
74.943	n/a	ConfirmRating	Rate	3	No_Pain	37	n/a	9.729	37	107.956
74.96	4.675	ITI	Fixation+	4	Pain	n/a	9.133	n/a	n/a	107.972
79.651	3.498	Pic2	Picture	4	Pain	2	5.618	n/a	n/a	112.664
83.15	2.006	Blank	Blank	4	Pain	n/a	3.612	n/a	n/a	116.162
88.768	n/a	ConfirmRating	Rate	4	Pain	2	n/a	3.095	50	121.781
88.786	5.454	ITI	Fixation+	5	No_Pain	n/a	11.7	n/a	n/a	121.799
94.257	3.498	Pic2	Picture	5	No_Pain	26	8.185	n/a	n/a	127.27
97.756	2.006	Blank	Blank	5	No_Pain	n/a	6.179	n/a	n/a	130.768
105.94	n/a	ConfirmRating	Rate	5	No_Pain	26	n/a	5.662	33	138.953
105.962	4.609	ITI	Fixation+	6	Pain	n/a	13.732	n/a	n/a	138.975
110.588	3.498	Pic2	Picture	6	Pain	12	10.218	n/a	n/a	143.6
114.086	2.006	Blank	Blank	6	Pain	n/a	8.212	n/a	n/a	147.099
124.303	n/a	ConfirmRating	Rate	6	Pain	12	n/a	7.695	17	157.316
124.331	4.625	ITI	Fixation+	7	Pain	n/a	15.961	n/a	n/a	157.344
128.973	3.498	Pic2	Picture	7	Pain	3	12.446	n/a	n/a	161.986
132.472	2.006	Blank	Blank	7	Pain	n/a	10.44	n/a	n/a	165.484
144.918	n/a	ConfirmRating	Rate	7	Pain	3	n/a	9.923	48	177.931
144.939	4.725	ITI	Fixation+	8	No_Pain	n/a	10.201	n/a	n/a	177.952
149.68	3.498	Pic2	Picture	8	No_Pain	30	6.686	n/a	n/a	182.693
153.178	2.006	Blank	Blank	8	No_Pain	n/a	4.68	n/a	n/a	186.191
159.865	n/a	ConfirmRating	Rate	8	No_Pain	30	n/a	4.163	23	192.878
159.893	5.952	ITI	Fixation+	9	Pain	n/a	17.521	n/a	n/a	192.906
165.861	3.498	Pic2	Picture	9	Pain	4	14.006	n/a	n/a	198.874
169.359	2.006	Blank	Blank	9	Pain	n/a	12.0	n/a	n/a	202.372
183.366	n/a	ConfirmRating	Rate	9	Pain	4	n/a	11.483	63	216.379
183.385	5.305	ITI	Fixation+	10	No_Pain	n/a	7.889	n/a	n/a	216.398
188.707	3.498	Pic2	Picture	10	No_Pain	28	4.374	n/a	n/a	221.72
192.205	2.006	Blank	Blank	10	No_Pain	n/a	2.368	n/a	n/a	225.218
196.579	n/a	ConfirmRating	Rate	10	No_Pain	28	n/a	1.852	24	229.592
196.599	4.261	ITI	Fixation+	11	Pain	n/a	14.54	n/a	n/a	229.611
200.876	3.498	Pic2	Picture	11	Pain	13	11.025	n/a	n/a	233.889
204.374	2.006	Blank	Blank	11	Pain	n/a	9.019	n/a	n/a	237.387
215.399	n/a	ConfirmRating	Rate	11	Pain	13	n/a	8.503	57	248.412
215.432	4.228	ITI	Fixation+	12	No_Pain	n/a	8.343	n/a	n/a	248.445
219.676	3.498	Pic2	Picture	12	No_Pain	32	4.828	n/a	n/a	252.689
223.174	2.006	Blank	Blank	12	No_Pain	n/a	2.822	n/a	n/a	256.187
228.002	n/a	ConfirmRating	Rate	12	No_Pain	32	n/a	2.306	30	261.015
228.032	5.653	ITI	Fixation+	13	Pain	n/a	11.434	n/a	n/a	261.045
233.702	3.498	Pic2	Picture	13	Pain	5	7.919	n/a	n/a	266.715
237.2	2.006	Blank	Blank	13	Pain	n/a	5.913	n/a	n/a	270.213
245.119	n/a	ConfirmRating	Rate	13	Pain	5	n/a	5.396	32	278.132
245.141	4.824	ITI	Fixation+	14	No_Pain	n/a	17.527	n/a	n/a	278.154
249.982	3.498	Pic2	Picture	14	No_Pain	21	14.012	n/a	n/a	282.995
253.48	2.006	Blank	Blank	14	No_Pain	n/a	12.006	n/a	n/a	286.493
267.493	n/a	ConfirmRating	Rate	14	No_Pain	21	n/a	11.49	27	300.506
267.523	4.692	ITI	Fixation+	15	No_Pain	n/a	8.104	n/a	n/a	300.536
272.231	3.498	Pic2	Picture	15	No_Pain	38	4.59	n/a	n/a	305.244
275.728	2.007	Blank	Blank	15	No_Pain	n/a	2.583	n/a	n/a	308.741
280.319	n/a	ConfirmRating	Rate	15	No_Pain	38	n/a	2.067	21	313.332
280.338	4.576	ITI	Fixation+	16	Pain	n/a	14.22	n/a	n/a	313.351
284.93	3.498	Pic2	Picture	16	Pain	16	10.705	n/a	n/a	317.943
288.429	2.006	Blank	Blank	16	Pain	n/a	8.699	n/a	n/a	321.442
299.134	n/a	ConfirmRating	Rate	16	Pain	16	n/a	8.182	86	332.146
299.155	4.99	ITI	Fixation+	17	No_Pain	n/a	9.405	n/a	n/a	332.168
304.162	3.498	Pic2	Picture	17	No_Pain	22	5.89	n/a	n/a	337.175
307.66	2.006	Blank	Blank	17	No_Pain	n/a	3.884	n/a	n/a	340.673
313.55	n/a	ConfirmRating	Rate	17	No_Pain	22	n/a	3.368	24	346.563
313.579	4.244	ITI	Fixation+	18	Pain	n/a	12.342	n/a	n/a	346.591
317.839	3.498	Pic2	Picture	18	Pain	8	8.828	n/a	n/a	350.852
321.337	2.006	Blank	Blank	18	Pain	n/a	6.822	n/a	n/a	354.35
330.165	n/a	ConfirmRating	Rate	18	Pain	8	n/a	6.305	58	363.178
330.191	4.592	ITI	Fixation+	19	Pain	n/a	9.023	n/a	n/a	363.204
334.8	3.498	Pic2	Picture	19	Pain	1	5.508	n/a	n/a	367.812
338.298	2.006	Blank	Blank	19	Pain	n/a	3.502	n/a	n/a	371.311
343.806	n/a	ConfirmRating	Rate	19	Pain	1	n/a	2.985	70	376.819
343.835	15.004	Rest	n/a	19	n/a	n/a	-15.033	n/a	n/a	376.848
358.855	4.758	ITI	Fixation+	20	No_Pain	n/a	7.837	n/a	n/a	391.868
363.63	3.498	Pic2	Picture	20	No_Pain	23	4.322	n/a	n/a	396.643
367.128	2.006	Blank	Blank	20	No_Pain	n/a	2.316	n/a	n/a	400.141
371.451	n/a	ConfirmRating	Rate	20	No_Pain	23	n/a	1.8	20	404.464
371.472	4.228	ITI	Fixation+	21	Pain	n/a	10.87	n/a	n/a	404.485
375.716	3.498	Pic2	Picture	21	Pain	10	7.355	n/a	n/a	408.729
379.214	2.006	Blank	Blank	21	Pain	n/a	5.349	n/a	n/a	412.227
386.57	n/a	ConfirmRating	Rate	21	Pain	10	n/a	4.833	59	419.582
386.592	4.576	ITI	Fixation+	22	No_Pain	n/a	7.247	n/a	n/a	419.605
391.184	3.498	Pic2	Picture	22	No_Pain	36	3.732	n/a	n/a	424.197
394.682	2.006	Blank	Blank	22	No_Pain	n/a	1.726	n/a	n/a	427.695
398.414	n/a	ConfirmRating	Rate	22	No_Pain	36	n/a	1.21	4	431.427
398.446	4.493	ITI	Fixation+	23	Pain	n/a	12.275	n/a	n/a	431.459
402.955	3.498	Pic2	Picture	23	Pain	11	8.76	n/a	n/a	435.968
406.453	2.006	Blank	Blank	23	Pain	n/a	6.754	n/a	n/a	439.466
415.213	n/a	ConfirmRating	Rate	23	Pain	11	n/a	6.238	36	448.226
415.24	5.007	ITI	Fixation+	24	Pain	n/a	8.886	n/a	n/a	448.253
420.263	3.498	Pic2	Picture	24	Pain	17	5.371	n/a	n/a	453.276
423.762	2.006	Blank	Blank	24	Pain	n/a	3.365	n/a	n/a	456.774
429.133	n/a	ConfirmRating	Rate	24	Pain	17	n/a	2.848	51	462.146
429.15	5.952	ITI	Fixation+	25	No_Pain	n/a	8.529	n/a	n/a	462.163
435.118	3.498	Pic2	Picture	25	No_Pain	31	5.015	n/a	n/a	468.131
438.616	2.006	Blank	Blank	25	No_Pain	n/a	3.009	n/a	n/a	471.629
443.631	n/a	ConfirmRating	Rate	25	No_Pain	31	n/a	2.492	2	476.644
443.656	5.902	ITI	Fixation+	26	Pain	n/a	12.585	n/a	n/a	476.669
449.575	3.498	Pic2	Picture	26	Pain	18	9.07	n/a	n/a	482.588
453.073	2.006	Blank	Blank	26	Pain	n/a	7.064	n/a	n/a	486.086
462.143	n/a	ConfirmRating	Rate	26	Pain	18	n/a	6.547	70	495.156
462.175	5.106	ITI	Fixation+	27	No_Pain	n/a	10.388	n/a	n/a	495.188
467.298	3.498	Pic2	Picture	27	No_Pain	33	6.873	n/a	n/a	500.31
470.796	2.006	Blank	Blank	27	No_Pain	n/a	4.867	n/a	n/a	503.808
477.669	n/a	ConfirmRating	Rate	27	No_Pain	33	n/a	4.35	20	510.682
477.692	5.139	ITI	Fixation+	28	No_Pain	n/a	8.805	n/a	n/a	510.705
482.848	3.498	Pic2	Picture	28	No_Pain	40	5.29	n/a	n/a	515.861
486.347	2.006	Blank	Blank	28	No_Pain	n/a	3.284	n/a	n/a	519.359
491.636	n/a	ConfirmRating	Rate	28	No_Pain	40	n/a	2.767	12	524.649
491.668	5.72	ITI	Fixation+	29	Pain	n/a	10.386	n/a	n/a	524.681
497.405	3.498	Pic2	Picture	29	Pain	20	6.871	n/a	n/a	530.418
500.903	2.006	Blank	Blank	29	Pain	n/a	4.865	n/a	n/a	533.916
507.774	n/a	ConfirmRating	Rate	29	Pain	20	n/a	4.349	54	540.787
507.8	5.007	ITI	Fixation+	30	No_Pain	n/a	13.582	n/a	n/a	540.812
512.823	3.498	Pic2	Picture	30	No_Pain	27	10.067	n/a	n/a	545.836
516.321	2.006	Blank	Blank	30	No_Pain	n/a	8.061	n/a	n/a	549.334
526.388	n/a	ConfirmRating	Rate	30	No_Pain	27	n/a	7.544	12	559.401
526.418	5.372	ITI	Fixation+	31	Pain	n/a	14.591	n/a	n/a	559.431
531.806	3.498	Pic2	Picture	31	Pain	14	11.076	n/a	n/a	564.819
535.304	2.006	Blank	Blank	31	Pain	n/a	9.07	n/a	n/a	568.317
546.38	n/a	ConfirmRating	Rate	31	Pain	14	n/a	8.553	33	579.393
546.412	5.239	ITI	Fixation+	32	Pain	n/a	10.883	n/a	n/a	579.424
551.667	3.498	Pic2	Picture	32	Pain	9	7.368	n/a	n/a	584.68
555.165	2.006	Blank	Blank	32	Pain	n/a	5.362	n/a	n/a	588.178
562.534	n/a	ConfirmRating	Rate	32	Pain	9	n/a	4.846	41	595.547
562.559	5.736	ITI	Fixation+	33	No_Pain	n/a	12.195	n/a	n/a	595.572
568.312	3.498	Pic2	Picture	33	No_Pain	39	8.68	n/a	n/a	601.325
571.81	2.006	Blank	Blank	33	No_Pain	n/a	6.674	n/a	n/a	604.823
580.49	n/a	ConfirmRating	Rate	33	No_Pain	39	n/a	6.158	10	613.503
580.514	4.974	ITI	Fixation+	34	No_Pain	n/a	10.848	n/a	n/a	613.527
585.505	3.498	Pic2	Picture	34	No_Pain	29	7.334	n/a	n/a	618.517
589.003	2.006	Blank	Blank	34	No_Pain	n/a	5.328	n/a	n/a	622.015
596.336	n/a	ConfirmRating	Rate	34	No_Pain	29	n/a	4.811	14	629.349
596.364	4.393	ITI	Fixation+	35	Pain	n/a	11.74	n/a	n/a	629.376
600.774	3.498	Pic2	Picture	35	Pain	6	8.226	n/a	n/a	633.787
604.272	2.006	Blank	Blank	35	Pain	n/a	6.219	n/a	n/a	637.285
612.497	n/a	ConfirmRating	Rate	35	Pain	6	n/a	5.703	29	645.51
612.528	5.521	ITI	Fixation+	36	No_Pain	n/a	11.256	n/a	n/a	645.541
618.065	3.498	Pic2	Picture	36	No_Pain	35	7.742	n/a	n/a	651.078
621.563	2.006	Blank	Blank	36	No_Pain	n/a	5.736	n/a	n/a	654.576
629.305	n/a	ConfirmRating	Rate	36	No_Pain	35	n/a	5.219	0	662.318
629.322	4.526	ITI	Fixation+	37	No_Pain	n/a	12.528	n/a	n/a	662.335
633.865	3.498	Pic2	Picture	37	No_Pain	34	9.013	n/a	n/a	666.878
637.363	2.006	Blank	Blank	37	No_Pain	n/a	7.007	n/a	n/a	670.376
646.376	n/a	ConfirmRating	Rate	37	No_Pain	34	n/a	6.49	25	679.389
646.399	5.206	ITI	Fixation+	38	Pain	n/a	8.745	n/a	n/a	679.411
651.621	3.498	Pic2	Picture	38	Pain	15	5.231	n/a	n/a	684.634
655.119	2.006	Blank	Blank	38	Pain	n/a	3.225	n/a	n/a	688.132
660.35	n/a	ConfirmRating	Rate	38	Pain	15	n/a	2.708	31	693.362
660.374	4.128	ITI	Fixation+	39	Pain	n/a	9.905	n/a	n/a	693.387
664.519	3.498	Pic2	Picture	39	Pain	7	6.39	n/a	n/a	697.532
668.017	2.006	Blank	Blank	39	Pain	n/a	4.384	n/a	n/a	701.03
674.408	n/a	ConfirmRating	Rate	39	Pain	7	n/a	3.868	35	707.42
