onset	duration	trial_type	event_type	time_until_response	response_time	trial_number	block_num_within_trial	image_seq_num_within_block	question_seq_num_within_block	image_seq_num	picture_number	condition	question_type	block_type	rating	rating_computed	onset_uncorrected	KDEV_imagefile
0.009	10.014	ITI	Fixation+	104.131	n/a	1	n/a	n/a	n/a	n/a	n/a	n/a	n/a	n/a	n/a	n/a	29.82	n/a
10.039	0.497	happy	Picture	103.617	n/a	1	1	1	n/a	1	46	2	n/a	n/a	n/a	n/a	39.85	AF09HAS.jpg
10.536	0.514	Blank	Blank	103.103	n/a	1	1	1	n/a	1	n/a	2	n/a	n/a	n/a	n/a	40.348	n/a
11.067	0.497	happy	Picture	102.589	n/a	1	1	2	n/a	2	69	2	n/a	n/a	n/a	n/a	40.878	AM10HAS.jpg
11.564	0.514	Blank	Blank	102.075	n/a	1	1	2	n/a	2	n/a	2	n/a	n/a	n/a	n/a	41.376	n/a
12.095	0.497	happy	Picture	101.562	n/a	1	1	3	n/a	3	71	2	n/a	n/a	n/a	n/a	41.906	BM12HAS.jpg
12.592	0.514	Blank	Blank	101.048	n/a	1	1	3	n/a	3	n/a	2	n/a	n/a	n/a	n/a	42.403	n/a
13.123	0.497	happy	Picture	100.534	n/a	1	1	4	n/a	4	51	2	n/a	n/a	n/a	n/a	42.934	AF20HAS.jpg
13.62	0.514	Blank	Blank	100.02	n/a	1	1	4	n/a	4	n/a	2	n/a	n/a	n/a	n/a	43.431	n/a
14.15	0.497	happy	Picture	99.506	n/a	1	1	5	n/a	5	67	2	n/a	n/a	n/a	n/a	43.962	BM08HAS.jpg
14.648	0.514	Blank	Blank	98.992	n/a	1	1	5	n/a	5	n/a	2	n/a	n/a	n/a	n/a	44.459	n/a
15.178	0.497	happy	Picture	98.478	n/a	1	1	6	n/a	6	60	2	n/a	n/a	n/a	n/a	44.99	AF32HAS.jpg
15.676	0.514	Blank	Blank	97.964	n/a	1	1	6	n/a	6	n/a	2	n/a	n/a	n/a	n/a	45.487	n/a
16.206	0.497	happy	Picture	97.45	n/a	1	1	7	n/a	7	42	2	n/a	n/a	n/a	n/a	46.018	AF03HAS.jpg
16.704	0.514	Blank	Blank	96.936	n/a	1	1	7	n/a	7	n/a	2	n/a	n/a	n/a	n/a	46.515	n/a
17.234	0.497	happy	Picture	96.422	n/a	1	1	8	n/a	8	55	2	n/a	n/a	n/a	n/a	47.045	AF25HAS.jpg
17.732	0.514	Blank	Blank	95.908	n/a	1	1	8	n/a	8	n/a	2	n/a	n/a	n/a	n/a	47.543	n/a
18.262	0.497	happy	Picture	95.394	n/a	1	1	9	n/a	9	72	2	n/a	n/a	n/a	n/a	48.073	AM14HAS.jpg
18.759	0.514	Blank	Blank	94.88	n/a	1	1	9	n/a	9	n/a	2	n/a	n/a	n/a	n/a	48.571	n/a
19.29	0.497	happy	Picture	94.366	n/a	1	1	10	n/a	10	63	2	n/a	n/a	n/a	n/a	49.101	AM04HAS.jpg
19.787	0.514	Blank	Blank	93.852	n/a	1	1	10	n/a	10	n/a	2	n/a	n/a	n/a	n/a	49.599	n/a
20.318	0.497	happy	Picture	93.338	n/a	1	1	11	n/a	11	58	2	n/a	n/a	n/a	n/a	50.129	BF29HAS.jpg
20.815	0.514	Blank	Blank	92.824	n/a	1	1	11	n/a	11	n/a	2	n/a	n/a	n/a	n/a	50.627	n/a
21.346	0.497	happy	Picture	92.311	n/a	1	1	12	n/a	12	48	2	n/a	n/a	n/a	n/a	51.157	AF14HAS.jpg
21.843	0.514	Blank	Blank	91.797	n/a	1	1	12	n/a	12	n/a	2	n/a	n/a	n/a	n/a	51.654	n/a
22.374	0.497	happy	Picture	91.283	n/a	1	1	13	n/a	13	66	2	n/a	n/a	n/a	n/a	52.185	BM07HAS.jpg
22.871	0.514	Blank	Blank	90.769	n/a	1	1	13	n/a	13	n/a	2	n/a	n/a	n/a	n/a	52.682	n/a
23.401	0.497	happy	Picture	90.255	n/a	1	1	14	n/a	14	70	2	n/a	n/a	n/a	n/a	53.213	BM11HAS.jpg
23.899	0.514	Blank	Blank	89.741	n/a	1	1	14	n/a	14	n/a	2	n/a	n/a	n/a	n/a	53.71	n/a
24.429	0.497	happy	Picture	89.227	n/a	1	1	15	n/a	15	43	2	n/a	n/a	n/a	n/a	54.241	BF04HAS.jpg
24.927	0.514	Blank	Blank	88.713	n/a	1	1	15	n/a	15	n/a	2	n/a	n/a	n/a	n/a	54.738	n/a
25.457	0.497	happy	Picture	88.199	n/a	1	1	16	n/a	16	49	2	n/a	n/a	n/a	n/a	55.269	AF17HAS.jpg
25.955	0.514	Blank	Blank	87.685	n/a	1	1	16	n/a	16	n/a	2	n/a	n/a	n/a	n/a	55.766	n/a
26.485	0.497	happy	Picture	87.171	n/a	1	1	17	n/a	17	75	2	n/a	n/a	n/a	n/a	56.297	AM23HAS.jpg
26.983	0.514	Blank	Blank	86.657	n/a	1	1	17	n/a	17	n/a	2	n/a	n/a	n/a	n/a	56.794	n/a
27.513	0.497	happy	Picture	86.143	n/a	1	1	18	n/a	18	80	2	n/a	n/a	n/a	n/a	57.324	BM35HAS.jpg
28.01	0.514	Blank	Blank	85.629	n/a	1	1	18	n/a	18	n/a	2	n/a	n/a	n/a	n/a	57.822	n/a
28.541	0.497	happy	Picture	85.115	n/a	1	1	19	n/a	19	76	2	n/a	n/a	n/a	n/a	58.352	BM24HAS.jpg
29.038	0.514	Blank	Blank	84.601	n/a	1	1	19	n/a	19	n/a	2	n/a	n/a	n/a	n/a	58.85	n/a
29.569	0.497	happy	Picture	84.087	n/a	1	1	20	n/a	20	74	2	n/a	n/a	n/a	n/a	59.38	AM22HAS.jpg
30.066	0.514	Blank	Blank	83.573	n/a	1	1	20	n/a	20	n/a	2	n/a	n/a	n/a	n/a	59.878	n/a
30.597	10.014	ITI	Fixation+	73.543	n/a	1	n/a	n/a	n/a	n/a	n/a	n/a	n/a	n/a	n/a	n/a	60.408	n/a
40.627	0.497	neutral	Picture	73.029	n/a	1	2	1	n/a	21	33	1	n/a	n/a	n/a	n/a	70.438	AM21NES.jpg
41.124	0.514	Blank	Blank	72.515	n/a	1	2	1	n/a	21	n/a	1	n/a	n/a	n/a	n/a	70.936	n/a
41.655	0.497	neutral	Picture	72.001	n/a	1	2	2	n/a	22	39	1	n/a	n/a	n/a	n/a	71.466	AM28NES.jpg
42.152	0.514	Blank	Blank	71.487	n/a	1	2	2	n/a	22	n/a	1	n/a	n/a	n/a	n/a	71.964	n/a
42.683	0.497	neutral	Picture	70.973	n/a	1	2	3	n/a	23	25	1	n/a	n/a	n/a	n/a	72.494	BM06NES.jpg
43.18	0.514	Blank	Blank	70.46	n/a	1	2	3	n/a	23	n/a	1	n/a	n/a	n/a	n/a	72.992	n/a
43.711	0.497	neutral	Picture	69.946	n/a	1	2	4	n/a	24	5	1	n/a	n/a	n/a	n/a	73.522	BF07NES.jpg
44.208	0.514	Blank	Blank	69.432	n/a	1	2	4	n/a	24	n/a	1	n/a	n/a	n/a	n/a	74.019	n/a
44.738	0.497	neutral	Picture	68.918	n/a	1	2	5	n/a	25	10	1	n/a	n/a	n/a	n/a	74.55	AF18NES.jpg
45.236	0.514	Blank	Blank	68.404	n/a	1	2	5	n/a	25	n/a	1	n/a	n/a	n/a	n/a	75.047	n/a
45.766	0.497	neutral	Picture	67.89	n/a	1	2	6	n/a	26	34	1	n/a	n/a	n/a	n/a	75.578	AM22NES.jpg
46.264	0.514	Blank	Blank	67.376	n/a	1	2	6	n/a	26	n/a	1	n/a	n/a	n/a	n/a	76.075	n/a
46.794	0.497	neutral	Picture	66.862	n/a	1	2	7	n/a	27	36	1	n/a	n/a	n/a	n/a	76.606	BM24NES.jpg
47.292	0.514	Blank	Blank	66.348	n/a	1	2	7	n/a	27	n/a	1	n/a	n/a	n/a	n/a	77.103	n/a
47.822	0.497	neutral	Picture	65.834	n/a	1	2	8	n/a	28	14	1	n/a	n/a	n/a	n/a	77.633	AF23NES.jpg
48.319	0.514	Blank	Blank	65.32	n/a	1	2	8	n/a	28	n/a	1	n/a	n/a	n/a	n/a	78.131	n/a
48.85	0.497	neutral	Picture	64.806	n/a	1	2	9	n/a	29	9	1	n/a	n/a	n/a	n/a	78.661	AF17NES.jpg
49.347	0.514	Blank	Blank	64.292	n/a	1	2	9	n/a	29	n/a	1	n/a	n/a	n/a	n/a	79.159	n/a
49.878	0.497	neutral	Picture	63.778	n/a	1	2	10	n/a	30	19	1	n/a	n/a	n/a	n/a	79.689	AF31NES.jpg
50.375	0.514	Blank	Blank	63.264	n/a	1	2	10	n/a	30	n/a	1	n/a	n/a	n/a	n/a	80.187	n/a
50.906	0.497	neutral	Picture	62.75	n/a	1	2	11	n/a	31	15	1	n/a	n/a	n/a	n/a	80.717	AF25NES.jpg
51.403	0.514	Blank	Blank	62.236	n/a	1	2	11	n/a	31	n/a	1	n/a	n/a	n/a	n/a	81.215	n/a
51.934	0.497	neutral	Picture	61.722	n/a	1	2	12	n/a	32	22	1	n/a	n/a	n/a	n/a	81.745	BM03NES.jpg
52.431	0.514	Blank	Blank	61.209	n/a	1	2	12	n/a	32	n/a	1	n/a	n/a	n/a	n/a	82.243	n/a
52.962	0.497	neutral	Picture	60.695	n/a	1	2	13	n/a	33	11	1	n/a	n/a	n/a	n/a	82.773	AF20NES.jpg
53.459	0.514	Blank	Blank	60.181	n/a	1	2	13	n/a	33	n/a	1	n/a	n/a	n/a	n/a	83.27	n/a
53.989	0.497	neutral	Picture	59.667	n/a	1	2	14	n/a	34	4	1	n/a	n/a	n/a	n/a	83.801	AF05NES.jpg
54.487	0.514	Blank	Blank	59.153	n/a	1	2	14	n/a	34	n/a	1	n/a	n/a	n/a	n/a	84.298	n/a
55.017	0.497	neutral	Picture	58.639	n/a	1	2	15	n/a	35	17	1	n/a	n/a	n/a	n/a	84.829	BF28NES.jpg
55.515	0.514	Blank	Blank	58.125	n/a	1	2	15	n/a	35	n/a	1	n/a	n/a	n/a	n/a	85.326	n/a
56.045	0.497	neutral	Picture	57.611	n/a	1	2	16	n/a	36	13	1	n/a	n/a	n/a	n/a	85.857	BF22NES.jpg
56.543	0.514	Blank	Blank	57.097	n/a	1	2	16	n/a	36	n/a	1	n/a	n/a	n/a	n/a	86.354	n/a
57.073	0.497	neutral	Picture	56.583	n/a	1	2	17	n/a	37	12	1	n/a	n/a	n/a	n/a	86.885	AF21NES.jpg
57.571	0.514	Blank	Blank	56.069	n/a	1	2	17	n/a	37	n/a	1	n/a	n/a	n/a	n/a	87.382	n/a
58.101	0.497	neutral	Picture	55.555	n/a	1	2	18	n/a	38	24	1	n/a	n/a	n/a	n/a	87.912	BM05NES.jpg
58.598	0.514	Blank	Blank	55.041	n/a	1	2	18	n/a	38	n/a	1	n/a	n/a	n/a	n/a	88.41	n/a
59.129	0.497	neutral	Picture	54.527	n/a	1	2	19	n/a	39	29	1	n/a	n/a	n/a	n/a	88.94	AM10NES.jpg
59.626	0.514	Blank	Blank	54.013	n/a	1	2	19	n/a	39	n/a	1	n/a	n/a	n/a	n/a	89.438	n/a
60.157	0.497	neutral	Picture	53.499	n/a	1	2	20	n/a	40	23	1	n/a	n/a	n/a	n/a	89.968	AM04NES.jpg
60.654	0.514	Blank	Blank	52.985	n/a	1	2	20	n/a	40	n/a	1	n/a	n/a	n/a	n/a	90.466	n/a
61.185	10.014	ITI	Fixation+	42.955	n/a	1	n/a	n/a	n/a	n/a	n/a	n/a	n/a	n/a	n/a	n/a	90.996	n/a
71.215	0.497	happy	Picture	42.441	n/a	1	3	1	n/a	41	62	2	n/a	n/a	n/a	n/a	101.026	BM03HAS.jpg
71.712	0.514	Blank	Blank	41.927	n/a	1	3	1	n/a	41	n/a	2	n/a	n/a	n/a	n/a	101.524	n/a
72.243	0.497	happy	Picture	41.413	n/a	1	3	2	n/a	42	52	2	n/a	n/a	n/a	n/a	102.054	AF21HAS.jpg
72.74	0.514	Blank	Blank	40.899	n/a	1	3	2	n/a	42	n/a	2	n/a	n/a	n/a	n/a	102.552	n/a
73.271	0.497	happy	Picture	40.385	n/a	1	3	3	n/a	43	44	2	n/a	n/a	n/a	n/a	103.082	AF05HAS.jpg
73.768	0.514	Blank	Blank	39.871	n/a	1	3	3	n/a	43	n/a	2	n/a	n/a	n/a	n/a	103.579	n/a
74.299	0.497	happy	Picture	39.358	n/a	1	3	4	n/a	44	53	2	n/a	n/a	n/a	n/a	104.11	BF22HAS.jpg
74.796	0.514	Blank	Blank	38.844	n/a	1	3	4	n/a	44	n/a	2	n/a	n/a	n/a	n/a	104.607	n/a
75.327	0.497	happy	Picture	38.33	n/a	1	3	5	n/a	45	54	2	n/a	n/a	n/a	n/a	105.138	AF23HAS.jpg
75.824	0.514	Blank	Blank	37.816	n/a	1	3	5	n/a	45	n/a	2	n/a	n/a	n/a	n/a	105.635	n/a
76.354	0.497	happy	Picture	37.302	n/a	1	3	6	n/a	46	68	2	n/a	n/a	n/a	n/a	106.166	AM09HAS.jpg
76.852	0.514	Blank	Blank	36.788	n/a	1	3	6	n/a	46	n/a	2	n/a	n/a	n/a	n/a	106.663	n/a
77.382	0.497	happy	Picture	36.274	n/a	1	3	7	n/a	47	64	2	n/a	n/a	n/a	n/a	107.194	BM05HAS.jpg
77.88	0.514	Blank	Blank	35.76	n/a	1	3	7	n/a	47	n/a	2	n/a	n/a	n/a	n/a	107.691	n/a
78.41	0.497	happy	Picture	35.246	n/a	1	3	8	n/a	48	59	2	n/a	n/a	n/a	n/a	108.222	AF31HAS.jpg
78.907	0.514	Blank	Blank	34.732	n/a	1	3	8	n/a	48	n/a	2	n/a	n/a	n/a	n/a	108.719	n/a
79.438	0.497	happy	Picture	34.218	n/a	1	3	9	n/a	49	41	2	n/a	n/a	n/a	n/a	109.249	AF01HAS.jpg
79.935	0.514	Blank	Blank	33.704	n/a	1	3	9	n/a	49	n/a	2	n/a	n/a	n/a	n/a	109.747	n/a
80.466	0.497	happy	Picture	33.19	n/a	1	3	10	n/a	50	73	2	n/a	n/a	n/a	n/a	110.277	AM21HAS.jpg
80.963	0.514	Blank	Blank	32.676	n/a	1	3	10	n/a	50	n/a	2	n/a	n/a	n/a	n/a	110.775	n/a
81.494	0.497	happy	Picture	32.162	n/a	1	3	11	n/a	51	65	2	n/a	n/a	n/a	n/a	111.305	BM06HAS.jpg
81.991	0.514	Blank	Blank	31.648	n/a	1	3	11	n/a	51	n/a	2	n/a	n/a	n/a	n/a	111.803	n/a
82.522	0.497	happy	Picture	31.134	n/a	1	3	12	n/a	52	56	2	n/a	n/a	n/a	n/a	112.333	AF26HAS.jpg
83.019	0.514	Blank	Blank	30.62	n/a	1	3	12	n/a	52	n/a	2	n/a	n/a	n/a	n/a	112.831	n/a
83.55	0.497	happy	Picture	30.107	n/a	1	3	13	n/a	53	45	2	n/a	n/a	n/a	n/a	113.361	BF07HAS.jpg
84.047	0.514	Blank	Blank	29.593	n/a	1	3	13	n/a	53	n/a	2	n/a	n/a	n/a	n/a	113.858	n/a
84.578	0.497	happy	Picture	29.079	n/a	1	3	14	n/a	54	78	2	n/a	n/a	n/a	n/a	114.389	BM26HAS.jpg
85.075	0.514	Blank	Blank	28.565	n/a	1	3	14	n/a	54	n/a	2	n/a	n/a	n/a	n/a	114.886	n/a
85.605	0.497	happy	Picture	28.051	n/a	1	3	15	n/a	55	50	2	n/a	n/a	n/a	n/a	115.417	AF18HAS.jpg
86.103	0.514	Blank	Blank	27.537	n/a	1	3	15	n/a	55	n/a	2	n/a	n/a	n/a	n/a	115.914	n/a
86.633	0.497	happy	Picture	27.023	n/a	1	3	16	n/a	56	47	2	n/a	n/a	n/a	n/a	116.445	BF11HAS.jpg
87.131	0.514	Blank	Blank	26.509	n/a	1	3	16	n/a	56	n/a	2	n/a	n/a	n/a	n/a	116.942	n/a
87.661	0.497	happy	Picture	25.995	n/a	1	3	17	n/a	57	77	2	n/a	n/a	n/a	n/a	117.473	BM25HAS.jpg
88.159	0.514	Blank	Blank	25.481	n/a	1	3	17	n/a	57	n/a	2	n/a	n/a	n/a	n/a	117.97	n/a
88.689	0.497	happy	Picture	24.967	n/a	1	3	18	n/a	58	57	2	n/a	n/a	n/a	n/a	118.501	BF28HAS.jpg
89.186	0.514	Blank	Blank	24.453	n/a	1	3	18	n/a	58	n/a	2	n/a	n/a	n/a	n/a	118.998	n/a
89.717	0.497	happy	Picture	23.939	n/a	1	3	19	n/a	59	61	2	n/a	n/a	n/a	n/a	119.528	AM01HAS.jpg
90.214	0.514	Blank	Blank	23.425	n/a	1	3	19	n/a	59	n/a	2	n/a	n/a	n/a	n/a	120.026	n/a
90.745	0.497	happy	Picture	22.911	n/a	1	3	20	n/a	60	79	2	n/a	n/a	n/a	n/a	120.556	BM28HAS.jpg
91.242	0.514	Blank	Blank	22.397	n/a	1	3	20	n/a	60	n/a	2	n/a	n/a	n/a	n/a	121.054	n/a
91.773	10.014	ITI	Fixation+	12.367	n/a	1	n/a	n/a	n/a	n/a	n/a	n/a	n/a	n/a	n/a	n/a	121.584	n/a
114.154	n/a	ConfirmRating	Rate	n/a	12.334	1	n/a	n/a	0	n/a	n/a	n/a	2	Happy	78	51	143.965	n/a
119.395	n/a	ConfirmRating	Rate	n/a	5.239	1	n/a	n/a	1	n/a	n/a	n/a	3	Happy	50	50	149.207	n/a
119.426	10.014	ITI	Fixation+	97.853	n/a	2	n/a	n/a	n/a	n/a	n/a	n/a	n/a	n/a	n/a	n/a	149.238	n/a
129.457	0.497	angry	Picture	97.339	n/a	2	4	1	n/a	61	119	3	n/a	n/a	n/a	n/a	159.268	BM28ANS.jpg
129.954	0.514	Blank	Blank	96.825	n/a	2	4	1	n/a	61	n/a	3	n/a	n/a	n/a	n/a	159.765	n/a
130.484	0.497	angry	Picture	96.311	n/a	2	4	2	n/a	62	100	3	n/a	n/a	n/a	n/a	160.296	AF32ANS.jpg
130.982	0.514	Blank	Blank	95.798	n/a	2	4	2	n/a	62	n/a	3	n/a	n/a	n/a	n/a	160.793	n/a
131.512	0.497	angry	Picture	95.284	n/a	2	4	3	n/a	63	118	3	n/a	n/a	n/a	n/a	161.324	BM26ANS.jpg
132.01	0.514	Blank	Blank	94.77	n/a	2	4	3	n/a	63	n/a	3	n/a	n/a	n/a	n/a	161.821	n/a
132.54	0.497	angry	Picture	94.256	n/a	2	4	4	n/a	64	89	3	n/a	n/a	n/a	n/a	162.352	AF17ANS.jpg
133.038	0.514	Blank	Blank	93.742	n/a	2	4	4	n/a	64	n/a	3	n/a	n/a	n/a	n/a	162.849	n/a
133.568	0.497	angry	Picture	93.228	n/a	2	4	5	n/a	65	116	3	n/a	n/a	n/a	n/a	163.38	BM24ANS.jpg
134.066	0.514	Blank	Blank	92.714	n/a	2	4	5	n/a	65	n/a	3	n/a	n/a	n/a	n/a	163.877	n/a
134.596	0.497	angry	Picture	92.2	n/a	2	4	6	n/a	66	105	3	n/a	n/a	n/a	n/a	164.407	BM06ANS.jpg
135.093	0.514	Blank	Blank	91.686	n/a	2	4	6	n/a	66	n/a	3	n/a	n/a	n/a	n/a	164.905	n/a
135.624	0.497	angry	Picture	91.172	n/a	2	4	7	n/a	67	106	3	n/a	n/a	n/a	n/a	165.435	AM07ANS.jpg
136.121	0.514	Blank	Blank	90.658	n/a	2	4	7	n/a	67	n/a	3	n/a	n/a	n/a	n/a	165.933	n/a
136.652	0.497	angry	Picture	90.144	n/a	2	4	8	n/a	68	94	3	n/a	n/a	n/a	n/a	166.463	AF23ANS.jpg
137.149	0.514	Blank	Blank	89.63	n/a	2	4	8	n/a	68	n/a	3	n/a	n/a	n/a	n/a	166.96	n/a
137.68	0.497	angry	Picture	89.116	n/a	2	4	9	n/a	69	117	3	n/a	n/a	n/a	n/a	167.491	BM25ANS.jpg
138.177	0.514	Blank	Blank	88.602	n/a	2	4	9	n/a	69	n/a	3	n/a	n/a	n/a	n/a	167.988	n/a
138.708	0.497	angry	Picture	88.088	n/a	2	4	10	n/a	70	90	3	n/a	n/a	n/a	n/a	168.519	AF18ANS.jpg
139.205	0.514	Blank	Blank	87.574	n/a	2	4	10	n/a	70	n/a	3	n/a	n/a	n/a	n/a	169.016	n/a
139.735	0.497	angry	Picture	87.06	n/a	2	4	11	n/a	71	83	3	n/a	n/a	n/a	n/a	169.547	BF04ANS.jpg
140.233	0.514	Blank	Blank	86.546	n/a	2	4	11	n/a	71	n/a	3	n/a	n/a	n/a	n/a	170.044	n/a
140.763	0.497	angry	Picture	86.033	n/a	2	4	12	n/a	72	112	3	n/a	n/a	n/a	n/a	170.575	AM14ANS.jpg
141.261	0.514	Blank	Blank	85.519	n/a	2	4	12	n/a	72	n/a	3	n/a	n/a	n/a	n/a	171.072	n/a
141.791	0.497	angry	Picture	85.005	n/a	2	4	13	n/a	73	102	3	n/a	n/a	n/a	n/a	171.603	BM03ANS.jpg
142.289	0.514	Blank	Blank	84.491	n/a	2	4	13	n/a	73	n/a	3	n/a	n/a	n/a	n/a	172.1	n/a
142.819	0.497	angry	Picture	83.977	n/a	2	4	14	n/a	74	95	3	n/a	n/a	n/a	n/a	172.631	AF25ANS.jpg
143.317	0.514	Blank	Blank	83.463	n/a	2	4	14	n/a	74	n/a	3	n/a	n/a	n/a	n/a	173.128	n/a
143.847	0.497	angry	Picture	82.949	n/a	2	4	15	n/a	75	113	3	n/a	n/a	n/a	n/a	173.658	AM21ANS.jpg
144.344	0.514	Blank	Blank	82.435	n/a	2	4	15	n/a	75	n/a	3	n/a	n/a	n/a	n/a	174.156	n/a
144.875	0.497	angry	Picture	81.921	n/a	2	4	16	n/a	76	88	3	n/a	n/a	n/a	n/a	174.686	AF14ANS.jpg
145.372	0.514	Blank	Blank	81.407	n/a	2	4	16	n/a	76	n/a	3	n/a	n/a	n/a	n/a	175.184	n/a
145.903	0.497	angry	Picture	80.893	n/a	2	4	17	n/a	77	93	3	n/a	n/a	n/a	n/a	175.714	BF22ANS.jpg
146.4	0.514	Blank	Blank	80.379	n/a	2	4	17	n/a	77	n/a	3	n/a	n/a	n/a	n/a	176.212	n/a
146.931	0.497	angry	Picture	79.865	n/a	2	4	18	n/a	78	86	3	n/a	n/a	n/a	n/a	176.742	AF09ANS.jpg
147.428	0.514	Blank	Blank	79.351	n/a	2	4	18	n/a	78	n/a	3	n/a	n/a	n/a	n/a	177.239	n/a
147.959	0.497	angry	Picture	78.837	n/a	2	4	19	n/a	79	92	3	n/a	n/a	n/a	n/a	177.77	AF21ANS.jpg
148.456	0.514	Blank	Blank	78.323	n/a	2	4	19	n/a	79	n/a	3	n/a	n/a	n/a	n/a	178.267	n/a
148.987	0.497	angry	Picture	77.809	n/a	2	4	20	n/a	80	84	3	n/a	n/a	n/a	n/a	178.798	AF05ANS.jpg
149.484	0.514	Blank	Blank	77.295	n/a	2	4	20	n/a	80	n/a	3	n/a	n/a	n/a	n/a	179.295	n/a
150.014	10.014	ITI	Fixation+	67.265	n/a	2	n/a	n/a	n/a	n/a	n/a	n/a	n/a	n/a	n/a	n/a	179.826	n/a
160.045	0.497	neutral	Picture	66.751	n/a	2	5	1	n/a	81	4	1	n/a	n/a	n/a	n/a	189.856	AF05NES.jpg
160.542	0.514	Blank	Blank	66.237	n/a	2	5	1	n/a	81	n/a	1	n/a	n/a	n/a	n/a	190.353	n/a
161.073	0.497	neutral	Picture	65.723	n/a	2	5	2	n/a	82	14	1	n/a	n/a	n/a	n/a	190.884	AF23NES.jpg
161.57	0.514	Blank	Blank	65.209	n/a	2	5	2	n/a	82	n/a	1	n/a	n/a	n/a	n/a	191.381	n/a
162.1	0.497	neutral	Picture	64.696	n/a	2	5	3	n/a	83	19	1	n/a	n/a	n/a	n/a	191.912	AF31NES.jpg
162.598	0.514	Blank	Blank	64.182	n/a	2	5	3	n/a	83	n/a	1	n/a	n/a	n/a	n/a	192.409	n/a
163.128	0.497	neutral	Picture	63.668	n/a	2	5	4	n/a	84	8	1	n/a	n/a	n/a	n/a	192.94	AF14NES.jpg
163.626	0.514	Blank	Blank	63.154	n/a	2	5	4	n/a	84	n/a	1	n/a	n/a	n/a	n/a	193.437	n/a
164.156	0.497	neutral	Picture	62.64	n/a	2	5	5	n/a	85	25	1	n/a	n/a	n/a	n/a	193.968	BM06NES.jpg
164.654	0.514	Blank	Blank	62.126	n/a	2	5	5	n/a	85	n/a	1	n/a	n/a	n/a	n/a	194.465	n/a
165.184	0.497	neutral	Picture	61.612	n/a	2	5	6	n/a	86	9	1	n/a	n/a	n/a	n/a	194.995	AF17NES.jpg
165.681	0.514	Blank	Blank	61.098	n/a	2	5	6	n/a	86	n/a	1	n/a	n/a	n/a	n/a	195.493	n/a
166.212	0.497	neutral	Picture	60.584	n/a	2	5	7	n/a	87	2	1	n/a	n/a	n/a	n/a	196.023	AF03NES.jpg
166.709	0.514	Blank	Blank	60.07	n/a	2	5	7	n/a	87	n/a	1	n/a	n/a	n/a	n/a	196.521	n/a
167.24	0.497	neutral	Picture	59.556	n/a	2	5	8	n/a	88	17	1	n/a	n/a	n/a	n/a	197.051	BF28NES.jpg
167.737	0.514	Blank	Blank	59.042	n/a	2	5	8	n/a	88	n/a	1	n/a	n/a	n/a	n/a	197.549	n/a
168.268	0.497	neutral	Picture	58.528	n/a	2	5	9	n/a	89	6	1	n/a	n/a	n/a	n/a	198.079	AF09NES.jpg
168.765	0.514	Blank	Blank	58.014	n/a	2	5	9	n/a	89	n/a	1	n/a	n/a	n/a	n/a	198.577	n/a
169.296	0.497	neutral	Picture	57.5	n/a	2	5	10	n/a	90	12	1	n/a	n/a	n/a	n/a	199.107	AF21NES.jpg
169.793	0.514	Blank	Blank	56.986	n/a	2	5	10	n/a	90	n/a	1	n/a	n/a	n/a	n/a	199.604	n/a
170.323	0.497	neutral	Picture	56.472	n/a	2	5	11	n/a	91	24	1	n/a	n/a	n/a	n/a	200.135	BM05NES.jpg
170.821	0.514	Blank	Blank	55.958	n/a	2	5	11	n/a	91	n/a	1	n/a	n/a	n/a	n/a	200.632	n/a
171.351	0.497	neutral	Picture	55.445	n/a	2	5	12	n/a	92	34	1	n/a	n/a	n/a	n/a	201.163	AM22NES.jpg
171.849	0.514	Blank	Blank	54.931	n/a	2	5	12	n/a	92	n/a	1	n/a	n/a	n/a	n/a	201.66	n/a
172.379	0.497	neutral	Picture	54.417	n/a	2	5	13	n/a	93	23	1	n/a	n/a	n/a	n/a	202.191	AM04NES.jpg
172.877	0.514	Blank	Blank	53.903	n/a	2	5	13	n/a	93	n/a	1	n/a	n/a	n/a	n/a	202.688	n/a
173.407	0.497	neutral	Picture	53.389	n/a	2	5	14	n/a	94	15	1	n/a	n/a	n/a	n/a	203.219	AF25NES.jpg
173.905	0.514	Blank	Blank	52.875	n/a	2	5	14	n/a	94	n/a	1	n/a	n/a	n/a	n/a	203.716	n/a
174.435	0.497	neutral	Picture	52.361	n/a	2	5	15	n/a	95	37	1	n/a	n/a	n/a	n/a	204.246	BM25NES.jpg
174.932	0.514	Blank	Blank	51.847	n/a	2	5	15	n/a	95	n/a	1	n/a	n/a	n/a	n/a	204.744	n/a
175.463	0.497	neutral	Picture	51.333	n/a	2	5	16	n/a	96	32	1	n/a	n/a	n/a	n/a	205.274	AM14NES.jpg
175.96	0.514	Blank	Blank	50.819	n/a	2	5	16	n/a	96	n/a	1	n/a	n/a	n/a	n/a	205.772	n/a
176.491	0.497	neutral	Picture	50.305	n/a	2	5	17	n/a	97	3	1	n/a	n/a	n/a	n/a	206.302	BF04NES.jpg
176.988	0.514	Blank	Blank	49.791	n/a	2	5	17	n/a	97	n/a	1	n/a	n/a	n/a	n/a	206.8	n/a
177.519	0.497	neutral	Picture	49.277	n/a	2	5	18	n/a	98	16	1	n/a	n/a	n/a	n/a	207.33	AF26NES.jpg
178.016	0.514	Blank	Blank	48.763	n/a	2	5	18	n/a	98	n/a	1	n/a	n/a	n/a	n/a	207.827	n/a
178.547	0.497	neutral	Picture	48.249	n/a	2	5	19	n/a	99	27	1	n/a	n/a	n/a	n/a	208.358	BM08NES.jpg
179.044	0.514	Blank	Blank	47.735	n/a	2	5	19	n/a	99	n/a	1	n/a	n/a	n/a	n/a	208.855	n/a
179.575	0.497	neutral	Picture	47.221	n/a	2	5	20	n/a	100	28	1	n/a	n/a	n/a	n/a	209.386	AM09NES.jpg
180.072	0.514	Blank	Blank	46.707	n/a	2	5	20	n/a	100	n/a	1	n/a	n/a	n/a	n/a	209.883	n/a
180.602	10.014	ITI	Fixation+	36.677	n/a	2	n/a	n/a	n/a	n/a	n/a	n/a	n/a	n/a	n/a	n/a	210.414	n/a
190.633	0.497	angry	Picture	36.163	n/a	2	6	1	n/a	101	81	3	n/a	n/a	n/a	n/a	220.444	AF01ANS.jpg
191.13	0.514	Blank	Blank	35.649	n/a	2	6	1	n/a	101	n/a	3	n/a	n/a	n/a	n/a	220.941	n/a
191.661	0.497	angry	Picture	35.135	n/a	2	6	2	n/a	102	120	3	n/a	n/a	n/a	n/a	221.472	AM35ANS.jpg
192.158	0.514	Blank	Blank	34.621	n/a	2	6	2	n/a	102	n/a	3	n/a	n/a	n/a	n/a	221.969	n/a
192.688	0.497	angry	Picture	34.108	n/a	2	6	3	n/a	103	114	3	n/a	n/a	n/a	n/a	222.5	AM22ANS.jpg
193.186	0.514	Blank	Blank	33.594	n/a	2	6	3	n/a	103	n/a	3	n/a	n/a	n/a	n/a	222.997	n/a
193.716	0.497	angry	Picture	33.08	n/a	2	6	4	n/a	104	109	3	n/a	n/a	n/a	n/a	223.528	AM10ANS.jpg
194.214	0.514	Blank	Blank	32.566	n/a	2	6	4	n/a	104	n/a	3	n/a	n/a	n/a	n/a	224.025	n/a
194.744	0.497	angry	Picture	32.052	n/a	2	6	5	n/a	105	96	3	n/a	n/a	n/a	n/a	224.556	AF26ANS.jpg
195.242	0.514	Blank	Blank	31.538	n/a	2	6	5	n/a	105	n/a	3	n/a	n/a	n/a	n/a	225.053	n/a
195.772	0.497	angry	Picture	31.024	n/a	2	6	6	n/a	106	82	3	n/a	n/a	n/a	n/a	225.583	AF03ANS.jpg
196.269	0.514	Blank	Blank	30.51	n/a	2	6	6	n/a	106	n/a	3	n/a	n/a	n/a	n/a	226.081	n/a
196.8	0.497	angry	Picture	29.996	n/a	2	6	7	n/a	107	97	3	n/a	n/a	n/a	n/a	226.611	BF28ANS.jpg
197.297	0.514	Blank	Blank	29.482	n/a	2	6	7	n/a	107	n/a	3	n/a	n/a	n/a	n/a	227.109	n/a
197.828	0.497	angry	Picture	28.968	n/a	2	6	8	n/a	108	115	3	n/a	n/a	n/a	n/a	227.639	AM23ANS.jpg
198.325	0.514	Blank	Blank	28.454	n/a	2	6	8	n/a	108	n/a	3	n/a	n/a	n/a	n/a	228.137	n/a
198.856	0.497	angry	Picture	27.94	n/a	2	6	9	n/a	109	91	3	n/a	n/a	n/a	n/a	228.667	AF20ANS.jpg
199.353	0.514	Blank	Blank	27.426	n/a	2	6	9	n/a	109	n/a	3	n/a	n/a	n/a	n/a	229.165	n/a
199.884	0.497	angry	Picture	26.912	n/a	2	6	10	n/a	110	87	3	n/a	n/a	n/a	n/a	229.695	BF11ANS.jpg
200.381	0.514	Blank	Blank	26.398	n/a	2	6	10	n/a	110	n/a	3	n/a	n/a	n/a	n/a	230.192	n/a
200.912	0.497	angry	Picture	25.884	n/a	2	6	11	n/a	111	85	3	n/a	n/a	n/a	n/a	230.723	BF07ANS.jpg
201.409	0.514	Blank	Blank	25.37	n/a	2	6	11	n/a	111	n/a	3	n/a	n/a	n/a	n/a	231.22	n/a
201.939	0.497	angry	Picture	24.856	n/a	2	6	12	n/a	112	110	3	n/a	n/a	n/a	n/a	231.751	AM11ANS.jpg
202.437	0.514	Blank	Blank	24.343	n/a	2	6	12	n/a	112	n/a	3	n/a	n/a	n/a	n/a	232.248	n/a
202.967	0.497	angry	Picture	23.829	n/a	2	6	13	n/a	113	111	3	n/a	n/a	n/a	n/a	232.779	BM12ANS.jpg
203.465	0.514	Blank	Blank	23.315	n/a	2	6	13	n/a	113	n/a	3	n/a	n/a	n/a	n/a	233.276	n/a
203.995	0.497	angry	Picture	22.801	n/a	2	6	14	n/a	114	103	3	n/a	n/a	n/a	n/a	233.807	AM04ANS.jpg
204.493	0.514	Blank	Blank	22.287	n/a	2	6	14	n/a	114	n/a	3	n/a	n/a	n/a	n/a	234.304	n/a
205.023	0.497	angry	Picture	21.773	n/a	2	6	15	n/a	115	101	3	n/a	n/a	n/a	n/a	234.834	AM01ANS.jpg
205.52	0.514	Blank	Blank	21.259	n/a	2	6	15	n/a	115	n/a	3	n/a	n/a	n/a	n/a	235.332	n/a
206.051	0.497	angry	Picture	20.745	n/a	2	6	16	n/a	116	104	3	n/a	n/a	n/a	n/a	235.862	BM05ANS.jpg
206.548	0.514	Blank	Blank	20.231	n/a	2	6	16	n/a	116	n/a	3	n/a	n/a	n/a	n/a	236.36	n/a
207.079	0.497	angry	Picture	19.717	n/a	2	6	17	n/a	117	107	3	n/a	n/a	n/a	n/a	236.89	BM08ANS.jpg
207.576	0.514	Blank	Blank	19.203	n/a	2	6	17	n/a	117	n/a	3	n/a	n/a	n/a	n/a	237.388	n/a
208.107	0.497	angry	Picture	18.689	n/a	2	6	18	n/a	118	98	3	n/a	n/a	n/a	n/a	237.918	BF29ANS.jpg
208.604	0.514	Blank	Blank	18.175	n/a	2	6	18	n/a	118	n/a	3	n/a	n/a	n/a	n/a	238.416	n/a
209.135	0.497	angry	Picture	17.661	n/a	2	6	19	n/a	119	99	3	n/a	n/a	n/a	n/a	238.946	AF31ANS.jpg
209.632	0.514	Blank	Blank	17.147	n/a	2	6	19	n/a	119	n/a	3	n/a	n/a	n/a	n/a	239.443	n/a
210.162	0.497	angry	Picture	16.633	n/a	2	6	20	n/a	120	108	3	n/a	n/a	n/a	n/a	239.974	AM09ANS.jpg
210.66	0.514	Blank	Blank	16.119	n/a	2	6	20	n/a	120	n/a	3	n/a	n/a	n/a	n/a	240.471	n/a
211.19	10.014	ITI	Fixation+	6.089	n/a	2	n/a	n/a	n/a	n/a	n/a	n/a	n/a	n/a	n/a	n/a	241.002	n/a
227.293	n/a	ConfirmRating	Rate	n/a	6.084	2	n/a	n/a	0	n/a	n/a	n/a	2	Angry	26	49	257.105	n/a
231.539	n/a	ConfirmRating	Rate	n/a	4.227	2	n/a	n/a	1	n/a	n/a	n/a	3	Angry	22	48	261.351	n/a
231.566	15.004	Rest	Picture	n/a	n/a	n/a	n/a	n/a	n/a	n/a	n/a	n/a	0	n/a	0	0	261.377	n/a
246.586	10.014	ITI	Fixation+	96.072	n/a	3	n/a	n/a	n/a	n/a	n/a	n/a	n/a	n/a	n/a	n/a	276.398	n/a
256.617	0.497	happy	Picture	95.558	n/a	3	7	1	n/a	1	46	2	n/a	n/a	n/a	n/a	286.428	AF09HAS.jpg
257.114	0.514	Blank	Blank	95.044	n/a	3	7	1	n/a	1	n/a	2	n/a	n/a	n/a	n/a	286.925	n/a
257.644	0.497	happy	Picture	94.53	n/a	3	7	2	n/a	2	69	2	n/a	n/a	n/a	n/a	287.456	AM10HAS.jpg
258.142	0.514	Blank	Blank	94.016	n/a	3	7	2	n/a	2	n/a	2	n/a	n/a	n/a	n/a	287.953	n/a
258.672	0.497	happy	Picture	93.502	n/a	3	7	3	n/a	3	71	2	n/a	n/a	n/a	n/a	288.484	BM12HAS.jpg
259.17	0.514	Blank	Blank	92.988	n/a	3	7	3	n/a	3	n/a	2	n/a	n/a	n/a	n/a	288.981	n/a
259.7	0.497	happy	Picture	92.474	n/a	3	7	4	n/a	4	51	2	n/a	n/a	n/a	n/a	289.512	AF20HAS.jpg
260.198	0.514	Blank	Blank	91.961	n/a	3	7	4	n/a	4	n/a	2	n/a	n/a	n/a	n/a	290.009	n/a
260.728	0.497	happy	Picture	91.447	n/a	3	7	5	n/a	5	67	2	n/a	n/a	n/a	n/a	290.539	BM08HAS.jpg
261.226	0.514	Blank	Blank	90.933	n/a	3	7	5	n/a	5	n/a	2	n/a	n/a	n/a	n/a	291.037	n/a
261.756	0.497	happy	Picture	90.419	n/a	3	7	6	n/a	6	60	2	n/a	n/a	n/a	n/a	291.567	AF32HAS.jpg
262.253	0.514	Blank	Blank	89.905	n/a	3	7	6	n/a	6	n/a	2	n/a	n/a	n/a	n/a	292.065	n/a
262.784	0.497	happy	Picture	89.391	n/a	3	7	7	n/a	7	42	2	n/a	n/a	n/a	n/a	292.595	AF03HAS.jpg
263.281	0.514	Blank	Blank	88.877	n/a	3	7	7	n/a	7	n/a	2	n/a	n/a	n/a	n/a	293.093	n/a
263.812	0.497	happy	Picture	88.363	n/a	3	7	8	n/a	8	55	2	n/a	n/a	n/a	n/a	293.623	AF25HAS.jpg
264.309	0.514	Blank	Blank	87.849	n/a	3	7	8	n/a	8	n/a	2	n/a	n/a	n/a	n/a	294.12	n/a
264.84	0.497	happy	Picture	87.335	n/a	3	7	9	n/a	9	72	2	n/a	n/a	n/a	n/a	294.651	AM14HAS.jpg
265.337	0.514	Blank	Blank	86.821	n/a	3	7	9	n/a	9	n/a	2	n/a	n/a	n/a	n/a	295.148	n/a
265.868	0.497	happy	Picture	86.307	n/a	3	7	10	n/a	10	63	2	n/a	n/a	n/a	n/a	295.679	AM04HAS.jpg
266.365	0.514	Blank	Blank	85.793	n/a	3	7	10	n/a	10	n/a	2	n/a	n/a	n/a	n/a	296.176	n/a
266.895	0.497	happy	Picture	85.279	n/a	3	7	11	n/a	11	58	2	n/a	n/a	n/a	n/a	296.707	BF29HAS.jpg
267.393	0.514	Blank	Blank	84.765	n/a	3	7	11	n/a	11	n/a	2	n/a	n/a	n/a	n/a	297.204	n/a
267.923	0.497	happy	Picture	84.251	n/a	3	7	12	n/a	12	48	2	n/a	n/a	n/a	n/a	297.735	AF14HAS.jpg
268.421	0.514	Blank	Blank	83.737	n/a	3	7	12	n/a	12	n/a	2	n/a	n/a	n/a	n/a	298.232	n/a
268.951	0.497	happy	Picture	83.223	n/a	3	7	13	n/a	13	66	2	n/a	n/a	n/a	n/a	298.763	BM07HAS.jpg
269.449	0.514	Blank	Blank	82.71	n/a	3	7	13	n/a	13	n/a	2	n/a	n/a	n/a	n/a	299.26	n/a
269.979	0.497	happy	Picture	82.195	n/a	3	7	14	n/a	14	70	2	n/a	n/a	n/a	n/a	299.791	BM11HAS.jpg
270.476	0.514	Blank	Blank	81.682	n/a	3	7	14	n/a	14	n/a	2	n/a	n/a	n/a	n/a	300.288	n/a
271.007	0.497	happy	Picture	81.168	n/a	3	7	15	n/a	15	43	2	n/a	n/a	n/a	n/a	300.818	BF04HAS.jpg
271.504	0.514	Blank	Blank	80.654	n/a	3	7	15	n/a	15	n/a	2	n/a	n/a	n/a	n/a	301.316	n/a
272.035	0.497	happy	Picture	80.14	n/a	3	7	16	n/a	16	49	2	n/a	n/a	n/a	n/a	301.846	AF17HAS.jpg
272.532	0.514	Blank	Blank	79.626	n/a	3	7	16	n/a	16	n/a	2	n/a	n/a	n/a	n/a	302.344	n/a
273.063	0.497	happy	Picture	79.112	n/a	3	7	17	n/a	17	75	2	n/a	n/a	n/a	n/a	302.874	AM23HAS.jpg
273.56	0.514	Blank	Blank	78.598	n/a	3	7	17	n/a	17	n/a	2	n/a	n/a	n/a	n/a	303.372	n/a
274.091	0.497	happy	Picture	78.084	n/a	3	7	18	n/a	18	80	2	n/a	n/a	n/a	n/a	303.902	BM35HAS.jpg
274.588	0.514	Blank	Blank	77.57	n/a	3	7	18	n/a	18	n/a	2	n/a	n/a	n/a	n/a	304.399	n/a
275.118	0.497	happy	Picture	77.056	n/a	3	7	19	n/a	19	76	2	n/a	n/a	n/a	n/a	304.93	BM24HAS.jpg
275.616	0.514	Blank	Blank	76.542	n/a	3	7	19	n/a	19	n/a	2	n/a	n/a	n/a	n/a	305.427	n/a
276.146	0.497	happy	Picture	76.028	n/a	3	7	20	n/a	20	74	2	n/a	n/a	n/a	n/a	305.958	AM22HAS.jpg
276.644	0.514	Blank	Blank	75.514	n/a	3	7	20	n/a	20	n/a	2	n/a	n/a	n/a	n/a	306.455	n/a
277.174	10.014	ITI	Fixation+	65.484	n/a	3	n/a	n/a	n/a	n/a	n/a	n/a	n/a	n/a	n/a	n/a	306.986	n/a
287.205	0.497	neutral	Picture	64.97	n/a	3	8	1	n/a	21	33	1	n/a	n/a	n/a	n/a	317.016	AM21NES.jpg
287.702	0.514	Blank	Blank	64.456	n/a	3	8	1	n/a	21	n/a	1	n/a	n/a	n/a	n/a	317.513	n/a
288.232	0.497	neutral	Picture	63.942	n/a	3	8	2	n/a	22	39	1	n/a	n/a	n/a	n/a	318.044	AM28NES.jpg
288.73	0.514	Blank	Blank	63.428	n/a	3	8	2	n/a	22	n/a	1	n/a	n/a	n/a	n/a	318.541	n/a
289.26	0.497	neutral	Picture	62.914	n/a	3	8	3	n/a	23	25	1	n/a	n/a	n/a	n/a	319.072	BM06NES.jpg
289.758	0.514	Blank	Blank	62.4	n/a	3	8	3	n/a	23	n/a	1	n/a	n/a	n/a	n/a	319.569	n/a
290.288	0.497	neutral	Picture	61.886	n/a	3	8	4	n/a	24	5	1	n/a	n/a	n/a	n/a	320.1	BF07NES.jpg
290.786	0.514	Blank	Blank	61.373	n/a	3	8	4	n/a	24	n/a	1	n/a	n/a	n/a	n/a	320.597	n/a
291.316	0.497	neutral	Picture	60.858	n/a	3	8	5	n/a	25	10	1	n/a	n/a	n/a	n/a	321.127	AF18NES.jpg
291.814	0.514	Blank	Blank	60.345	n/a	3	8	5	n/a	25	n/a	1	n/a	n/a	n/a	n/a	321.625	n/a
292.344	0.497	neutral	Picture	59.831	n/a	3	8	6	n/a	26	34	1	n/a	n/a	n/a	n/a	322.155	AM22NES.jpg
292.841	0.514	Blank	Blank	59.317	n/a	3	8	6	n/a	26	n/a	1	n/a	n/a	n/a	n/a	322.653	n/a
293.372	0.497	neutral	Picture	58.803	n/a	3	8	7	n/a	27	36	1	n/a	n/a	n/a	n/a	323.183	BM24NES.jpg
293.869	0.514	Blank	Blank	58.289	n/a	3	8	7	n/a	27	n/a	1	n/a	n/a	n/a	n/a	323.681	n/a
294.4	0.497	neutral	Picture	57.775	n/a	3	8	8	n/a	28	14	1	n/a	n/a	n/a	n/a	324.211	AF23NES.jpg
294.897	0.514	Blank	Blank	57.261	n/a	3	8	8	n/a	28	n/a	1	n/a	n/a	n/a	n/a	324.709	n/a
295.428	0.497	neutral	Picture	56.747	n/a	3	8	9	n/a	29	9	1	n/a	n/a	n/a	n/a	325.239	AF17NES.jpg
295.925	0.514	Blank	Blank	56.233	n/a	3	8	9	n/a	29	n/a	1	n/a	n/a	n/a	n/a	325.736	n/a
296.456	0.497	neutral	Picture	55.719	n/a	3	8	10	n/a	30	19	1	n/a	n/a	n/a	n/a	326.267	AF31NES.jpg
296.953	0.514	Blank	Blank	55.205	n/a	3	8	10	n/a	30	n/a	1	n/a	n/a	n/a	n/a	326.764	n/a
297.483	0.497	neutral	Picture	54.691	n/a	3	8	11	n/a	31	15	1	n/a	n/a	n/a	n/a	327.295	AF25NES.jpg
297.981	0.514	Blank	Blank	54.177	n/a	3	8	11	n/a	31	n/a	1	n/a	n/a	n/a	n/a	327.792	n/a
298.511	0.497	neutral	Picture	53.663	n/a	3	8	12	n/a	32	22	1	n/a	n/a	n/a	n/a	328.323	BM03NES.jpg
299.009	0.514	Blank	Blank	53.149	n/a	3	8	12	n/a	32	n/a	1	n/a	n/a	n/a	n/a	328.82	n/a
299.539	0.497	neutral	Picture	52.635	n/a	3	8	13	n/a	33	11	1	n/a	n/a	n/a	n/a	329.351	AF20NES.jpg
300.037	0.514	Blank	Blank	52.122	n/a	3	8	13	n/a	33	n/a	1	n/a	n/a	n/a	n/a	329.848	n/a
300.567	0.497	neutral	Picture	51.608	n/a	3	8	14	n/a	34	4	1	n/a	n/a	n/a	n/a	330.378	AF05NES.jpg
301.065	0.514	Blank	Blank	51.094	n/a	3	8	14	n/a	34	n/a	1	n/a	n/a	n/a	n/a	330.876	n/a
301.595	0.497	neutral	Picture	50.58	n/a	3	8	15	n/a	35	17	1	n/a	n/a	n/a	n/a	331.406	BF28NES.jpg
302.092	0.514	Blank	Blank	50.066	n/a	3	8	15	n/a	35	n/a	1	n/a	n/a	n/a	n/a	331.904	n/a
302.623	0.497	neutral	Picture	49.552	n/a	3	8	16	n/a	36	13	1	n/a	n/a	n/a	n/a	332.434	BF22NES.jpg
303.12	0.514	Blank	Blank	49.038	n/a	3	8	16	n/a	36	n/a	1	n/a	n/a	n/a	n/a	332.932	n/a
303.651	0.497	neutral	Picture	48.524	n/a	3	8	17	n/a	37	12	1	n/a	n/a	n/a	n/a	333.462	AF21NES.jpg
304.148	0.514	Blank	Blank	48.01	n/a	3	8	17	n/a	37	n/a	1	n/a	n/a	n/a	n/a	333.96	n/a
304.679	0.497	neutral	Picture	47.496	n/a	3	8	18	n/a	38	24	1	n/a	n/a	n/a	n/a	334.49	BM05NES.jpg
305.176	0.514	Blank	Blank	46.982	n/a	3	8	18	n/a	38	n/a	1	n/a	n/a	n/a	n/a	334.988	n/a
305.707	0.497	neutral	Picture	46.468	n/a	3	8	19	n/a	39	29	1	n/a	n/a	n/a	n/a	335.518	AM10NES.jpg
306.204	0.514	Blank	Blank	45.954	n/a	3	8	19	n/a	39	n/a	1	n/a	n/a	n/a	n/a	336.015	n/a
306.735	0.497	neutral	Picture	45.44	n/a	3	8	20	n/a	40	23	1	n/a	n/a	n/a	n/a	336.546	AM04NES.jpg
307.232	0.514	Blank	Blank	44.926	n/a	3	8	20	n/a	40	n/a	1	n/a	n/a	n/a	n/a	337.043	n/a
307.762	10.014	ITI	Fixation+	34.896	n/a	3	n/a	n/a	n/a	n/a	n/a	n/a	n/a	n/a	n/a	n/a	337.574	n/a
317.793	0.497	happy	Picture	34.382	n/a	3	9	1	n/a	41	62	2	n/a	n/a	n/a	n/a	347.604	BM03HAS.jpg
318.29	0.514	Blank	Blank	33.868	n/a	3	9	1	n/a	41	n/a	2	n/a	n/a	n/a	n/a	348.101	n/a
318.82	0.497	happy	Picture	33.354	n/a	3	9	2	n/a	42	52	2	n/a	n/a	n/a	n/a	348.632	AF21HAS.jpg
319.318	0.514	Blank	Blank	32.84	n/a	3	9	2	n/a	42	n/a	2	n/a	n/a	n/a	n/a	349.129	n/a
319.848	0.497	happy	Picture	32.326	n/a	3	9	3	n/a	43	44	2	n/a	n/a	n/a	n/a	349.66	AF05HAS.jpg
320.346	0.514	Blank	Blank	31.812	n/a	3	9	3	n/a	43	n/a	2	n/a	n/a	n/a	n/a	350.157	n/a
320.876	0.497	happy	Picture	31.298	n/a	3	9	4	n/a	44	53	2	n/a	n/a	n/a	n/a	350.688	BF22HAS.jpg
321.374	0.514	Blank	Blank	30.784	n/a	3	9	4	n/a	44	n/a	2	n/a	n/a	n/a	n/a	351.185	n/a
321.904	0.497	happy	Picture	30.27	n/a	3	9	5	n/a	45	54	2	n/a	n/a	n/a	n/a	351.716	AF23HAS.jpg
322.401	0.514	Blank	Blank	29.757	n/a	3	9	5	n/a	45	n/a	2	n/a	n/a	n/a	n/a	352.213	n/a
322.932	0.497	happy	Picture	29.243	n/a	3	9	6	n/a	46	68	2	n/a	n/a	n/a	n/a	352.743	AM09HAS.jpg
323.429	0.514	Blank	Blank	28.729	n/a	3	9	6	n/a	46	n/a	2	n/a	n/a	n/a	n/a	353.241	n/a
323.96	0.497	happy	Picture	28.215	n/a	3	9	7	n/a	47	64	2	n/a	n/a	n/a	n/a	353.771	BM05HAS.jpg
324.457	0.514	Blank	Blank	27.701	n/a	3	9	7	n/a	47	n/a	2	n/a	n/a	n/a	n/a	354.269	n/a
324.988	0.497	happy	Picture	27.187	n/a	3	9	8	n/a	48	59	2	n/a	n/a	n/a	n/a	354.799	AF31HAS.jpg
325.485	0.514	Blank	Blank	26.673	n/a	3	9	8	n/a	48	n/a	2	n/a	n/a	n/a	n/a	355.297	n/a
326.016	0.497	happy	Picture	26.159	n/a	3	9	9	n/a	49	41	2	n/a	n/a	n/a	n/a	355.827	AF01HAS.jpg
326.513	0.514	Blank	Blank	25.645	n/a	3	9	9	n/a	49	n/a	2	n/a	n/a	n/a	n/a	356.325	n/a
327.044	0.497	happy	Picture	25.131	n/a	3	9	10	n/a	50	73	2	n/a	n/a	n/a	n/a	356.855	AM21HAS.jpg
327.541	0.514	Blank	Blank	24.617	n/a	3	9	10	n/a	50	n/a	2	n/a	n/a	n/a	n/a	357.352	n/a
328.072	0.497	happy	Picture	24.103	n/a	3	9	11	n/a	51	65	2	n/a	n/a	n/a	n/a	357.883	BM06HAS.jpg
328.569	0.514	Blank	Blank	23.589	n/a	3	9	11	n/a	51	n/a	2	n/a	n/a	n/a	n/a	358.38	n/a
329.099	0.497	happy	Picture	23.075	n/a	3	9	12	n/a	52	56	2	n/a	n/a	n/a	n/a	358.911	AF26HAS.jpg
329.597	0.514	Blank	Blank	22.561	n/a	3	9	12	n/a	52	n/a	2	n/a	n/a	n/a	n/a	359.408	n/a
330.127	0.497	happy	Picture	22.047	n/a	3	9	13	n/a	53	45	2	n/a	n/a	n/a	n/a	359.939	BF07HAS.jpg
330.625	0.514	Blank	Blank	21.533	n/a	3	9	13	n/a	53	n/a	2	n/a	n/a	n/a	n/a	360.436	n/a
331.155	0.497	happy	Picture	21.019	n/a	3	9	14	n/a	54	78	2	n/a	n/a	n/a	n/a	360.967	BM26HAS.jpg
331.653	0.514	Blank	Blank	20.505	n/a	3	9	14	n/a	54	n/a	2	n/a	n/a	n/a	n/a	361.464	n/a
332.183	0.497	happy	Picture	19.992	n/a	3	9	15	n/a	55	50	2	n/a	n/a	n/a	n/a	361.994	AF18HAS.jpg
332.68	0.514	Blank	Blank	19.478	n/a	3	9	15	n/a	55	n/a	2	n/a	n/a	n/a	n/a	362.492	n/a
333.211	0.497	happy	Picture	18.964	n/a	3	9	16	n/a	56	47	2	n/a	n/a	n/a	n/a	363.022	BF11HAS.jpg
333.708	0.514	Blank	Blank	18.45	n/a	3	9	16	n/a	56	n/a	2	n/a	n/a	n/a	n/a	363.52	n/a
334.239	0.497	happy	Picture	17.936	n/a	3	9	17	n/a	57	77	2	n/a	n/a	n/a	n/a	364.05	BM25HAS.jpg
334.736	0.514	Blank	Blank	17.422	n/a	3	9	17	n/a	57	n/a	2	n/a	n/a	n/a	n/a	364.548	n/a
335.267	0.497	happy	Picture	16.908	n/a	3	9	18	n/a	58	57	2	n/a	n/a	n/a	n/a	365.078	BF28HAS.jpg
335.764	0.514	Blank	Blank	16.394	n/a	3	9	18	n/a	58	n/a	2	n/a	n/a	n/a	n/a	365.575	n/a
336.295	0.497	happy	Picture	15.88	n/a	3	9	19	n/a	59	61	2	n/a	n/a	n/a	n/a	366.106	AM01HAS.jpg
336.792	0.514	Blank	Blank	15.366	n/a	3	9	19	n/a	59	n/a	2	n/a	n/a	n/a	n/a	366.603	n/a
337.322	0.497	happy	Picture	14.852	n/a	3	9	20	n/a	60	79	2	n/a	n/a	n/a	n/a	367.134	BM28HAS.jpg
337.82	0.514	Blank	Blank	14.338	n/a	3	9	20	n/a	60	n/a	2	n/a	n/a	n/a	n/a	367.631	n/a
338.35	10.014	ITI	Fixation+	4.308	n/a	3	n/a	n/a	n/a	n/a	n/a	n/a	n/a	n/a	n/a	n/a	368.162	n/a
352.672	n/a	ConfirmRating	Rate	n/a	4.293	3	n/a	n/a	0	n/a	n/a	n/a	2	Happy	20	49	382.483	n/a
355.35	n/a	ConfirmRating	Rate	n/a	2.669	3	n/a	n/a	1	n/a	n/a	n/a	3	Happy	15	49	385.161	n/a
355.377	10.014	ITI	Fixation+	101.67	n/a	4	n/a	n/a	n/a	n/a	n/a	n/a	n/a	n/a	n/a	n/a	385.188	n/a
365.407	0.497	angry	Picture	101.156	n/a	4	10	1	n/a	61	119	3	n/a	n/a	n/a	n/a	395.219	BM28ANS.jpg
365.904	0.514	Blank	Blank	100.642	n/a	4	10	1	n/a	61	n/a	3	n/a	n/a	n/a	n/a	395.716	n/a
366.435	0.497	angry	Picture	100.128	n/a	4	10	2	n/a	62	100	3	n/a	n/a	n/a	n/a	396.246	AF32ANS.jpg
366.932	0.514	Blank	Blank	99.615	n/a	4	10	2	n/a	62	n/a	3	n/a	n/a	n/a	n/a	396.744	n/a
367.463	0.497	angry	Picture	99.101	n/a	4	10	3	n/a	63	118	3	n/a	n/a	n/a	n/a	397.274	BM26ANS.jpg
367.96	0.514	Blank	Blank	98.587	n/a	4	10	3	n/a	63	n/a	3	n/a	n/a	n/a	n/a	397.772	n/a
368.491	0.497	angry	Picture	98.073	n/a	4	10	4	n/a	64	89	3	n/a	n/a	n/a	n/a	398.302	AF17ANS.jpg
368.988	0.514	Blank	Blank	97.559	n/a	4	10	4	n/a	64	n/a	3	n/a	n/a	n/a	n/a	398.8	n/a
369.519	0.497	angry	Picture	97.045	n/a	4	10	5	n/a	65	116	3	n/a	n/a	n/a	n/a	399.33	BM24ANS.jpg
370.016	0.514	Blank	Blank	96.531	n/a	4	10	5	n/a	65	n/a	3	n/a	n/a	n/a	n/a	399.827	n/a
370.547	0.497	angry	Picture	96.017	n/a	4	10	6	n/a	66	105	3	n/a	n/a	n/a	n/a	400.358	BM06ANS.jpg
371.044	0.514	Blank	Blank	95.503	n/a	4	10	6	n/a	66	n/a	3	n/a	n/a	n/a	n/a	400.855	n/a
371.575	0.497	angry	Picture	94.989	n/a	4	10	7	n/a	67	106	3	n/a	n/a	n/a	n/a	401.386	AM07ANS.jpg
372.072	0.514	Blank	Blank	94.475	n/a	4	10	7	n/a	67	n/a	3	n/a	n/a	n/a	n/a	401.883	n/a
372.602	0.497	angry	Picture	93.961	n/a	4	10	8	n/a	68	94	3	n/a	n/a	n/a	n/a	402.414	AF23ANS.jpg
373.1	0.514	Blank	Blank	93.447	n/a	4	10	8	n/a	68	n/a	3	n/a	n/a	n/a	n/a	402.911	n/a
373.63	0.497	angry	Picture	92.933	n/a	4	10	9	n/a	69	117	3	n/a	n/a	n/a	n/a	403.442	BM25ANS.jpg
374.128	0.514	Blank	Blank	92.419	n/a	4	10	9	n/a	69	n/a	3	n/a	n/a	n/a	n/a	403.939	n/a
374.658	0.497	angry	Picture	91.905	n/a	4	10	10	n/a	70	90	3	n/a	n/a	n/a	n/a	404.469	AF18ANS.jpg
375.156	0.514	Blank	Blank	91.391	n/a	4	10	10	n/a	70	n/a	3	n/a	n/a	n/a	n/a	404.967	n/a
375.686	0.497	angry	Picture	90.877	n/a	4	10	11	n/a	71	83	3	n/a	n/a	n/a	n/a	405.497	BF04ANS.jpg
376.183	0.514	Blank	Blank	90.364	n/a	4	10	11	n/a	71	n/a	3	n/a	n/a	n/a	n/a	405.995	n/a
376.714	0.497	angry	Picture	89.849	n/a	4	10	12	n/a	72	112	3	n/a	n/a	n/a	n/a	406.525	AM14ANS.jpg
377.211	0.514	Blank	Blank	89.336	n/a	4	10	12	n/a	72	n/a	3	n/a	n/a	n/a	n/a	407.023	n/a
377.742	0.497	angry	Picture	88.822	n/a	4	10	13	n/a	73	102	3	n/a	n/a	n/a	n/a	407.553	BM03ANS.jpg
378.239	0.514	Blank	Blank	88.308	n/a	4	10	13	n/a	73	n/a	3	n/a	n/a	n/a	n/a	408.051	n/a
378.77	0.497	angry	Picture	87.794	n/a	4	10	14	n/a	74	95	3	n/a	n/a	n/a	n/a	408.581	AF25ANS.jpg
379.267	0.514	Blank	Blank	87.28	n/a	4	10	14	n/a	74	n/a	3	n/a	n/a	n/a	n/a	409.079	n/a
379.798	0.497	angry	Picture	86.766	n/a	4	10	15	n/a	75	113	3	n/a	n/a	n/a	n/a	409.609	AM21ANS.jpg
380.295	0.514	Blank	Blank	86.252	n/a	4	10	15	n/a	75	n/a	3	n/a	n/a	n/a	n/a	410.106	n/a
380.826	0.497	angry	Picture	85.738	n/a	4	10	16	n/a	76	88	3	n/a	n/a	n/a	n/a	410.637	AF14ANS.jpg
381.323	0.514	Blank	Blank	85.224	n/a	4	10	16	n/a	76	n/a	3	n/a	n/a	n/a	n/a	411.134	n/a
381.853	0.497	angry	Picture	84.71	n/a	4	10	17	n/a	77	93	3	n/a	n/a	n/a	n/a	411.665	BF22ANS.jpg
382.351	0.514	Blank	Blank	84.196	n/a	4	10	17	n/a	77	n/a	3	n/a	n/a	n/a	n/a	412.162	n/a
382.881	0.497	angry	Picture	83.682	n/a	4	10	18	n/a	78	86	3	n/a	n/a	n/a	n/a	412.693	AF09ANS.jpg
383.379	0.514	Blank	Blank	83.168	n/a	4	10	18	n/a	78	n/a	3	n/a	n/a	n/a	n/a	413.19	n/a
383.909	0.497	angry	Picture	82.654	n/a	4	10	19	n/a	79	92	3	n/a	n/a	n/a	n/a	413.721	AF21ANS.jpg
384.406	0.514	Blank	Blank	82.14	n/a	4	10	19	n/a	79	n/a	3	n/a	n/a	n/a	n/a	414.218	n/a
384.937	0.497	angry	Picture	81.626	n/a	4	10	20	n/a	80	84	3	n/a	n/a	n/a	n/a	414.748	AF05ANS.jpg
385.434	0.514	Blank	Blank	81.113	n/a	4	10	20	n/a	80	n/a	3	n/a	n/a	n/a	n/a	415.246	n/a
385.965	10.014	ITI	Fixation+	71.082	n/a	4	n/a	n/a	n/a	n/a	n/a	n/a	n/a	n/a	n/a	n/a	415.776	n/a
395.995	0.497	neutral	Picture	70.568	n/a	4	11	1	n/a	81	4	1	n/a	n/a	n/a	n/a	425.807	AF05NES.jpg
396.493	0.514	Blank	Blank	70.054	n/a	4	11	1	n/a	81	n/a	1	n/a	n/a	n/a	n/a	426.304	n/a
397.023	0.497	neutral	Picture	69.54	n/a	4	11	2	n/a	82	14	1	n/a	n/a	n/a	n/a	426.834	AF23NES.jpg
397.52	0.514	Blank	Blank	69.027	n/a	4	11	2	n/a	82	n/a	1	n/a	n/a	n/a	n/a	427.332	n/a
398.051	0.497	neutral	Picture	68.512	n/a	4	11	3	n/a	83	19	1	n/a	n/a	n/a	n/a	427.862	AF31NES.jpg
398.548	0.514	Blank	Blank	67.999	n/a	4	11	3	n/a	83	n/a	1	n/a	n/a	n/a	n/a	428.36	n/a
399.079	0.497	neutral	Picture	67.485	n/a	4	11	4	n/a	84	8	1	n/a	n/a	n/a	n/a	428.89	AF14NES.jpg
399.576	0.514	Blank	Blank	66.971	n/a	4	11	4	n/a	84	n/a	1	n/a	n/a	n/a	n/a	429.388	n/a
400.107	0.497	neutral	Picture	66.457	n/a	4	11	5	n/a	85	25	1	n/a	n/a	n/a	n/a	429.918	BM06NES.jpg
400.604	0.514	Blank	Blank	65.943	n/a	4	11	5	n/a	85	n/a	1	n/a	n/a	n/a	n/a	430.416	n/a
401.135	0.497	neutral	Picture	65.429	n/a	4	11	6	n/a	86	9	1	n/a	n/a	n/a	n/a	430.946	AF17NES.jpg
401.632	0.514	Blank	Blank	64.915	n/a	4	11	6	n/a	86	n/a	1	n/a	n/a	n/a	n/a	431.443	n/a
402.163	0.497	neutral	Picture	64.401	n/a	4	11	7	n/a	87	2	1	n/a	n/a	n/a	n/a	431.974	AF03NES.jpg
402.66	0.514	Blank	Blank	63.887	n/a	4	11	7	n/a	87	n/a	1	n/a	n/a	n/a	n/a	432.471	n/a
403.19	0.497	neutral	Picture	63.373	n/a	4	11	8	n/a	88	17	1	n/a	n/a	n/a	n/a	433.002	BF28NES.jpg
403.688	0.514	Blank	Blank	62.859	n/a	4	11	8	n/a	88	n/a	1	n/a	n/a	n/a	n/a	433.499	n/a
404.218	0.497	neutral	Picture	62.345	n/a	4	11	9	n/a	89	6	1	n/a	n/a	n/a	n/a	434.03	AF09NES.jpg
404.716	0.514	Blank	Blank	61.831	n/a	4	11	9	n/a	89	n/a	1	n/a	n/a	n/a	n/a	434.527	n/a
405.246	0.497	neutral	Picture	61.317	n/a	4	11	10	n/a	90	12	1	n/a	n/a	n/a	n/a	435.058	AF21NES.jpg
405.743	0.514	Blank	Blank	60.803	n/a	4	11	10	n/a	90	n/a	1	n/a	n/a	n/a	n/a	435.555	n/a
406.274	0.497	neutral	Picture	60.289	n/a	4	11	11	n/a	91	24	1	n/a	n/a	n/a	n/a	436.085	BM05NES.jpg
406.771	0.514	Blank	Blank	59.775	n/a	4	11	11	n/a	91	n/a	1	n/a	n/a	n/a	n/a	436.583	n/a
407.302	0.497	neutral	Picture	59.262	n/a	4	11	12	n/a	92	34	1	n/a	n/a	n/a	n/a	437.113	AM22NES.jpg
407.799	0.514	Blank	Blank	58.748	n/a	4	11	12	n/a	92	n/a	1	n/a	n/a	n/a	n/a	437.611	n/a
408.33	0.497	neutral	Picture	58.234	n/a	4	11	13	n/a	93	23	1	n/a	n/a	n/a	n/a	438.141	AM04NES.jpg
408.827	0.514	Blank	Blank	57.72	n/a	4	11	13	n/a	93	n/a	1	n/a	n/a	n/a	n/a	438.639	n/a
409.358	0.497	neutral	Picture	57.206	n/a	4	11	14	n/a	94	15	1	n/a	n/a	n/a	n/a	439.169	AF25NES.jpg
409.855	0.514	Blank	Blank	56.692	n/a	4	11	14	n/a	94	n/a	1	n/a	n/a	n/a	n/a	439.666	n/a
410.386	0.497	neutral	Picture	56.178	n/a	4	11	15	n/a	95	37	1	n/a	n/a	n/a	n/a	440.197	BM25NES.jpg
410.883	0.514	Blank	Blank	55.664	n/a	4	11	15	n/a	95	n/a	1	n/a	n/a	n/a	n/a	440.694	n/a
411.413	0.497	neutral	Picture	55.15	n/a	4	11	16	n/a	96	32	1	n/a	n/a	n/a	n/a	441.225	AM14NES.jpg
411.911	0.514	Blank	Blank	54.636	n/a	4	11	16	n/a	96	n/a	1	n/a	n/a	n/a	n/a	441.722	n/a
412.441	0.497	neutral	Picture	54.122	n/a	4	11	17	n/a	97	3	1	n/a	n/a	n/a	n/a	442.253	BF04NES.jpg
412.939	0.514	Blank	Blank	53.608	n/a	4	11	17	n/a	97	n/a	1	n/a	n/a	n/a	n/a	442.75	n/a
413.469	0.497	neutral	Picture	53.094	n/a	4	11	18	n/a	98	16	1	n/a	n/a	n/a	n/a	443.281	AF26NES.jpg
413.967	0.514	Blank	Blank	52.58	n/a	4	11	18	n/a	98	n/a	1	n/a	n/a	n/a	n/a	443.778	n/a
414.497	0.497	neutral	Picture	52.066	n/a	4	11	19	n/a	99	27	1	n/a	n/a	n/a	n/a	444.309	BM08NES.jpg
414.995	0.514	Blank	Blank	51.552	n/a	4	11	19	n/a	99	n/a	1	n/a	n/a	n/a	n/a	444.806	n/a
415.525	0.497	neutral	Picture	51.038	n/a	4	11	20	n/a	100	28	1	n/a	n/a	n/a	n/a	445.337	AM09NES.jpg
416.022	0.514	Blank	Blank	50.524	n/a	4	11	20	n/a	100	n/a	1	n/a	n/a	n/a	n/a	445.834	n/a
416.553	10.014	ITI	Fixation+	40.494	n/a	4	n/a	n/a	n/a	n/a	n/a	n/a	n/a	n/a	n/a	n/a	446.364	n/a
426.583	0.497	angry	Picture	39.98	n/a	4	12	1	n/a	101	81	3	n/a	n/a	n/a	n/a	456.395	AF01ANS.jpg
427.081	0.514	Blank	Blank	39.466	n/a	4	12	1	n/a	101	n/a	3	n/a	n/a	n/a	n/a	456.892	n/a
427.611	0.497	angry	Picture	38.952	n/a	4	12	2	n/a	102	120	3	n/a	n/a	n/a	n/a	457.423	AM35ANS.jpg
428.108	0.514	Blank	Blank	38.438	n/a	4	12	2	n/a	102	n/a	3	n/a	n/a	n/a	n/a	457.92	n/a
428.639	0.497	angry	Picture	37.924	n/a	4	12	3	n/a	103	114	3	n/a	n/a	n/a	n/a	458.45	AM22ANS.jpg
429.136	0.514	Blank	Blank	37.411	n/a	4	12	3	n/a	103	n/a	3	n/a	n/a	n/a	n/a	458.948	n/a
429.667	0.497	angry	Picture	36.897	n/a	4	12	4	n/a	104	109	3	n/a	n/a	n/a	n/a	459.478	AM10ANS.jpg
430.164	0.514	Blank	Blank	36.383	n/a	4	12	4	n/a	104	n/a	3	n/a	n/a	n/a	n/a	459.976	n/a
430.695	0.497	angry	Picture	35.869	n/a	4	12	5	n/a	105	96	3	n/a	n/a	n/a	n/a	460.506	AF26ANS.jpg
431.192	0.514	Blank	Blank	35.355	n/a	4	12	5	n/a	105	n/a	3	n/a	n/a	n/a	n/a	461.003	n/a
431.723	0.497	angry	Picture	34.841	n/a	4	12	6	n/a	106	82	3	n/a	n/a	n/a	n/a	461.534	AF03ANS.jpg
432.22	0.514	Blank	Blank	34.327	n/a	4	12	6	n/a	106	n/a	3	n/a	n/a	n/a	n/a	462.031	n/a
432.75	0.497	angry	Picture	33.813	n/a	4	12	7	n/a	107	97	3	n/a	n/a	n/a	n/a	462.562	BF28ANS.jpg
433.248	0.514	Blank	Blank	33.299	n/a	4	12	7	n/a	107	n/a	3	n/a	n/a	n/a	n/a	463.059	n/a
433.778	0.497	angry	Picture	32.785	n/a	4	12	8	n/a	108	115	3	n/a	n/a	n/a	n/a	463.59	AM23ANS.jpg
434.276	0.514	Blank	Blank	32.271	n/a	4	12	8	n/a	108	n/a	3	n/a	n/a	n/a	n/a	464.087	n/a
434.806	0.497	angry	Picture	31.757	n/a	4	12	9	n/a	109	91	3	n/a	n/a	n/a	n/a	464.618	AF20ANS.jpg
435.304	0.514	Blank	Blank	31.243	n/a	4	12	9	n/a	109	n/a	3	n/a	n/a	n/a	n/a	465.115	n/a
435.834	0.497	angry	Picture	30.729	n/a	4	12	10	n/a	110	87	3	n/a	n/a	n/a	n/a	465.646	BF11ANS.jpg
436.332	0.514	Blank	Blank	30.215	n/a	4	12	10	n/a	110	n/a	3	n/a	n/a	n/a	n/a	466.143	n/a
436.862	0.497	angry	Picture	29.701	n/a	4	12	11	n/a	111	85	3	n/a	n/a	n/a	n/a	466.673	BF07ANS.jpg
437.359	0.514	Blank	Blank	29.187	n/a	4	12	11	n/a	111	n/a	3	n/a	n/a	n/a	n/a	467.171	n/a
437.89	0.497	angry	Picture	28.674	n/a	4	12	12	n/a	112	110	3	n/a	n/a	n/a	n/a	467.701	AM11ANS.jpg
438.387	0.514	Blank	Blank	28.16	n/a	4	12	12	n/a	112	n/a	3	n/a	n/a	n/a	n/a	468.199	n/a
438.918	0.497	angry	Picture	27.646	n/a	4	12	13	n/a	113	111	3	n/a	n/a	n/a	n/a	468.729	BM12ANS.jpg
439.415	0.514	Blank	Blank	27.132	n/a	4	12	13	n/a	113	n/a	3	n/a	n/a	n/a	n/a	469.227	n/a
439.946	0.497	angry	Picture	26.618	n/a	4	12	14	n/a	114	103	3	n/a	n/a	n/a	n/a	469.757	AM04ANS.jpg
440.443	0.514	Blank	Blank	26.104	n/a	4	12	14	n/a	114	n/a	3	n/a	n/a	n/a	n/a	470.255	n/a
440.974	0.497	angry	Picture	25.59	n/a	4	12	15	n/a	115	101	3	n/a	n/a	n/a	n/a	470.785	AM01ANS.jpg
441.471	0.514	Blank	Blank	25.076	n/a	4	12	15	n/a	115	n/a	3	n/a	n/a	n/a	n/a	471.282	n/a
442.002	0.497	angry	Picture	24.562	n/a	4	12	16	n/a	116	104	3	n/a	n/a	n/a	n/a	471.813	BM05ANS.jpg
442.499	0.514	Blank	Blank	24.048	n/a	4	12	16	n/a	116	n/a	3	n/a	n/a	n/a	n/a	472.31	n/a
443.029	0.497	angry	Picture	23.534	n/a	4	12	17	n/a	117	107	3	n/a	n/a	n/a	n/a	472.841	BM08ANS.jpg
443.527	0.514	Blank	Blank	23.02	n/a	4	12	17	n/a	117	n/a	3	n/a	n/a	n/a	n/a	473.338	n/a
444.057	0.497	angry	Picture	22.506	n/a	4	12	18	n/a	118	98	3	n/a	n/a	n/a	n/a	473.869	BF29ANS.jpg
444.555	0.514	Blank	Blank	21.992	n/a	4	12	18	n/a	118	n/a	3	n/a	n/a	n/a	n/a	474.366	n/a
445.085	0.497	angry	Picture	21.478	n/a	4	12	19	n/a	119	99	3	n/a	n/a	n/a	n/a	474.897	AF31ANS.jpg
445.583	0.514	Blank	Blank	20.964	n/a	4	12	19	n/a	119	n/a	3	n/a	n/a	n/a	n/a	475.394	n/a
446.113	0.497	angry	Picture	20.45	n/a	4	12	20	n/a	120	108	3	n/a	n/a	n/a	n/a	475.925	AM09ANS.jpg
446.611	0.514	Blank	Blank	19.936	n/a	4	12	20	n/a	120	n/a	3	n/a	n/a	n/a	n/a	476.422	n/a
447.141	10.014	ITI	Fixation+	9.906	n/a	4	n/a	n/a	n/a	n/a	n/a	n/a	n/a	n/a	n/a	n/a	476.952	n/a
467.061	n/a	ConfirmRating	Rate	n/a	9.898	4	n/a	n/a	0	n/a	n/a	n/a	2	Angry	30	49	496.872	n/a
470.404	n/a	ConfirmRating	Rate	n/a	3.333	4	n/a	n/a	1	n/a	n/a	n/a	3	Angry	24	48	500.215	n/a
