onset	duration	trial_type	event_type	time_until_response	response_time	trial_number	block_num_within_trial	image_seq_num_within_block	question_seq_num_within_block	image_seq_num	picture_number	condition	question_type	block_type	rating	rating_computed	onset_uncorrected	KDEV_imagefile
0.016	10.014	ITI	Fixation+	99.735	n/a	1	n/a	n/a	n/a	n/a	n/a	n/a	n/a	n/a	n/a	n/a	59.811	n/a
10.046	0.497	happy	Picture	99.221	n/a	1	1	1	n/a	1	108	3	n/a	n/a	n/a	n/a	69.841	AM09ANS.jpg
10.543	0.514	Blank	Blank	98.708	n/a	1	1	1	n/a	1	n/a	3	n/a	n/a	n/a	n/a	70.338	n/a
11.074	0.497	happy	Picture	98.194	n/a	1	1	2	n/a	2	99	3	n/a	n/a	n/a	n/a	70.869	AF31ANS.jpg
11.571	0.514	Blank	Blank	97.68	n/a	1	1	2	n/a	2	n/a	3	n/a	n/a	n/a	n/a	71.366	n/a
12.102	0.497	happy	Picture	97.166	n/a	1	1	3	n/a	3	98	3	n/a	n/a	n/a	n/a	71.897	BF29ANS.jpg
12.599	0.514	Blank	Blank	96.652	n/a	1	1	3	n/a	3	n/a	3	n/a	n/a	n/a	n/a	72.394	n/a
13.13	0.497	happy	Picture	96.138	n/a	1	1	4	n/a	4	107	3	n/a	n/a	n/a	n/a	72.924	BM08ANS.jpg
13.627	0.514	Blank	Blank	95.624	n/a	1	1	4	n/a	4	n/a	3	n/a	n/a	n/a	n/a	73.422	n/a
14.158	0.497	happy	Picture	95.11	n/a	1	1	5	n/a	5	104	3	n/a	n/a	n/a	n/a	73.952	BM05ANS.jpg
14.655	0.514	Blank	Blank	94.596	n/a	1	1	5	n/a	5	n/a	3	n/a	n/a	n/a	n/a	74.45	n/a
15.185	0.497	happy	Picture	94.082	n/a	1	1	6	n/a	6	101	3	n/a	n/a	n/a	n/a	74.98	AM01ANS.jpg
15.683	0.514	Blank	Blank	93.568	n/a	1	1	6	n/a	6	n/a	3	n/a	n/a	n/a	n/a	75.478	n/a
16.213	0.497	happy	Picture	93.054	n/a	1	1	7	n/a	7	103	3	n/a	n/a	n/a	n/a	76.008	AM04ANS.jpg
16.711	0.514	Blank	Blank	92.54	n/a	1	1	7	n/a	7	n/a	3	n/a	n/a	n/a	n/a	76.505	n/a
17.241	0.497	happy	Picture	92.026	n/a	1	1	8	n/a	8	111	3	n/a	n/a	n/a	n/a	77.036	BM12ANS.jpg
17.739	0.514	Blank	Blank	91.512	n/a	1	1	8	n/a	8	n/a	3	n/a	n/a	n/a	n/a	77.533	n/a
18.269	0.497	happy	Picture	90.998	n/a	1	1	9	n/a	9	110	3	n/a	n/a	n/a	n/a	78.064	AM11ANS.jpg
18.766	0.514	Blank	Blank	90.485	n/a	1	1	9	n/a	9	n/a	3	n/a	n/a	n/a	n/a	78.561	n/a
19.297	0.497	happy	Picture	89.971	n/a	1	1	10	n/a	10	85	3	n/a	n/a	n/a	n/a	79.092	BF07ANS.jpg
19.794	0.514	Blank	Blank	89.457	n/a	1	1	10	n/a	10	n/a	3	n/a	n/a	n/a	n/a	79.589	n/a
20.325	0.497	happy	Picture	88.943	n/a	1	1	11	n/a	11	87	3	n/a	n/a	n/a	n/a	80.12	BF11ANS.jpg
20.822	0.514	Blank	Blank	88.429	n/a	1	1	11	n/a	11	n/a	3	n/a	n/a	n/a	n/a	80.617	n/a
21.353	0.497	happy	Picture	87.915	n/a	1	1	12	n/a	12	91	3	n/a	n/a	n/a	n/a	81.147	AF20ANS.jpg
21.85	0.514	Blank	Blank	87.401	n/a	1	1	12	n/a	12	n/a	3	n/a	n/a	n/a	n/a	81.645	n/a
22.381	0.497	happy	Picture	86.887	n/a	1	1	13	n/a	13	115	3	n/a	n/a	n/a	n/a	82.175	AM23ANS.jpg
22.878	0.514	Blank	Blank	86.373	n/a	1	1	13	n/a	13	n/a	3	n/a	n/a	n/a	n/a	82.673	n/a
23.409	0.497	happy	Picture	85.859	n/a	1	1	14	n/a	14	97	3	n/a	n/a	n/a	n/a	83.203	BF28ANS.jpg
23.906	0.514	Blank	Blank	85.345	n/a	1	1	14	n/a	14	n/a	3	n/a	n/a	n/a	n/a	83.701	n/a
24.436	0.497	happy	Picture	84.831	n/a	1	1	15	n/a	15	82	3	n/a	n/a	n/a	n/a	84.231	AF03ANS.jpg
24.934	0.514	Blank	Blank	84.317	n/a	1	1	15	n/a	15	n/a	3	n/a	n/a	n/a	n/a	84.728	n/a
25.464	0.497	happy	Picture	83.803	n/a	1	1	16	n/a	16	96	3	n/a	n/a	n/a	n/a	85.259	AF26ANS.jpg
25.962	0.514	Blank	Blank	83.289	n/a	1	1	16	n/a	16	n/a	3	n/a	n/a	n/a	n/a	85.756	n/a
26.492	0.497	happy	Picture	82.775	n/a	1	1	17	n/a	17	109	3	n/a	n/a	n/a	n/a	86.287	AM10ANS.jpg
26.989	0.514	Blank	Blank	82.261	n/a	1	1	17	n/a	17	n/a	3	n/a	n/a	n/a	n/a	86.784	n/a
27.52	0.497	happy	Picture	81.748	n/a	1	1	18	n/a	18	114	3	n/a	n/a	n/a	n/a	87.315	AM22ANS.jpg
28.017	0.514	Blank	Blank	81.234	n/a	1	1	18	n/a	18	n/a	3	n/a	n/a	n/a	n/a	87.812	n/a
28.548	0.497	happy	Picture	80.72	n/a	1	1	19	n/a	19	120	3	n/a	n/a	n/a	n/a	88.343	AM35ANS.jpg
29.045	0.514	Blank	Blank	80.206	n/a	1	1	19	n/a	19	n/a	3	n/a	n/a	n/a	n/a	88.84	n/a
29.576	0.497	happy	Picture	79.692	n/a	1	1	20	n/a	20	81	3	n/a	n/a	n/a	n/a	89.37	AF01ANS.jpg
30.073	0.514	Blank	Blank	79.178	n/a	1	1	20	n/a	20	n/a	3	n/a	n/a	n/a	n/a	89.868	n/a
30.604	10.014	ITI	Fixation+	69.148	n/a	1	n/a	n/a	n/a	n/a	n/a	n/a	n/a	n/a	n/a	n/a	90.398	n/a
40.634	0.497	neutral	Picture	68.634	n/a	1	2	1	n/a	21	28	1	n/a	n/a	n/a	n/a	100.428	AM09NES.jpg
41.131	0.514	Blank	Blank	68.12	n/a	1	2	1	n/a	21	n/a	1	n/a	n/a	n/a	n/a	100.926	n/a
41.662	0.497	neutral	Picture	67.606	n/a	1	2	2	n/a	22	27	1	n/a	n/a	n/a	n/a	101.456	BM08NES.jpg
42.159	0.514	Blank	Blank	67.092	n/a	1	2	2	n/a	22	n/a	1	n/a	n/a	n/a	n/a	101.954	n/a
42.69	0.497	neutral	Picture	66.578	n/a	1	2	3	n/a	23	16	1	n/a	n/a	n/a	n/a	102.484	AF26NES.jpg
43.187	0.514	Blank	Blank	66.064	n/a	1	2	3	n/a	23	n/a	1	n/a	n/a	n/a	n/a	102.981	n/a
43.717	0.497	neutral	Picture	65.55	n/a	1	2	4	n/a	24	3	1	n/a	n/a	n/a	n/a	103.512	BF04NES.jpg
44.215	0.514	Blank	Blank	65.036	n/a	1	2	4	n/a	24	n/a	1	n/a	n/a	n/a	n/a	104.009	n/a
44.745	0.497	neutral	Picture	64.522	n/a	1	2	5	n/a	25	32	1	n/a	n/a	n/a	n/a	104.54	AM14NES.jpg
45.243	0.514	Blank	Blank	64.008	n/a	1	2	5	n/a	25	n/a	1	n/a	n/a	n/a	n/a	105.037	n/a
45.773	0.497	neutral	Picture	63.494	n/a	1	2	6	n/a	26	37	1	n/a	n/a	n/a	n/a	105.568	BM25NES.jpg
46.271	0.514	Blank	Blank	62.98	n/a	1	2	6	n/a	26	n/a	1	n/a	n/a	n/a	n/a	106.065	n/a
46.801	0.497	neutral	Picture	62.466	n/a	1	2	7	n/a	27	15	1	n/a	n/a	n/a	n/a	106.596	AF25NES.jpg
47.299	0.514	Blank	Blank	61.953	n/a	1	2	7	n/a	27	n/a	1	n/a	n/a	n/a	n/a	107.093	n/a
47.829	0.497	neutral	Picture	61.439	n/a	1	2	8	n/a	28	23	1	n/a	n/a	n/a	n/a	107.624	AM04NES.jpg
48.326	0.514	Blank	Blank	60.925	n/a	1	2	8	n/a	28	n/a	1	n/a	n/a	n/a	n/a	108.121	n/a
48.857	0.497	neutral	Picture	60.411	n/a	1	2	9	n/a	29	34	1	n/a	n/a	n/a	n/a	108.651	AM22NES.jpg
49.354	0.514	Blank	Blank	59.897	n/a	1	2	9	n/a	29	n/a	1	n/a	n/a	n/a	n/a	109.149	n/a
49.885	0.497	neutral	Picture	59.383	n/a	1	2	10	n/a	30	24	1	n/a	n/a	n/a	n/a	109.679	BM05NES.jpg
50.382	0.514	Blank	Blank	58.869	n/a	1	2	10	n/a	30	n/a	1	n/a	n/a	n/a	n/a	110.177	n/a
50.913	0.497	neutral	Picture	58.355	n/a	1	2	11	n/a	31	12	1	n/a	n/a	n/a	n/a	110.707	AF21NES.jpg
51.41	0.514	Blank	Blank	57.841	n/a	1	2	11	n/a	31	n/a	1	n/a	n/a	n/a	n/a	111.205	n/a
51.941	0.497	neutral	Picture	57.327	n/a	1	2	12	n/a	32	6	1	n/a	n/a	n/a	n/a	111.735	AF09NES.jpg
52.438	0.514	Blank	Blank	56.813	n/a	1	2	12	n/a	32	n/a	1	n/a	n/a	n/a	n/a	112.232	n/a
52.968	0.497	neutral	Picture	56.299	n/a	1	2	13	n/a	33	17	1	n/a	n/a	n/a	n/a	112.763	BF28NES.jpg
53.466	0.514	Blank	Blank	55.785	n/a	1	2	13	n/a	33	n/a	1	n/a	n/a	n/a	n/a	113.26	n/a
53.996	0.497	neutral	Picture	55.271	n/a	1	2	14	n/a	34	2	1	n/a	n/a	n/a	n/a	113.791	AF03NES.jpg
54.494	0.514	Blank	Blank	54.757	n/a	1	2	14	n/a	34	n/a	1	n/a	n/a	n/a	n/a	114.288	n/a
55.024	0.497	neutral	Picture	54.243	n/a	1	2	15	n/a	35	9	1	n/a	n/a	n/a	n/a	114.819	AF17NES.jpg
55.522	0.514	Blank	Blank	53.73	n/a	1	2	15	n/a	35	n/a	1	n/a	n/a	n/a	n/a	115.316	n/a
56.052	0.497	neutral	Picture	53.216	n/a	1	2	16	n/a	36	25	1	n/a	n/a	n/a	n/a	115.847	BM06NES.jpg
56.549	0.514	Blank	Blank	52.702	n/a	1	2	16	n/a	36	n/a	1	n/a	n/a	n/a	n/a	116.344	n/a
57.08	0.497	neutral	Picture	52.188	n/a	1	2	17	n/a	37	8	1	n/a	n/a	n/a	n/a	116.874	AF14NES.jpg
57.577	0.514	Blank	Blank	51.674	n/a	1	2	17	n/a	37	n/a	1	n/a	n/a	n/a	n/a	117.372	n/a
58.108	0.497	neutral	Picture	51.16	n/a	1	2	18	n/a	38	19	1	n/a	n/a	n/a	n/a	117.902	AF31NES.jpg
58.605	0.514	Blank	Blank	50.646	n/a	1	2	18	n/a	38	n/a	1	n/a	n/a	n/a	n/a	118.4	n/a
59.136	0.497	neutral	Picture	50.132	n/a	1	2	19	n/a	39	14	1	n/a	n/a	n/a	n/a	118.93	AF23NES.jpg
59.633	0.514	Blank	Blank	49.618	n/a	1	2	19	n/a	39	n/a	1	n/a	n/a	n/a	n/a	119.428	n/a
60.163	0.497	neutral	Picture	49.104	n/a	1	2	20	n/a	40	4	1	n/a	n/a	n/a	n/a	119.958	AF05NES.jpg
60.661	0.514	Blank	Blank	48.59	n/a	1	2	20	n/a	40	n/a	1	n/a	n/a	n/a	n/a	120.456	n/a
61.191	10.014	ITI	Fixation+	38.56	n/a	1	n/a	n/a	n/a	n/a	n/a	n/a	n/a	n/a	n/a	n/a	120.986	n/a
71.221	0.497	happy	Picture	38.046	n/a	1	3	1	n/a	41	84	3	n/a	n/a	n/a	n/a	131.016	AF05ANS.jpg
71.719	0.514	Blank	Blank	37.532	n/a	1	3	1	n/a	41	n/a	3	n/a	n/a	n/a	n/a	131.513	n/a
72.249	0.497	happy	Picture	37.018	n/a	1	3	2	n/a	42	92	3	n/a	n/a	n/a	n/a	132.044	AF21ANS.jpg
72.747	0.514	Blank	Blank	36.504	n/a	1	3	2	n/a	42	n/a	3	n/a	n/a	n/a	n/a	132.541	n/a
73.277	0.497	happy	Picture	35.99	n/a	1	3	3	n/a	43	86	3	n/a	n/a	n/a	n/a	133.072	AF09ANS.jpg
73.775	0.514	Blank	Blank	35.476	n/a	1	3	3	n/a	43	n/a	3	n/a	n/a	n/a	n/a	133.569	n/a
74.305	0.497	happy	Picture	34.963	n/a	1	3	4	n/a	44	93	3	n/a	n/a	n/a	n/a	134.1	BF22ANS.jpg
74.803	0.514	Blank	Blank	34.448	n/a	1	3	4	n/a	44	n/a	3	n/a	n/a	n/a	n/a	134.597	n/a
75.333	0.497	happy	Picture	33.935	n/a	1	3	5	n/a	45	88	3	n/a	n/a	n/a	n/a	135.128	AF14ANS.jpg
75.83	0.514	Blank	Blank	33.421	n/a	1	3	5	n/a	45	n/a	3	n/a	n/a	n/a	n/a	135.625	n/a
76.361	0.497	happy	Picture	32.907	n/a	1	3	6	n/a	46	113	3	n/a	n/a	n/a	n/a	136.155	AM21ANS.jpg
76.858	0.514	Blank	Blank	32.393	n/a	1	3	6	n/a	46	n/a	3	n/a	n/a	n/a	n/a	136.653	n/a
77.389	0.497	happy	Picture	31.879	n/a	1	3	7	n/a	47	95	3	n/a	n/a	n/a	n/a	137.183	AF25ANS.jpg
77.886	0.514	Blank	Blank	31.365	n/a	1	3	7	n/a	47	n/a	3	n/a	n/a	n/a	n/a	137.681	n/a
78.417	0.497	happy	Picture	30.851	n/a	1	3	8	n/a	48	102	3	n/a	n/a	n/a	n/a	138.211	BM03ANS.jpg
78.914	0.514	Blank	Blank	30.337	n/a	1	3	8	n/a	48	n/a	3	n/a	n/a	n/a	n/a	138.709	n/a
79.445	0.497	happy	Picture	29.823	n/a	1	3	9	n/a	49	112	3	n/a	n/a	n/a	n/a	139.239	AM14ANS.jpg
79.942	0.514	Blank	Blank	29.309	n/a	1	3	9	n/a	49	n/a	3	n/a	n/a	n/a	n/a	139.737	n/a
80.472	0.497	happy	Picture	28.795	n/a	1	3	10	n/a	50	83	3	n/a	n/a	n/a	n/a	140.267	BF04ANS.jpg
80.97	0.514	Blank	Blank	28.281	n/a	1	3	10	n/a	50	n/a	3	n/a	n/a	n/a	n/a	140.764	n/a
81.5	0.497	happy	Picture	27.767	n/a	1	3	11	n/a	51	90	3	n/a	n/a	n/a	n/a	141.295	AF18ANS.jpg
81.998	0.514	Blank	Blank	27.253	n/a	1	3	11	n/a	51	n/a	3	n/a	n/a	n/a	n/a	141.792	n/a
82.528	0.497	happy	Picture	26.739	n/a	1	3	12	n/a	52	117	3	n/a	n/a	n/a	n/a	142.323	BM25ANS.jpg
83.025	0.514	Blank	Blank	26.225	n/a	1	3	12	n/a	52	n/a	3	n/a	n/a	n/a	n/a	142.82	n/a
83.556	0.497	happy	Picture	25.712	n/a	1	3	13	n/a	53	94	3	n/a	n/a	n/a	n/a	143.351	AF23ANS.jpg
84.053	0.514	Blank	Blank	25.198	n/a	1	3	13	n/a	53	n/a	3	n/a	n/a	n/a	n/a	143.848	n/a
84.584	0.497	happy	Picture	24.684	n/a	1	3	14	n/a	54	106	3	n/a	n/a	n/a	n/a	144.379	AM07ANS.jpg
85.081	0.514	Blank	Blank	24.17	n/a	1	3	14	n/a	54	n/a	3	n/a	n/a	n/a	n/a	144.876	n/a
85.612	0.497	happy	Picture	23.656	n/a	1	3	15	n/a	55	105	3	n/a	n/a	n/a	n/a	145.406	BM06ANS.jpg
86.109	0.514	Blank	Blank	23.142	n/a	1	3	15	n/a	55	n/a	3	n/a	n/a	n/a	n/a	145.904	n/a
86.64	0.497	happy	Picture	22.628	n/a	1	3	16	n/a	56	116	3	n/a	n/a	n/a	n/a	146.434	BM24ANS.jpg
87.137	0.514	Blank	Blank	22.114	n/a	1	3	16	n/a	56	n/a	3	n/a	n/a	n/a	n/a	146.932	n/a
87.668	0.497	happy	Picture	21.6	n/a	1	3	17	n/a	57	89	3	n/a	n/a	n/a	n/a	147.462	AF17ANS.jpg
88.165	0.514	Blank	Blank	21.086	n/a	1	3	17	n/a	57	n/a	3	n/a	n/a	n/a	n/a	147.959	n/a
88.696	0.497	happy	Picture	20.572	n/a	1	3	18	n/a	58	118	3	n/a	n/a	n/a	n/a	148.49	BM26ANS.jpg
89.193	0.514	Blank	Blank	20.058	n/a	1	3	18	n/a	58	n/a	3	n/a	n/a	n/a	n/a	148.987	n/a
89.723	0.497	happy	Picture	19.544	n/a	1	3	19	n/a	59	100	3	n/a	n/a	n/a	n/a	149.518	AF32ANS.jpg
90.221	0.514	Blank	Blank	19.03	n/a	1	3	19	n/a	59	n/a	3	n/a	n/a	n/a	n/a	150.015	n/a
90.751	0.497	happy	Picture	18.516	n/a	1	3	20	n/a	60	119	3	n/a	n/a	n/a	n/a	150.546	BM28ANS.jpg
91.249	0.514	Blank	Blank	18.002	n/a	1	3	20	n/a	60	n/a	3	n/a	n/a	n/a	n/a	151.043	n/a
91.779	10.014	ITI	Fixation+	7.972	n/a	1	n/a	n/a	n/a	n/a	n/a	n/a	n/a	n/a	n/a	n/a	151.574	n/a
109.765	n/a	ConfirmRating	Rate	n/a	7.958	1	n/a	n/a	0	n/a	n/a	n/a	2	Happy	82	52	169.56	n/a
116.371	n/a	ConfirmRating	Rate	n/a	6.598	1	n/a	n/a	1	n/a	n/a	n/a	3	Happy	0	46	176.165	n/a
116.398	10.014	ITI	Fixation+	99.855	n/a	2	n/a	n/a	n/a	n/a	n/a	n/a	n/a	n/a	n/a	n/a	176.193	n/a
126.429	0.497	angry	Picture	99.341	n/a	2	4	1	n/a	61	79	2	n/a	n/a	n/a	n/a	186.223	BM28HAS.jpg
126.926	0.514	Blank	Blank	98.827	n/a	2	4	1	n/a	61	n/a	2	n/a	n/a	n/a	n/a	186.72	n/a
127.457	0.497	angry	Picture	98.313	n/a	2	4	2	n/a	62	61	2	n/a	n/a	n/a	n/a	187.251	AM01HAS.jpg
127.954	0.514	Blank	Blank	97.799	n/a	2	4	2	n/a	62	n/a	2	n/a	n/a	n/a	n/a	187.748	n/a
128.484	0.497	angry	Picture	97.285	n/a	2	4	3	n/a	63	57	2	n/a	n/a	n/a	n/a	188.279	BF28HAS.jpg
128.982	0.514	Blank	Blank	96.771	n/a	2	4	3	n/a	63	n/a	2	n/a	n/a	n/a	n/a	188.776	n/a
129.512	0.497	angry	Picture	96.257	n/a	2	4	4	n/a	64	77	2	n/a	n/a	n/a	n/a	189.307	BM25HAS.jpg
130.01	0.514	Blank	Blank	95.743	n/a	2	4	4	n/a	64	n/a	2	n/a	n/a	n/a	n/a	189.804	n/a
130.54	0.497	angry	Picture	95.229	n/a	2	4	5	n/a	65	47	2	n/a	n/a	n/a	n/a	190.335	BF11HAS.jpg
131.037	0.514	Blank	Blank	94.715	n/a	2	4	5	n/a	65	n/a	2	n/a	n/a	n/a	n/a	190.832	n/a
131.568	0.497	angry	Picture	94.202	n/a	2	4	6	n/a	66	50	2	n/a	n/a	n/a	n/a	191.363	AF18HAS.jpg
132.065	0.514	Blank	Blank	93.687	n/a	2	4	6	n/a	66	n/a	2	n/a	n/a	n/a	n/a	191.86	n/a
132.596	0.497	angry	Picture	93.174	n/a	2	4	7	n/a	67	78	2	n/a	n/a	n/a	n/a	192.391	BM26HAS.jpg
133.093	0.514	Blank	Blank	92.66	n/a	2	4	7	n/a	67	n/a	2	n/a	n/a	n/a	n/a	192.888	n/a
133.624	0.497	angry	Picture	92.146	n/a	2	4	8	n/a	68	45	2	n/a	n/a	n/a	n/a	193.418	BF07HAS.jpg
134.121	0.514	Blank	Blank	91.632	n/a	2	4	8	n/a	68	n/a	2	n/a	n/a	n/a	n/a	193.916	n/a
134.652	0.497	angry	Picture	91.118	n/a	2	4	9	n/a	69	56	2	n/a	n/a	n/a	n/a	194.446	AF26HAS.jpg
135.149	0.514	Blank	Blank	90.604	n/a	2	4	9	n/a	69	n/a	2	n/a	n/a	n/a	n/a	194.944	n/a
135.679	0.497	angry	Picture	90.09	n/a	2	4	10	n/a	70	65	2	n/a	n/a	n/a	n/a	195.474	BM06HAS.jpg
136.177	0.514	Blank	Blank	89.576	n/a	2	4	10	n/a	70	n/a	2	n/a	n/a	n/a	n/a	195.971	n/a
136.707	0.497	angry	Picture	89.062	n/a	2	4	11	n/a	71	73	2	n/a	n/a	n/a	n/a	196.502	AM21HAS.jpg
137.205	0.514	Blank	Blank	88.548	n/a	2	4	11	n/a	71	n/a	2	n/a	n/a	n/a	n/a	196.999	n/a
137.735	0.497	angry	Picture	88.034	n/a	2	4	12	n/a	72	41	2	n/a	n/a	n/a	n/a	197.53	AF01HAS.jpg
138.233	0.514	Blank	Blank	87.52	n/a	2	4	12	n/a	72	n/a	2	n/a	n/a	n/a	n/a	198.027	n/a
138.763	0.497	angry	Picture	87.006	n/a	2	4	13	n/a	73	59	2	n/a	n/a	n/a	n/a	198.558	AF31HAS.jpg
139.261	0.514	Blank	Blank	86.492	n/a	2	4	13	n/a	73	n/a	2	n/a	n/a	n/a	n/a	199.055	n/a
139.791	0.497	angry	Picture	85.978	n/a	2	4	14	n/a	74	64	2	n/a	n/a	n/a	n/a	199.586	BM05HAS.jpg
140.288	0.514	Blank	Blank	85.464	n/a	2	4	14	n/a	74	n/a	2	n/a	n/a	n/a	n/a	200.083	n/a
140.819	0.497	angry	Picture	84.951	n/a	2	4	15	n/a	75	68	2	n/a	n/a	n/a	n/a	200.613	AM09HAS.jpg
141.316	0.514	Blank	Blank	84.437	n/a	2	4	15	n/a	75	n/a	2	n/a	n/a	n/a	n/a	201.111	n/a
141.847	0.497	angry	Picture	83.923	n/a	2	4	16	n/a	76	54	2	n/a	n/a	n/a	n/a	201.641	AF23HAS.jpg
142.344	0.514	Blank	Blank	83.409	n/a	2	4	16	n/a	76	n/a	2	n/a	n/a	n/a	n/a	202.139	n/a
142.875	0.497	angry	Picture	82.895	n/a	2	4	17	n/a	77	53	2	n/a	n/a	n/a	n/a	202.669	BF22HAS.jpg
143.372	0.514	Blank	Blank	82.381	n/a	2	4	17	n/a	77	n/a	2	n/a	n/a	n/a	n/a	203.167	n/a
143.903	0.497	angry	Picture	81.867	n/a	2	4	18	n/a	78	44	2	n/a	n/a	n/a	n/a	203.697	AF05HAS.jpg
144.4	0.514	Blank	Blank	81.353	n/a	2	4	18	n/a	78	n/a	2	n/a	n/a	n/a	n/a	204.195	n/a
144.93	0.497	angry	Picture	80.839	n/a	2	4	19	n/a	79	52	2	n/a	n/a	n/a	n/a	204.725	AF21HAS.jpg
145.428	0.514	Blank	Blank	80.325	n/a	2	4	19	n/a	79	n/a	2	n/a	n/a	n/a	n/a	205.222	n/a
145.958	0.497	angry	Picture	79.811	n/a	2	4	20	n/a	80	62	2	n/a	n/a	n/a	n/a	205.753	BM03HAS.jpg
146.456	0.514	Blank	Blank	79.297	n/a	2	4	20	n/a	80	n/a	2	n/a	n/a	n/a	n/a	206.25	n/a
146.986	10.014	ITI	Fixation+	69.267	n/a	2	n/a	n/a	n/a	n/a	n/a	n/a	n/a	n/a	n/a	n/a	206.781	n/a
157.016	0.497	neutral	Picture	68.753	n/a	2	5	1	n/a	81	23	1	n/a	n/a	n/a	n/a	216.811	AM04NES.jpg
157.514	0.514	Blank	Blank	68.239	n/a	2	5	1	n/a	81	n/a	1	n/a	n/a	n/a	n/a	217.308	n/a
158.044	0.497	neutral	Picture	67.725	n/a	2	5	2	n/a	82	29	1	n/a	n/a	n/a	n/a	217.839	AM10NES.jpg
158.541	0.514	Blank	Blank	67.211	n/a	2	5	2	n/a	82	n/a	1	n/a	n/a	n/a	n/a	218.336	n/a
159.072	0.497	neutral	Picture	66.697	n/a	2	5	3	n/a	83	24	1	n/a	n/a	n/a	n/a	218.867	BM05NES.jpg
159.569	0.514	Blank	Blank	66.183	n/a	2	5	3	n/a	83	n/a	1	n/a	n/a	n/a	n/a	219.364	n/a
160.1	0.497	neutral	Picture	65.669	n/a	2	5	4	n/a	84	12	1	n/a	n/a	n/a	n/a	219.894	AF21NES.jpg
160.597	0.514	Blank	Blank	65.156	n/a	2	5	4	n/a	84	n/a	1	n/a	n/a	n/a	n/a	220.392	n/a
161.128	0.497	neutral	Picture	64.642	n/a	2	5	5	n/a	85	13	1	n/a	n/a	n/a	n/a	220.922	BF22NES.jpg
161.625	0.514	Blank	Blank	64.128	n/a	2	5	5	n/a	85	n/a	1	n/a	n/a	n/a	n/a	221.42	n/a
162.156	0.497	neutral	Picture	63.614	n/a	2	5	6	n/a	86	17	1	n/a	n/a	n/a	n/a	221.95	BF28NES.jpg
162.653	0.514	Blank	Blank	63.1	n/a	2	5	6	n/a	86	n/a	1	n/a	n/a	n/a	n/a	222.448	n/a
163.184	0.497	neutral	Picture	62.586	n/a	2	5	7	n/a	87	4	1	n/a	n/a	n/a	n/a	222.978	AF05NES.jpg
163.681	0.514	Blank	Blank	62.072	n/a	2	5	7	n/a	87	n/a	1	n/a	n/a	n/a	n/a	223.476	n/a
164.211	0.497	neutral	Picture	61.558	n/a	2	5	8	n/a	88	11	1	n/a	n/a	n/a	n/a	224.006	AF20NES.jpg
164.709	0.514	Blank	Blank	61.044	n/a	2	5	8	n/a	88	n/a	1	n/a	n/a	n/a	n/a	224.503	n/a
165.239	0.497	neutral	Picture	60.53	n/a	2	5	9	n/a	89	22	1	n/a	n/a	n/a	n/a	225.034	BM03NES.jpg
165.737	0.514	Blank	Blank	60.016	n/a	2	5	9	n/a	89	n/a	1	n/a	n/a	n/a	n/a	225.531	n/a
166.267	0.497	neutral	Picture	59.502	n/a	2	5	10	n/a	90	15	1	n/a	n/a	n/a	n/a	226.062	AF25NES.jpg
166.765	0.514	Blank	Blank	58.988	n/a	2	5	10	n/a	90	n/a	1	n/a	n/a	n/a	n/a	226.559	n/a
167.295	0.497	neutral	Picture	58.474	n/a	2	5	11	n/a	91	19	1	n/a	n/a	n/a	n/a	227.09	AF31NES.jpg
167.792	0.514	Blank	Blank	57.96	n/a	2	5	11	n/a	91	n/a	1	n/a	n/a	n/a	n/a	227.587	n/a
168.323	0.497	neutral	Picture	57.446	n/a	2	5	12	n/a	92	9	1	n/a	n/a	n/a	n/a	228.118	AF17NES.jpg
168.82	0.514	Blank	Blank	56.932	n/a	2	5	12	n/a	92	n/a	1	n/a	n/a	n/a	n/a	228.615	n/a
169.351	0.497	neutral	Picture	56.419	n/a	2	5	13	n/a	93	14	1	n/a	n/a	n/a	n/a	229.145	AF23NES.jpg
169.848	0.514	Blank	Blank	55.905	n/a	2	5	13	n/a	93	n/a	1	n/a	n/a	n/a	n/a	229.643	n/a
170.379	0.497	neutral	Picture	55.391	n/a	2	5	14	n/a	94	36	1	n/a	n/a	n/a	n/a	230.173	BM24NES.jpg
170.876	0.514	Blank	Blank	54.877	n/a	2	5	14	n/a	94	n/a	1	n/a	n/a	n/a	n/a	230.671	n/a
171.407	0.497	neutral	Picture	54.363	n/a	2	5	15	n/a	95	34	1	n/a	n/a	n/a	n/a	231.201	AM22NES.jpg
171.904	0.514	Blank	Blank	53.849	n/a	2	5	15	n/a	95	n/a	1	n/a	n/a	n/a	n/a	231.699	n/a
172.434	0.497	neutral	Picture	53.335	n/a	2	5	16	n/a	96	10	1	n/a	n/a	n/a	n/a	232.229	AF18NES.jpg
172.932	0.514	Blank	Blank	52.821	n/a	2	5	16	n/a	96	n/a	1	n/a	n/a	n/a	n/a	232.726	n/a
173.462	0.497	neutral	Picture	52.307	n/a	2	5	17	n/a	97	5	1	n/a	n/a	n/a	n/a	233.257	BF07NES.jpg
173.96	0.514	Blank	Blank	51.793	n/a	2	5	17	n/a	97	n/a	1	n/a	n/a	n/a	n/a	233.754	n/a
174.49	0.497	neutral	Picture	51.279	n/a	2	5	18	n/a	98	25	1	n/a	n/a	n/a	n/a	234.285	BM06NES.jpg
174.988	0.514	Blank	Blank	50.765	n/a	2	5	18	n/a	98	n/a	1	n/a	n/a	n/a	n/a	234.782	n/a
175.518	0.497	neutral	Picture	50.251	n/a	2	5	19	n/a	99	39	1	n/a	n/a	n/a	n/a	235.313	AM28NES.jpg
176.016	0.514	Blank	Blank	49.737	n/a	2	5	19	n/a	99	n/a	1	n/a	n/a	n/a	n/a	235.81	n/a
176.546	0.497	neutral	Picture	49.224	n/a	2	5	20	n/a	100	33	1	n/a	n/a	n/a	n/a	236.341	AM21NES.jpg
177.043	0.514	Blank	Blank	48.709	n/a	2	5	20	n/a	100	n/a	1	n/a	n/a	n/a	n/a	236.838	n/a
177.574	10.014	ITI	Fixation+	38.679	n/a	2	n/a	n/a	n/a	n/a	n/a	n/a	n/a	n/a	n/a	n/a	237.369	n/a
187.604	0.497	angry	Picture	38.166	n/a	2	6	1	n/a	101	74	2	n/a	n/a	n/a	n/a	247.399	AM22HAS.jpg
188.101	0.514	Blank	Blank	37.651	n/a	2	6	1	n/a	101	n/a	2	n/a	n/a	n/a	n/a	247.896	n/a
188.632	0.497	angry	Picture	37.138	n/a	2	6	2	n/a	102	76	2	n/a	n/a	n/a	n/a	248.427	BM24HAS.jpg
189.129	0.514	Blank	Blank	36.624	n/a	2	6	2	n/a	102	n/a	2	n/a	n/a	n/a	n/a	248.924	n/a
189.66	0.497	angry	Picture	36.11	n/a	2	6	3	n/a	103	80	2	n/a	n/a	n/a	n/a	249.454	BM35HAS.jpg
190.157	0.514	Blank	Blank	35.596	n/a	2	6	3	n/a	103	n/a	2	n/a	n/a	n/a	n/a	249.952	n/a
190.688	0.497	angry	Picture	35.082	n/a	2	6	4	n/a	104	75	2	n/a	n/a	n/a	n/a	250.482	AM23HAS.jpg
191.185	0.514	Blank	Blank	34.568	n/a	2	6	4	n/a	104	n/a	2	n/a	n/a	n/a	n/a	250.98	n/a
191.715	0.497	angry	Picture	34.054	n/a	2	6	5	n/a	105	49	2	n/a	n/a	n/a	n/a	251.51	AF17HAS.jpg
192.213	0.514	Blank	Blank	33.54	n/a	2	6	5	n/a	105	n/a	2	n/a	n/a	n/a	n/a	252.007	n/a
192.743	0.497	angry	Picture	33.026	n/a	2	6	6	n/a	106	43	2	n/a	n/a	n/a	n/a	252.538	BF04HAS.jpg
193.241	0.514	Blank	Blank	32.512	n/a	2	6	6	n/a	106	n/a	2	n/a	n/a	n/a	n/a	253.035	n/a
193.771	0.497	angry	Picture	31.998	n/a	2	6	7	n/a	107	70	2	n/a	n/a	n/a	n/a	253.566	BM11HAS.jpg
194.269	0.514	Blank	Blank	31.484	n/a	2	6	7	n/a	107	n/a	2	n/a	n/a	n/a	n/a	254.063	n/a
194.799	0.497	angry	Picture	30.97	n/a	2	6	8	n/a	108	66	2	n/a	n/a	n/a	n/a	254.594	BM07HAS.jpg
195.297	0.514	Blank	Blank	30.456	n/a	2	6	8	n/a	108	n/a	2	n/a	n/a	n/a	n/a	255.091	n/a
195.827	0.497	angry	Picture	29.942	n/a	2	6	9	n/a	109	48	2	n/a	n/a	n/a	n/a	255.622	AF14HAS.jpg
196.324	0.514	Blank	Blank	29.428	n/a	2	6	9	n/a	109	n/a	2	n/a	n/a	n/a	n/a	256.119	n/a
196.855	0.497	angry	Picture	28.915	n/a	2	6	10	n/a	110	58	2	n/a	n/a	n/a	n/a	256.649	BF29HAS.jpg
197.352	0.514	Blank	Blank	28.401	n/a	2	6	10	n/a	110	n/a	2	n/a	n/a	n/a	n/a	257.147	n/a
197.883	0.497	angry	Picture	27.887	n/a	2	6	11	n/a	111	63	2	n/a	n/a	n/a	n/a	257.677	AM04HAS.jpg
198.38	0.514	Blank	Blank	27.373	n/a	2	6	11	n/a	111	n/a	2	n/a	n/a	n/a	n/a	258.175	n/a
198.911	0.497	angry	Picture	26.859	n/a	2	6	12	n/a	112	72	2	n/a	n/a	n/a	n/a	258.705	AM14HAS.jpg
199.408	0.514	Blank	Blank	26.345	n/a	2	6	12	n/a	112	n/a	2	n/a	n/a	n/a	n/a	259.203	n/a
199.938	0.497	angry	Picture	25.831	n/a	2	6	13	n/a	113	55	2	n/a	n/a	n/a	n/a	259.733	AF25HAS.jpg
200.436	0.514	Blank	Blank	25.317	n/a	2	6	13	n/a	113	n/a	2	n/a	n/a	n/a	n/a	260.231	n/a
200.966	0.497	angry	Picture	24.803	n/a	2	6	14	n/a	114	42	2	n/a	n/a	n/a	n/a	260.761	AF03HAS.jpg
201.464	0.514	Blank	Blank	24.289	n/a	2	6	14	n/a	114	n/a	2	n/a	n/a	n/a	n/a	261.258	n/a
201.994	0.497	angry	Picture	23.775	n/a	2	6	15	n/a	115	60	2	n/a	n/a	n/a	n/a	261.789	AF32HAS.jpg
202.492	0.514	Blank	Blank	23.261	n/a	2	6	15	n/a	115	n/a	2	n/a	n/a	n/a	n/a	262.286	n/a
203.022	0.497	angry	Picture	22.747	n/a	2	6	16	n/a	116	67	2	n/a	n/a	n/a	n/a	262.817	BM08HAS.jpg
203.519	0.514	Blank	Blank	22.233	n/a	2	6	16	n/a	116	n/a	2	n/a	n/a	n/a	n/a	263.314	n/a
204.05	0.497	angry	Picture	21.719	n/a	2	6	17	n/a	117	51	2	n/a	n/a	n/a	n/a	263.845	AF20HAS.jpg
204.547	0.514	Blank	Blank	21.205	n/a	2	6	17	n/a	117	n/a	2	n/a	n/a	n/a	n/a	264.342	n/a
205.078	0.497	angry	Picture	20.691	n/a	2	6	18	n/a	118	71	2	n/a	n/a	n/a	n/a	264.873	BM12HAS.jpg
205.575	0.514	Blank	Blank	20.178	n/a	2	6	18	n/a	118	n/a	2	n/a	n/a	n/a	n/a	265.37	n/a
206.106	0.497	angry	Picture	19.664	n/a	2	6	19	n/a	119	69	2	n/a	n/a	n/a	n/a	265.9	AM10HAS.jpg
206.603	0.514	Blank	Blank	19.15	n/a	2	6	19	n/a	119	n/a	2	n/a	n/a	n/a	n/a	266.398	n/a
207.134	0.497	angry	Picture	18.636	n/a	2	6	20	n/a	120	46	2	n/a	n/a	n/a	n/a	266.928	AF09HAS.jpg
207.631	0.514	Blank	Blank	18.122	n/a	2	6	20	n/a	120	n/a	2	n/a	n/a	n/a	n/a	267.426	n/a
208.162	10.014	ITI	Fixation+	8.092	n/a	2	n/a	n/a	n/a	n/a	n/a	n/a	n/a	n/a	n/a	n/a	267.956	n/a
226.267	n/a	ConfirmRating	Rate	n/a	8.09	2	n/a	n/a	0	n/a	n/a	n/a	2	Angry	72	52	286.061	n/a
228.663	n/a	ConfirmRating	Rate	n/a	2.371	2	n/a	n/a	1	n/a	n/a	n/a	3	Angry	0	49	288.457	n/a
228.686	15.004	Rest	Picture	n/a	n/a	n/a	n/a	n/a	n/a	n/a	n/a	n/a	0	n/a	0	0	288.481	n/a
243.706	10.014	ITI	Fixation+	99.467	n/a	3	n/a	n/a	n/a	n/a	n/a	n/a	n/a	n/a	n/a	n/a	303.501	n/a
253.736	0.498	happy	Picture	98.953	n/a	3	7	1	n/a	1	108	3	n/a	n/a	n/a	n/a	313.53	AM09ANS.jpg
254.234	0.514	Blank	Blank	98.439	n/a	3	7	1	n/a	1	n/a	3	n/a	n/a	n/a	n/a	314.028	n/a
254.764	0.497	happy	Picture	97.925	n/a	3	7	2	n/a	2	99	3	n/a	n/a	n/a	n/a	314.559	AF31ANS.jpg
255.262	0.514	Blank	Blank	97.411	n/a	3	7	2	n/a	2	n/a	3	n/a	n/a	n/a	n/a	315.056	n/a
255.792	0.497	happy	Picture	96.897	n/a	3	7	3	n/a	3	98	3	n/a	n/a	n/a	n/a	315.587	BF29ANS.jpg
256.289	0.514	Blank	Blank	96.383	n/a	3	7	3	n/a	3	n/a	3	n/a	n/a	n/a	n/a	316.084	n/a
256.82	0.497	happy	Picture	95.869	n/a	3	7	4	n/a	4	107	3	n/a	n/a	n/a	n/a	316.615	BM08ANS.jpg
257.317	0.514	Blank	Blank	95.355	n/a	3	7	4	n/a	4	n/a	3	n/a	n/a	n/a	n/a	317.112	n/a
257.848	0.497	happy	Picture	94.841	n/a	3	7	5	n/a	5	104	3	n/a	n/a	n/a	n/a	317.642	BM05ANS.jpg
258.345	0.514	Blank	Blank	94.327	n/a	3	7	5	n/a	5	n/a	3	n/a	n/a	n/a	n/a	318.14	n/a
258.876	0.497	happy	Picture	93.813	n/a	3	7	6	n/a	6	101	3	n/a	n/a	n/a	n/a	318.67	AM01ANS.jpg
259.373	0.514	Blank	Blank	93.299	n/a	3	7	6	n/a	6	n/a	3	n/a	n/a	n/a	n/a	319.168	n/a
259.904	0.497	happy	Picture	92.785	n/a	3	7	7	n/a	7	103	3	n/a	n/a	n/a	n/a	319.698	AM04ANS.jpg
260.401	0.514	Blank	Blank	92.271	n/a	3	7	7	n/a	7	n/a	3	n/a	n/a	n/a	n/a	320.196	n/a
260.932	0.497	happy	Picture	91.757	n/a	3	7	8	n/a	8	111	3	n/a	n/a	n/a	n/a	320.726	BM12ANS.jpg
261.429	0.514	Blank	Blank	91.243	n/a	3	7	8	n/a	8	n/a	3	n/a	n/a	n/a	n/a	321.224	n/a
261.959	0.497	happy	Picture	90.73	n/a	3	7	9	n/a	9	110	3	n/a	n/a	n/a	n/a	321.754	AM11ANS.jpg
262.457	0.514	Blank	Blank	90.216	n/a	3	7	9	n/a	9	n/a	3	n/a	n/a	n/a	n/a	322.251	n/a
262.987	0.497	happy	Picture	89.702	n/a	3	7	10	n/a	10	85	3	n/a	n/a	n/a	n/a	322.782	BF07ANS.jpg
263.485	0.514	Blank	Blank	89.188	n/a	3	7	10	n/a	10	n/a	3	n/a	n/a	n/a	n/a	323.279	n/a
264.015	0.497	happy	Picture	88.674	n/a	3	7	11	n/a	11	87	3	n/a	n/a	n/a	n/a	323.81	BF11ANS.jpg
264.513	0.514	Blank	Blank	88.16	n/a	3	7	11	n/a	11	n/a	3	n/a	n/a	n/a	n/a	324.307	n/a
265.043	0.497	happy	Picture	87.646	n/a	3	7	12	n/a	12	91	3	n/a	n/a	n/a	n/a	324.838	AF20ANS.jpg
265.54	0.514	Blank	Blank	87.132	n/a	3	7	12	n/a	12	n/a	3	n/a	n/a	n/a	n/a	325.335	n/a
266.071	0.497	happy	Picture	86.618	n/a	3	7	13	n/a	13	115	3	n/a	n/a	n/a	n/a	325.866	AM23ANS.jpg
266.568	0.514	Blank	Blank	86.104	n/a	3	7	13	n/a	13	n/a	3	n/a	n/a	n/a	n/a	326.363	n/a
267.099	0.497	happy	Picture	85.59	n/a	3	7	14	n/a	14	97	3	n/a	n/a	n/a	n/a	326.893	BF28ANS.jpg
267.596	0.514	Blank	Blank	85.076	n/a	3	7	14	n/a	14	n/a	3	n/a	n/a	n/a	n/a	327.391	n/a
268.127	0.497	happy	Picture	84.562	n/a	3	7	15	n/a	15	82	3	n/a	n/a	n/a	n/a	327.921	AF03ANS.jpg
268.624	0.514	Blank	Blank	84.048	n/a	3	7	15	n/a	15	n/a	3	n/a	n/a	n/a	n/a	328.419	n/a
269.155	0.497	happy	Picture	83.534	n/a	3	7	16	n/a	16	96	3	n/a	n/a	n/a	n/a	328.949	AF26ANS.jpg
269.652	0.514	Blank	Blank	83.021	n/a	3	7	16	n/a	16	n/a	3	n/a	n/a	n/a	n/a	329.447	n/a
270.183	0.497	happy	Picture	82.507	n/a	3	7	17	n/a	17	109	3	n/a	n/a	n/a	n/a	329.977	AM10ANS.jpg
270.68	0.514	Blank	Blank	81.993	n/a	3	7	17	n/a	17	n/a	3	n/a	n/a	n/a	n/a	330.474	n/a
271.21	0.497	happy	Picture	81.479	n/a	3	7	18	n/a	18	114	3	n/a	n/a	n/a	n/a	331.005	AM22ANS.jpg
271.708	0.514	Blank	Blank	80.965	n/a	3	7	18	n/a	18	n/a	3	n/a	n/a	n/a	n/a	331.502	n/a
272.238	0.497	happy	Picture	80.451	n/a	3	7	19	n/a	19	120	3	n/a	n/a	n/a	n/a	332.033	AM35ANS.jpg
272.736	0.514	Blank	Blank	79.937	n/a	3	7	19	n/a	19	n/a	3	n/a	n/a	n/a	n/a	332.53	n/a
273.266	0.497	happy	Picture	79.423	n/a	3	7	20	n/a	20	81	3	n/a	n/a	n/a	n/a	333.061	AF01ANS.jpg
273.764	0.514	Blank	Blank	78.909	n/a	3	7	20	n/a	20	n/a	3	n/a	n/a	n/a	n/a	333.558	n/a
274.294	10.014	ITI	Fixation+	68.879	n/a	3	n/a	n/a	n/a	n/a	n/a	n/a	n/a	n/a	n/a	n/a	334.089	n/a
284.324	0.497	neutral	Picture	68.365	n/a	3	8	1	n/a	21	28	1	n/a	n/a	n/a	n/a	344.119	AM09NES.jpg
284.822	0.514	Blank	Blank	67.851	n/a	3	8	1	n/a	21	n/a	1	n/a	n/a	n/a	n/a	344.616	n/a
285.352	0.497	neutral	Picture	67.337	n/a	3	8	2	n/a	22	27	1	n/a	n/a	n/a	n/a	345.147	BM08NES.jpg
285.849	0.514	Blank	Blank	66.823	n/a	3	8	2	n/a	22	n/a	1	n/a	n/a	n/a	n/a	345.644	n/a
286.38	0.497	neutral	Picture	66.309	n/a	3	8	3	n/a	23	16	1	n/a	n/a	n/a	n/a	346.175	AF26NES.jpg
286.877	0.514	Blank	Blank	65.795	n/a	3	8	3	n/a	23	n/a	1	n/a	n/a	n/a	n/a	346.672	n/a
287.408	0.497	neutral	Picture	65.281	n/a	3	8	4	n/a	24	3	1	n/a	n/a	n/a	n/a	347.202	BF04NES.jpg
287.905	0.514	Blank	Blank	64.767	n/a	3	8	4	n/a	24	n/a	1	n/a	n/a	n/a	n/a	347.7	n/a
288.436	0.497	neutral	Picture	64.253	n/a	3	8	5	n/a	25	32	1	n/a	n/a	n/a	n/a	348.23	AM14NES.jpg
288.933	0.514	Blank	Blank	63.74	n/a	3	8	5	n/a	25	n/a	1	n/a	n/a	n/a	n/a	348.728	n/a
289.464	0.497	neutral	Picture	63.225	n/a	3	8	6	n/a	26	37	1	n/a	n/a	n/a	n/a	349.258	BM25NES.jpg
289.961	0.514	Blank	Blank	62.712	n/a	3	8	6	n/a	26	n/a	1	n/a	n/a	n/a	n/a	349.755	n/a
290.491	0.497	neutral	Picture	62.198	n/a	3	8	7	n/a	27	15	1	n/a	n/a	n/a	n/a	350.286	AF25NES.jpg
290.989	0.514	Blank	Blank	61.684	n/a	3	8	7	n/a	27	n/a	1	n/a	n/a	n/a	n/a	350.783	n/a
291.519	0.497	neutral	Picture	61.17	n/a	3	8	8	n/a	28	23	1	n/a	n/a	n/a	n/a	351.314	AM04NES.jpg
292.017	0.514	Blank	Blank	60.656	n/a	3	8	8	n/a	28	n/a	1	n/a	n/a	n/a	n/a	351.811	n/a
292.547	0.497	neutral	Picture	60.142	n/a	3	8	9	n/a	29	34	1	n/a	n/a	n/a	n/a	352.342	AM22NES.jpg
293.044	0.514	Blank	Blank	59.628	n/a	3	8	9	n/a	29	n/a	1	n/a	n/a	n/a	n/a	352.839	n/a
293.575	0.497	neutral	Picture	59.114	n/a	3	8	10	n/a	30	24	1	n/a	n/a	n/a	n/a	353.37	BM05NES.jpg
294.072	0.514	Blank	Blank	58.6	n/a	3	8	10	n/a	30	n/a	1	n/a	n/a	n/a	n/a	353.867	n/a
294.603	0.497	neutral	Picture	58.086	n/a	3	8	11	n/a	31	12	1	n/a	n/a	n/a	n/a	354.397	AF21NES.jpg
295.1	0.514	Blank	Blank	57.572	n/a	3	8	11	n/a	31	n/a	1	n/a	n/a	n/a	n/a	354.895	n/a
295.631	0.497	neutral	Picture	57.058	n/a	3	8	12	n/a	32	6	1	n/a	n/a	n/a	n/a	355.425	AF09NES.jpg
296.128	0.514	Blank	Blank	56.544	n/a	3	8	12	n/a	32	n/a	1	n/a	n/a	n/a	n/a	355.923	n/a
296.659	0.497	neutral	Picture	56.03	n/a	3	8	13	n/a	33	17	1	n/a	n/a	n/a	n/a	356.453	BF28NES.jpg
297.156	0.514	Blank	Blank	55.516	n/a	3	8	13	n/a	33	n/a	1	n/a	n/a	n/a	n/a	356.951	n/a
297.687	0.497	neutral	Picture	55.002	n/a	3	8	14	n/a	34	2	1	n/a	n/a	n/a	n/a	357.481	AF03NES.jpg
298.184	0.514	Blank	Blank	54.489	n/a	3	8	14	n/a	34	n/a	1	n/a	n/a	n/a	n/a	357.978	n/a
298.714	0.497	neutral	Picture	53.975	n/a	3	8	15	n/a	35	9	1	n/a	n/a	n/a	n/a	358.509	AF17NES.jpg
299.212	0.514	Blank	Blank	53.461	n/a	3	8	15	n/a	35	n/a	1	n/a	n/a	n/a	n/a	359.006	n/a
299.742	0.497	neutral	Picture	52.947	n/a	3	8	16	n/a	36	25	1	n/a	n/a	n/a	n/a	359.537	BM06NES.jpg
300.24	0.514	Blank	Blank	52.433	n/a	3	8	16	n/a	36	n/a	1	n/a	n/a	n/a	n/a	360.034	n/a
300.77	0.497	neutral	Picture	51.919	n/a	3	8	17	n/a	37	8	1	n/a	n/a	n/a	n/a	360.565	AF14NES.jpg
301.267	0.514	Blank	Blank	51.405	n/a	3	8	17	n/a	37	n/a	1	n/a	n/a	n/a	n/a	361.062	n/a
301.798	0.497	neutral	Picture	50.891	n/a	3	8	18	n/a	38	19	1	n/a	n/a	n/a	n/a	361.593	AF31NES.jpg
302.295	0.514	Blank	Blank	50.377	n/a	3	8	18	n/a	38	n/a	1	n/a	n/a	n/a	n/a	362.09	n/a
302.826	0.497	neutral	Picture	49.863	n/a	3	8	19	n/a	39	14	1	n/a	n/a	n/a	n/a	362.62	AF23NES.jpg
303.323	0.514	Blank	Blank	49.349	n/a	3	8	19	n/a	39	n/a	1	n/a	n/a	n/a	n/a	363.118	n/a
303.854	0.497	neutral	Picture	48.835	n/a	3	8	20	n/a	40	4	1	n/a	n/a	n/a	n/a	363.648	AF05NES.jpg
304.351	0.514	Blank	Blank	48.321	n/a	3	8	20	n/a	40	n/a	1	n/a	n/a	n/a	n/a	364.146	n/a
304.882	10.014	ITI	Fixation+	38.291	n/a	3	n/a	n/a	n/a	n/a	n/a	n/a	n/a	n/a	n/a	n/a	364.676	n/a
314.912	0.497	happy	Picture	37.777	n/a	3	9	1	n/a	41	84	3	n/a	n/a	n/a	n/a	374.706	AF05ANS.jpg
315.409	0.514	Blank	Blank	37.263	n/a	3	9	1	n/a	41	n/a	3	n/a	n/a	n/a	n/a	375.204	n/a
315.94	0.497	happy	Picture	36.749	n/a	3	9	2	n/a	42	92	3	n/a	n/a	n/a	n/a	375.734	AF21ANS.jpg
316.437	0.514	Blank	Blank	36.235	n/a	3	9	2	n/a	42	n/a	3	n/a	n/a	n/a	n/a	376.232	n/a
316.968	0.497	happy	Picture	35.721	n/a	3	9	3	n/a	43	86	3	n/a	n/a	n/a	n/a	376.762	AF09ANS.jpg
317.465	0.514	Blank	Blank	35.207	n/a	3	9	3	n/a	43	n/a	3	n/a	n/a	n/a	n/a	377.26	n/a
317.995	0.497	happy	Picture	34.694	n/a	3	9	4	n/a	44	93	3	n/a	n/a	n/a	n/a	377.79	BF22ANS.jpg
318.493	0.514	Blank	Blank	34.18	n/a	3	9	4	n/a	44	n/a	3	n/a	n/a	n/a	n/a	378.287	n/a
319.023	0.497	happy	Picture	33.666	n/a	3	9	5	n/a	45	88	3	n/a	n/a	n/a	n/a	378.818	AF14ANS.jpg
319.521	0.514	Blank	Blank	33.152	n/a	3	9	5	n/a	45	n/a	3	n/a	n/a	n/a	n/a	379.315	n/a
320.051	0.497	happy	Picture	32.638	n/a	3	9	6	n/a	46	113	3	n/a	n/a	n/a	n/a	379.846	AM21ANS.jpg
320.549	0.514	Blank	Blank	32.124	n/a	3	9	6	n/a	46	n/a	3	n/a	n/a	n/a	n/a	380.343	n/a
321.079	0.497	happy	Picture	31.61	n/a	3	9	7	n/a	47	95	3	n/a	n/a	n/a	n/a	380.874	AF25ANS.jpg
321.576	0.514	Blank	Blank	31.096	n/a	3	9	7	n/a	47	n/a	3	n/a	n/a	n/a	n/a	381.371	n/a
322.107	0.497	happy	Picture	30.582	n/a	3	9	8	n/a	48	102	3	n/a	n/a	n/a	n/a	381.902	BM03ANS.jpg
322.604	0.514	Blank	Blank	30.068	n/a	3	9	8	n/a	48	n/a	3	n/a	n/a	n/a	n/a	382.399	n/a
323.135	0.497	happy	Picture	29.554	n/a	3	9	9	n/a	49	112	3	n/a	n/a	n/a	n/a	382.929	AM14ANS.jpg
323.632	0.514	Blank	Blank	29.04	n/a	3	9	9	n/a	49	n/a	3	n/a	n/a	n/a	n/a	383.427	n/a
324.163	0.497	happy	Picture	28.526	n/a	3	9	10	n/a	50	83	3	n/a	n/a	n/a	n/a	383.957	BF04ANS.jpg
324.66	0.514	Blank	Blank	28.012	n/a	3	9	10	n/a	50	n/a	3	n/a	n/a	n/a	n/a	384.455	n/a
325.191	0.497	happy	Picture	27.498	n/a	3	9	11	n/a	51	90	3	n/a	n/a	n/a	n/a	384.985	AF18ANS.jpg
325.688	0.514	Blank	Blank	26.985	n/a	3	9	11	n/a	51	n/a	3	n/a	n/a	n/a	n/a	385.483	n/a
326.219	0.497	happy	Picture	26.471	n/a	3	9	12	n/a	52	117	3	n/a	n/a	n/a	n/a	386.013	BM25ANS.jpg
326.716	0.514	Blank	Blank	25.957	n/a	3	9	12	n/a	52	n/a	3	n/a	n/a	n/a	n/a	386.51	n/a
327.246	0.497	happy	Picture	25.443	n/a	3	9	13	n/a	53	94	3	n/a	n/a	n/a	n/a	387.041	AF23ANS.jpg
327.744	0.514	Blank	Blank	24.929	n/a	3	9	13	n/a	53	n/a	3	n/a	n/a	n/a	n/a	387.538	n/a
328.274	0.497	happy	Picture	24.415	n/a	3	9	14	n/a	54	106	3	n/a	n/a	n/a	n/a	388.069	AM07ANS.jpg
328.772	0.514	Blank	Blank	23.901	n/a	3	9	14	n/a	54	n/a	3	n/a	n/a	n/a	n/a	388.566	n/a
329.302	0.497	happy	Picture	23.387	n/a	3	9	15	n/a	55	105	3	n/a	n/a	n/a	n/a	389.097	BM06ANS.jpg
329.8	0.514	Blank	Blank	22.873	n/a	3	9	15	n/a	55	n/a	3	n/a	n/a	n/a	n/a	389.594	n/a
330.33	0.497	happy	Picture	22.359	n/a	3	9	16	n/a	56	116	3	n/a	n/a	n/a	n/a	390.125	BM24ANS.jpg
330.827	0.514	Blank	Blank	21.845	n/a	3	9	16	n/a	56	n/a	3	n/a	n/a	n/a	n/a	390.622	n/a
331.358	0.497	happy	Picture	21.331	n/a	3	9	17	n/a	57	89	3	n/a	n/a	n/a	n/a	391.152	AF17ANS.jpg
331.855	0.514	Blank	Blank	20.817	n/a	3	9	17	n/a	57	n/a	3	n/a	n/a	n/a	n/a	391.65	n/a
332.386	0.497	happy	Picture	20.303	n/a	3	9	18	n/a	58	118	3	n/a	n/a	n/a	n/a	392.18	BM26ANS.jpg
332.883	0.514	Blank	Blank	19.789	n/a	3	9	18	n/a	58	n/a	3	n/a	n/a	n/a	n/a	392.678	n/a
333.414	0.497	happy	Picture	19.275	n/a	3	9	19	n/a	59	100	3	n/a	n/a	n/a	n/a	393.208	AF32ANS.jpg
333.911	0.514	Blank	Blank	18.762	n/a	3	9	19	n/a	59	n/a	3	n/a	n/a	n/a	n/a	393.706	n/a
334.442	0.497	happy	Picture	18.247	n/a	3	9	20	n/a	60	119	3	n/a	n/a	n/a	n/a	394.236	BM28ANS.jpg
334.939	0.514	Blank	Blank	17.734	n/a	3	9	20	n/a	60	n/a	3	n/a	n/a	n/a	n/a	394.733	n/a
335.469	10.014	ITI	Fixation+	7.703	n/a	3	n/a	n/a	n/a	n/a	n/a	n/a	n/a	n/a	n/a	n/a	395.264	n/a
353.186	n/a	ConfirmRating	Rate	n/a	7.692	3	n/a	n/a	0	n/a	n/a	n/a	2	Happy	73	53	412.981	n/a
355.86	n/a	ConfirmRating	Rate	n/a	2.652	3	n/a	n/a	1	n/a	n/a	n/a	3	Happy	0	49	415.655	n/a
355.878	10.014	ITI	Fixation+	96.449	n/a	4	n/a	n/a	n/a	n/a	n/a	n/a	n/a	n/a	n/a	n/a	415.672	n/a
365.908	0.497	angry	Picture	95.935	n/a	4	10	1	n/a	61	79	2	n/a	n/a	n/a	n/a	425.702	BM28HAS.jpg
366.405	0.514	Blank	Blank	95.421	n/a	4	10	1	n/a	61	n/a	2	n/a	n/a	n/a	n/a	426.2	n/a
366.936	0.497	angry	Picture	94.907	n/a	4	10	2	n/a	62	61	2	n/a	n/a	n/a	n/a	426.73	AM01HAS.jpg
367.433	0.514	Blank	Blank	94.393	n/a	4	10	2	n/a	62	n/a	2	n/a	n/a	n/a	n/a	427.228	n/a
367.964	0.497	angry	Picture	93.879	n/a	4	10	3	n/a	63	57	2	n/a	n/a	n/a	n/a	427.758	BF28HAS.jpg
368.461	0.514	Blank	Blank	93.365	n/a	4	10	3	n/a	63	n/a	2	n/a	n/a	n/a	n/a	428.256	n/a
368.991	0.497	angry	Picture	92.851	n/a	4	10	4	n/a	64	77	2	n/a	n/a	n/a	n/a	428.786	BM25HAS.jpg
369.489	0.514	Blank	Blank	92.338	n/a	4	10	4	n/a	64	n/a	2	n/a	n/a	n/a	n/a	429.284	n/a
370.019	0.497	angry	Picture	91.824	n/a	4	10	5	n/a	65	47	2	n/a	n/a	n/a	n/a	429.814	BF11HAS.jpg
370.517	0.514	Blank	Blank	91.31	n/a	4	10	5	n/a	65	n/a	2	n/a	n/a	n/a	n/a	430.311	n/a
371.047	0.497	angry	Picture	90.796	n/a	4	10	6	n/a	66	50	2	n/a	n/a	n/a	n/a	430.842	AF18HAS.jpg
371.545	0.514	Blank	Blank	90.282	n/a	4	10	6	n/a	66	n/a	2	n/a	n/a	n/a	n/a	431.339	n/a
372.075	0.497	angry	Picture	89.768	n/a	4	10	7	n/a	67	78	2	n/a	n/a	n/a	n/a	431.87	BM26HAS.jpg
372.572	0.514	Blank	Blank	89.254	n/a	4	10	7	n/a	67	n/a	2	n/a	n/a	n/a	n/a	432.367	n/a
373.103	0.497	angry	Picture	88.74	n/a	4	10	8	n/a	68	45	2	n/a	n/a	n/a	n/a	432.898	BF07HAS.jpg
373.6	0.514	Blank	Blank	88.226	n/a	4	10	8	n/a	68	n/a	2	n/a	n/a	n/a	n/a	433.395	n/a
374.131	0.497	angry	Picture	87.712	n/a	4	10	9	n/a	69	56	2	n/a	n/a	n/a	n/a	433.925	AF26HAS.jpg
374.628	0.514	Blank	Blank	87.198	n/a	4	10	9	n/a	69	n/a	2	n/a	n/a	n/a	n/a	434.423	n/a
375.159	0.497	angry	Picture	86.684	n/a	4	10	10	n/a	70	65	2	n/a	n/a	n/a	n/a	434.953	BM06HAS.jpg
375.656	0.514	Blank	Blank	86.17	n/a	4	10	10	n/a	70	n/a	2	n/a	n/a	n/a	n/a	435.451	n/a
376.187	0.497	angry	Picture	85.656	n/a	4	10	11	n/a	71	73	2	n/a	n/a	n/a	n/a	435.981	AM21HAS.jpg
376.684	0.514	Blank	Blank	85.142	n/a	4	10	11	n/a	71	n/a	2	n/a	n/a	n/a	n/a	436.479	n/a
377.215	0.497	angry	Picture	84.628	n/a	4	10	12	n/a	72	41	2	n/a	n/a	n/a	n/a	437.009	AF01HAS.jpg
377.712	0.514	Blank	Blank	84.114	n/a	4	10	12	n/a	72	n/a	2	n/a	n/a	n/a	n/a	437.507	n/a
378.242	0.497	angry	Picture	83.601	n/a	4	10	13	n/a	73	59	2	n/a	n/a	n/a	n/a	438.037	AF31HAS.jpg
378.74	0.514	Blank	Blank	83.087	n/a	4	10	13	n/a	73	n/a	2	n/a	n/a	n/a	n/a	438.534	n/a
379.27	0.497	angry	Picture	82.573	n/a	4	10	14	n/a	74	64	2	n/a	n/a	n/a	n/a	439.065	BM05HAS.jpg
379.768	0.514	Blank	Blank	82.059	n/a	4	10	14	n/a	74	n/a	2	n/a	n/a	n/a	n/a	439.562	n/a
380.298	0.497	angry	Picture	81.545	n/a	4	10	15	n/a	75	68	2	n/a	n/a	n/a	n/a	440.093	AM09HAS.jpg
380.796	0.514	Blank	Blank	81.031	n/a	4	10	15	n/a	75	n/a	2	n/a	n/a	n/a	n/a	440.59	n/a
381.326	0.497	angry	Picture	80.517	n/a	4	10	16	n/a	76	54	2	n/a	n/a	n/a	n/a	441.121	AF23HAS.jpg
381.823	0.514	Blank	Blank	80.003	n/a	4	10	16	n/a	76	n/a	2	n/a	n/a	n/a	n/a	441.618	n/a
382.354	0.497	angry	Picture	79.489	n/a	4	10	17	n/a	77	53	2	n/a	n/a	n/a	n/a	442.149	BF22HAS.jpg
382.851	0.514	Blank	Blank	78.975	n/a	4	10	17	n/a	77	n/a	2	n/a	n/a	n/a	n/a	442.646	n/a
383.382	0.497	angry	Picture	78.461	n/a	4	10	18	n/a	78	44	2	n/a	n/a	n/a	n/a	443.176	AF05HAS.jpg
383.879	0.514	Blank	Blank	77.947	n/a	4	10	18	n/a	78	n/a	2	n/a	n/a	n/a	n/a	443.674	n/a
384.41	0.497	angry	Picture	77.433	n/a	4	10	19	n/a	79	52	2	n/a	n/a	n/a	n/a	444.204	AF21HAS.jpg
384.907	0.514	Blank	Blank	76.919	n/a	4	10	19	n/a	79	n/a	2	n/a	n/a	n/a	n/a	444.702	n/a
385.438	0.497	angry	Picture	76.405	n/a	4	10	20	n/a	80	62	2	n/a	n/a	n/a	n/a	445.232	BM03HAS.jpg
385.935	0.514	Blank	Blank	75.892	n/a	4	10	20	n/a	80	n/a	2	n/a	n/a	n/a	n/a	445.73	n/a
386.466	10.014	ITI	Fixation+	65.861	n/a	4	n/a	n/a	n/a	n/a	n/a	n/a	n/a	n/a	n/a	n/a	446.26	n/a
396.496	0.497	neutral	Picture	65.347	n/a	4	11	1	n/a	81	23	1	n/a	n/a	n/a	n/a	456.29	AM04NES.jpg
396.993	0.514	Blank	Blank	64.833	n/a	4	11	1	n/a	81	n/a	1	n/a	n/a	n/a	n/a	456.788	n/a
397.524	0.497	neutral	Picture	64.32	n/a	4	11	2	n/a	82	29	1	n/a	n/a	n/a	n/a	457.318	AM10NES.jpg
398.021	0.514	Blank	Blank	63.806	n/a	4	11	2	n/a	82	n/a	1	n/a	n/a	n/a	n/a	457.815	n/a
398.551	0.497	neutral	Picture	63.292	n/a	4	11	3	n/a	83	24	1	n/a	n/a	n/a	n/a	458.346	BM05NES.jpg
399.049	0.514	Blank	Blank	62.778	n/a	4	11	3	n/a	83	n/a	1	n/a	n/a	n/a	n/a	458.843	n/a
399.579	0.497	neutral	Picture	62.264	n/a	4	11	4	n/a	84	12	1	n/a	n/a	n/a	n/a	459.374	AF21NES.jpg
400.077	0.514	Blank	Blank	61.75	n/a	4	11	4	n/a	84	n/a	1	n/a	n/a	n/a	n/a	459.871	n/a
400.607	0.497	neutral	Picture	61.236	n/a	4	11	5	n/a	85	13	1	n/a	n/a	n/a	n/a	460.402	BF22NES.jpg
401.104	0.514	Blank	Blank	60.722	n/a	4	11	5	n/a	85	n/a	1	n/a	n/a	n/a	n/a	460.899	n/a
401.635	0.497	neutral	Picture	60.208	n/a	4	11	6	n/a	86	17	1	n/a	n/a	n/a	n/a	461.43	BF28NES.jpg
402.132	0.514	Blank	Blank	59.694	n/a	4	11	6	n/a	86	n/a	1	n/a	n/a	n/a	n/a	461.927	n/a
402.663	0.497	neutral	Picture	59.18	n/a	4	11	7	n/a	87	4	1	n/a	n/a	n/a	n/a	462.457	AF05NES.jpg
403.16	0.514	Blank	Blank	58.666	n/a	4	11	7	n/a	87	n/a	1	n/a	n/a	n/a	n/a	462.955	n/a
403.691	0.497	neutral	Picture	58.152	n/a	4	11	8	n/a	88	11	1	n/a	n/a	n/a	n/a	463.485	AF20NES.jpg
404.188	0.514	Blank	Blank	57.638	n/a	4	11	8	n/a	88	n/a	1	n/a	n/a	n/a	n/a	463.983	n/a
404.719	0.497	neutral	Picture	57.124	n/a	4	11	9	n/a	89	22	1	n/a	n/a	n/a	n/a	464.513	BM03NES.jpg
405.216	0.513	Blank	Blank	56.611	n/a	4	11	9	n/a	89	n/a	1	n/a	n/a	n/a	n/a	465.011	n/a
405.746	0.497	neutral	Picture	56.096	n/a	4	11	10	n/a	90	15	1	n/a	n/a	n/a	n/a	465.541	AF25NES.jpg
406.244	0.514	Blank	Blank	55.583	n/a	4	11	10	n/a	90	n/a	1	n/a	n/a	n/a	n/a	466.038	n/a
406.774	0.497	neutral	Picture	55.069	n/a	4	11	11	n/a	91	19	1	n/a	n/a	n/a	n/a	466.569	AF31NES.jpg
407.272	0.514	Blank	Blank	54.555	n/a	4	11	11	n/a	91	n/a	1	n/a	n/a	n/a	n/a	467.066	n/a
407.802	0.497	neutral	Picture	54.041	n/a	4	11	12	n/a	92	9	1	n/a	n/a	n/a	n/a	467.597	AF17NES.jpg
408.3	0.514	Blank	Blank	53.527	n/a	4	11	12	n/a	92	n/a	1	n/a	n/a	n/a	n/a	468.094	n/a
408.83	0.497	neutral	Picture	53.013	n/a	4	11	13	n/a	93	14	1	n/a	n/a	n/a	n/a	468.625	AF23NES.jpg
409.327	0.514	Blank	Blank	52.499	n/a	4	11	13	n/a	93	n/a	1	n/a	n/a	n/a	n/a	469.122	n/a
409.858	0.497	neutral	Picture	51.985	n/a	4	11	14	n/a	94	36	1	n/a	n/a	n/a	n/a	469.653	BM24NES.jpg
410.355	0.514	Blank	Blank	51.471	n/a	4	11	14	n/a	94	n/a	1	n/a	n/a	n/a	n/a	470.15	n/a
410.886	0.497	neutral	Picture	50.957	n/a	4	11	15	n/a	95	34	1	n/a	n/a	n/a	n/a	470.68	AM22NES.jpg
411.383	0.514	Blank	Blank	50.443	n/a	4	11	15	n/a	95	n/a	1	n/a	n/a	n/a	n/a	471.178	n/a
411.914	0.497	neutral	Picture	49.929	n/a	4	11	16	n/a	96	10	1	n/a	n/a	n/a	n/a	471.708	AF18NES.jpg
412.411	0.514	Blank	Blank	49.415	n/a	4	11	16	n/a	96	n/a	1	n/a	n/a	n/a	n/a	472.206	n/a
412.942	0.497	neutral	Picture	48.901	n/a	4	11	17	n/a	97	5	1	n/a	n/a	n/a	n/a	472.736	BF07NES.jpg
413.439	0.514	Blank	Blank	48.387	n/a	4	11	17	n/a	97	n/a	1	n/a	n/a	n/a	n/a	473.234	n/a
413.969	0.497	neutral	Picture	47.873	n/a	4	11	18	n/a	98	25	1	n/a	n/a	n/a	n/a	473.764	BM06NES.jpg
414.467	0.514	Blank	Blank	47.36	n/a	4	11	18	n/a	98	n/a	1	n/a	n/a	n/a	n/a	474.262	n/a
414.997	0.497	neutral	Picture	46.846	n/a	4	11	19	n/a	99	39	1	n/a	n/a	n/a	n/a	474.792	AM28NES.jpg
415.495	0.514	Blank	Blank	46.332	n/a	4	11	19	n/a	99	n/a	1	n/a	n/a	n/a	n/a	475.289	n/a
416.025	0.497	neutral	Picture	45.818	n/a	4	11	20	n/a	100	33	1	n/a	n/a	n/a	n/a	475.82	AM21NES.jpg
416.523	0.514	Blank	Blank	45.304	n/a	4	11	20	n/a	100	n/a	1	n/a	n/a	n/a	n/a	476.317	n/a
417.053	10.014	ITI	Fixation+	35.274	n/a	4	n/a	n/a	n/a	n/a	n/a	n/a	n/a	n/a	n/a	n/a	476.848	n/a
427.083	0.497	angry	Picture	34.76	n/a	4	12	1	n/a	101	74	2	n/a	n/a	n/a	n/a	486.878	AM22HAS.jpg
427.581	0.514	Blank	Blank	34.246	n/a	4	12	1	n/a	101	n/a	2	n/a	n/a	n/a	n/a	487.375	n/a
428.111	0.497	angry	Picture	33.732	n/a	4	12	2	n/a	102	76	2	n/a	n/a	n/a	n/a	487.906	BM24HAS.jpg
428.608	0.514	Blank	Blank	33.218	n/a	4	12	2	n/a	102	n/a	2	n/a	n/a	n/a	n/a	488.403	n/a
429.139	0.497	angry	Picture	32.704	n/a	4	12	3	n/a	103	80	2	n/a	n/a	n/a	n/a	488.934	BM35HAS.jpg
429.636	0.514	Blank	Blank	32.19	n/a	4	12	3	n/a	103	n/a	2	n/a	n/a	n/a	n/a	489.431	n/a
430.167	0.497	angry	Picture	31.676	n/a	4	12	4	n/a	104	75	2	n/a	n/a	n/a	n/a	489.962	AM23HAS.jpg
430.664	0.514	Blank	Blank	31.162	n/a	4	12	4	n/a	104	n/a	2	n/a	n/a	n/a	n/a	490.459	n/a
431.195	0.497	angry	Picture	30.648	n/a	4	12	5	n/a	105	49	2	n/a	n/a	n/a	n/a	490.989	AF17HAS.jpg
431.692	0.514	Blank	Blank	30.134	n/a	4	12	5	n/a	105	n/a	2	n/a	n/a	n/a	n/a	491.487	n/a
432.223	0.497	angry	Picture	29.62	n/a	4	12	6	n/a	106	43	2	n/a	n/a	n/a	n/a	492.017	BF04HAS.jpg
432.72	0.514	Blank	Blank	29.107	n/a	4	12	6	n/a	106	n/a	2	n/a	n/a	n/a	n/a	492.515	n/a
433.251	0.497	angry	Picture	28.592	n/a	4	12	7	n/a	107	70	2	n/a	n/a	n/a	n/a	493.045	BM11HAS.jpg
433.748	0.514	Blank	Blank	28.078	n/a	4	12	7	n/a	107	n/a	2	n/a	n/a	n/a	n/a	493.543	n/a
434.278	0.497	angry	Picture	27.565	n/a	4	12	8	n/a	108	66	2	n/a	n/a	n/a	n/a	494.073	BM07HAS.jpg
434.776	0.514	Blank	Blank	27.051	n/a	4	12	8	n/a	108	n/a	2	n/a	n/a	n/a	n/a	494.57	n/a
435.306	0.497	angry	Picture	26.537	n/a	4	12	9	n/a	109	48	2	n/a	n/a	n/a	n/a	495.101	AF14HAS.jpg
435.804	0.514	Blank	Blank	26.023	n/a	4	12	9	n/a	109	n/a	2	n/a	n/a	n/a	n/a	495.598	n/a
436.334	0.497	angry	Picture	25.509	n/a	4	12	10	n/a	110	58	2	n/a	n/a	n/a	n/a	496.129	BF29HAS.jpg
436.832	0.514	Blank	Blank	24.995	n/a	4	12	10	n/a	110	n/a	2	n/a	n/a	n/a	n/a	496.626	n/a
437.362	0.497	angry	Picture	24.481	n/a	4	12	11	n/a	111	63	2	n/a	n/a	n/a	n/a	497.157	AM04HAS.jpg
437.859	0.514	Blank	Blank	23.967	n/a	4	12	11	n/a	111	n/a	2	n/a	n/a	n/a	n/a	497.654	n/a
438.39	0.497	angry	Picture	23.453	n/a	4	12	12	n/a	112	72	2	n/a	n/a	n/a	n/a	498.185	AM14HAS.jpg
438.887	0.514	Blank	Blank	22.939	n/a	4	12	12	n/a	112	n/a	2	n/a	n/a	n/a	n/a	498.682	n/a
439.418	0.497	angry	Picture	22.425	n/a	4	12	13	n/a	113	55	2	n/a	n/a	n/a	n/a	499.212	AF25HAS.jpg
439.915	0.514	Blank	Blank	21.911	n/a	4	12	13	n/a	113	n/a	2	n/a	n/a	n/a	n/a	499.71	n/a
440.446	0.497	angry	Picture	21.397	n/a	4	12	14	n/a	114	42	2	n/a	n/a	n/a	n/a	500.24	AF03HAS.jpg
440.943	0.514	Blank	Blank	20.883	n/a	4	12	14	n/a	114	n/a	2	n/a	n/a	n/a	n/a	500.738	n/a
441.474	0.497	angry	Picture	20.369	n/a	4	12	15	n/a	115	60	2	n/a	n/a	n/a	n/a	501.268	AF32HAS.jpg
441.971	0.514	Blank	Blank	19.856	n/a	4	12	15	n/a	115	n/a	2	n/a	n/a	n/a	n/a	501.766	n/a
442.502	0.497	angry	Picture	19.342	n/a	4	12	16	n/a	116	67	2	n/a	n/a	n/a	n/a	502.296	BM08HAS.jpg
442.999	0.514	Blank	Blank	18.828	n/a	4	12	16	n/a	116	n/a	2	n/a	n/a	n/a	n/a	502.793	n/a
443.529	0.497	angry	Picture	18.314	n/a	4	12	17	n/a	117	51	2	n/a	n/a	n/a	n/a	503.324	AF20HAS.jpg
444.027	0.514	Blank	Blank	17.8	n/a	4	12	17	n/a	117	n/a	2	n/a	n/a	n/a	n/a	503.821	n/a
444.557	0.497	angry	Picture	17.286	n/a	4	12	18	n/a	118	71	2	n/a	n/a	n/a	n/a	504.352	BM12HAS.jpg
445.055	0.514	Blank	Blank	16.772	n/a	4	12	18	n/a	118	n/a	2	n/a	n/a	n/a	n/a	504.849	n/a
445.585	0.497	angry	Picture	16.258	n/a	4	12	19	n/a	119	69	2	n/a	n/a	n/a	n/a	505.38	AM10HAS.jpg
446.082	0.514	Blank	Blank	15.744	n/a	4	12	19	n/a	119	n/a	2	n/a	n/a	n/a	n/a	505.877	n/a
446.613	0.497	angry	Picture	15.23	n/a	4	12	20	n/a	120	46	2	n/a	n/a	n/a	n/a	506.408	AF09HAS.jpg
447.11	0.514	Blank	Blank	14.716	n/a	4	12	20	n/a	120	n/a	2	n/a	n/a	n/a	n/a	506.905	n/a
447.641	10.014	ITI	Fixation+	4.686	n/a	4	n/a	n/a	n/a	n/a	n/a	n/a	n/a	n/a	n/a	n/a	507.435	n/a
462.34	n/a	ConfirmRating	Rate	n/a	4.675	4	n/a	n/a	0	n/a	n/a	n/a	2	Angry	71	52	522.135	n/a
464.33	n/a	ConfirmRating	Rate	n/a	1.973	4	n/a	n/a	1	n/a	n/a	n/a	3	Angry	0	49	524.125	n/a
