onset	duration	trial_type	trial_number	event_type	cue_to_participant	stimulus_type	time_until_response	rated_success_of_regulation	onset_uncorrected
0.014	10.014	Instruction	-1	Picture	Instruction	n/a	n/a	n/a	32.24
10.044	5.007	ITI	0	Picture	Fixation+	1	12.83	n/a	42.27
15.068	2.006	Cue	0	Picture	Maintain	1	10.807	n/a	47.294
17.074	4.99	Pic	0	Picture	IAPS_26	1	5.817	n/a	49.3
22.064	2.006	Blank	0	Picture	BLANK	1	3.811	n/a	54.29
27.881	n/a	ConfirmRating	0	Response	n/a	1	n/a	7	60.107
27.899	6.002	ITI	1	Picture	Fixation+	2	11.068	n/a	60.126
33.917	2.006	Cue	1	Picture	Enhance	2	9.045	n/a	66.144
35.923	4.99	Pic	1	Picture	IAPS_36	2	4.055	n/a	68.15
40.914	2.006	Blank	1	Picture	BLANK	2	2.049	n/a	73.14
44.968	n/a	ConfirmRating	1	Response	n/a	2	n/a	7	77.195
44.992	4.012	ITI	2	Picture	Fixation+	3	10.698	n/a	77.218
49.021	2.006	Cue	2	Picture	Suppress	3	8.675	n/a	81.247
51.027	4.99	Pic	2	Picture	IAPS_01	3	3.685	n/a	83.253
56.017	2.006	Blank	2	Picture	BLANK	3	1.679	n/a	88.243
59.702	n/a	ConfirmRating	2	Response	n/a	3	n/a	1	91.928
59.73	5.007	ITI	3	Picture	Fixation+	4	11.13	n/a	91.957
64.754	2.006	Cue	3	Picture	Maintain	4	9.107	n/a	96.98
66.76	4.99	Pic	3	Picture	IAPS_46	4	4.117	n/a	98.986
71.75	2.006	Blank	3	Picture	BLANK	4	2.111	n/a	103.976
75.867	n/a	ConfirmRating	3	Response	n/a	4	n/a	7	108.093
75.895	5.007	ITI	4	Picture	Fixation+	4	11.123	n/a	108.121
80.918	2.006	Cue	4	Picture	Maintain	4	9.1	n/a	113.144
82.924	4.99	Pic	4	Picture	IAPS_49	4	4.11	n/a	115.15
87.914	2.006	Blank	4	Picture	BLANK	4	2.104	n/a	120.141
92.025	n/a	ConfirmRating	4	Response	n/a	4	n/a	7	124.251
92.042	6.002	ITI	5	Picture	Fixation+	2	10.931	n/a	124.269
98.06	2.006	Cue	5	Picture	Enhance	2	8.909	n/a	130.287
100.066	4.99	Pic	5	Picture	IAPS_37	2	3.919	n/a	132.293
105.057	2.006	Blank	5	Picture	BLANK	2	1.913	n/a	137.283
108.975	n/a	ConfirmRating	5	Response	n/a	2	n/a	7	141.202
109.002	4.012	ITI	6	Picture	Fixation+	1	10.899	n/a	141.229
113.031	2.006	Cue	6	Picture	Maintain	1	8.876	n/a	145.257
115.037	4.99	Pic	6	Picture	IAPS_27	1	3.886	n/a	147.263
120.027	2.006	Blank	6	Picture	BLANK	1	1.88	n/a	152.253
123.913	n/a	ConfirmRating	6	Response	n/a	1	n/a	7	156.139
123.94	6.002	ITI	7	Picture	Fixation+	3	13.314	n/a	156.166
129.958	2.006	Cue	7	Picture	Suppress	3	11.292	n/a	162.184
131.964	4.99	Pic	7	Picture	IAPS_02	3	6.302	n/a	164.19
136.954	2.006	Blank	7	Picture	BLANK	3	4.296	n/a	169.18
143.256	n/a	ConfirmRating	7	Response	n/a	3	n/a	6	175.482
143.287	5.007	ITI	8	Picture	Fixation+	4	11.063	n/a	175.513
148.31	2.006	Cue	8	Picture	Maintain	4	9.04	n/a	180.537
150.316	4.99	Pic	8	Picture	IAPS_52	4	4.05	n/a	182.543
155.307	2.006	Blank	8	Picture	BLANK	4	2.044	n/a	187.533
159.356	n/a	ConfirmRating	8	Response	n/a	4	n/a	7	191.583
159.385	6.002	ITI	9	Picture	Fixation+	1	10.115	n/a	191.611
165.403	2.006	Cue	9	Picture	Maintain	1	8.092	n/a	197.629
167.409	4.99	Pic	9	Picture	IAPS_28	1	3.102	n/a	199.635
172.399	2.006	Blank	9	Picture	BLANK	1	1.096	n/a	204.625
175.501	n/a	ConfirmRating	9	Response	n/a	1	n/a	5	207.727
175.533	5.007	ITI	10	Picture	Fixation+	2	10.126	n/a	207.759
180.556	2.006	Cue	10	Picture	Enhance	2	8.104	n/a	212.782
182.562	4.99	Pic	10	Picture	IAPS_38	2	3.114	n/a	214.788
187.552	2.006	Blank	10	Picture	BLANK	2	1.107	n/a	219.779
190.666	n/a	ConfirmRating	10	Response	n/a	2	n/a	2	222.892
190.686	4.012	ITI	11	Picture	Fixation+	3	9.837	n/a	222.912
194.714	2.006	Cue	11	Picture	Suppress	3	7.814	n/a	226.94
196.72	4.99	Pic	11	Picture	IAPS_03	3	2.824	n/a	228.946
201.71	2.006	Blank	11	Picture	BLANK	3	0.818	n/a	233.937
204.535	n/a	ConfirmRating	11	Response	n/a	3	n/a	0	236.761
204.562	6.002	ITI	12	Picture	Fixation+	2	10.995	n/a	236.788
210.58	2.006	Cue	12	Picture	Enhance	2	8.972	n/a	242.806
212.586	4.99	Pic	12	Picture	IAPS_39	2	3.982	n/a	244.812
217.576	2.006	Blank	12	Picture	BLANK	2	1.976	n/a	249.803
221.558	n/a	ConfirmRating	12	Response	n/a	2	n/a	7	253.785
221.588	5.007	ITI	13	Picture	Fixation+	1	11.108	n/a	253.815
226.612	2.006	Cue	13	Picture	Maintain	1	9.085	n/a	258.838
228.618	4.99	Pic	13	Picture	IAPS_29	1	4.095	n/a	260.844
233.608	2.006	Blank	13	Picture	BLANK	1	2.089	n/a	265.834
237.703	n/a	ConfirmRating	13	Response	n/a	1	n/a	7	269.929
237.736	4.012	ITI	14	Picture	Fixation+	4	10.808	n/a	269.962
241.765	2.006	Cue	14	Picture	Maintain	4	8.785	n/a	273.991
243.771	4.99	Pic	14	Picture	IAPS_55	4	3.795	n/a	275.997
248.761	2.006	Blank	14	Picture	BLANK	4	1.789	n/a	280.987
252.556	n/a	ConfirmRating	14	Response	n/a	4	n/a	7	284.782
252.574	5.007	ITI	15	Picture	Fixation+	3	10.47	n/a	284.8
257.597	2.006	Cue	15	Picture	Suppress	3	8.447	n/a	289.824
259.603	4.99	Pic	15	Picture	IAPS_04	3	3.457	n/a	291.829
264.594	2.006	Blank	15	Picture	BLANK	3	1.451	n/a	296.82
268.05	n/a	ConfirmRating	15	Response	n/a	3	n/a	5	300.277
268.075	6.002	ITI	16	Picture	Fixation+	2	10.24	n/a	300.301
274.093	2.006	Cue	16	Picture	Enhance	2	8.217	n/a	306.319
276.099	4.99	Pic	16	Picture	IAPS_40	2	3.227	n/a	308.325
281.089	2.006	Blank	16	Picture	BLANK	2	1.221	n/a	313.315
284.316	n/a	ConfirmRating	16	Response	n/a	2	n/a	3	316.542
284.339	6.002	ITI	17	Picture	Fixation+	1	11.441	n/a	316.565
290.357	2.006	Cue	17	Picture	Maintain	1	9.418	n/a	322.583
292.363	4.99	Pic	17	Picture	IAPS_30	1	4.428	n/a	324.589
297.353	2.006	Blank	17	Picture	BLANK	1	2.422	n/a	329.579
301.781	n/a	ConfirmRating	17	Response	n/a	1	n/a	7	334.007
301.813	4.012	ITI	18	Picture	Fixation+	3	10.469	n/a	334.039
305.841	2.006	Cue	18	Picture	Suppress	3	8.446	n/a	338.067
307.847	4.99	Pic	18	Picture	IAPS_05	3	3.456	n/a	340.074
312.837	2.006	Blank	18	Picture	BLANK	3	1.45	n/a	345.064
316.293	n/a	ConfirmRating	18	Response	n/a	3	n/a	1	348.52
316.319	5.007	ITI	19	Picture	Fixation+	4	10.789	n/a	348.545
321.342	2.006	Cue	19	Picture	Maintain	4	8.767	n/a	353.569
323.348	4.99	Pic	19	Picture	IAPS_58	4	3.777	n/a	355.575
328.339	2.006	Blank	19	Picture	BLANK	4	1.771	n/a	360.565
332.115	n/a	ConfirmRating	19	Response	n/a	4	n/a	7	364.341
332.135	6.002	ITI	20	Picture	Fixation+	4	10.303	n/a	364.361
338.153	2.006	Cue	20	Picture	Maintain	4	8.281	n/a	370.379
340.159	4.99	Pic	20	Picture	IAPS_47	4	3.29	n/a	372.385
345.149	2.006	Blank	20	Picture	BLANK	4	1.284	n/a	377.376
348.44	n/a	ConfirmRating	20	Response	n/a	4	n/a	1	380.666
348.465	5.007	ITI	21	Picture	Fixation+	3	11.158	n/a	380.691
353.488	2.006	Cue	21	Picture	Suppress	3	9.135	n/a	385.715
355.495	4.99	Pic	21	Picture	IAPS_06	3	4.145	n/a	387.721
360.485	2.006	Blank	21	Picture	BLANK	3	2.139	n/a	392.711
364.63	n/a	ConfirmRating	21	Response	n/a	3	n/a	7	396.856
364.662	4.012	ITI	22	Picture	Fixation+	1	10.816	n/a	396.889
368.691	2.006	Cue	22	Picture	Maintain	1	8.793	n/a	400.917
370.697	4.99	Pic	22	Picture	IAPS_16	1	3.803	n/a	402.923
375.687	2.006	Blank	22	Picture	BLANK	1	1.797	n/a	407.913
379.49	n/a	ConfirmRating	22	Response	n/a	1	n/a	7	411.717
379.517	4.012	ITI	23	Picture	Fixation+	2	9.696	n/a	411.743
383.546	2.006	Cue	23	Picture	Enhance	2	7.674	n/a	415.772
385.552	4.99	Pic	23	Picture	IAPS_41	2	2.683	n/a	417.778
390.542	2.006	Blank	23	Picture	BLANK	2	0.677	n/a	422.768
393.225	n/a	ConfirmRating	23	Response	n/a	2	n/a	0	425.451
393.244	5.007	ITI	24	Picture	Fixation+	1	11.152	n/a	425.47
398.267	2.006	Cue	24	Picture	Maintain	1	9.129	n/a	430.494
400.274	4.99	Pic	24	Picture	IAPS_17	1	4.139	n/a	432.5
405.264	2.006	Blank	24	Picture	BLANK	1	2.133	n/a	437.49
409.403	n/a	ConfirmRating	24	Response	n/a	1	n/a	7	441.629
409.425	4.012	ITI	25	Picture	Fixation+	2	10.495	n/a	441.651
413.454	2.006	Cue	25	Picture	Enhance	2	8.473	n/a	445.68
415.46	4.99	Pic	25	Picture	IAPS_42	2	3.483	n/a	447.686
420.45	2.006	Blank	25	Picture	BLANK	2	1.477	n/a	452.676
423.933	n/a	ConfirmRating	25	Response	n/a	2	n/a	1	456.159
423.964	6.002	ITI	26	Picture	Fixation+	4	11.322	n/a	456.191
429.983	2.006	Cue	26	Picture	Maintain	4	9.3	n/a	462.209
431.989	4.99	Pic	26	Picture	IAPS_50	4	4.309	n/a	464.215
436.979	2.006	Blank	26	Picture	BLANK	4	2.303	n/a	469.205
441.288	n/a	ConfirmRating	26	Response	n/a	4	n/a	7	473.514
441.306	5.007	ITI	27	Picture	Fixation+	3	10.441	n/a	473.532
446.329	2.006	Cue	27	Picture	Suppress	3	8.419	n/a	478.555
448.335	4.99	Pic	27	Picture	IAPS_07	3	3.428	n/a	480.561
453.325	2.006	Blank	27	Picture	BLANK	3	1.423	n/a	485.552
456.754	n/a	ConfirmRating	27	Response	n/a	3	n/a	1	488.98
456.774	5.007	ITI	28	Picture	Fixation+	2	10.408	n/a	489.0
461.793	2.01	Cue	28	Picture	Enhance	2	8.386	n/a	494.02
463.803	4.99	Pic	28	Picture	IAPS_43	2	3.395	n/a	496.029
468.793	2.006	Blank	28	Picture	BLANK	2	1.389	n/a	501.019
472.189	n/a	ConfirmRating	28	Response	n/a	2	n/a	7	504.415
472.209	4.012	ITI	29	Picture	Fixation+	3	10.281	n/a	504.435
476.237	2.006	Cue	29	Picture	Suppress	3	8.258	n/a	508.463
478.243	4.99	Pic	29	Picture	IAPS_08	3	3.268	n/a	510.469
483.233	2.006	Blank	29	Picture	BLANK	3	1.262	n/a	515.46
486.501	n/a	ConfirmRating	29	Response	n/a	3	n/a	1	518.727
486.532	15.004	Rest	29	Picture	Rest	n/a	-15.035	n/a	518.759
501.553	5.007	ITI	30	Picture	Fixation+	4	11.403	n/a	533.779
506.576	2.006	Cue	30	Picture	Maintain	4	9.381	n/a	538.802
508.582	4.99	Pic	30	Picture	IAPS_53	4	4.39	n/a	540.808
513.572	2.006	Blank	30	Picture	BLANK	4	2.384	n/a	545.799
517.963	n/a	ConfirmRating	30	Response	n/a	4	n/a	7	550.189
517.982	6.002	ITI	31	Picture	Fixation+	1	11.407	n/a	550.208
524.0	2.006	Cue	31	Picture	Maintain	1	9.384	n/a	556.227
526.006	4.99	Pic	31	Picture	IAPS_18	1	4.394	n/a	558.233
530.997	2.006	Blank	31	Picture	BLANK	1	2.388	n/a	563.223
535.39	n/a	ConfirmRating	31	Response	n/a	1	n/a	1	567.617
535.423	4.012	ITI	32	Picture	Fixation+	3	10.431	n/a	567.649
539.452	2.006	Cue	32	Picture	Suppress	3	8.409	n/a	571.678
541.458	4.99	Pic	32	Picture	IAPS_09	3	3.418	n/a	573.684
546.448	2.006	Blank	32	Picture	BLANK	3	1.412	n/a	578.674
549.866	n/a	ConfirmRating	32	Response	n/a	3	n/a	1	582.092
549.896	5.007	ITI	33	Picture	Fixation+	1	11.076	n/a	582.122
554.92	2.006	Cue	33	Picture	Maintain	1	9.053	n/a	587.146
556.926	4.99	Pic	33	Picture	IAPS_19	1	4.063	n/a	589.152
561.916	2.006	Blank	33	Picture	BLANK	1	2.057	n/a	594.142
565.979	n/a	ConfirmRating	33	Response	n/a	1	n/a	7	598.205
566.011	4.012	ITI	34	Picture	Fixation+	2	10.779	n/a	598.237
570.039	2.006	Cue	34	Picture	Enhance	2	8.756	n/a	602.266
572.045	4.99	Pic	34	Picture	IAPS_44	2	3.766	n/a	604.272
577.036	2.006	Blank	34	Picture	BLANK	2	1.76	n/a	609.262
580.802	n/a	ConfirmRating	34	Response	n/a	2	n/a	7	613.028
580.832	6.002	ITI	35	Picture	Fixation+	4	11.027	n/a	613.058
586.85	2.006	Cue	35	Picture	Maintain	4	9.004	n/a	619.076
588.856	4.99	Pic	35	Picture	IAPS_56	4	4.014	n/a	621.082
593.846	2.006	Blank	35	Picture	BLANK	4	2.008	n/a	626.073
597.86	n/a	ConfirmRating	35	Response	n/a	4	n/a	7	630.087
597.892	5.007	ITI	36	Picture	Fixation+	3	10.356	n/a	630.118
602.915	2.006	Cue	36	Picture	Suppress	3	8.333	n/a	635.141
604.921	4.99	Pic	36	Picture	IAPS_10	3	3.343	n/a	637.147
609.911	2.006	Blank	36	Picture	BLANK	3	1.337	n/a	642.137
613.254	n/a	ConfirmRating	36	Response	n/a	3	n/a	1	645.48
613.277	6.001	ITI	37	Picture	Fixation+	4	10.985	n/a	645.503
619.295	2.006	Cue	37	Picture	Maintain	4	8.962	n/a	651.521
621.301	4.99	Pic	37	Picture	IAPS_59	4	3.972	n/a	653.527
626.291	2.006	Blank	37	Picture	BLANK	4	1.966	n/a	658.517
630.263	n/a	ConfirmRating	37	Response	n/a	4	n/a	7	662.489
630.286	5.007	ITI	38	Picture	Fixation+	2	11.714	n/a	662.513
635.31	2.006	Cue	38	Picture	Enhance	2	9.692	n/a	667.536
637.316	4.99	Pic	38	Picture	IAPS_45	2	4.701	n/a	669.542
642.306	2.006	Blank	38	Picture	BLANK	2	2.695	n/a	674.532
647.007	n/a	ConfirmRating	38	Response	n/a	2	n/a	7	679.234
647.031	4.012	ITI	39	Picture	Fixation+	1	10.542	n/a	679.257
651.06	2.006	Cue	39	Picture	Maintain	1	8.52	n/a	683.286
653.066	4.99	Pic	39	Picture	IAPS_20	1	3.529	n/a	685.292
658.056	2.006	Blank	39	Picture	BLANK	1	1.523	n/a	690.282
661.585	n/a	ConfirmRating	39	Response	n/a	1	n/a	1	693.811
661.604	6.001	ITI	40	Picture	Fixation+	4	10.467	n/a	693.83
667.622	2.006	Cue	40	Picture	Maintain	4	8.444	n/a	699.848
669.628	4.99	Pic	40	Picture	IAPS_48	4	3.454	n/a	701.854
674.618	2.006	Blank	40	Picture	BLANK	4	1.448	n/a	706.844
678.072	n/a	ConfirmRating	40	Response	n/a	4	n/a	7	710.298
678.099	5.007	ITI	41	Picture	Fixation+	3	10.114	n/a	710.326
683.123	2.006	Cue	41	Picture	Suppress	3	8.092	n/a	715.349
685.129	4.99	Pic	41	Picture	IAPS_11	3	3.102	n/a	717.355
690.119	2.006	Blank	41	Picture	BLANK	3	1.096	n/a	722.345
693.221	n/a	ConfirmRating	41	Response	n/a	3	n/a	1	725.447
693.252	6.002	ITI	42	Picture	Fixation+	2	10.733	n/a	725.479
699.27	2.006	Cue	42	Picture	Enhance	2	8.711	n/a	731.497
701.276	4.99	Pic	42	Picture	IAPS_31	2	3.721	n/a	733.503
706.267	2.006	Blank	42	Picture	BLANK	2	1.715	n/a	738.493
709.987	n/a	ConfirmRating	42	Response	n/a	2	n/a	7	742.213
710.013	4.012	ITI	43	Picture	Fixation+	1	11.42	n/a	742.24
714.042	2.006	Cue	43	Picture	Maintain	1	9.397	n/a	746.268
716.048	4.99	Pic	43	Picture	IAPS_21	1	4.407	n/a	748.274
721.038	2.006	Blank	43	Picture	BLANK	1	2.401	n/a	753.264
725.445	n/a	ConfirmRating	43	Response	n/a	1	n/a	0	757.671
725.465	5.007	ITI	44	Picture	Fixation+	2	10.909	n/a	757.691
730.488	2.006	Cue	44	Picture	Enhance	2	8.887	n/a	762.714
732.494	4.99	Pic	44	Picture	IAPS_32	2	3.896	n/a	764.72
737.484	2.006	Blank	44	Picture	BLANK	2	1.89	n/a	769.711
741.381	n/a	ConfirmRating	44	Response	n/a	2	n/a	7	773.607
741.413	5.007	ITI	45	Picture	Fixation+	4	10.462	n/a	773.64
746.437	2.006	Cue	45	Picture	Maintain	4	8.44	n/a	778.663
748.443	4.99	Pic	45	Picture	IAPS_51	4	3.449	n/a	780.669
753.433	2.006	Blank	45	Picture	BLANK	4	1.443	n/a	785.659
756.882	n/a	ConfirmRating	45	Response	n/a	4	n/a	7	789.109
756.915	4.012	ITI	46	Picture	Fixation+	3	11.457	n/a	789.141
760.943	2.006	Cue	46	Picture	Suppress	3	9.434	n/a	793.169
762.949	4.99	Pic	46	Picture	IAPS_12	3	4.444	n/a	795.175
767.939	2.006	Blank	46	Picture	BLANK	3	2.438	n/a	800.165
772.383	n/a	ConfirmRating	46	Response	n/a	3	n/a	1	804.609
772.416	5.007	ITI	47	Picture	Fixation+	1	10.702	n/a	804.642
777.439	2.006	Cue	47	Picture	Maintain	1	8.68	n/a	809.665
779.445	4.99	Pic	47	Picture	IAPS_22	1	3.69	n/a	811.671
784.435	2.006	Blank	47	Picture	BLANK	1	1.684	n/a	816.661
788.125	n/a	ConfirmRating	47	Response	n/a	1	n/a	7	820.351
788.149	4.012	ITI	48	Picture	Fixation+	3	10.742	n/a	820.375
792.177	2.006	Cue	48	Picture	Suppress	3	8.719	n/a	824.404
794.183	4.99	Pic	48	Picture	IAPS_13	3	3.729	n/a	826.41
799.174	2.006	Blank	48	Picture	BLANK	3	1.723	n/a	831.4
802.903	n/a	ConfirmRating	48	Response	n/a	3	n/a	1	835.129
802.92	5.007	ITI	49	Picture	Fixation+	4	10.544	n/a	835.147
807.944	2.006	Cue	49	Picture	Maintain	4	8.521	n/a	840.17
809.95	4.99	Pic	49	Picture	IAPS_54	4	3.531	n/a	842.176
814.94	2.006	Blank	49	Picture	BLANK	4	1.525	n/a	847.166
818.471	0.017	ConfirmRating	49	Response	n/a	4	-0.017	7	850.697
818.504	5.007	ITI	50	Picture	Fixation+	1	10.001	n/a	850.731
823.528	2.006	Cue	50	Picture	Maintain	1	7.978	n/a	855.754
825.534	4.99	Pic	50	Picture	IAPS_23	1	2.988	n/a	857.76
830.524	2.006	Blank	50	Picture	BLANK	1	0.982	n/a	862.75
833.512	n/a	ConfirmRating	50	Response	n/a	1	n/a	2	865.738
833.541	4.012	ITI	51	Picture	Fixation+	2	11.181	n/a	865.767
837.57	2.006	Cue	51	Picture	Enhance	2	9.159	n/a	869.796
839.576	4.99	Pic	51	Picture	IAPS_33	2	4.169	n/a	871.802
844.566	2.006	Blank	51	Picture	BLANK	2	2.163	n/a	876.792
848.735	n/a	ConfirmRating	51	Response	n/a	2	n/a	7	880.961
848.761	5.007	ITI	52	Picture	Fixation+	1	10.944	n/a	880.987
853.784	2.006	Cue	52	Picture	Maintain	1	8.922	n/a	886.01
855.79	4.99	Pic	52	Picture	IAPS_24	1	3.931	n/a	888.016
860.78	2.006	Blank	52	Picture	BLANK	1	1.925	n/a	893.006
864.711	n/a	ConfirmRating	52	Response	n/a	1	n/a	7	896.938
864.742	5.007	ITI	53	Picture	Fixation+	4	11.122	n/a	896.968
869.766	2.006	Cue	53	Picture	Maintain	4	9.099	n/a	901.992
871.772	4.99	Pic	53	Picture	IAPS_57	4	4.109	n/a	903.998
876.762	2.006	Blank	53	Picture	BLANK	4	2.103	n/a	908.988
880.871	n/a	ConfirmRating	53	Response	n/a	4	n/a	7	913.097
880.89	6.002	ITI	54	Picture	Fixation+	3	10.561	n/a	913.116
886.908	2.006	Cue	54	Picture	Suppress	3	8.539	n/a	919.134
888.914	4.99	Pic	54	Picture	IAPS_14	3	3.548	n/a	921.14
893.904	2.006	Blank	54	Picture	BLANK	3	1.543	n/a	926.13
897.453	n/a	ConfirmRating	54	Response	n/a	3	n/a	5	929.679
897.485	5.007	ITI	55	Picture	Fixation+	2	11.034	n/a	929.712
902.509	2.006	Cue	55	Picture	Enhance	2	9.012	n/a	934.735
904.515	4.99	Pic	55	Picture	IAPS_34	2	4.022	n/a	936.741
909.505	2.006	Blank	55	Picture	BLANK	2	2.016	n/a	941.731
913.527	n/a	ConfirmRating	55	Response	n/a	2	n/a	7	945.753
913.55	5.007	ITI	56	Picture	Fixation+	1	10.856	n/a	945.776
918.573	2.006	Cue	56	Picture	Maintain	1	8.834	n/a	950.8
920.579	4.99	Pic	56	Picture	IAPS_25	1	3.844	n/a	952.806
925.57	2.006	Blank	56	Picture	BLANK	1	1.838	n/a	957.796
929.413	n/a	ConfirmRating	56	Response	n/a	1	n/a	1	961.639
929.432	6.002	ITI	57	Picture	Fixation+	3	10.562	n/a	961.659
935.451	2.006	Cue	57	Picture	Suppress	3	8.539	n/a	967.677
937.457	4.99	Pic	57	Picture	IAPS_15	3	3.549	n/a	969.683
942.447	2.006	Blank	57	Picture	BLANK	3	1.543	n/a	974.673
945.996	n/a	ConfirmRating	57	Response	n/a	3	n/a	1	978.222
946.028	4.012	ITI	58	Picture	Fixation+	4	11.56	n/a	978.254
950.056	2.006	Cue	58	Picture	Maintain	4	9.537	n/a	982.283
952.062	4.99	Pic	58	Picture	IAPS_60	4	4.547	n/a	984.289
957.053	2.006	Blank	58	Picture	BLANK	4	2.541	n/a	989.279
961.6	n/a	ConfirmRating	58	Response	n/a	4	n/a	7	993.826
961.628	6.001	ITI	59	Picture	Fixation+	2	11.362	n/a	993.855
967.646	2.006	Cue	59	Picture	Enhance	2	9.339	n/a	999.872
969.652	4.99	Pic	59	Picture	IAPS_35	2	4.349	n/a	1001.879
974.643	2.006	Blank	59	Picture	BLANK	2	2.343	n/a	1006.869
978.991	n/a	ConfirmRating	59	Response	n/a	2	n/a	7	1011.217
