onset	duration	trial_type	event_type	trial_number	condition	picture_number	time_until_response	response_time	unpleasantness_rating	onset_uncorrected
0.004	5.521	ITI	Fixation+	0	Pain	n/a	7.977	n/a	n/a	32.473
5.541	3.498	Pic2	Picture	0	Pain	7	4.462	n/a	n/a	38.01
9.039	2.006	Blank	Blank	0	Pain	n/a	2.456	n/a	n/a	41.508
13.501	n/a	ConfirmRating	Rate	0	Pain	7	n/a	1.94	2	45.97
13.532	4.244	ITI	Fixation+	1	Pain	n/a	8.099	n/a	n/a	46.001
17.793	3.498	Pic2	Picture	1	Pain	15	4.584	n/a	n/a	50.262
21.291	2.006	Blank	Blank	1	Pain	n/a	2.578	n/a	n/a	53.76
25.875	n/a	ConfirmRating	Rate	1	Pain	15	n/a	2.062	8	58.344
25.9	5.338	ITI	Fixation+	2	No_Pain	n/a	7.732	n/a	n/a	58.369
31.255	3.498	Pic2	Picture	2	No_Pain	34	4.217	n/a	n/a	63.724
34.753	2.006	Blank	Blank	2	No_Pain	n/a	2.211	n/a	n/a	67.222
38.97	n/a	ConfirmRating	Rate	2	No_Pain	34	n/a	1.695	0	71.439
38.997	4.294	ITI	Fixation+	3	No_Pain	n/a	7.879	n/a	n/a	71.466
43.307	3.498	Pic2	Picture	3	No_Pain	35	4.364	n/a	n/a	75.776
46.806	2.006	Blank	Blank	3	No_Pain	n/a	2.358	n/a	n/a	79.275
51.17	n/a	ConfirmRating	Rate	3	No_Pain	35	n/a	1.841	0	83.639
51.199	4.277	ITI	Fixation+	4	Pain	n/a	8.409	n/a	n/a	83.668
55.493	3.498	Pic2	Picture	4	Pain	6	4.895	n/a	n/a	87.962
58.991	2.006	Blank	Blank	4	Pain	n/a	2.889	n/a	n/a	91.46
63.886	n/a	ConfirmRating	Rate	4	Pain	6	n/a	2.372	12	96.355
63.915	4.941	ITI	Fixation+	5	No_Pain	n/a	7.985	n/a	n/a	96.384
68.872	3.498	Pic2	Picture	5	No_Pain	29	4.47	n/a	n/a	101.341
72.37	2.006	Blank	Blank	5	No_Pain	n/a	2.464	n/a	n/a	104.839
76.841	n/a	ConfirmRating	Rate	5	No_Pain	29	n/a	1.948	0	109.31
76.863	5.587	ITI	Fixation+	6	No_Pain	n/a	7.639	n/a	n/a	109.332
82.467	3.498	Pic2	Picture	6	No_Pain	39	4.125	n/a	n/a	114.936
85.965	2.006	Blank	Blank	6	No_Pain	n/a	2.119	n/a	n/a	118.434
90.089	n/a	ConfirmRating	Rate	6	No_Pain	39	n/a	1.602	0	122.558
90.109	5.04	ITI	Fixation+	7	Pain	n/a	8.207	n/a	n/a	122.579
95.166	3.498	Pic2	Picture	7	Pain	9	4.692	n/a	n/a	127.635
98.664	2.006	Blank	Blank	7	Pain	n/a	2.686	n/a	n/a	131.133
103.356	n/a	ConfirmRating	Rate	7	Pain	9	n/a	2.17	4	135.825
103.389	4.294	ITI	Fixation+	8	Pain	n/a	7.269	n/a	n/a	135.858
107.7	3.498	Pic2	Picture	8	Pain	14	3.754	n/a	n/a	140.169
111.198	2.006	Blank	Blank	8	Pain	n/a	1.748	n/a	n/a	143.667
114.952	n/a	ConfirmRating	Rate	8	Pain	14	n/a	1.232	1	147.421
114.978	5.106	ITI	Fixation+	9	No_Pain	n/a	7.633	n/a	n/a	147.447
120.101	3.498	Pic2	Picture	9	No_Pain	27	4.118	n/a	n/a	152.57
123.599	2.006	Blank	Blank	9	No_Pain	n/a	2.112	n/a	n/a	156.068
127.717	n/a	ConfirmRating	Rate	9	No_Pain	27	n/a	1.596	0	160.186
127.743	5.073	ITI	Fixation+	10	Pain	n/a	6.989	n/a	n/a	160.213
132.833	3.498	Pic2	Picture	10	Pain	20	3.475	n/a	n/a	165.302
136.331	2.006	Blank	Blank	10	Pain	n/a	1.469	n/a	n/a	168.8
139.806	n/a	ConfirmRating	Rate	10	Pain	20	n/a	0.952	0	172.275
139.829	4.642	ITI	Fixation+	11	No_Pain	n/a	6.673	n/a	n/a	172.298
144.488	3.498	Pic2	Picture	11	No_Pain	40	3.159	n/a	n/a	176.957
147.986	2.005	Blank	Blank	11	No_Pain	n/a	1.153	n/a	n/a	180.455
151.145	n/a	ConfirmRating	Rate	11	No_Pain	40	n/a	0.636	0	183.614
151.169	5.206	ITI	Fixation+	12	No_Pain	n/a	9.711	n/a	n/a	183.638
156.392	3.498	Pic2	Picture	12	No_Pain	33	6.196	n/a	n/a	188.861
159.89	2.006	Blank	Blank	12	No_Pain	n/a	4.19	n/a	n/a	192.359
166.086	n/a	ConfirmRating	Rate	12	No_Pain	33	n/a	3.673	0	198.555
166.107	4.675	ITI	Fixation+	13	Pain	n/a	8.39	n/a	n/a	198.576
170.799	3.498	Pic2	Picture	13	Pain	18	4.876	n/a	n/a	203.268
174.297	2.006	Blank	Blank	13	Pain	n/a	2.87	n/a	n/a	206.766
179.172	n/a	ConfirmRating	Rate	13	Pain	18	n/a	2.353	0	211.642
179.204	5.289	ITI	Fixation+	14	No_Pain	n/a	7.866	n/a	n/a	211.673
184.509	3.498	Pic2	Picture	14	No_Pain	31	4.351	n/a	n/a	216.978
188.007	2.006	Blank	Blank	14	No_Pain	n/a	2.345	n/a	n/a	220.476
192.358	n/a	ConfirmRating	Rate	14	No_Pain	31	n/a	1.828	0	224.827
192.384	4.311	ITI	Fixation+	15	Pain	n/a	7.585	n/a	n/a	224.853
196.711	3.498	Pic2	Picture	15	Pain	17	4.071	n/a	n/a	229.18
200.209	2.006	Blank	Blank	15	Pain	n/a	2.065	n/a	n/a	232.679
204.28	n/a	ConfirmRating	Rate	15	Pain	17	n/a	1.548	0	236.749
204.304	4.924	ITI	Fixation+	16	Pain	n/a	6.975	n/a	n/a	236.774
209.245	3.498	Pic2	Picture	16	Pain	11	3.46	n/a	n/a	241.714
212.743	2.006	Blank	Blank	16	Pain	n/a	1.454	n/a	n/a	245.212
216.203	n/a	ConfirmRating	Rate	16	Pain	11	n/a	0.938	0	248.672
216.225	4.659	ITI	Fixation+	17	No_Pain	n/a	7.88	n/a	n/a	248.694
220.9	3.498	Pic2	Picture	17	No_Pain	36	4.365	n/a	n/a	253.369
224.398	2.006	Blank	Blank	17	No_Pain	n/a	2.359	n/a	n/a	256.867
228.763	n/a	ConfirmRating	Rate	17	No_Pain	36	n/a	1.843	2	261.232
228.791	5.587	ITI	Fixation+	18	Pain	n/a	7.883	n/a	n/a	261.26
234.395	3.498	Pic2	Picture	18	Pain	10	4.369	n/a	n/a	266.864
237.893	2.006	Blank	Blank	18	Pain	n/a	2.363	n/a	n/a	270.362
242.262	n/a	ConfirmRating	Rate	18	Pain	10	n/a	1.846	0	274.731
242.287	4.128	ITI	Fixation+	19	No_Pain	n/a	7.251	n/a	n/a	274.756
246.431	3.498	Pic2	Picture	19	No_Pain	23	3.736	n/a	n/a	278.9
249.929	2.006	Blank	Blank	19	No_Pain	n/a	1.73	n/a	n/a	282.398
253.666	n/a	ConfirmRating	Rate	19	No_Pain	23	n/a	1.213	0	286.135
253.693	15.004	Rest	n/a	19	n/a	n/a	-15.031	n/a	n/a	286.162
268.713	4.377	ITI	Fixation+	20	Pain	n/a	7.285	n/a	n/a	301.182
273.106	3.498	Pic2	Picture	20	Pain	1	3.771	n/a	n/a	305.576
276.605	2.006	Blank	Blank	20	Pain	n/a	1.765	n/a	n/a	309.074
280.375	n/a	ConfirmRating	Rate	20	Pain	1	n/a	1.248	0	312.844
280.401	4.476	ITI	Fixation+	21	Pain	n/a	8.672	n/a	n/a	312.87
284.894	3.498	Pic2	Picture	21	Pain	8	5.157	n/a	n/a	317.363
288.392	2.006	Blank	Blank	21	Pain	n/a	3.151	n/a	n/a	320.861
293.549	n/a	ConfirmRating	Rate	21	Pain	8	n/a	2.635	8	326.018
293.581	5.985	ITI	Fixation+	22	No_Pain	n/a	7.978	n/a	n/a	326.05
299.583	3.498	Pic2	Picture	22	No_Pain	22	4.463	n/a	n/a	332.052
303.081	2.006	Blank	Blank	22	No_Pain	n/a	2.457	n/a	n/a	335.55
307.544	n/a	ConfirmRating	Rate	22	No_Pain	22	n/a	1.941	0	340.013
307.574	4.808	ITI	Fixation+	23	Pain	n/a	7.523	n/a	n/a	340.043
312.398	3.498	Pic2	Picture	23	Pain	16	4.008	n/a	n/a	344.868
315.896	2.006	Blank	Blank	23	Pain	n/a	2.002	n/a	n/a	348.366
319.905	n/a	ConfirmRating	Rate	23	Pain	16	n/a	1.486	1	352.374
319.925	5.106	ITI	Fixation+	24	No_Pain	n/a	6.828	n/a	n/a	352.394
325.048	3.498	Pic2	Picture	24	No_Pain	38	3.314	n/a	n/a	357.517
328.546	2.006	Blank	Blank	24	No_Pain	n/a	1.308	n/a	n/a	361.015
331.86	n/a	ConfirmRating	Rate	24	No_Pain	38	n/a	0.791	0	364.329
331.879	5.488	ITI	Fixation+	25	No_Pain	n/a	7.26	n/a	n/a	364.348
337.383	3.498	Pic2	Picture	25	No_Pain	21	3.745	n/a	n/a	369.852
340.881	2.006	Blank	Blank	25	No_Pain	n/a	1.739	n/a	n/a	373.35
344.626	n/a	ConfirmRating	Rate	25	No_Pain	21	n/a	1.222	2	377.095
344.644	4.339	ITI	Fixation+	26	Pain	n/a	7.868	n/a	n/a	377.113
349.004	3.498	Pic2	Picture	26	Pain	5	4.349	n/a	n/a	381.474
352.503	2.006	Blank	Blank	26	Pain	n/a	2.343	n/a	n/a	384.972
356.852	n/a	ConfirmRating	Rate	26	Pain	5	n/a	1.826	0	389.321
356.879	5.438	ITI	Fixation+	27	No_Pain	n/a	8.007	n/a	n/a	389.349
362.334	3.498	Pic2	Picture	27	No_Pain	32	4.492	n/a	n/a	394.803
365.832	2.006	Blank	Blank	27	No_Pain	n/a	2.486	n/a	n/a	398.301
370.324	n/a	ConfirmRating	Rate	27	No_Pain	32	n/a	1.97	5	402.793
370.341	4.161	ITI	Fixation+	28	Pain	n/a	7.407	n/a	n/a	402.81
374.519	3.498	Pic2	Picture	28	Pain	13	3.892	n/a	n/a	406.988
378.017	2.006	Blank	Blank	28	Pain	n/a	1.886	n/a	n/a	410.486
381.909	n/a	ConfirmRating	Rate	28	Pain	13	n/a	1.369	9	414.378
381.93	4.592	ITI	Fixation+	29	No_Pain	n/a	8.286	n/a	n/a	414.399
386.539	3.498	Pic2	Picture	29	No_Pain	28	4.771	n/a	n/a	419.008
390.037	2.006	Blank	Blank	29	No_Pain	n/a	2.765	n/a	n/a	422.506
394.808	n/a	ConfirmRating	Rate	29	No_Pain	28	n/a	2.249	0	427.277
394.828	4.758	ITI	Fixation+	30	Pain	n/a	10.466	n/a	n/a	427.297
399.603	3.498	Pic2	Picture	30	Pain	4	6.951	n/a	n/a	432.072
403.101	2.006	Blank	Blank	30	Pain	n/a	4.945	n/a	n/a	435.57
410.052	n/a	ConfirmRating	Rate	30	Pain	4	n/a	4.429	5	442.521
410.081	5.786	ITI	Fixation+	31	No_Pain	n/a	7.17	n/a	n/a	442.55
415.883	3.498	Pic2	Picture	31	No_Pain	30	3.655	n/a	n/a	448.353
419.381	2.006	Blank	Blank	31	No_Pain	n/a	1.649	n/a	n/a	451.851
423.037	n/a	ConfirmRating	Rate	31	No_Pain	30	n/a	1.132	0	455.506
423.062	4.277	ITI	Fixation+	32	Pain	n/a	8.985	n/a	n/a	455.531
427.356	3.498	Pic2	Picture	32	Pain	3	5.471	n/a	n/a	459.825
430.854	2.006	Blank	Blank	32	Pain	n/a	3.465	n/a	n/a	463.323
436.325	n/a	ConfirmRating	Rate	32	Pain	3	n/a	2.948	5	468.794
436.342	4.327	ITI	Fixation+	33	Pain	n/a	6.775	n/a	n/a	468.811
440.685	3.498	Pic2	Picture	33	Pain	12	3.26	n/a	n/a	473.154
444.183	2.006	Blank	Blank	33	Pain	n/a	1.254	n/a	n/a	476.653
447.444	n/a	ConfirmRating	Rate	33	Pain	12	n/a	0.737	4	479.913
447.466	4.045	ITI	Fixation+	34	No_Pain	n/a	7.126	n/a	n/a	479.935
451.528	3.498	Pic2	Picture	34	No_Pain	26	3.611	n/a	n/a	483.997
455.026	2.006	Blank	Blank	34	No_Pain	n/a	1.605	n/a	n/a	487.495
458.638	n/a	ConfirmRating	Rate	34	No_Pain	26	n/a	1.089	0	491.107
458.657	5.62	ITI	Fixation+	35	Pain	n/a	7.247	n/a	n/a	491.126
464.294	3.498	Pic2	Picture	35	Pain	2	3.733	n/a	n/a	496.763
467.792	2.006	Blank	Blank	35	Pain	n/a	1.727	n/a	n/a	500.261
471.524	n/a	ConfirmRating	Rate	35	Pain	2	n/a	1.21	0	503.993
471.555	4.244	ITI	Fixation+	36	No_Pain	n/a	6.432	n/a	n/a	504.024
475.816	3.498	Pic2	Picture	36	No_Pain	37	2.917	n/a	n/a	508.285
479.314	2.006	Blank	Blank	36	No_Pain	n/a	0.911	n/a	n/a	511.783
482.231	n/a	ConfirmRating	Rate	36	No_Pain	37	n/a	0.395	0	514.7
482.248	4.078	ITI	Fixation+	37	Pain	n/a	6.873	n/a	n/a	514.718
486.343	3.498	Pic2	Picture	37	Pain	19	3.359	n/a	n/a	518.813
489.842	2.006	Blank	Blank	37	Pain	n/a	1.353	n/a	n/a	522.311
493.2	n/a	ConfirmRating	Rate	37	Pain	19	n/a	0.836	2	525.669
493.224	5.239	ITI	Fixation+	38	No_Pain	n/a	6.778	n/a	n/a	525.693
498.479	3.498	Pic2	Picture	38	No_Pain	25	3.264	n/a	n/a	530.948
501.977	2.005	Blank	Blank	38	No_Pain	n/a	1.258	n/a	n/a	534.446
505.241	n/a	ConfirmRating	Rate	38	No_Pain	25	n/a	0.741	0	537.71
505.26	4.36	ITI	Fixation+	39	No_Pain	n/a	6.607	n/a	n/a	537.729
509.637	3.498	Pic2	Picture	39	No_Pain	24	3.092	n/a	n/a	542.106
513.135	2.006	Blank	Blank	39	No_Pain	n/a	1.086	n/a	n/a	545.604
516.227	n/a	ConfirmRating	Rate	39	No_Pain	24	n/a	0.569	0	548.696
