onset	duration	trial_type	trial_number	event_type	cue_to_participant	stimulus_type	time_until_response	rated_success_of_regulation	onset_uncorrected
0.006	10.014	Instruction	-1	Picture	Instruction	n/a	n/a	n/a	30.947
10.036	5.007	ITI	0	Picture	Fixation+	1	12.984	n/a	40.978
15.059	2.006	Cue	0	Picture	Maintain	1	10.962	n/a	46.001
17.065	4.99	Pic	0	Picture	IAPS_26	1	5.972	n/a	48.007
22.056	2.006	Blank	0	Picture	BLANK	1	3.965	n/a	52.997
28.027	n/a	ConfirmRating	0	Response	n/a	1	n/a	7	58.969
28.057	6.002	ITI	1	Picture	Fixation+	2	12.076	n/a	58.999
34.075	2.006	Cue	1	Picture	Enhance	2	10.054	n/a	65.017
36.081	4.99	Pic	1	Picture	IAPS_36	2	5.063	n/a	67.023
41.072	2.006	Blank	1	Picture	BLANK	2	3.057	n/a	72.013
46.135	n/a	ConfirmRating	1	Response	n/a	2	n/a	7	77.077
46.161	4.012	ITI	2	Picture	Fixation+	3	13.156	n/a	77.103
50.19	2.006	Cue	2	Picture	Suppress	3	11.134	n/a	81.132
52.196	4.99	Pic	2	Picture	IAPS_01	3	6.144	n/a	83.138
57.186	2.006	Blank	2	Picture	BLANK	3	4.138	n/a	88.128
63.33	n/a	ConfirmRating	2	Response	n/a	3	n/a	7	94.272
63.353	5.007	ITI	3	Picture	Fixation+	4	11.666	n/a	94.295
68.377	2.006	Cue	3	Picture	Maintain	4	9.644	n/a	99.319
70.383	4.99	Pic	3	Picture	IAPS_46	4	4.653	n/a	101.325
75.373	2.006	Blank	3	Picture	BLANK	4	2.647	n/a	106.315
80.026	n/a	ConfirmRating	3	Response	n/a	4	n/a	7	110.968
80.048	5.007	ITI	4	Picture	Fixation+	4	11.947	n/a	110.99
85.072	2.006	Cue	4	Picture	Maintain	4	9.925	n/a	116.014
87.078	4.99	Pic	4	Picture	IAPS_49	4	4.934	n/a	118.02
92.068	2.006	Blank	4	Picture	BLANK	4	2.928	n/a	123.01
97.002	n/a	ConfirmRating	4	Response	n/a	4	n/a	7	127.944
97.025	6.002	ITI	5	Picture	Fixation+	2	13.247	n/a	127.967
103.043	2.006	Cue	5	Picture	Enhance	2	11.225	n/a	133.985
105.049	4.99	Pic	5	Picture	IAPS_37	2	6.235	n/a	135.991
110.04	2.006	Blank	5	Picture	BLANK	2	4.228	n/a	140.981
116.274	n/a	ConfirmRating	5	Response	n/a	2	n/a	6	147.216
116.306	4.012	ITI	6	Picture	Fixation+	1	12.645	n/a	147.248
120.335	2.006	Cue	6	Picture	Maintain	1	10.623	n/a	151.277
122.341	4.99	Pic	6	Picture	IAPS_27	1	5.633	n/a	153.283
127.331	2.006	Blank	6	Picture	BLANK	1	3.626	n/a	158.273
132.964	n/a	ConfirmRating	6	Response	n/a	1	n/a	7	163.906
132.985	6.002	ITI	7	Picture	Fixation+	3	11.737	n/a	163.927
139.003	2.006	Cue	7	Picture	Suppress	3	9.714	n/a	169.945
141.009	4.99	Pic	7	Picture	IAPS_02	3	4.724	n/a	171.951
145.999	2.006	Blank	7	Picture	BLANK	3	2.718	n/a	176.941
150.723	n/a	ConfirmRating	7	Response	n/a	3	n/a	7	181.665
150.741	5.007	ITI	8	Picture	Fixation+	4	12.891	n/a	181.683
155.764	2.006	Cue	8	Picture	Maintain	4	10.868	n/a	186.706
157.77	4.99	Pic	8	Picture	IAPS_52	4	5.878	n/a	188.712
162.76	2.006	Blank	8	Picture	BLANK	4	3.872	n/a	193.702
168.638	n/a	ConfirmRating	8	Response	n/a	4	n/a	7	199.58
168.662	6.002	ITI	9	Picture	Fixation+	1	12.044	n/a	199.604
174.681	2.006	Cue	9	Picture	Maintain	1	10.022	n/a	205.622
176.687	4.99	Pic	9	Picture	IAPS_28	1	5.032	n/a	207.629
181.677	2.006	Blank	9	Picture	BLANK	1	3.026	n/a	212.619
186.708	n/a	ConfirmRating	9	Response	n/a	1	n/a	7	217.65
186.733	5.007	ITI	10	Picture	Fixation+	2	13.204	n/a	217.675
191.757	2.006	Cue	10	Picture	Enhance	2	11.181	n/a	222.699
193.763	4.99	Pic	10	Picture	IAPS_38	2	6.191	n/a	224.705
198.753	2.006	Blank	10	Picture	BLANK	2	4.185	n/a	229.695
204.944	n/a	ConfirmRating	10	Response	n/a	2	n/a	7	235.886
204.97	4.012	ITI	11	Picture	Fixation+	3	13.104	n/a	235.912
208.999	2.006	Cue	11	Picture	Suppress	3	11.081	n/a	239.941
211.005	4.99	Pic	11	Picture	IAPS_03	3	6.091	n/a	241.947
215.995	2.006	Blank	11	Picture	BLANK	3	4.085	n/a	246.937
222.086	n/a	ConfirmRating	11	Response	n/a	3	n/a	0	253.028
222.113	6.002	ITI	12	Picture	Fixation+	2	13.025	n/a	253.055
228.131	2.006	Cue	12	Picture	Enhance	2	11.003	n/a	259.073
230.137	4.99	Pic	12	Picture	IAPS_39	2	6.013	n/a	261.079
235.127	2.006	Blank	12	Picture	BLANK	2	4.007	n/a	266.069
241.14	n/a	ConfirmRating	12	Response	n/a	2	n/a	6	272.082
241.162	5.007	ITI	13	Picture	Fixation+	1	13.641	n/a	272.104
246.185	2.006	Cue	13	Picture	Maintain	1	11.618	n/a	277.127
248.191	4.99	Pic	13	Picture	IAPS_29	1	6.628	n/a	279.133
253.182	2.006	Blank	13	Picture	BLANK	1	4.622	n/a	284.123
259.81	n/a	ConfirmRating	13	Response	n/a	1	n/a	7	290.751
259.83	4.012	ITI	14	Picture	Fixation+	4	12.813	n/a	290.772
263.858	2.006	Cue	14	Picture	Maintain	4	10.79	n/a	294.8
265.864	4.99	Pic	14	Picture	IAPS_55	4	5.8	n/a	296.806
270.855	2.006	Blank	14	Picture	BLANK	4	3.794	n/a	301.796
276.654	n/a	ConfirmRating	14	Response	n/a	4	n/a	7	307.596
276.674	5.007	ITI	15	Picture	Fixation+	3	12.708	n/a	307.616
281.697	2.006	Cue	15	Picture	Suppress	3	10.685	n/a	312.639
283.703	4.99	Pic	15	Picture	IAPS_04	3	5.695	n/a	314.645
288.693	2.006	Blank	15	Picture	BLANK	3	3.689	n/a	319.635
294.388	n/a	ConfirmRating	15	Response	n/a	3	n/a	7	325.33
294.413	6.002	ITI	16	Picture	Fixation+	2	12.74	n/a	325.355
300.431	2.006	Cue	16	Picture	Enhance	2	10.718	n/a	331.373
302.437	4.99	Pic	16	Picture	IAPS_40	2	5.727	n/a	333.379
307.428	2.006	Blank	16	Picture	BLANK	2	3.721	n/a	338.369
313.155	n/a	ConfirmRating	16	Response	n/a	2	n/a	7	344.097
313.18	6.002	ITI	17	Picture	Fixation+	1	13.246	n/a	344.122
319.199	2.006	Cue	17	Picture	Maintain	1	11.223	n/a	350.14
321.205	4.99	Pic	17	Picture	IAPS_30	1	6.233	n/a	352.147
326.195	2.006	Blank	17	Picture	BLANK	1	4.227	n/a	357.137
332.428	n/a	ConfirmRating	17	Response	n/a	1	n/a	7	363.37
332.445	4.012	ITI	18	Picture	Fixation+	3	11.445	n/a	363.387
336.474	2.006	Cue	18	Picture	Suppress	3	9.422	n/a	367.416
338.48	4.99	Pic	18	Picture	IAPS_05	3	4.432	n/a	369.422
343.47	2.006	Blank	18	Picture	BLANK	3	2.426	n/a	374.412
347.902	n/a	ConfirmRating	18	Response	n/a	3	n/a	7	378.844
347.93	5.007	ITI	19	Picture	Fixation+	4	13.549	n/a	378.872
352.953	2.006	Cue	19	Picture	Maintain	4	11.526	n/a	383.895
354.959	4.99	Pic	19	Picture	IAPS_58	4	6.536	n/a	385.901
359.95	2.006	Blank	19	Picture	BLANK	4	4.53	n/a	390.891
366.486	n/a	ConfirmRating	19	Response	n/a	4	n/a	7	397.427
366.515	6.002	ITI	20	Picture	Fixation+	4	12.252	n/a	397.457
372.533	2.006	Cue	20	Picture	Maintain	4	10.229	n/a	403.475
374.539	4.99	Pic	20	Picture	IAPS_47	4	5.239	n/a	405.481
379.529	2.006	Blank	20	Picture	BLANK	4	3.233	n/a	410.471
384.768	n/a	ConfirmRating	20	Response	n/a	4	n/a	7	415.71
384.801	5.007	ITI	21	Picture	Fixation+	3	13.007	n/a	415.743
389.825	2.006	Cue	21	Picture	Suppress	3	10.984	n/a	420.766
391.831	4.99	Pic	21	Picture	IAPS_06	3	5.994	n/a	422.772
396.821	2.006	Blank	21	Picture	BLANK	3	3.988	n/a	427.763
402.815	n/a	ConfirmRating	21	Response	n/a	3	n/a	6	433.757
402.839	4.012	ITI	22	Picture	Fixation+	1	12.648	n/a	433.781
406.868	2.006	Cue	22	Picture	Maintain	1	10.625	n/a	437.81
408.874	4.99	Pic	22	Picture	IAPS_16	1	5.635	n/a	439.815
413.864	2.006	Blank	22	Picture	BLANK	1	3.629	n/a	444.806
419.499	n/a	ConfirmRating	22	Response	n/a	1	n/a	7	450.441
419.517	4.012	ITI	23	Picture	Fixation+	2	16.208	n/a	450.459
423.546	2.006	Cue	23	Picture	Enhance	2	14.186	n/a	454.488
425.552	4.99	Pic	23	Picture	IAPS_41	2	9.195	n/a	456.494
430.542	2.006	Blank	23	Picture	BLANK	2	7.189	n/a	461.484
439.738	n/a	ConfirmRating	23	Response	n/a	2	n/a	6	470.68
439.76	5.007	ITI	24	Picture	Fixation+	1	11.051	n/a	470.702
444.784	2.006	Cue	24	Picture	Maintain	1	9.029	n/a	475.725
446.79	4.99	Pic	24	Picture	IAPS_17	1	4.039	n/a	477.731
451.78	2.006	Blank	24	Picture	BLANK	1	2.033	n/a	482.722
455.818	n/a	ConfirmRating	24	Response	n/a	1	n/a	7	486.76
455.842	4.012	ITI	25	Picture	Fixation+	2	12.351	n/a	486.784
459.87	2.006	Cue	25	Picture	Enhance	2	10.328	n/a	490.812
461.876	4.99	Pic	25	Picture	IAPS_42	2	5.338	n/a	492.818
466.867	2.006	Blank	25	Picture	BLANK	2	3.332	n/a	497.808
472.204	n/a	ConfirmRating	25	Response	n/a	2	n/a	7	503.146
472.222	6.002	ITI	26	Picture	Fixation+	4	12.618	n/a	503.163
478.24	2.006	Cue	26	Picture	Maintain	4	10.595	n/a	509.182
480.246	4.99	Pic	26	Picture	IAPS_50	4	5.605	n/a	511.188
485.236	2.006	Blank	26	Picture	BLANK	4	3.599	n/a	516.178
490.841	n/a	ConfirmRating	26	Response	n/a	4	n/a	7	521.783
490.873	5.007	ITI	27	Picture	Fixation+	3	11.982	n/a	521.815
495.896	2.006	Cue	27	Picture	Suppress	3	9.96	n/a	526.838
497.902	4.99	Pic	27	Picture	IAPS_07	3	4.969	n/a	528.844
502.892	2.006	Blank	27	Picture	BLANK	3	2.963	n/a	533.834
507.862	n/a	ConfirmRating	27	Response	n/a	3	n/a	7	538.804
507.883	5.007	ITI	28	Picture	Fixation+	2	12.257	n/a	538.825
512.906	2.006	Cue	28	Picture	Enhance	2	10.235	n/a	543.848
514.912	4.99	Pic	28	Picture	IAPS_43	2	5.244	n/a	545.854
519.902	2.006	Blank	28	Picture	BLANK	2	3.238	n/a	550.844
525.147	n/a	ConfirmRating	28	Response	n/a	2	n/a	6	556.089
525.175	4.012	ITI	29	Picture	Fixation+	3	13.351	n/a	556.116
529.203	2.006	Cue	29	Picture	Suppress	3	11.328	n/a	560.145
531.209	4.99	Pic	29	Picture	IAPS_08	3	6.338	n/a	562.151
536.199	2.006	Blank	29	Picture	BLANK	3	4.332	n/a	567.141
542.538	n/a	ConfirmRating	29	Response	n/a	3	n/a	7	573.479
542.566	15.004	Rest	29	Picture	Rest	n/a	-15.032	n/a	573.508
557.586	5.007	ITI	30	Picture	Fixation+	4	11.86	n/a	588.528
562.61	2.006	Cue	30	Picture	Maintain	4	9.838	n/a	593.551
564.616	4.99	Pic	30	Picture	IAPS_53	4	4.847	n/a	595.558
569.606	2.006	Blank	30	Picture	BLANK	4	2.841	n/a	600.548
574.453	n/a	ConfirmRating	30	Response	n/a	4	n/a	7	605.395
574.48	6.002	ITI	31	Picture	Fixation+	1	12.413	n/a	605.422
580.498	2.006	Cue	31	Picture	Maintain	1	10.391	n/a	611.44
582.504	4.99	Pic	31	Picture	IAPS_18	1	5.401	n/a	613.446
587.495	2.006	Blank	31	Picture	BLANK	1	3.395	n/a	618.436
592.895	n/a	ConfirmRating	31	Response	n/a	1	n/a	7	623.837
592.916	4.012	ITI	32	Picture	Fixation+	3	13.73	n/a	623.858
596.945	2.006	Cue	32	Picture	Suppress	3	11.707	n/a	627.886
598.95	4.99	Pic	32	Picture	IAPS_09	3	6.717	n/a	629.892
603.941	2.006	Blank	32	Picture	BLANK	3	4.711	n/a	634.883
610.658	n/a	ConfirmRating	32	Response	n/a	3	n/a	7	641.6
610.688	5.007	ITI	33	Picture	Fixation+	1	12.372	n/a	641.63
615.712	2.006	Cue	33	Picture	Maintain	1	10.349	n/a	646.654
617.718	4.99	Pic	33	Picture	IAPS_19	1	5.359	n/a	648.66
622.708	2.006	Blank	33	Picture	BLANK	1	3.353	n/a	653.65
628.067	n/a	ConfirmRating	33	Response	n/a	1	n/a	7	659.009
628.096	4.012	ITI	34	Picture	Fixation+	2	13.256	n/a	659.038
632.125	2.006	Cue	34	Picture	Enhance	2	11.234	n/a	663.067
634.131	4.99	Pic	34	Picture	IAPS_44	2	6.243	n/a	665.073
639.121	2.006	Blank	34	Picture	BLANK	2	4.237	n/a	670.063
645.364	n/a	ConfirmRating	34	Response	n/a	2	n/a	7	676.306
645.388	6.002	ITI	35	Picture	Fixation+	4	11.719	n/a	676.33
651.406	2.006	Cue	35	Picture	Maintain	4	9.696	n/a	682.348
653.412	4.99	Pic	35	Picture	IAPS_56	4	4.706	n/a	684.354
658.402	2.006	Blank	35	Picture	BLANK	4	2.7	n/a	689.344
663.108	n/a	ConfirmRating	35	Response	n/a	4	n/a	7	694.05
663.127	5.007	ITI	36	Picture	Fixation+	3	11.123	n/a	694.069
668.151	2.006	Cue	36	Picture	Suppress	3	9.1	n/a	699.092
670.157	4.99	Pic	36	Picture	IAPS_10	3	4.11	n/a	701.099
675.147	2.006	Blank	36	Picture	BLANK	3	2.104	n/a	706.089
679.257	n/a	ConfirmRating	36	Response	n/a	3	n/a	5	710.199
679.275	6.002	ITI	37	Picture	Fixation+	4	11.936	n/a	710.217
685.293	2.006	Cue	37	Picture	Maintain	4	9.914	n/a	716.235
687.299	4.99	Pic	37	Picture	IAPS_59	4	4.923	n/a	718.241
692.29	2.006	Blank	37	Picture	BLANK	4	2.917	n/a	723.231
697.213	n/a	ConfirmRating	37	Response	n/a	4	n/a	7	728.155
697.23	5.007	ITI	38	Picture	Fixation+	2	11.575	n/a	728.172
702.253	2.006	Cue	38	Picture	Enhance	2	9.552	n/a	733.195
704.259	4.99	Pic	38	Picture	IAPS_45	2	4.562	n/a	735.201
709.25	2.006	Blank	38	Picture	BLANK	2	2.556	n/a	740.192
713.812	n/a	ConfirmRating	38	Response	n/a	2	n/a	6	744.754
713.842	4.012	ITI	39	Picture	Fixation+	1	12.164	n/a	744.784
717.871	2.006	Cue	39	Picture	Maintain	1	10.142	n/a	748.813
719.877	4.99	Pic	39	Picture	IAPS_20	1	5.152	n/a	750.819
724.867	2.006	Blank	39	Picture	BLANK	1	3.146	n/a	755.809
730.019	n/a	ConfirmRating	39	Response	n/a	1	n/a	7	760.96
730.04	6.002	ITI	40	Picture	Fixation+	4	11.63	n/a	760.981
736.058	2.006	Cue	40	Picture	Maintain	4	9.608	n/a	767.0
738.064	4.99	Pic	40	Picture	IAPS_48	4	4.617	n/a	769.006
743.054	2.006	Blank	40	Picture	BLANK	4	2.611	n/a	773.996
747.671	n/a	ConfirmRating	40	Response	n/a	4	n/a	7	778.613
747.696	5.007	ITI	41	Picture	Fixation+	3	10.351	n/a	778.638
752.719	2.006	Cue	41	Picture	Suppress	3	8.329	n/a	783.661
754.726	4.99	Pic	41	Picture	IAPS_11	3	3.339	n/a	785.667
759.716	2.006	Blank	41	Picture	BLANK	3	1.332	n/a	790.658
763.054	n/a	ConfirmRating	41	Response	n/a	3	n/a	0	793.996
763.081	6.002	ITI	42	Picture	Fixation+	2	12.06	n/a	794.023
769.1	2.006	Cue	42	Picture	Enhance	2	10.038	n/a	800.041
771.105	4.99	Pic	42	Picture	IAPS_31	2	5.047	n/a	802.047
776.096	2.006	Blank	42	Picture	BLANK	2	3.041	n/a	807.038
781.143	n/a	ConfirmRating	42	Response	n/a	2	n/a	7	812.085
781.169	4.012	ITI	43	Picture	Fixation+	1	13.008	n/a	812.111
785.197	2.006	Cue	43	Picture	Maintain	1	10.985	n/a	816.139
787.204	4.99	Pic	43	Picture	IAPS_21	1	5.995	n/a	818.145
792.194	2.006	Blank	43	Picture	BLANK	1	3.989	n/a	823.136
798.189	n/a	ConfirmRating	43	Response	n/a	1	n/a	7	829.131
798.212	5.007	ITI	44	Picture	Fixation+	2	11.656	n/a	829.154
803.235	2.006	Cue	44	Picture	Enhance	2	9.633	n/a	834.177
805.241	4.99	Pic	44	Picture	IAPS_32	2	4.643	n/a	836.183
810.232	2.006	Blank	44	Picture	BLANK	2	2.637	n/a	841.173
814.875	n/a	ConfirmRating	44	Response	n/a	2	n/a	0	845.817
814.907	5.007	ITI	45	Picture	Fixation+	4	11.606	n/a	845.849
819.93	2.006	Cue	45	Picture	Maintain	4	9.583	n/a	850.872
821.936	4.99	Pic	45	Picture	IAPS_51	4	4.593	n/a	852.878
826.927	2.006	Blank	45	Picture	BLANK	4	2.587	n/a	857.868
831.52	n/a	ConfirmRating	45	Response	n/a	4	n/a	7	862.461
831.552	4.012	ITI	46	Picture	Fixation+	3	11.588	n/a	862.494
835.581	2.006	Cue	46	Picture	Suppress	3	9.566	n/a	866.523
837.587	4.99	Pic	46	Picture	IAPS_12	3	4.575	n/a	868.529
842.577	2.006	Blank	46	Picture	BLANK	3	2.569	n/a	873.519
847.152	n/a	ConfirmRating	46	Response	n/a	3	n/a	7	878.094
847.169	5.007	ITI	47	Picture	Fixation+	1	10.125	n/a	878.111
852.193	2.006	Cue	47	Picture	Maintain	1	8.102	n/a	883.135
854.199	4.99	Pic	47	Picture	IAPS_22	1	3.112	n/a	885.141
859.189	2.006	Blank	47	Picture	BLANK	1	1.106	n/a	890.131
862.301	n/a	ConfirmRating	47	Response	n/a	1	n/a	0	893.243
862.322	4.012	ITI	48	Picture	Fixation+	3	11.497	n/a	893.264
866.351	2.006	Cue	48	Picture	Suppress	3	9.474	n/a	897.293
868.357	4.99	Pic	48	Picture	IAPS_13	3	4.484	n/a	899.299
873.347	2.006	Blank	48	Picture	BLANK	3	2.478	n/a	904.289
877.831	n/a	ConfirmRating	48	Response	n/a	3	n/a	7	908.773
877.857	5.007	ITI	49	Picture	Fixation+	4	11.594	n/a	908.799
882.88	2.006	Cue	49	Picture	Maintain	4	9.572	n/a	913.822
884.886	4.99	Pic	49	Picture	IAPS_54	4	4.581	n/a	915.828
889.877	2.006	Blank	49	Picture	BLANK	4	2.575	n/a	920.818
894.458	n/a	ConfirmRating	49	Response	n/a	4	n/a	7	925.4
894.486	5.007	ITI	50	Picture	Fixation+	1	11.874	n/a	925.427
899.509	2.006	Cue	50	Picture	Maintain	1	9.852	n/a	930.451
901.515	4.99	Pic	50	Picture	IAPS_23	1	4.862	n/a	932.457
906.505	2.006	Blank	50	Picture	BLANK	1	2.856	n/a	937.447
911.367	n/a	ConfirmRating	50	Response	n/a	1	n/a	7	942.308
911.396	4.012	ITI	51	Picture	Fixation+	2	11.644	n/a	942.338
915.425	2.006	Cue	51	Picture	Enhance	2	9.621	n/a	946.366
917.431	4.99	Pic	51	Picture	IAPS_33	2	4.631	n/a	948.372
922.421	2.006	Blank	51	Picture	BLANK	2	2.625	n/a	953.363
927.052	n/a	ConfirmRating	51	Response	n/a	2	n/a	6	957.993
927.08	5.007	ITI	52	Picture	Fixation+	1	15.815	n/a	958.021
932.103	2.006	Cue	52	Picture	Maintain	1	13.792	n/a	963.045
934.109	4.99	Pic	52	Picture	IAPS_24	1	8.802	n/a	965.051
939.099	2.006	Blank	52	Picture	BLANK	1	6.796	n/a	970.041
947.901	n/a	ConfirmRating	52	Response	n/a	1	n/a	7	978.843
947.919	5.007	ITI	53	Picture	Fixation+	4	13.949	n/a	978.861
952.943	2.006	Cue	53	Picture	Maintain	4	11.927	n/a	983.884
954.949	4.99	Pic	53	Picture	IAPS_57	4	6.936	n/a	985.89
959.939	2.006	Blank	53	Picture	BLANK	4	4.93	n/a	990.881
966.875	n/a	ConfirmRating	53	Response	n/a	4	n/a	7	997.817
966.902	6.002	ITI	54	Picture	Fixation+	3	11.308	n/a	997.844
972.92	2.006	Cue	54	Picture	Suppress	3	9.286	n/a	1003.862
974.926	4.99	Pic	54	Picture	IAPS_14	3	4.296	n/a	1005.868
979.916	2.006	Blank	54	Picture	BLANK	3	2.29	n/a	1010.858
984.212	n/a	ConfirmRating	54	Response	n/a	3	n/a	7	1015.154
984.244	5.007	ITI	55	Picture	Fixation+	2	13.436	n/a	1015.185
989.267	2.006	Cue	55	Picture	Enhance	2	11.414	n/a	1020.209
991.273	4.99	Pic	55	Picture	IAPS_34	2	6.424	n/a	1022.215
996.263	2.006	Blank	55	Picture	BLANK	2	4.418	n/a	1027.205
1002.687	n/a	ConfirmRating	55	Response	n/a	2	n/a	5	1033.629
1002.712	5.007	ITI	56	Picture	Fixation+	1	12.833	n/a	1033.654
1007.736	2.006	Cue	56	Picture	Maintain	1	10.811	n/a	1038.678
1009.742	4.99	Pic	56	Picture	IAPS_25	1	5.821	n/a	1040.684
1014.732	2.006	Blank	56	Picture	BLANK	1	3.815	n/a	1045.674
1020.553	n/a	ConfirmRating	56	Response	n/a	1	n/a	7	1051.494
1020.584	6.002	ITI	57	Picture	Fixation+	3	12.159	n/a	1051.526
1026.602	2.006	Cue	57	Picture	Suppress	3	10.137	n/a	1057.544
1028.609	4.99	Pic	57	Picture	IAPS_15	3	5.147	n/a	1059.55
1033.599	2.006	Blank	57	Picture	BLANK	3	3.141	n/a	1064.541
1038.745	n/a	ConfirmRating	57	Response	n/a	3	n/a	6	1069.687
1038.771	4.012	ITI	58	Picture	Fixation+	4	11.614	n/a	1069.713
1042.8	2.006	Cue	58	Picture	Maintain	4	9.591	n/a	1073.742
1044.806	4.99	Pic	58	Picture	IAPS_60	4	4.601	n/a	1075.748
1049.796	2.006	Blank	58	Picture	BLANK	4	2.595	n/a	1080.738
1054.397	n/a	ConfirmRating	58	Response	n/a	4	n/a	7	1085.339
1054.422	6.002	ITI	59	Picture	Fixation+	2	13.36	n/a	1085.364
1060.44	2.006	Cue	59	Picture	Enhance	2	11.337	n/a	1091.382
1062.446	4.99	Pic	59	Picture	IAPS_35	2	6.347	n/a	1093.388
1067.436	2.006	Blank	59	Picture	BLANK	2	4.341	n/a	1098.378
1073.783	n/a	ConfirmRating	59	Response	n/a	2	n/a	7	1104.725
