onset	duration	trial_type	event_type	time_until_response	response_time	trial_number	block_num_within_trial	image_seq_num_within_block	question_seq_num_within_block	image_seq_num	picture_number	condition	question_type	block_type	rating	rating_computed	onset_uncorrected	KDEV_imagefile
0.016	10.014	ITI	Fixation+	102.157	n/a	1	n/a	n/a	n/a	n/a	n/a	n/a	n/a	n/a	n/a	n/a	34.213	n/a
10.046	0.497	angry	Picture	101.643	n/a	1	1	1	n/a	1	46	2	n/a	n/a	n/a	n/a	44.243	AF09HAS.jpg
10.544	0.514	Blank	Blank	101.129	n/a	1	1	1	n/a	1	n/a	2	n/a	n/a	n/a	n/a	44.741	n/a
11.074	0.497	angry	Picture	100.615	n/a	1	1	2	n/a	2	69	2	n/a	n/a	n/a	n/a	45.271	AM10HAS.jpg
11.572	0.514	Blank	Blank	100.101	n/a	1	1	2	n/a	2	n/a	2	n/a	n/a	n/a	n/a	45.768	n/a
12.102	0.497	angry	Picture	99.587	n/a	1	1	3	n/a	3	71	2	n/a	n/a	n/a	n/a	46.299	BM12HAS.jpg
12.599	0.514	Blank	Blank	99.073	n/a	1	1	3	n/a	3	n/a	2	n/a	n/a	n/a	n/a	46.796	n/a
13.13	0.497	angry	Picture	98.559	n/a	1	1	4	n/a	4	51	2	n/a	n/a	n/a	n/a	47.327	AF20HAS.jpg
13.627	0.514	Blank	Blank	98.046	n/a	1	1	4	n/a	4	n/a	2	n/a	n/a	n/a	n/a	47.824	n/a
14.158	0.497	angry	Picture	97.532	n/a	1	1	5	n/a	5	67	2	n/a	n/a	n/a	n/a	48.355	BM08HAS.jpg
14.655	0.514	Blank	Blank	97.018	n/a	1	1	5	n/a	5	n/a	2	n/a	n/a	n/a	n/a	48.852	n/a
15.186	0.497	angry	Picture	96.504	n/a	1	1	6	n/a	6	60	2	n/a	n/a	n/a	n/a	49.383	AF32HAS.jpg
15.683	0.514	Blank	Blank	95.99	n/a	1	1	6	n/a	6	n/a	2	n/a	n/a	n/a	n/a	49.88	n/a
16.214	0.497	angry	Picture	95.476	n/a	1	1	7	n/a	7	42	2	n/a	n/a	n/a	n/a	50.41	AF03HAS.jpg
16.711	0.514	Blank	Blank	94.962	n/a	1	1	7	n/a	7	n/a	2	n/a	n/a	n/a	n/a	50.908	n/a
17.242	0.497	angry	Picture	94.448	n/a	1	1	8	n/a	8	55	2	n/a	n/a	n/a	n/a	51.438	AF25HAS.jpg
17.739	0.514	Blank	Blank	93.934	n/a	1	1	8	n/a	8	n/a	2	n/a	n/a	n/a	n/a	51.936	n/a
18.269	0.497	angry	Picture	93.42	n/a	1	1	9	n/a	9	72	2	n/a	n/a	n/a	n/a	52.466	AM14HAS.jpg
18.767	0.514	Blank	Blank	92.906	n/a	1	1	9	n/a	9	n/a	2	n/a	n/a	n/a	n/a	52.964	n/a
19.297	0.497	angry	Picture	92.392	n/a	1	1	10	n/a	10	63	2	n/a	n/a	n/a	n/a	53.494	AM04HAS.jpg
19.795	0.514	Blank	Blank	91.878	n/a	1	1	10	n/a	10	n/a	2	n/a	n/a	n/a	n/a	53.992	n/a
20.325	0.497	angry	Picture	91.364	n/a	1	1	11	n/a	11	58	2	n/a	n/a	n/a	n/a	54.522	BF29HAS.jpg
20.823	0.514	Blank	Blank	90.85	n/a	1	1	11	n/a	11	n/a	2	n/a	n/a	n/a	n/a	55.019	n/a
21.353	0.497	angry	Picture	90.336	n/a	1	1	12	n/a	12	48	2	n/a	n/a	n/a	n/a	55.55	AF14HAS.jpg
21.85	0.514	Blank	Blank	89.823	n/a	1	1	12	n/a	12	n/a	2	n/a	n/a	n/a	n/a	56.047	n/a
22.381	0.497	angry	Picture	89.309	n/a	1	1	13	n/a	13	66	2	n/a	n/a	n/a	n/a	56.578	BM07HAS.jpg
22.878	0.514	Blank	Blank	88.795	n/a	1	1	13	n/a	13	n/a	2	n/a	n/a	n/a	n/a	57.075	n/a
23.409	0.497	angry	Picture	88.281	n/a	1	1	14	n/a	14	70	2	n/a	n/a	n/a	n/a	57.606	BM11HAS.jpg
23.906	0.514	Blank	Blank	87.767	n/a	1	1	14	n/a	14	n/a	2	n/a	n/a	n/a	n/a	58.103	n/a
24.437	0.497	angry	Picture	87.253	n/a	1	1	15	n/a	15	43	2	n/a	n/a	n/a	n/a	58.633	BF04HAS.jpg
24.934	0.514	Blank	Blank	86.739	n/a	1	1	15	n/a	15	n/a	2	n/a	n/a	n/a	n/a	59.131	n/a
25.465	0.497	angry	Picture	86.225	n/a	1	1	16	n/a	16	49	2	n/a	n/a	n/a	n/a	59.661	AF17HAS.jpg
25.962	0.514	Blank	Blank	85.711	n/a	1	1	16	n/a	16	n/a	2	n/a	n/a	n/a	n/a	60.159	n/a
26.492	0.497	angry	Picture	85.197	n/a	1	1	17	n/a	17	75	2	n/a	n/a	n/a	n/a	60.689	AM23HAS.jpg
26.99	0.514	Blank	Blank	84.683	n/a	1	1	17	n/a	17	n/a	2	n/a	n/a	n/a	n/a	61.187	n/a
27.52	0.497	angry	Picture	84.169	n/a	1	1	18	n/a	18	80	2	n/a	n/a	n/a	n/a	61.717	BM35HAS.jpg
28.018	0.514	Blank	Blank	83.655	n/a	1	1	18	n/a	18	n/a	2	n/a	n/a	n/a	n/a	62.215	n/a
28.548	0.497	angry	Picture	83.141	n/a	1	1	19	n/a	19	76	2	n/a	n/a	n/a	n/a	62.745	BM24HAS.jpg
29.046	0.514	Blank	Blank	82.627	n/a	1	1	19	n/a	19	n/a	2	n/a	n/a	n/a	n/a	63.242	n/a
29.576	0.497	angry	Picture	82.113	n/a	1	1	20	n/a	20	74	2	n/a	n/a	n/a	n/a	63.773	AM22HAS.jpg
30.074	0.514	Blank	Blank	81.599	n/a	1	1	20	n/a	20	n/a	2	n/a	n/a	n/a	n/a	64.27	n/a
30.604	10.014	ITI	Fixation+	71.569	n/a	1	n/a	n/a	n/a	n/a	n/a	n/a	n/a	n/a	n/a	n/a	64.801	n/a
40.634	0.497	neutral	Picture	71.055	n/a	1	2	1	n/a	21	33	1	n/a	n/a	n/a	n/a	74.831	AM21NES.jpg
41.131	0.514	Blank	Blank	70.541	n/a	1	2	1	n/a	21	n/a	1	n/a	n/a	n/a	n/a	75.328	n/a
41.662	0.497	neutral	Picture	70.028	n/a	1	2	2	n/a	22	39	1	n/a	n/a	n/a	n/a	75.859	AM28NES.jpg
42.159	0.514	Blank	Blank	69.514	n/a	1	2	2	n/a	22	n/a	1	n/a	n/a	n/a	n/a	76.356	n/a
42.69	0.497	neutral	Picture	69.0	n/a	1	2	3	n/a	23	25	1	n/a	n/a	n/a	n/a	76.887	BM06NES.jpg
43.187	0.514	Blank	Blank	68.486	n/a	1	2	3	n/a	23	n/a	1	n/a	n/a	n/a	n/a	77.384	n/a
43.718	0.497	neutral	Picture	67.972	n/a	1	2	4	n/a	24	5	1	n/a	n/a	n/a	n/a	77.915	BF07NES.jpg
44.215	0.514	Blank	Blank	67.458	n/a	1	2	4	n/a	24	n/a	1	n/a	n/a	n/a	n/a	78.412	n/a
44.746	0.497	neutral	Picture	66.944	n/a	1	2	5	n/a	25	10	1	n/a	n/a	n/a	n/a	78.942	AF18NES.jpg
45.243	0.514	Blank	Blank	66.43	n/a	1	2	5	n/a	25	n/a	1	n/a	n/a	n/a	n/a	79.44	n/a
45.773	0.497	neutral	Picture	65.916	n/a	1	2	6	n/a	26	34	1	n/a	n/a	n/a	n/a	79.97	AM22NES.jpg
46.271	0.514	Blank	Blank	65.402	n/a	1	2	6	n/a	26	n/a	1	n/a	n/a	n/a	n/a	80.468	n/a
46.801	0.497	neutral	Picture	64.888	n/a	1	2	7	n/a	27	36	1	n/a	n/a	n/a	n/a	80.998	BM24NES.jpg
47.299	0.514	Blank	Blank	64.374	n/a	1	2	7	n/a	27	n/a	1	n/a	n/a	n/a	n/a	81.496	n/a
47.829	0.497	neutral	Picture	63.86	n/a	1	2	8	n/a	28	14	1	n/a	n/a	n/a	n/a	82.026	AF23NES.jpg
48.327	0.514	Blank	Blank	63.346	n/a	1	2	8	n/a	28	n/a	1	n/a	n/a	n/a	n/a	82.523	n/a
48.857	0.497	neutral	Picture	62.832	n/a	1	2	9	n/a	29	9	1	n/a	n/a	n/a	n/a	83.054	AF17NES.jpg
49.354	0.514	Blank	Blank	62.318	n/a	1	2	9	n/a	29	n/a	1	n/a	n/a	n/a	n/a	83.551	n/a
49.885	0.497	neutral	Picture	61.804	n/a	1	2	10	n/a	30	19	1	n/a	n/a	n/a	n/a	84.082	AF31NES.jpg
50.382	0.514	Blank	Blank	61.291	n/a	1	2	10	n/a	30	n/a	1	n/a	n/a	n/a	n/a	84.579	n/a
50.913	0.497	neutral	Picture	60.777	n/a	1	2	11	n/a	31	15	1	n/a	n/a	n/a	n/a	85.11	AF25NES.jpg
51.41	0.514	Blank	Blank	60.263	n/a	1	2	11	n/a	31	n/a	1	n/a	n/a	n/a	n/a	85.607	n/a
51.941	0.497	neutral	Picture	59.749	n/a	1	2	12	n/a	32	22	1	n/a	n/a	n/a	n/a	86.138	BM03NES.jpg
52.438	0.514	Blank	Blank	59.235	n/a	1	2	12	n/a	32	n/a	1	n/a	n/a	n/a	n/a	86.635	n/a
52.969	0.497	neutral	Picture	58.721	n/a	1	2	13	n/a	33	11	1	n/a	n/a	n/a	n/a	87.165	AF20NES.jpg
53.466	0.514	Blank	Blank	58.207	n/a	1	2	13	n/a	33	n/a	1	n/a	n/a	n/a	n/a	87.663	n/a
53.996	0.497	neutral	Picture	57.693	n/a	1	2	14	n/a	34	4	1	n/a	n/a	n/a	n/a	88.193	AF05NES.jpg
54.494	0.514	Blank	Blank	57.179	n/a	1	2	14	n/a	34	n/a	1	n/a	n/a	n/a	n/a	88.691	n/a
55.024	0.497	neutral	Picture	56.665	n/a	1	2	15	n/a	35	17	1	n/a	n/a	n/a	n/a	89.221	BF28NES.jpg
55.522	0.514	Blank	Blank	56.151	n/a	1	2	15	n/a	35	n/a	1	n/a	n/a	n/a	n/a	89.719	n/a
56.052	0.497	neutral	Picture	55.637	n/a	1	2	16	n/a	36	13	1	n/a	n/a	n/a	n/a	90.249	BF22NES.jpg
56.55	0.514	Blank	Blank	55.123	n/a	1	2	16	n/a	36	n/a	1	n/a	n/a	n/a	n/a	90.746	n/a
57.08	0.497	neutral	Picture	54.609	n/a	1	2	17	n/a	37	12	1	n/a	n/a	n/a	n/a	91.277	AF21NES.jpg
57.577	0.514	Blank	Blank	54.095	n/a	1	2	17	n/a	37	n/a	1	n/a	n/a	n/a	n/a	91.774	n/a
58.108	0.497	neutral	Picture	53.581	n/a	1	2	18	n/a	38	24	1	n/a	n/a	n/a	n/a	92.305	BM05NES.jpg
58.605	0.514	Blank	Blank	53.067	n/a	1	2	18	n/a	38	n/a	1	n/a	n/a	n/a	n/a	92.802	n/a
59.136	0.497	neutral	Picture	52.554	n/a	1	2	19	n/a	39	29	1	n/a	n/a	n/a	n/a	93.333	AM10NES.jpg
59.633	0.514	Blank	Blank	52.04	n/a	1	2	19	n/a	39	n/a	1	n/a	n/a	n/a	n/a	93.83	n/a
60.164	0.497	neutral	Picture	51.526	n/a	1	2	20	n/a	40	23	1	n/a	n/a	n/a	n/a	94.361	AM04NES.jpg
60.661	0.514	Blank	Blank	51.012	n/a	1	2	20	n/a	40	n/a	1	n/a	n/a	n/a	n/a	94.858	n/a
61.192	10.014	ITI	Fixation+	40.982	n/a	1	n/a	n/a	n/a	n/a	n/a	n/a	n/a	n/a	n/a	n/a	95.388	n/a
71.222	0.497	angry	Picture	40.468	n/a	1	3	1	n/a	41	62	2	n/a	n/a	n/a	n/a	105.419	BM03HAS.jpg
71.719	0.514	Blank	Blank	39.954	n/a	1	3	1	n/a	41	n/a	2	n/a	n/a	n/a	n/a	105.916	n/a
72.25	0.497	angry	Picture	39.44	n/a	1	3	2	n/a	42	52	2	n/a	n/a	n/a	n/a	106.447	AF21HAS.jpg
72.747	0.514	Blank	Blank	38.926	n/a	1	3	2	n/a	42	n/a	2	n/a	n/a	n/a	n/a	106.944	n/a
73.278	0.497	angry	Picture	38.412	n/a	1	3	3	n/a	43	44	2	n/a	n/a	n/a	n/a	107.474	AF05HAS.jpg
73.775	0.514	Blank	Blank	37.898	n/a	1	3	3	n/a	43	n/a	2	n/a	n/a	n/a	n/a	107.972	n/a
74.305	0.497	angry	Picture	37.384	n/a	1	3	4	n/a	44	53	2	n/a	n/a	n/a	n/a	108.502	BF22HAS.jpg
74.803	0.514	Blank	Blank	36.87	n/a	1	3	4	n/a	44	n/a	2	n/a	n/a	n/a	n/a	109.0	n/a
75.333	0.497	angry	Picture	36.356	n/a	1	3	5	n/a	45	54	2	n/a	n/a	n/a	n/a	109.53	AF23HAS.jpg
75.831	0.514	Blank	Blank	35.842	n/a	1	3	5	n/a	45	n/a	2	n/a	n/a	n/a	n/a	110.028	n/a
76.361	0.497	angry	Picture	35.328	n/a	1	3	6	n/a	46	68	2	n/a	n/a	n/a	n/a	110.558	AM09HAS.jpg
76.859	0.514	Blank	Blank	34.814	n/a	1	3	6	n/a	46	n/a	2	n/a	n/a	n/a	n/a	111.055	n/a
77.389	0.497	angry	Picture	34.3	n/a	1	3	7	n/a	47	64	2	n/a	n/a	n/a	n/a	111.586	BM05HAS.jpg
77.886	0.511	Blank	Blank	33.789	n/a	1	3	7	n/a	47	n/a	2	n/a	n/a	n/a	n/a	112.083	n/a
78.417	0.497	angry	Picture	33.273	n/a	1	3	8	n/a	48	59	2	n/a	n/a	n/a	n/a	112.614	AF31HAS.jpg
78.914	0.514	Blank	Blank	32.759	n/a	1	3	8	n/a	48	n/a	2	n/a	n/a	n/a	n/a	113.111	n/a
79.445	0.497	angry	Picture	32.245	n/a	1	3	9	n/a	49	41	2	n/a	n/a	n/a	n/a	113.642	AF01HAS.jpg
79.942	0.514	Blank	Blank	31.731	n/a	1	3	9	n/a	49	n/a	2	n/a	n/a	n/a	n/a	114.139	n/a
80.473	0.497	angry	Picture	31.217	n/a	1	3	10	n/a	50	73	2	n/a	n/a	n/a	n/a	114.669	AM21HAS.jpg
80.97	0.514	Blank	Blank	30.703	n/a	1	3	10	n/a	50	n/a	2	n/a	n/a	n/a	n/a	115.167	n/a
81.501	0.497	angry	Picture	30.189	n/a	1	3	11	n/a	51	65	2	n/a	n/a	n/a	n/a	115.697	BM06HAS.jpg
81.998	0.514	Blank	Blank	29.675	n/a	1	3	11	n/a	51	n/a	2	n/a	n/a	n/a	n/a	116.195	n/a
82.529	0.497	angry	Picture	29.161	n/a	1	3	12	n/a	52	56	2	n/a	n/a	n/a	n/a	116.725	AF26HAS.jpg
83.026	0.514	Blank	Blank	28.647	n/a	1	3	12	n/a	52	n/a	2	n/a	n/a	n/a	n/a	117.223	n/a
83.556	0.497	angry	Picture	28.133	n/a	1	3	13	n/a	53	45	2	n/a	n/a	n/a	n/a	117.753	BF07HAS.jpg
84.054	0.514	Blank	Blank	27.619	n/a	1	3	13	n/a	53	n/a	2	n/a	n/a	n/a	n/a	118.251	n/a
84.584	0.497	angry	Picture	27.105	n/a	1	3	14	n/a	54	78	2	n/a	n/a	n/a	n/a	118.781	BM26HAS.jpg
85.082	0.514	Blank	Blank	26.591	n/a	1	3	14	n/a	54	n/a	2	n/a	n/a	n/a	n/a	119.278	n/a
85.612	0.497	angry	Picture	26.077	n/a	1	3	15	n/a	55	50	2	n/a	n/a	n/a	n/a	119.809	AF18HAS.jpg
86.109	0.514	Blank	Blank	25.563	n/a	1	3	15	n/a	55	n/a	2	n/a	n/a	n/a	n/a	120.306	n/a
86.64	0.497	angry	Picture	25.049	n/a	1	3	16	n/a	56	47	2	n/a	n/a	n/a	n/a	120.837	BF11HAS.jpg
87.137	0.514	Blank	Blank	24.536	n/a	1	3	16	n/a	56	n/a	2	n/a	n/a	n/a	n/a	121.334	n/a
87.668	0.497	angry	Picture	24.022	n/a	1	3	17	n/a	57	77	2	n/a	n/a	n/a	n/a	121.865	BM25HAS.jpg
88.165	0.514	Blank	Blank	23.508	n/a	1	3	17	n/a	57	n/a	2	n/a	n/a	n/a	n/a	122.362	n/a
88.696	0.497	angry	Picture	22.994	n/a	1	3	18	n/a	58	57	2	n/a	n/a	n/a	n/a	122.893	BF28HAS.jpg
89.193	0.514	Blank	Blank	22.48	n/a	1	3	18	n/a	58	n/a	2	n/a	n/a	n/a	n/a	123.39	n/a
89.724	0.497	angry	Picture	21.966	n/a	1	3	19	n/a	59	61	2	n/a	n/a	n/a	n/a	123.92	AM01HAS.jpg
90.221	0.514	Blank	Blank	21.452	n/a	1	3	19	n/a	59	n/a	2	n/a	n/a	n/a	n/a	124.418	n/a
90.751	0.497	angry	Picture	20.938	n/a	1	3	20	n/a	60	79	2	n/a	n/a	n/a	n/a	124.948	BM28HAS.jpg
91.249	0.514	Blank	Blank	20.424	n/a	1	3	20	n/a	60	n/a	2	n/a	n/a	n/a	n/a	125.446	n/a
91.779	10.014	ITI	Fixation+	10.394	n/a	1	n/a	n/a	n/a	n/a	n/a	n/a	n/a	n/a	n/a	n/a	125.976	n/a
112.187	n/a	ConfirmRating	Rate	n/a	10.362	1	n/a	n/a	0	n/a	n/a	n/a	2	Angry	25	48	146.384	n/a
120.357	n/a	ConfirmRating	Rate	n/a	8.156	1	n/a	n/a	1	n/a	n/a	n/a	3	Angry	77	52	154.553	n/a
120.378	10.014	ITI	Fixation+	97.058	n/a	2	n/a	n/a	n/a	n/a	n/a	n/a	n/a	n/a	n/a	n/a	154.575	n/a
130.408	0.497	happy	Picture	96.545	n/a	2	4	1	n/a	61	119	3	n/a	n/a	n/a	n/a	164.605	BM28ANS.jpg
130.905	0.514	Blank	Blank	96.031	n/a	2	4	1	n/a	61	n/a	3	n/a	n/a	n/a	n/a	165.102	n/a
131.436	0.497	happy	Picture	95.517	n/a	2	4	2	n/a	62	100	3	n/a	n/a	n/a	n/a	165.632	AF32ANS.jpg
131.933	0.514	Blank	Blank	95.003	n/a	2	4	2	n/a	62	n/a	3	n/a	n/a	n/a	n/a	166.13	n/a
132.464	0.497	happy	Picture	94.489	n/a	2	4	3	n/a	63	118	3	n/a	n/a	n/a	n/a	166.66	BM26ANS.jpg
132.961	0.514	Blank	Blank	93.975	n/a	2	4	3	n/a	63	n/a	3	n/a	n/a	n/a	n/a	167.158	n/a
133.491	0.497	happy	Picture	93.461	n/a	2	4	4	n/a	64	89	3	n/a	n/a	n/a	n/a	167.688	AF17ANS.jpg
133.989	0.514	Blank	Blank	92.947	n/a	2	4	4	n/a	64	n/a	3	n/a	n/a	n/a	n/a	168.186	n/a
134.519	0.497	happy	Picture	92.433	n/a	2	4	5	n/a	65	116	3	n/a	n/a	n/a	n/a	168.716	BM24ANS.jpg
135.017	0.514	Blank	Blank	91.919	n/a	2	4	5	n/a	65	n/a	3	n/a	n/a	n/a	n/a	169.214	n/a
135.547	0.497	happy	Picture	91.405	n/a	2	4	6	n/a	66	105	3	n/a	n/a	n/a	n/a	169.744	BM06ANS.jpg
136.044	0.514	Blank	Blank	90.891	n/a	2	4	6	n/a	66	n/a	3	n/a	n/a	n/a	n/a	170.241	n/a
136.575	0.497	happy	Picture	90.377	n/a	2	4	7	n/a	67	106	3	n/a	n/a	n/a	n/a	170.772	AM07ANS.jpg
137.072	0.514	Blank	Blank	89.863	n/a	2	4	7	n/a	67	n/a	3	n/a	n/a	n/a	n/a	171.269	n/a
137.603	0.497	happy	Picture	89.349	n/a	2	4	8	n/a	68	94	3	n/a	n/a	n/a	n/a	171.8	AF23ANS.jpg
138.1	0.514	Blank	Blank	88.835	n/a	2	4	8	n/a	68	n/a	3	n/a	n/a	n/a	n/a	172.297	n/a
138.631	0.497	happy	Picture	88.321	n/a	2	4	9	n/a	69	117	3	n/a	n/a	n/a	n/a	172.828	BM25ANS.jpg
139.128	0.514	Blank	Blank	87.808	n/a	2	4	9	n/a	69	n/a	3	n/a	n/a	n/a	n/a	173.325	n/a
139.659	0.497	happy	Picture	87.294	n/a	2	4	10	n/a	70	90	3	n/a	n/a	n/a	n/a	173.856	AF18ANS.jpg
140.156	0.514	Blank	Blank	86.78	n/a	2	4	10	n/a	70	n/a	3	n/a	n/a	n/a	n/a	174.353	n/a
140.687	0.497	happy	Picture	86.266	n/a	2	4	11	n/a	71	83	3	n/a	n/a	n/a	n/a	174.883	BF04ANS.jpg
141.184	0.514	Blank	Blank	85.752	n/a	2	4	11	n/a	71	n/a	3	n/a	n/a	n/a	n/a	175.381	n/a
141.715	0.497	happy	Picture	85.238	n/a	2	4	12	n/a	72	112	3	n/a	n/a	n/a	n/a	175.911	AM14ANS.jpg
142.212	0.514	Blank	Blank	84.724	n/a	2	4	12	n/a	72	n/a	3	n/a	n/a	n/a	n/a	176.409	n/a
142.742	0.497	happy	Picture	84.21	n/a	2	4	13	n/a	73	102	3	n/a	n/a	n/a	n/a	176.939	BM03ANS.jpg
143.24	0.514	Blank	Blank	83.696	n/a	2	4	13	n/a	73	n/a	3	n/a	n/a	n/a	n/a	177.436	n/a
143.77	0.497	happy	Picture	83.182	n/a	2	4	14	n/a	74	95	3	n/a	n/a	n/a	n/a	177.967	AF25ANS.jpg
144.268	0.514	Blank	Blank	82.668	n/a	2	4	14	n/a	74	n/a	3	n/a	n/a	n/a	n/a	178.464	n/a
144.798	0.497	happy	Picture	82.154	n/a	2	4	15	n/a	75	113	3	n/a	n/a	n/a	n/a	178.995	AM21ANS.jpg
145.296	0.514	Blank	Blank	81.64	n/a	2	4	15	n/a	75	n/a	3	n/a	n/a	n/a	n/a	179.492	n/a
145.826	0.497	happy	Picture	81.126	n/a	2	4	16	n/a	76	88	3	n/a	n/a	n/a	n/a	180.023	AF14ANS.jpg
146.323	0.514	Blank	Blank	80.612	n/a	2	4	16	n/a	76	n/a	3	n/a	n/a	n/a	n/a	180.52	n/a
146.854	0.497	happy	Picture	80.098	n/a	2	4	17	n/a	77	93	3	n/a	n/a	n/a	n/a	181.051	BF22ANS.jpg
147.351	0.514	Blank	Blank	79.584	n/a	2	4	17	n/a	77	n/a	3	n/a	n/a	n/a	n/a	181.548	n/a
147.882	0.497	happy	Picture	79.071	n/a	2	4	18	n/a	78	86	3	n/a	n/a	n/a	n/a	182.078	AF09ANS.jpg
148.379	0.514	Blank	Blank	78.557	n/a	2	4	18	n/a	78	n/a	3	n/a	n/a	n/a	n/a	182.576	n/a
148.91	0.497	happy	Picture	78.043	n/a	2	4	19	n/a	79	92	3	n/a	n/a	n/a	n/a	183.106	AF21ANS.jpg
149.407	0.514	Blank	Blank	77.529	n/a	2	4	19	n/a	79	n/a	3	n/a	n/a	n/a	n/a	183.604	n/a
149.938	0.497	happy	Picture	77.015	n/a	2	4	20	n/a	80	84	3	n/a	n/a	n/a	n/a	184.134	AF05ANS.jpg
150.435	0.514	Blank	Blank	76.501	n/a	2	4	20	n/a	80	n/a	3	n/a	n/a	n/a	n/a	184.632	n/a
150.965	10.014	ITI	Fixation+	66.471	n/a	2	n/a	n/a	n/a	n/a	n/a	n/a	n/a	n/a	n/a	n/a	185.162	n/a
160.995	0.497	neutral	Picture	65.957	n/a	2	5	1	n/a	81	4	1	n/a	n/a	n/a	n/a	195.192	AF05NES.jpg
161.493	0.514	Blank	Blank	65.443	n/a	2	5	1	n/a	81	n/a	1	n/a	n/a	n/a	n/a	195.69	n/a
162.023	0.497	neutral	Picture	64.929	n/a	2	5	2	n/a	82	14	1	n/a	n/a	n/a	n/a	196.22	AF23NES.jpg
162.521	0.514	Blank	Blank	64.415	n/a	2	5	2	n/a	82	n/a	1	n/a	n/a	n/a	n/a	196.718	n/a
163.051	0.497	neutral	Picture	63.901	n/a	2	5	3	n/a	83	19	1	n/a	n/a	n/a	n/a	197.248	AF31NES.jpg
163.549	0.514	Blank	Blank	63.387	n/a	2	5	3	n/a	83	n/a	1	n/a	n/a	n/a	n/a	197.745	n/a
164.079	0.497	neutral	Picture	62.873	n/a	2	5	4	n/a	84	8	1	n/a	n/a	n/a	n/a	198.276	AF14NES.jpg
164.577	0.514	Blank	Blank	62.359	n/a	2	5	4	n/a	84	n/a	1	n/a	n/a	n/a	n/a	198.773	n/a
165.107	0.497	neutral	Picture	61.845	n/a	2	5	5	n/a	85	25	1	n/a	n/a	n/a	n/a	199.304	BM06NES.jpg
165.604	0.514	Blank	Blank	61.331	n/a	2	5	5	n/a	85	n/a	1	n/a	n/a	n/a	n/a	199.801	n/a
166.135	0.497	neutral	Picture	60.817	n/a	2	5	6	n/a	86	9	1	n/a	n/a	n/a	n/a	200.332	AF17NES.jpg
166.632	0.514	Blank	Blank	60.303	n/a	2	5	6	n/a	86	n/a	1	n/a	n/a	n/a	n/a	200.829	n/a
167.163	0.497	neutral	Picture	59.79	n/a	2	5	7	n/a	87	2	1	n/a	n/a	n/a	n/a	201.36	AF03NES.jpg
167.66	0.514	Blank	Blank	59.276	n/a	2	5	7	n/a	87	n/a	1	n/a	n/a	n/a	n/a	201.857	n/a
168.191	0.497	neutral	Picture	58.762	n/a	2	5	8	n/a	88	17	1	n/a	n/a	n/a	n/a	202.387	BF28NES.jpg
168.688	0.514	Blank	Blank	58.248	n/a	2	5	8	n/a	88	n/a	1	n/a	n/a	n/a	n/a	202.885	n/a
169.219	0.497	neutral	Picture	57.734	n/a	2	5	9	n/a	89	6	1	n/a	n/a	n/a	n/a	203.415	AF09NES.jpg
169.716	0.514	Blank	Blank	57.22	n/a	2	5	9	n/a	89	n/a	1	n/a	n/a	n/a	n/a	203.913	n/a
170.246	0.497	neutral	Picture	56.706	n/a	2	5	10	n/a	90	12	1	n/a	n/a	n/a	n/a	204.443	AF21NES.jpg
170.744	0.514	Blank	Blank	56.192	n/a	2	5	10	n/a	90	n/a	1	n/a	n/a	n/a	n/a	204.941	n/a
171.274	0.497	neutral	Picture	55.678	n/a	2	5	11	n/a	91	24	1	n/a	n/a	n/a	n/a	205.471	BM05NES.jpg
171.772	0.514	Blank	Blank	55.164	n/a	2	5	11	n/a	91	n/a	1	n/a	n/a	n/a	n/a	205.968	n/a
172.302	0.497	neutral	Picture	54.65	n/a	2	5	12	n/a	92	34	1	n/a	n/a	n/a	n/a	206.499	AM22NES.jpg
172.799	0.514	Blank	Blank	54.136	n/a	2	5	12	n/a	92	n/a	1	n/a	n/a	n/a	n/a	206.996	n/a
173.33	0.497	neutral	Picture	53.622	n/a	2	5	13	n/a	93	23	1	n/a	n/a	n/a	n/a	207.527	AM04NES.jpg
173.827	0.514	Blank	Blank	53.108	n/a	2	5	13	n/a	93	n/a	1	n/a	n/a	n/a	n/a	208.024	n/a
174.358	0.497	neutral	Picture	52.594	n/a	2	5	14	n/a	94	15	1	n/a	n/a	n/a	n/a	208.555	AF25NES.jpg
174.855	0.514	Blank	Blank	52.08	n/a	2	5	14	n/a	94	n/a	1	n/a	n/a	n/a	n/a	209.052	n/a
175.386	0.497	neutral	Picture	51.566	n/a	2	5	15	n/a	95	37	1	n/a	n/a	n/a	n/a	209.583	BM25NES.jpg
175.883	0.513	Blank	Blank	51.053	n/a	2	5	15	n/a	95	n/a	1	n/a	n/a	n/a	n/a	210.08	n/a
176.414	0.497	neutral	Picture	50.539	n/a	2	5	16	n/a	96	32	1	n/a	n/a	n/a	n/a	210.611	AM14NES.jpg
176.911	0.514	Blank	Blank	50.025	n/a	2	5	16	n/a	96	n/a	1	n/a	n/a	n/a	n/a	211.108	n/a
177.442	0.497	neutral	Picture	49.511	n/a	2	5	17	n/a	97	3	1	n/a	n/a	n/a	n/a	211.638	BF04NES.jpg
177.939	0.514	Blank	Blank	48.997	n/a	2	5	17	n/a	97	n/a	1	n/a	n/a	n/a	n/a	212.136	n/a
178.469	0.497	neutral	Picture	48.483	n/a	2	5	18	n/a	98	16	1	n/a	n/a	n/a	n/a	212.666	AF26NES.jpg
178.967	0.514	Blank	Blank	47.969	n/a	2	5	18	n/a	98	n/a	1	n/a	n/a	n/a	n/a	213.164	n/a
179.497	0.497	neutral	Picture	47.455	n/a	2	5	19	n/a	99	27	1	n/a	n/a	n/a	n/a	213.694	BM08NES.jpg
179.995	0.514	Blank	Blank	46.941	n/a	2	5	19	n/a	99	n/a	1	n/a	n/a	n/a	n/a	214.191	n/a
180.525	0.497	neutral	Picture	46.427	n/a	2	5	20	n/a	100	28	1	n/a	n/a	n/a	n/a	214.722	AM09NES.jpg
181.023	0.514	Blank	Blank	45.913	n/a	2	5	20	n/a	100	n/a	1	n/a	n/a	n/a	n/a	215.219	n/a
181.553	10.014	ITI	Fixation+	35.883	n/a	2	n/a	n/a	n/a	n/a	n/a	n/a	n/a	n/a	n/a	n/a	215.75	n/a
191.583	0.497	happy	Picture	35.369	n/a	2	6	1	n/a	101	81	3	n/a	n/a	n/a	n/a	225.78	AF01ANS.jpg
192.081	0.514	Blank	Blank	34.855	n/a	2	6	1	n/a	101	n/a	3	n/a	n/a	n/a	n/a	226.277	n/a
192.611	0.497	happy	Picture	34.341	n/a	2	6	2	n/a	102	120	3	n/a	n/a	n/a	n/a	226.808	AM35ANS.jpg
193.108	0.514	Blank	Blank	33.827	n/a	2	6	2	n/a	102	n/a	3	n/a	n/a	n/a	n/a	227.305	n/a
193.639	0.497	happy	Picture	33.313	n/a	2	6	3	n/a	103	114	3	n/a	n/a	n/a	n/a	227.836	AM22ANS.jpg
194.136	0.514	Blank	Blank	32.799	n/a	2	6	3	n/a	103	n/a	3	n/a	n/a	n/a	n/a	228.333	n/a
194.667	0.497	happy	Picture	32.285	n/a	2	6	4	n/a	104	109	3	n/a	n/a	n/a	n/a	228.864	AM10ANS.jpg
195.164	0.514	Blank	Blank	31.772	n/a	2	6	4	n/a	104	n/a	3	n/a	n/a	n/a	n/a	229.361	n/a
195.695	0.497	happy	Picture	31.258	n/a	2	6	5	n/a	105	96	3	n/a	n/a	n/a	n/a	229.892	AF26ANS.jpg
196.192	0.514	Blank	Blank	30.744	n/a	2	6	5	n/a	105	n/a	3	n/a	n/a	n/a	n/a	230.389	n/a
196.723	0.497	happy	Picture	30.23	n/a	2	6	6	n/a	106	82	3	n/a	n/a	n/a	n/a	230.919	AF03ANS.jpg
197.22	0.514	Blank	Blank	29.716	n/a	2	6	6	n/a	106	n/a	3	n/a	n/a	n/a	n/a	231.417	n/a
197.751	0.497	happy	Picture	29.202	n/a	2	6	7	n/a	107	97	3	n/a	n/a	n/a	n/a	231.947	BF28ANS.jpg
198.248	0.514	Blank	Blank	28.688	n/a	2	6	7	n/a	107	n/a	3	n/a	n/a	n/a	n/a	232.445	n/a
198.778	0.497	happy	Picture	28.174	n/a	2	6	8	n/a	108	115	3	n/a	n/a	n/a	n/a	232.975	AM23ANS.jpg
199.276	0.514	Blank	Blank	27.66	n/a	2	6	8	n/a	108	n/a	3	n/a	n/a	n/a	n/a	233.472	n/a
199.806	0.497	happy	Picture	27.146	n/a	2	6	9	n/a	109	91	3	n/a	n/a	n/a	n/a	234.003	AF20ANS.jpg
200.304	0.514	Blank	Blank	26.632	n/a	2	6	9	n/a	109	n/a	3	n/a	n/a	n/a	n/a	234.5	n/a
200.834	0.497	happy	Picture	26.118	n/a	2	6	10	n/a	110	87	3	n/a	n/a	n/a	n/a	235.031	BF11ANS.jpg
201.332	0.514	Blank	Blank	25.604	n/a	2	6	10	n/a	110	n/a	3	n/a	n/a	n/a	n/a	235.528	n/a
201.862	0.497	happy	Picture	25.09	n/a	2	6	11	n/a	111	85	3	n/a	n/a	n/a	n/a	236.059	BF07ANS.jpg
202.359	0.514	Blank	Blank	24.576	n/a	2	6	11	n/a	111	n/a	3	n/a	n/a	n/a	n/a	236.556	n/a
202.89	0.497	happy	Picture	24.062	n/a	2	6	12	n/a	112	110	3	n/a	n/a	n/a	n/a	237.087	AM11ANS.jpg
203.387	0.514	Blank	Blank	23.548	n/a	2	6	12	n/a	112	n/a	3	n/a	n/a	n/a	n/a	237.584	n/a
203.918	0.497	happy	Picture	23.035	n/a	2	6	13	n/a	113	111	3	n/a	n/a	n/a	n/a	238.114	BM12ANS.jpg
204.415	0.514	Blank	Blank	22.521	n/a	2	6	13	n/a	113	n/a	3	n/a	n/a	n/a	n/a	238.612	n/a
204.946	0.497	happy	Picture	22.007	n/a	2	6	14	n/a	114	103	3	n/a	n/a	n/a	n/a	239.142	AM04ANS.jpg
205.443	0.514	Blank	Blank	21.493	n/a	2	6	14	n/a	114	n/a	3	n/a	n/a	n/a	n/a	239.64	n/a
205.974	0.497	happy	Picture	20.979	n/a	2	6	15	n/a	115	101	3	n/a	n/a	n/a	n/a	240.17	AM01ANS.jpg
206.471	0.514	Blank	Blank	20.465	n/a	2	6	15	n/a	115	n/a	3	n/a	n/a	n/a	n/a	240.668	n/a
207.001	0.497	happy	Picture	19.951	n/a	2	6	16	n/a	116	104	3	n/a	n/a	n/a	n/a	241.198	BM05ANS.jpg
207.499	0.514	Blank	Blank	19.437	n/a	2	6	16	n/a	116	n/a	3	n/a	n/a	n/a	n/a	241.696	n/a
208.029	0.497	happy	Picture	18.923	n/a	2	6	17	n/a	117	107	3	n/a	n/a	n/a	n/a	242.226	BM08ANS.jpg
208.527	0.514	Blank	Blank	18.409	n/a	2	6	17	n/a	117	n/a	3	n/a	n/a	n/a	n/a	242.723	n/a
209.057	0.497	happy	Picture	17.895	n/a	2	6	18	n/a	118	98	3	n/a	n/a	n/a	n/a	243.254	BF29ANS.jpg
209.554	0.514	Blank	Blank	17.381	n/a	2	6	18	n/a	118	n/a	3	n/a	n/a	n/a	n/a	243.751	n/a
210.085	0.497	happy	Picture	16.867	n/a	2	6	19	n/a	119	99	3	n/a	n/a	n/a	n/a	244.282	AF31ANS.jpg
210.582	0.514	Blank	Blank	16.353	n/a	2	6	19	n/a	119	n/a	3	n/a	n/a	n/a	n/a	244.779	n/a
211.113	0.497	happy	Picture	15.839	n/a	2	6	20	n/a	120	108	3	n/a	n/a	n/a	n/a	245.31	AM09ANS.jpg
211.61	0.514	Blank	Blank	15.325	n/a	2	6	20	n/a	120	n/a	3	n/a	n/a	n/a	n/a	245.807	n/a
212.141	10.014	ITI	Fixation+	5.295	n/a	2	n/a	n/a	n/a	n/a	n/a	n/a	n/a	n/a	n/a	n/a	246.338	n/a
227.45	n/a	ConfirmRating	Rate	n/a	5.289	2	n/a	n/a	0	n/a	n/a	n/a	2	Happy	82	52	261.646	n/a
231.577	n/a	ConfirmRating	Rate	n/a	4.112	2	n/a	n/a	1	n/a	n/a	n/a	3	Happy	27	49	265.773	n/a
231.604	15.004	Rest	Picture	n/a	n/a	n/a	n/a	n/a	n/a	n/a	n/a	n/a	0	n/a	0	0	265.801	n/a
246.625	10.014	ITI	Fixation+	94.152	n/a	3	n/a	n/a	n/a	n/a	n/a	n/a	n/a	n/a	n/a	n/a	280.821	n/a
256.655	0.497	angry	Picture	93.638	n/a	3	7	1	n/a	1	46	2	n/a	n/a	n/a	n/a	290.851	AF09HAS.jpg
257.152	0.514	Blank	Blank	93.124	n/a	3	7	1	n/a	1	n/a	2	n/a	n/a	n/a	n/a	291.349	n/a
257.683	0.497	angry	Picture	92.611	n/a	3	7	2	n/a	2	69	2	n/a	n/a	n/a	n/a	291.879	AM10HAS.jpg
258.18	0.514	Blank	Blank	92.096	n/a	3	7	2	n/a	2	n/a	2	n/a	n/a	n/a	n/a	292.377	n/a
258.71	0.497	angry	Picture	91.583	n/a	3	7	3	n/a	3	71	2	n/a	n/a	n/a	n/a	292.907	BM12HAS.jpg
259.208	0.514	Blank	Blank	91.069	n/a	3	7	3	n/a	3	n/a	2	n/a	n/a	n/a	n/a	293.404	n/a
259.738	0.497	angry	Picture	90.555	n/a	3	7	4	n/a	4	51	2	n/a	n/a	n/a	n/a	293.935	AF20HAS.jpg
260.236	0.514	Blank	Blank	90.041	n/a	3	7	4	n/a	4	n/a	2	n/a	n/a	n/a	n/a	294.432	n/a
260.766	0.497	angry	Picture	89.527	n/a	3	7	5	n/a	5	67	2	n/a	n/a	n/a	n/a	294.963	BM08HAS.jpg
261.264	0.514	Blank	Blank	89.013	n/a	3	7	5	n/a	5	n/a	2	n/a	n/a	n/a	n/a	295.46	n/a
261.794	0.497	angry	Picture	88.499	n/a	3	7	6	n/a	6	60	2	n/a	n/a	n/a	n/a	295.991	AF32HAS.jpg
262.291	0.514	Blank	Blank	87.985	n/a	3	7	6	n/a	6	n/a	2	n/a	n/a	n/a	n/a	296.488	n/a
262.822	0.497	angry	Picture	87.471	n/a	3	7	7	n/a	7	42	2	n/a	n/a	n/a	n/a	297.019	AF03HAS.jpg
263.319	0.514	Blank	Blank	86.957	n/a	3	7	7	n/a	7	n/a	2	n/a	n/a	n/a	n/a	297.516	n/a
263.85	0.497	angry	Picture	86.443	n/a	3	7	8	n/a	8	55	2	n/a	n/a	n/a	n/a	298.046	AF25HAS.jpg
264.347	0.514	Blank	Blank	85.929	n/a	3	7	8	n/a	8	n/a	2	n/a	n/a	n/a	n/a	298.544	n/a
264.878	0.497	angry	Picture	85.415	n/a	3	7	9	n/a	9	72	2	n/a	n/a	n/a	n/a	299.074	AM14HAS.jpg
265.375	0.514	Blank	Blank	84.901	n/a	3	7	9	n/a	9	n/a	2	n/a	n/a	n/a	n/a	299.572	n/a
265.906	0.497	angry	Picture	84.387	n/a	3	7	10	n/a	10	63	2	n/a	n/a	n/a	n/a	300.102	AM04HAS.jpg
266.403	0.514	Blank	Blank	83.874	n/a	3	7	10	n/a	10	n/a	2	n/a	n/a	n/a	n/a	300.6	n/a
266.933	0.497	angry	Picture	83.36	n/a	3	7	11	n/a	11	58	2	n/a	n/a	n/a	n/a	301.13	BF29HAS.jpg
267.431	0.514	Blank	Blank	82.846	n/a	3	7	11	n/a	11	n/a	2	n/a	n/a	n/a	n/a	301.627	n/a
267.961	0.497	angry	Picture	82.332	n/a	3	7	12	n/a	12	48	2	n/a	n/a	n/a	n/a	302.158	AF14HAS.jpg
268.459	0.514	Blank	Blank	81.818	n/a	3	7	12	n/a	12	n/a	2	n/a	n/a	n/a	n/a	302.655	n/a
268.989	0.497	angry	Picture	81.304	n/a	3	7	13	n/a	13	66	2	n/a	n/a	n/a	n/a	303.186	BM07HAS.jpg
269.486	0.514	Blank	Blank	80.79	n/a	3	7	13	n/a	13	n/a	2	n/a	n/a	n/a	n/a	303.683	n/a
270.017	0.497	angry	Picture	80.276	n/a	3	7	14	n/a	14	70	2	n/a	n/a	n/a	n/a	304.214	BM11HAS.jpg
270.514	0.514	Blank	Blank	79.762	n/a	3	7	14	n/a	14	n/a	2	n/a	n/a	n/a	n/a	304.711	n/a
271.045	0.497	angry	Picture	79.248	n/a	3	7	15	n/a	15	43	2	n/a	n/a	n/a	n/a	305.242	BF04HAS.jpg
271.542	0.514	Blank	Blank	78.734	n/a	3	7	15	n/a	15	n/a	2	n/a	n/a	n/a	n/a	305.739	n/a
272.073	0.497	angry	Picture	78.22	n/a	3	7	16	n/a	16	49	2	n/a	n/a	n/a	n/a	306.269	AF17HAS.jpg
272.57	0.514	Blank	Blank	77.706	n/a	3	7	16	n/a	16	n/a	2	n/a	n/a	n/a	n/a	306.767	n/a
273.101	0.497	angry	Picture	77.192	n/a	3	7	17	n/a	17	75	2	n/a	n/a	n/a	n/a	307.298	AM23HAS.jpg
273.598	0.514	Blank	Blank	76.678	n/a	3	7	17	n/a	17	n/a	2	n/a	n/a	n/a	n/a	307.795	n/a
274.129	0.497	angry	Picture	76.164	n/a	3	7	18	n/a	18	80	2	n/a	n/a	n/a	n/a	308.325	BM35HAS.jpg
274.626	0.514	Blank	Blank	75.651	n/a	3	7	18	n/a	18	n/a	2	n/a	n/a	n/a	n/a	308.823	n/a
275.156	0.497	angry	Picture	75.136	n/a	3	7	19	n/a	19	76	2	n/a	n/a	n/a	n/a	309.353	BM24HAS.jpg
275.654	0.514	Blank	Blank	74.623	n/a	3	7	19	n/a	19	n/a	2	n/a	n/a	n/a	n/a	309.851	n/a
276.184	0.497	angry	Picture	74.109	n/a	3	7	20	n/a	20	74	2	n/a	n/a	n/a	n/a	310.381	AM22HAS.jpg
276.682	0.514	Blank	Blank	73.595	n/a	3	7	20	n/a	20	n/a	2	n/a	n/a	n/a	n/a	310.878	n/a
277.212	10.014	ITI	Fixation+	63.565	n/a	3	n/a	n/a	n/a	n/a	n/a	n/a	n/a	n/a	n/a	n/a	311.409	n/a
287.242	0.497	neutral	Picture	63.051	n/a	3	8	1	n/a	21	33	1	n/a	n/a	n/a	n/a	321.439	AM21NES.jpg
287.74	0.514	Blank	Blank	62.537	n/a	3	8	1	n/a	21	n/a	1	n/a	n/a	n/a	n/a	321.937	n/a
288.27	0.497	neutral	Picture	62.023	n/a	3	8	2	n/a	22	39	1	n/a	n/a	n/a	n/a	322.467	AM28NES.jpg
288.767	0.514	Blank	Blank	61.509	n/a	3	8	2	n/a	22	n/a	1	n/a	n/a	n/a	n/a	322.964	n/a
289.298	0.497	neutral	Picture	60.995	n/a	3	8	3	n/a	23	25	1	n/a	n/a	n/a	n/a	323.495	BM06NES.jpg
289.795	0.514	Blank	Blank	60.481	n/a	3	8	3	n/a	23	n/a	1	n/a	n/a	n/a	n/a	323.992	n/a
290.326	0.497	neutral	Picture	59.967	n/a	3	8	4	n/a	24	5	1	n/a	n/a	n/a	n/a	324.523	BF07NES.jpg
290.823	0.514	Blank	Blank	59.453	n/a	3	8	4	n/a	24	n/a	1	n/a	n/a	n/a	n/a	325.02	n/a
291.354	0.497	neutral	Picture	58.939	n/a	3	8	5	n/a	25	10	1	n/a	n/a	n/a	n/a	325.551	AF18NES.jpg
291.851	0.514	Blank	Blank	58.425	n/a	3	8	5	n/a	25	n/a	1	n/a	n/a	n/a	n/a	326.048	n/a
292.382	0.497	neutral	Picture	57.911	n/a	3	8	6	n/a	26	34	1	n/a	n/a	n/a	n/a	326.579	AM22NES.jpg
292.879	0.51	Blank	Blank	57.401	n/a	3	8	6	n/a	26	n/a	1	n/a	n/a	n/a	n/a	327.076	n/a
293.41	0.497	neutral	Picture	56.883	n/a	3	8	7	n/a	27	36	1	n/a	n/a	n/a	n/a	327.606	BM24NES.jpg
293.907	0.514	Blank	Blank	56.369	n/a	3	8	7	n/a	27	n/a	1	n/a	n/a	n/a	n/a	328.104	n/a
294.438	0.497	neutral	Picture	55.856	n/a	3	8	8	n/a	28	14	1	n/a	n/a	n/a	n/a	328.634	AF23NES.jpg
294.935	0.514	Blank	Blank	55.341	n/a	3	8	8	n/a	28	n/a	1	n/a	n/a	n/a	n/a	329.132	n/a
295.465	0.497	neutral	Picture	54.828	n/a	3	8	9	n/a	29	9	1	n/a	n/a	n/a	n/a	329.662	AF17NES.jpg
295.963	0.514	Blank	Blank	54.314	n/a	3	8	9	n/a	29	n/a	1	n/a	n/a	n/a	n/a	330.159	n/a
296.493	0.497	neutral	Picture	53.8	n/a	3	8	10	n/a	30	19	1	n/a	n/a	n/a	n/a	330.69	AF31NES.jpg
296.991	0.514	Blank	Blank	53.286	n/a	3	8	10	n/a	30	n/a	1	n/a	n/a	n/a	n/a	331.187	n/a
297.521	0.497	neutral	Picture	52.772	n/a	3	8	11	n/a	31	15	1	n/a	n/a	n/a	n/a	331.718	AF25NES.jpg
298.018	0.514	Blank	Blank	52.258	n/a	3	8	11	n/a	31	n/a	1	n/a	n/a	n/a	n/a	332.215	n/a
298.549	0.497	neutral	Picture	51.744	n/a	3	8	12	n/a	32	22	1	n/a	n/a	n/a	n/a	332.746	BM03NES.jpg
299.046	0.514	Blank	Blank	51.23	n/a	3	8	12	n/a	32	n/a	1	n/a	n/a	n/a	n/a	333.243	n/a
299.577	0.497	neutral	Picture	50.716	n/a	3	8	13	n/a	33	11	1	n/a	n/a	n/a	n/a	333.774	AF20NES.jpg
300.074	0.514	Blank	Blank	50.202	n/a	3	8	13	n/a	33	n/a	1	n/a	n/a	n/a	n/a	334.271	n/a
300.605	0.497	neutral	Picture	49.688	n/a	3	8	14	n/a	34	4	1	n/a	n/a	n/a	n/a	334.801	AF05NES.jpg
301.102	0.514	Blank	Blank	49.174	n/a	3	8	14	n/a	34	n/a	1	n/a	n/a	n/a	n/a	335.299	n/a
301.633	0.497	neutral	Picture	48.66	n/a	3	8	15	n/a	35	17	1	n/a	n/a	n/a	n/a	335.829	BF28NES.jpg
302.13	0.514	Blank	Blank	48.146	n/a	3	8	15	n/a	35	n/a	1	n/a	n/a	n/a	n/a	336.327	n/a
302.661	0.497	neutral	Picture	47.632	n/a	3	8	16	n/a	36	13	1	n/a	n/a	n/a	n/a	336.857	BF22NES.jpg
303.158	0.514	Blank	Blank	47.118	n/a	3	8	16	n/a	36	n/a	1	n/a	n/a	n/a	n/a	337.355	n/a
303.688	0.497	neutral	Picture	46.605	n/a	3	8	17	n/a	37	12	1	n/a	n/a	n/a	n/a	337.885	AF21NES.jpg
304.186	0.514	Blank	Blank	46.091	n/a	3	8	17	n/a	37	n/a	1	n/a	n/a	n/a	n/a	338.382	n/a
304.716	0.497	neutral	Picture	45.577	n/a	3	8	18	n/a	38	24	1	n/a	n/a	n/a	n/a	338.913	BM05NES.jpg
305.214	0.514	Blank	Blank	45.063	n/a	3	8	18	n/a	38	n/a	1	n/a	n/a	n/a	n/a	339.41	n/a
305.744	0.497	neutral	Picture	44.549	n/a	3	8	19	n/a	39	29	1	n/a	n/a	n/a	n/a	339.941	AM10NES.jpg
306.242	0.514	Blank	Blank	44.035	n/a	3	8	19	n/a	39	n/a	1	n/a	n/a	n/a	n/a	340.438	n/a
306.772	0.497	neutral	Picture	43.521	n/a	3	8	20	n/a	40	23	1	n/a	n/a	n/a	n/a	340.969	AM04NES.jpg
307.269	0.514	Blank	Blank	43.007	n/a	3	8	20	n/a	40	n/a	1	n/a	n/a	n/a	n/a	341.466	n/a
307.8	10.014	ITI	Fixation+	32.977	n/a	3	n/a	n/a	n/a	n/a	n/a	n/a	n/a	n/a	n/a	n/a	341.997	n/a
317.83	0.497	angry	Picture	32.463	n/a	3	9	1	n/a	41	62	2	n/a	n/a	n/a	n/a	352.027	BM03HAS.jpg
318.327	0.514	Blank	Blank	31.949	n/a	3	9	1	n/a	41	n/a	2	n/a	n/a	n/a	n/a	352.524	n/a
318.858	0.497	angry	Picture	31.435	n/a	3	9	2	n/a	42	52	2	n/a	n/a	n/a	n/a	353.055	AF21HAS.jpg
319.355	0.514	Blank	Blank	30.921	n/a	3	9	2	n/a	42	n/a	2	n/a	n/a	n/a	n/a	353.552	n/a
319.886	0.497	angry	Picture	30.407	n/a	3	9	3	n/a	43	44	2	n/a	n/a	n/a	n/a	354.083	AF05HAS.jpg
320.383	0.514	Blank	Blank	29.893	n/a	3	9	3	n/a	43	n/a	2	n/a	n/a	n/a	n/a	354.58	n/a
320.914	0.497	angry	Picture	29.379	n/a	3	9	4	n/a	44	53	2	n/a	n/a	n/a	n/a	355.11	BF22HAS.jpg
321.411	0.514	Blank	Blank	28.865	n/a	3	9	4	n/a	44	n/a	2	n/a	n/a	n/a	n/a	355.608	n/a
321.942	0.497	angry	Picture	28.351	n/a	3	9	5	n/a	45	54	2	n/a	n/a	n/a	n/a	356.138	AF23HAS.jpg
322.439	0.514	Blank	Blank	27.838	n/a	3	9	5	n/a	45	n/a	2	n/a	n/a	n/a	n/a	356.636	n/a
322.969	0.497	angry	Picture	27.323	n/a	3	9	6	n/a	46	68	2	n/a	n/a	n/a	n/a	357.166	AM09HAS.jpg
323.467	0.514	Blank	Blank	26.81	n/a	3	9	6	n/a	46	n/a	2	n/a	n/a	n/a	n/a	357.664	n/a
323.997	0.497	angry	Picture	26.296	n/a	3	9	7	n/a	47	64	2	n/a	n/a	n/a	n/a	358.194	BM05HAS.jpg
324.495	0.514	Blank	Blank	25.782	n/a	3	9	7	n/a	47	n/a	2	n/a	n/a	n/a	n/a	358.691	n/a
325.025	0.497	angry	Picture	25.268	n/a	3	9	8	n/a	48	59	2	n/a	n/a	n/a	n/a	359.222	AF31HAS.jpg
325.522	0.514	Blank	Blank	24.754	n/a	3	9	8	n/a	48	n/a	2	n/a	n/a	n/a	n/a	359.719	n/a
326.053	0.497	angry	Picture	24.24	n/a	3	9	9	n/a	49	41	2	n/a	n/a	n/a	n/a	360.25	AF01HAS.jpg
326.55	0.514	Blank	Blank	23.726	n/a	3	9	9	n/a	49	n/a	2	n/a	n/a	n/a	n/a	360.747	n/a
327.081	0.497	angry	Picture	23.212	n/a	3	9	10	n/a	50	73	2	n/a	n/a	n/a	n/a	361.278	AM21HAS.jpg
327.578	0.514	Blank	Blank	22.698	n/a	3	9	10	n/a	50	n/a	2	n/a	n/a	n/a	n/a	361.775	n/a
328.109	0.497	angry	Picture	22.184	n/a	3	9	11	n/a	51	65	2	n/a	n/a	n/a	n/a	362.306	BM06HAS.jpg
328.606	0.514	Blank	Blank	21.67	n/a	3	9	11	n/a	51	n/a	2	n/a	n/a	n/a	n/a	362.803	n/a
329.137	0.497	angry	Picture	21.156	n/a	3	9	12	n/a	52	56	2	n/a	n/a	n/a	n/a	363.334	AF26HAS.jpg
329.634	0.514	Blank	Blank	20.642	n/a	3	9	12	n/a	52	n/a	2	n/a	n/a	n/a	n/a	363.831	n/a
330.165	0.497	angry	Picture	20.128	n/a	3	9	13	n/a	53	45	2	n/a	n/a	n/a	n/a	364.361	BF07HAS.jpg
330.662	0.514	Blank	Blank	19.614	n/a	3	9	13	n/a	53	n/a	2	n/a	n/a	n/a	n/a	364.859	n/a
331.192	0.497	angry	Picture	19.1	n/a	3	9	14	n/a	54	78	2	n/a	n/a	n/a	n/a	365.389	BM26HAS.jpg
331.69	0.514	Blank	Blank	18.587	n/a	3	9	14	n/a	54	n/a	2	n/a	n/a	n/a	n/a	365.887	n/a
332.22	0.497	angry	Picture	18.073	n/a	3	9	15	n/a	55	50	2	n/a	n/a	n/a	n/a	366.417	AF18HAS.jpg
332.718	0.514	Blank	Blank	17.559	n/a	3	9	15	n/a	55	n/a	2	n/a	n/a	n/a	n/a	366.914	n/a
333.248	0.497	angry	Picture	17.045	n/a	3	9	16	n/a	56	47	2	n/a	n/a	n/a	n/a	367.445	BF11HAS.jpg
333.746	0.514	Blank	Blank	16.531	n/a	3	9	16	n/a	56	n/a	2	n/a	n/a	n/a	n/a	367.942	n/a
334.276	0.497	angry	Picture	16.017	n/a	3	9	17	n/a	57	77	2	n/a	n/a	n/a	n/a	368.473	BM25HAS.jpg
334.773	0.514	Blank	Blank	15.503	n/a	3	9	17	n/a	57	n/a	2	n/a	n/a	n/a	n/a	368.97	n/a
335.304	0.497	angry	Picture	14.989	n/a	3	9	18	n/a	58	57	2	n/a	n/a	n/a	n/a	369.501	BF28HAS.jpg
335.801	0.514	Blank	Blank	14.475	n/a	3	9	18	n/a	58	n/a	2	n/a	n/a	n/a	n/a	369.998	n/a
336.332	0.497	angry	Picture	13.961	n/a	3	9	19	n/a	59	61	2	n/a	n/a	n/a	n/a	370.529	AM01HAS.jpg
336.829	0.514	Blank	Blank	13.447	n/a	3	9	19	n/a	59	n/a	2	n/a	n/a	n/a	n/a	371.026	n/a
337.36	0.497	angry	Picture	12.933	n/a	3	9	20	n/a	60	79	2	n/a	n/a	n/a	n/a	371.557	BM28HAS.jpg
337.857	0.514	Blank	Blank	12.419	n/a	3	9	20	n/a	60	n/a	2	n/a	n/a	n/a	n/a	372.054	n/a
338.388	10.014	ITI	Fixation+	2.389	n/a	3	n/a	n/a	n/a	n/a	n/a	n/a	n/a	n/a	n/a	n/a	372.584	n/a
350.79	n/a	ConfirmRating	Rate	n/a	2.387	3	n/a	n/a	0	n/a	n/a	n/a	2	Angry	50	50	384.987	n/a
355.054	n/a	ConfirmRating	Rate	n/a	4.244	3	n/a	n/a	1	n/a	n/a	n/a	3	Angry	60	51	389.251	n/a
355.082	10.014	ITI	Fixation+	95.602	n/a	4	n/a	n/a	n/a	n/a	n/a	n/a	n/a	n/a	n/a	n/a	389.279	n/a
365.113	0.497	happy	Picture	95.089	n/a	4	10	1	n/a	61	119	3	n/a	n/a	n/a	n/a	399.309	BM28ANS.jpg
365.61	0.514	Blank	Blank	94.575	n/a	4	10	1	n/a	61	n/a	3	n/a	n/a	n/a	n/a	399.807	n/a
366.14	0.497	happy	Picture	94.061	n/a	4	10	2	n/a	62	100	3	n/a	n/a	n/a	n/a	400.337	AF32ANS.jpg
366.638	0.514	Blank	Blank	93.547	n/a	4	10	2	n/a	62	n/a	3	n/a	n/a	n/a	n/a	400.834	n/a
367.168	0.497	happy	Picture	93.033	n/a	4	10	3	n/a	63	118	3	n/a	n/a	n/a	n/a	401.365	BM26ANS.jpg
367.666	0.514	Blank	Blank	92.519	n/a	4	10	3	n/a	63	n/a	3	n/a	n/a	n/a	n/a	401.862	n/a
368.196	0.497	happy	Picture	92.005	n/a	4	10	4	n/a	64	89	3	n/a	n/a	n/a	n/a	402.393	AF17ANS.jpg
368.694	0.514	Blank	Blank	91.491	n/a	4	10	4	n/a	64	n/a	3	n/a	n/a	n/a	n/a	402.89	n/a
369.224	0.497	happy	Picture	90.977	n/a	4	10	5	n/a	65	116	3	n/a	n/a	n/a	n/a	403.421	BM24ANS.jpg
369.721	0.514	Blank	Blank	90.463	n/a	4	10	5	n/a	65	n/a	3	n/a	n/a	n/a	n/a	403.918	n/a
370.252	0.497	happy	Picture	89.949	n/a	4	10	6	n/a	66	105	3	n/a	n/a	n/a	n/a	404.449	BM06ANS.jpg
370.749	0.514	Blank	Blank	89.435	n/a	4	10	6	n/a	66	n/a	3	n/a	n/a	n/a	n/a	404.946	n/a
371.28	0.497	happy	Picture	88.921	n/a	4	10	7	n/a	67	106	3	n/a	n/a	n/a	n/a	405.476	AM07ANS.jpg
371.777	0.514	Blank	Blank	88.407	n/a	4	10	7	n/a	67	n/a	3	n/a	n/a	n/a	n/a	405.974	n/a
372.308	0.497	happy	Picture	87.893	n/a	4	10	8	n/a	68	94	3	n/a	n/a	n/a	n/a	406.504	AF23ANS.jpg
372.805	0.514	Blank	Blank	87.379	n/a	4	10	8	n/a	68	n/a	3	n/a	n/a	n/a	n/a	407.002	n/a
373.336	0.497	happy	Picture	86.865	n/a	4	10	9	n/a	69	117	3	n/a	n/a	n/a	n/a	407.532	BM25ANS.jpg
373.833	0.514	Blank	Blank	86.352	n/a	4	10	9	n/a	69	n/a	3	n/a	n/a	n/a	n/a	408.03	n/a
374.363	0.497	happy	Picture	85.838	n/a	4	10	10	n/a	70	90	3	n/a	n/a	n/a	n/a	408.56	AF18ANS.jpg
374.861	0.514	Blank	Blank	85.324	n/a	4	10	10	n/a	70	n/a	3	n/a	n/a	n/a	n/a	409.058	n/a
375.391	0.497	happy	Picture	84.81	n/a	4	10	11	n/a	71	83	3	n/a	n/a	n/a	n/a	409.588	BF04ANS.jpg
375.889	0.514	Blank	Blank	84.296	n/a	4	10	11	n/a	71	n/a	3	n/a	n/a	n/a	n/a	410.085	n/a
376.419	0.497	happy	Picture	83.782	n/a	4	10	12	n/a	72	112	3	n/a	n/a	n/a	n/a	410.616	AM14ANS.jpg
376.916	0.514	Blank	Blank	83.268	n/a	4	10	12	n/a	72	n/a	3	n/a	n/a	n/a	n/a	411.113	n/a
377.447	0.497	happy	Picture	82.754	n/a	4	10	13	n/a	73	102	3	n/a	n/a	n/a	n/a	411.644	BM03ANS.jpg
377.944	0.514	Blank	Blank	82.24	n/a	4	10	13	n/a	73	n/a	3	n/a	n/a	n/a	n/a	412.141	n/a
378.475	0.497	happy	Picture	81.726	n/a	4	10	14	n/a	74	95	3	n/a	n/a	n/a	n/a	412.672	AF25ANS.jpg
378.972	0.514	Blank	Blank	81.212	n/a	4	10	14	n/a	74	n/a	3	n/a	n/a	n/a	n/a	413.169	n/a
379.503	0.497	happy	Picture	80.698	n/a	4	10	15	n/a	75	113	3	n/a	n/a	n/a	n/a	413.7	AM21ANS.jpg
380.0	0.514	Blank	Blank	80.184	n/a	4	10	15	n/a	75	n/a	3	n/a	n/a	n/a	n/a	414.197	n/a
380.531	0.497	happy	Picture	79.67	n/a	4	10	16	n/a	76	88	3	n/a	n/a	n/a	n/a	414.727	AF14ANS.jpg
381.028	0.514	Blank	Blank	79.156	n/a	4	10	16	n/a	76	n/a	3	n/a	n/a	n/a	n/a	415.225	n/a
381.558	0.497	happy	Picture	78.642	n/a	4	10	17	n/a	77	93	3	n/a	n/a	n/a	n/a	415.755	BF22ANS.jpg
382.056	0.514	Blank	Blank	78.129	n/a	4	10	17	n/a	77	n/a	3	n/a	n/a	n/a	n/a	416.253	n/a
382.586	0.497	happy	Picture	77.614	n/a	4	10	18	n/a	78	86	3	n/a	n/a	n/a	n/a	416.783	AF09ANS.jpg
383.084	0.514	Blank	Blank	77.101	n/a	4	10	18	n/a	78	n/a	3	n/a	n/a	n/a	n/a	417.281	n/a
383.614	0.497	happy	Picture	76.587	n/a	4	10	19	n/a	79	92	3	n/a	n/a	n/a	n/a	417.811	AF21ANS.jpg
384.112	0.514	Blank	Blank	76.073	n/a	4	10	19	n/a	79	n/a	3	n/a	n/a	n/a	n/a	418.308	n/a
384.642	0.497	happy	Picture	75.559	n/a	4	10	20	n/a	80	84	3	n/a	n/a	n/a	n/a	418.839	AF05ANS.jpg
385.139	0.514	Blank	Blank	75.045	n/a	4	10	20	n/a	80	n/a	3	n/a	n/a	n/a	n/a	419.336	n/a
385.67	10.014	ITI	Fixation+	65.015	n/a	4	n/a	n/a	n/a	n/a	n/a	n/a	n/a	n/a	n/a	n/a	419.867	n/a
395.7	0.497	neutral	Picture	64.501	n/a	4	11	1	n/a	81	4	1	n/a	n/a	n/a	n/a	429.897	AF05NES.jpg
396.197	0.514	Blank	Blank	63.987	n/a	4	11	1	n/a	81	n/a	1	n/a	n/a	n/a	n/a	430.394	n/a
396.728	0.497	neutral	Picture	63.473	n/a	4	11	2	n/a	82	14	1	n/a	n/a	n/a	n/a	430.925	AF23NES.jpg
397.225	0.514	Blank	Blank	62.959	n/a	4	11	2	n/a	82	n/a	1	n/a	n/a	n/a	n/a	431.422	n/a
397.756	0.497	neutral	Picture	62.445	n/a	4	11	3	n/a	83	19	1	n/a	n/a	n/a	n/a	431.953	AF31NES.jpg
398.253	0.514	Blank	Blank	61.931	n/a	4	11	3	n/a	83	n/a	1	n/a	n/a	n/a	n/a	432.45	n/a
398.784	0.497	neutral	Picture	61.417	n/a	4	11	4	n/a	84	8	1	n/a	n/a	n/a	n/a	432.981	AF14NES.jpg
399.281	0.514	Blank	Blank	60.903	n/a	4	11	4	n/a	84	n/a	1	n/a	n/a	n/a	n/a	433.478	n/a
399.812	0.497	neutral	Picture	60.389	n/a	4	11	5	n/a	85	25	1	n/a	n/a	n/a	n/a	434.009	BM06NES.jpg
400.309	0.514	Blank	Blank	59.875	n/a	4	11	5	n/a	85	n/a	1	n/a	n/a	n/a	n/a	434.506	n/a
400.84	0.497	neutral	Picture	59.361	n/a	4	11	6	n/a	86	9	1	n/a	n/a	n/a	n/a	435.036	AF17NES.jpg
401.337	0.514	Blank	Blank	58.847	n/a	4	11	6	n/a	86	n/a	1	n/a	n/a	n/a	n/a	435.534	n/a
401.867	0.497	neutral	Picture	58.333	n/a	4	11	7	n/a	87	2	1	n/a	n/a	n/a	n/a	436.064	AF03NES.jpg
402.365	0.514	Blank	Blank	57.82	n/a	4	11	7	n/a	87	n/a	1	n/a	n/a	n/a	n/a	436.562	n/a
402.895	0.497	neutral	Picture	57.306	n/a	4	11	8	n/a	88	17	1	n/a	n/a	n/a	n/a	437.092	BF28NES.jpg
403.393	0.514	Blank	Blank	56.792	n/a	4	11	8	n/a	88	n/a	1	n/a	n/a	n/a	n/a	437.589	n/a
403.923	0.497	neutral	Picture	56.278	n/a	4	11	9	n/a	89	6	1	n/a	n/a	n/a	n/a	438.12	AF09NES.jpg
404.421	0.514	Blank	Blank	55.764	n/a	4	11	9	n/a	89	n/a	1	n/a	n/a	n/a	n/a	438.617	n/a
404.951	0.497	neutral	Picture	55.25	n/a	4	11	10	n/a	90	12	1	n/a	n/a	n/a	n/a	439.148	AF21NES.jpg
405.448	0.514	Blank	Blank	54.736	n/a	4	11	10	n/a	90	n/a	1	n/a	n/a	n/a	n/a	439.645	n/a
405.979	0.497	neutral	Picture	54.222	n/a	4	11	11	n/a	91	24	1	n/a	n/a	n/a	n/a	440.176	BM05NES.jpg
406.476	0.514	Blank	Blank	53.708	n/a	4	11	11	n/a	91	n/a	1	n/a	n/a	n/a	n/a	440.673	n/a
407.007	0.497	neutral	Picture	53.194	n/a	4	11	12	n/a	92	34	1	n/a	n/a	n/a	n/a	441.204	AM22NES.jpg
407.504	0.514	Blank	Blank	52.68	n/a	4	11	12	n/a	92	n/a	1	n/a	n/a	n/a	n/a	441.701	n/a
408.035	0.497	neutral	Picture	52.166	n/a	4	11	13	n/a	93	23	1	n/a	n/a	n/a	n/a	442.231	AM04NES.jpg
408.532	0.514	Blank	Blank	51.652	n/a	4	11	13	n/a	93	n/a	1	n/a	n/a	n/a	n/a	442.729	n/a
409.063	0.497	neutral	Picture	51.138	n/a	4	11	14	n/a	94	15	1	n/a	n/a	n/a	n/a	443.259	AF25NES.jpg
409.56	0.514	Blank	Blank	50.624	n/a	4	11	14	n/a	94	n/a	1	n/a	n/a	n/a	n/a	443.757	n/a
410.091	0.497	neutral	Picture	50.111	n/a	4	11	15	n/a	95	37	1	n/a	n/a	n/a	n/a	444.287	BM25NES.jpg
410.588	0.514	Blank	Blank	49.596	n/a	4	11	15	n/a	95	n/a	1	n/a	n/a	n/a	n/a	444.785	n/a
411.118	0.497	neutral	Picture	49.083	n/a	4	11	16	n/a	96	32	1	n/a	n/a	n/a	n/a	445.315	AM14NES.jpg
411.616	0.514	Blank	Blank	48.569	n/a	4	11	16	n/a	96	n/a	1	n/a	n/a	n/a	n/a	445.813	n/a
412.146	0.497	neutral	Picture	48.055	n/a	4	11	17	n/a	97	3	1	n/a	n/a	n/a	n/a	446.343	BF04NES.jpg
412.644	0.514	Blank	Blank	47.541	n/a	4	11	17	n/a	97	n/a	1	n/a	n/a	n/a	n/a	446.84	n/a
413.174	0.497	neutral	Picture	47.027	n/a	4	11	18	n/a	98	16	1	n/a	n/a	n/a	n/a	447.371	AF26NES.jpg
413.671	0.514	Blank	Blank	46.513	n/a	4	11	18	n/a	98	n/a	1	n/a	n/a	n/a	n/a	447.868	n/a
414.202	0.497	neutral	Picture	45.999	n/a	4	11	19	n/a	99	27	1	n/a	n/a	n/a	n/a	448.399	BM08NES.jpg
414.699	0.514	Blank	Blank	45.485	n/a	4	11	19	n/a	99	n/a	1	n/a	n/a	n/a	n/a	448.896	n/a
415.23	0.497	neutral	Picture	44.971	n/a	4	11	20	n/a	100	28	1	n/a	n/a	n/a	n/a	449.427	AM09NES.jpg
415.727	0.514	Blank	Blank	44.457	n/a	4	11	20	n/a	100	n/a	1	n/a	n/a	n/a	n/a	449.924	n/a
416.258	10.014	ITI	Fixation+	34.427	n/a	4	n/a	n/a	n/a	n/a	n/a	n/a	n/a	n/a	n/a	n/a	450.454	n/a
426.288	0.497	happy	Picture	33.913	n/a	4	12	1	n/a	101	81	3	n/a	n/a	n/a	n/a	460.485	AF01ANS.jpg
426.785	0.514	Blank	Blank	33.399	n/a	4	12	1	n/a	101	n/a	3	n/a	n/a	n/a	n/a	460.982	n/a
427.316	0.497	happy	Picture	32.885	n/a	4	12	2	n/a	102	120	3	n/a	n/a	n/a	n/a	461.512	AM35ANS.jpg
427.813	0.514	Blank	Blank	32.371	n/a	4	12	2	n/a	102	n/a	3	n/a	n/a	n/a	n/a	462.01	n/a
428.344	0.497	happy	Picture	31.857	n/a	4	12	3	n/a	103	114	3	n/a	n/a	n/a	n/a	462.54	AM22ANS.jpg
428.841	0.514	Blank	Blank	31.343	n/a	4	12	3	n/a	103	n/a	3	n/a	n/a	n/a	n/a	463.038	n/a
429.372	0.497	happy	Picture	30.829	n/a	4	12	4	n/a	104	109	3	n/a	n/a	n/a	n/a	463.568	AM10ANS.jpg
429.869	0.514	Blank	Blank	30.315	n/a	4	12	4	n/a	104	n/a	3	n/a	n/a	n/a	n/a	464.066	n/a
430.399	0.497	happy	Picture	29.802	n/a	4	12	5	n/a	105	96	3	n/a	n/a	n/a	n/a	464.596	AF26ANS.jpg
430.897	0.514	Blank	Blank	29.288	n/a	4	12	5	n/a	105	n/a	3	n/a	n/a	n/a	n/a	465.094	n/a
431.427	0.497	happy	Picture	28.774	n/a	4	12	6	n/a	106	82	3	n/a	n/a	n/a	n/a	465.624	AF03ANS.jpg
431.925	0.514	Blank	Blank	28.26	n/a	4	12	6	n/a	106	n/a	3	n/a	n/a	n/a	n/a	466.121	n/a
432.455	0.497	happy	Picture	27.746	n/a	4	12	7	n/a	107	97	3	n/a	n/a	n/a	n/a	466.652	BF28ANS.jpg
432.952	0.514	Blank	Blank	27.232	n/a	4	12	7	n/a	107	n/a	3	n/a	n/a	n/a	n/a	467.149	n/a
433.483	0.497	happy	Picture	26.718	n/a	4	12	8	n/a	108	115	3	n/a	n/a	n/a	n/a	467.68	AM23ANS.jpg
433.98	0.514	Blank	Blank	26.204	n/a	4	12	8	n/a	108	n/a	3	n/a	n/a	n/a	n/a	468.177	n/a
434.511	0.497	happy	Picture	25.69	n/a	4	12	9	n/a	109	91	3	n/a	n/a	n/a	n/a	468.708	AF20ANS.jpg
435.008	0.514	Blank	Blank	25.176	n/a	4	12	9	n/a	109	n/a	3	n/a	n/a	n/a	n/a	469.205	n/a
435.539	0.497	happy	Picture	24.662	n/a	4	12	10	n/a	110	87	3	n/a	n/a	n/a	n/a	469.736	BF11ANS.jpg
436.036	0.514	Blank	Blank	24.148	n/a	4	12	10	n/a	110	n/a	3	n/a	n/a	n/a	n/a	470.233	n/a
436.567	0.497	happy	Picture	23.634	n/a	4	12	11	n/a	111	85	3	n/a	n/a	n/a	n/a	470.764	BF07ANS.jpg
437.064	0.514	Blank	Blank	23.12	n/a	4	12	11	n/a	111	n/a	3	n/a	n/a	n/a	n/a	471.261	n/a
437.594	0.497	happy	Picture	22.606	n/a	4	12	12	n/a	112	110	3	n/a	n/a	n/a	n/a	471.791	AM11ANS.jpg
438.092	0.514	Blank	Blank	22.093	n/a	4	12	12	n/a	112	n/a	3	n/a	n/a	n/a	n/a	472.289	n/a
438.622	0.497	happy	Picture	21.578	n/a	4	12	13	n/a	113	111	3	n/a	n/a	n/a	n/a	472.819	BM12ANS.jpg
439.12	0.514	Blank	Blank	21.065	n/a	4	12	13	n/a	113	n/a	3	n/a	n/a	n/a	n/a	473.317	n/a
439.65	0.497	happy	Picture	20.551	n/a	4	12	14	n/a	114	103	3	n/a	n/a	n/a	n/a	473.847	AM04ANS.jpg
440.148	0.514	Blank	Blank	20.037	n/a	4	12	14	n/a	114	n/a	3	n/a	n/a	n/a	n/a	474.344	n/a
440.678	0.497	happy	Picture	19.523	n/a	4	12	15	n/a	115	101	3	n/a	n/a	n/a	n/a	474.875	AM01ANS.jpg
441.175	0.514	Blank	Blank	19.009	n/a	4	12	15	n/a	115	n/a	3	n/a	n/a	n/a	n/a	475.372	n/a
441.706	0.497	happy	Picture	18.495	n/a	4	12	16	n/a	116	104	3	n/a	n/a	n/a	n/a	475.903	BM05ANS.jpg
442.203	0.514	Blank	Blank	17.981	n/a	4	12	16	n/a	116	n/a	3	n/a	n/a	n/a	n/a	476.4	n/a
442.734	0.497	happy	Picture	17.467	n/a	4	12	17	n/a	117	107	3	n/a	n/a	n/a	n/a	476.931	BM08ANS.jpg
443.231	0.514	Blank	Blank	16.953	n/a	4	12	17	n/a	117	n/a	3	n/a	n/a	n/a	n/a	477.428	n/a
443.762	0.497	happy	Picture	16.439	n/a	4	12	18	n/a	118	98	3	n/a	n/a	n/a	n/a	477.959	BF29ANS.jpg
444.259	0.514	Blank	Blank	15.925	n/a	4	12	18	n/a	118	n/a	3	n/a	n/a	n/a	n/a	478.456	n/a
444.79	0.497	happy	Picture	15.411	n/a	4	12	19	n/a	119	99	3	n/a	n/a	n/a	n/a	478.986	AF31ANS.jpg
445.287	0.514	Blank	Blank	14.897	n/a	4	12	19	n/a	119	n/a	3	n/a	n/a	n/a	n/a	479.484	n/a
445.817	0.497	happy	Picture	14.383	n/a	4	12	20	n/a	120	108	3	n/a	n/a	n/a	n/a	480.014	AM09ANS.jpg
446.315	0.514	Blank	Blank	13.869	n/a	4	12	20	n/a	120	n/a	3	n/a	n/a	n/a	n/a	480.512	n/a
446.846	10.014	ITI	Fixation+	3.839	n/a	4	n/a	n/a	n/a	n/a	n/a	n/a	n/a	n/a	n/a	n/a	481.042	n/a
460.698	n/a	ConfirmRating	Rate	n/a	3.83	4	n/a	n/a	0	n/a	n/a	n/a	2	Happy	76	53	494.895	n/a
462.594	n/a	ConfirmRating	Rate	n/a	1.874	4	n/a	n/a	1	n/a	n/a	n/a	3	Happy	0	49	496.791	n/a
