onset	duration	trial_type	event_type	trial_number	condition	picture_number	time_until_response	response_time	unpleasantness_rating	onset_uncorrected
0.012	4.725	ITI	Fixation+	0	Pain	n/a	8.38	n/a	n/a	32.489
4.753	3.498	Pic2	Picture	0	Pain	7	4.866	n/a	n/a	37.23
8.251	2.006	Blank	Blank	0	Pain	n/a	2.86	n/a	n/a	40.728
13.117	n/a	ConfirmRating	Rate	0	Pain	7	n/a	2.343	64	45.594
13.142	5.289	ITI	Fixation+	1	Pain	n/a	8.384	n/a	n/a	45.619
18.447	3.498	Pic2	Picture	1	Pain	15	4.869	n/a	n/a	50.924
21.945	2.006	Blank	Blank	1	Pain	n/a	2.863	n/a	n/a	54.422
26.815	n/a	ConfirmRating	Rate	1	Pain	15	n/a	2.346	66	59.292
26.836	5.023	ITI	Fixation+	2	No_Pain	n/a	7.495	n/a	n/a	59.313
31.876	3.498	Pic2	Picture	2	No_Pain	34	3.98	n/a	n/a	64.353
35.374	2.006	Blank	Blank	2	No_Pain	n/a	1.974	n/a	n/a	67.851
39.354	n/a	ConfirmRating	Rate	2	No_Pain	34	n/a	1.458	5	71.832
39.386	4.874	ITI	Fixation+	3	No_Pain	n/a	8.633	n/a	n/a	71.863
44.277	3.498	Pic2	Picture	3	No_Pain	35	5.118	n/a	n/a	76.754
47.775	2.006	Blank	Blank	3	No_Pain	n/a	3.112	n/a	n/a	80.252
52.893	n/a	ConfirmRating	Rate	3	No_Pain	35	n/a	2.596	9	85.37
52.914	5.056	ITI	Fixation+	4	Pain	n/a	10.886	n/a	n/a	85.391
57.988	3.498	Pic2	Picture	4	Pain	6	7.371	n/a	n/a	90.465
61.486	2.006	Blank	Blank	4	Pain	n/a	5.365	n/a	n/a	93.963
68.857	n/a	ConfirmRating	Rate	4	Pain	6	n/a	4.849	77	101.334
68.88	5.421	ITI	Fixation+	5	No_Pain	n/a	8.205	n/a	n/a	101.357
74.317	3.498	Pic2	Picture	5	No_Pain	29	4.69	n/a	n/a	106.795
77.816	2.006	Blank	Blank	5	No_Pain	n/a	2.684	n/a	n/a	110.293
82.506	n/a	ConfirmRating	Rate	5	No_Pain	29	n/a	2.167	2	114.983
82.524	5.852	ITI	Fixation+	6	No_Pain	n/a	8.285	n/a	n/a	115.001
88.393	3.498	Pic2	Picture	6	No_Pain	39	4.771	n/a	n/a	120.87
91.891	2.006	Blank	Blank	6	No_Pain	n/a	2.764	n/a	n/a	124.368
96.661	n/a	ConfirmRating	Rate	6	No_Pain	39	n/a	2.248	3	129.139
96.682	5.372	ITI	Fixation+	7	Pain	n/a	7.174	n/a	n/a	129.159
102.07	3.498	Pic2	Picture	7	Pain	9	3.66	n/a	n/a	134.547
105.568	2.006	Blank	Blank	7	Pain	n/a	1.654	n/a	n/a	138.046
109.228	n/a	ConfirmRating	Rate	7	Pain	9	n/a	1.137	78	141.705
109.248	5.057	ITI	Fixation+	8	Pain	n/a	10.963	n/a	n/a	141.725
114.322	3.498	Pic2	Picture	8	Pain	14	7.448	n/a	n/a	146.799
117.82	2.006	Blank	Blank	8	Pain	n/a	5.442	n/a	n/a	150.297
125.268	n/a	ConfirmRating	Rate	8	Pain	14	n/a	4.926	75	157.745
125.297	4.642	ITI	Fixation+	9	No_Pain	n/a	7.593	n/a	n/a	157.774
129.956	3.498	Pic2	Picture	9	No_Pain	27	4.078	n/a	n/a	162.433
133.454	2.006	Blank	Blank	9	No_Pain	n/a	2.072	n/a	n/a	165.931
137.532	n/a	ConfirmRating	Rate	9	No_Pain	27	n/a	1.555	3	170.009
137.549	5.322	ITI	Fixation+	10	Pain	n/a	9.466	n/a	n/a	170.026
142.887	3.498	Pic2	Picture	10	Pain	20	5.951	n/a	n/a	175.364
146.385	2.006	Blank	Blank	10	Pain	n/a	3.945	n/a	n/a	178.862
152.336	n/a	ConfirmRating	Rate	10	Pain	20	n/a	3.429	79	184.814
152.353	4.228	ITI	Fixation+	11	No_Pain	n/a	13.0	n/a	n/a	184.831
156.598	3.498	Pic2	Picture	11	No_Pain	40	9.485	n/a	n/a	189.075
160.096	2.006	Blank	Blank	11	No_Pain	n/a	7.479	n/a	n/a	192.573
169.581	n/a	ConfirmRating	Rate	11	No_Pain	40	n/a	6.963	18	202.058
169.612	4.559	ITI	Fixation+	12	No_Pain	n/a	8.746	n/a	n/a	202.089
174.188	3.498	Pic2	Picture	12	No_Pain	33	5.231	n/a	n/a	206.665
177.686	2.006	Blank	Blank	12	No_Pain	n/a	3.225	n/a	n/a	210.163
182.917	n/a	ConfirmRating	Rate	12	No_Pain	33	n/a	2.709	5	215.394
182.941	5.819	ITI	Fixation+	13	Pain	n/a	9.567	n/a	n/a	215.418
188.777	3.498	Pic2	Picture	13	Pain	18	6.053	n/a	n/a	221.254
192.275	2.006	Blank	Blank	13	Pain	n/a	4.047	n/a	n/a	224.752
198.328	n/a	ConfirmRating	Rate	13	Pain	18	n/a	3.53	77	230.805
198.359	5.487	ITI	Fixation+	14	No_Pain	n/a	13.359	n/a	n/a	230.837
203.863	3.498	Pic2	Picture	14	No_Pain	31	9.845	n/a	n/a	236.341
207.362	2.006	Blank	Blank	14	No_Pain	n/a	7.839	n/a	n/a	239.839
217.206	n/a	ConfirmRating	Rate	14	No_Pain	31	n/a	7.322	5	249.683
217.226	4.161	ITI	Fixation+	15	Pain	n/a	7.699	n/a	n/a	249.703
221.404	3.498	Pic2	Picture	15	Pain	17	4.184	n/a	n/a	253.881
224.902	2.006	Blank	Blank	15	Pain	n/a	2.178	n/a	n/a	257.379
229.086	n/a	ConfirmRating	Rate	15	Pain	17	n/a	1.662	78	261.563
229.113	4.725	ITI	Fixation+	16	Pain	n/a	8.032	n/a	n/a	261.59
233.854	3.498	Pic2	Picture	16	Pain	11	4.517	n/a	n/a	266.331
237.353	2.006	Blank	Blank	16	Pain	n/a	2.511	n/a	n/a	269.83
241.87	n/a	ConfirmRating	Rate	16	Pain	11	n/a	1.994	84	274.347
241.895	4.36	ITI	Fixation+	17	No_Pain	n/a	10.16	n/a	n/a	274.372
246.272	3.498	Pic2	Picture	17	No_Pain	36	6.645	n/a	n/a	278.749
249.77	2.006	Blank	Blank	17	No_Pain	n/a	4.639	n/a	n/a	282.247
256.415	n/a	ConfirmRating	Rate	17	No_Pain	36	n/a	4.123	5	288.892
256.435	4.029	ITI	Fixation+	18	Pain	n/a	8.681	n/a	n/a	288.912
260.48	3.498	Pic2	Picture	18	Pain	10	5.166	n/a	n/a	292.957
263.978	2.006	Blank	Blank	18	Pain	n/a	3.16	n/a	n/a	296.455
269.144	n/a	ConfirmRating	Rate	18	Pain	10	n/a	2.644	77	301.621
269.167	5.355	ITI	Fixation+	19	No_Pain	n/a	9.532	n/a	n/a	301.644
274.538	3.498	Pic2	Picture	19	No_Pain	23	6.017	n/a	n/a	307.016
278.037	2.006	Blank	Blank	19	No_Pain	n/a	4.011	n/a	n/a	310.514
284.054	n/a	ConfirmRating	Rate	19	No_Pain	23	n/a	3.495	5	316.531
284.071	15.004	Rest	n/a	19	n/a	n/a	-15.021	n/a	n/a	316.548
299.091	4.194	ITI	Fixation+	20	Pain	n/a	8.023	n/a	n/a	331.569
303.303	3.498	Pic2	Picture	20	Pain	1	4.508	n/a	n/a	335.78
306.801	2.006	Blank	Blank	20	Pain	n/a	2.502	n/a	n/a	339.278
311.308	n/a	ConfirmRating	Rate	20	Pain	1	n/a	1.985	72	343.786
311.327	5.819	ITI	Fixation+	21	Pain	n/a	10.303	n/a	n/a	343.804
317.162	3.498	Pic2	Picture	21	Pain	8	6.788	n/a	n/a	349.639
320.66	2.006	Blank	Blank	21	Pain	n/a	4.782	n/a	n/a	353.137
327.448	n/a	ConfirmRating	Rate	21	Pain	8	n/a	4.265	63	359.925
327.474	4.725	ITI	Fixation+	22	No_Pain	n/a	11.58	n/a	n/a	359.951
332.216	3.498	Pic2	Picture	22	No_Pain	22	8.065	n/a	n/a	364.693
335.714	2.006	Blank	Blank	22	No_Pain	n/a	6.059	n/a	n/a	368.191
343.779	n/a	ConfirmRating	Rate	22	No_Pain	22	n/a	5.542	2	376.256
343.804	4.36	ITI	Fixation+	23	Pain	n/a	10.858	n/a	n/a	376.281
348.181	3.498	Pic2	Picture	23	Pain	16	7.343	n/a	n/a	380.658
351.679	2.006	Blank	Blank	23	Pain	n/a	5.337	n/a	n/a	384.156
359.023	n/a	ConfirmRating	Rate	23	Pain	16	n/a	4.821	74	391.5
359.04	4.559	ITI	Fixation+	24	No_Pain	n/a	9.77	n/a	n/a	391.517
363.616	3.498	Pic2	Picture	24	No_Pain	38	6.255	n/a	n/a	396.093
367.114	2.006	Blank	Blank	24	No_Pain	n/a	4.249	n/a	n/a	399.591
373.369	n/a	ConfirmRating	Rate	24	No_Pain	38	n/a	3.733	25	405.846
373.397	5.09	ITI	Fixation+	25	No_Pain	n/a	13.18	n/a	n/a	405.874
378.503	3.498	Pic2	Picture	25	No_Pain	21	9.665	n/a	n/a	410.981
382.002	2.006	Blank	Blank	25	No_Pain	n/a	7.659	n/a	n/a	414.479
391.667	n/a	ConfirmRating	Rate	25	No_Pain	21	n/a	7.143	4	424.144
391.684	4.161	ITI	Fixation+	26	Pain	n/a	9.344	n/a	n/a	424.161
395.861	3.498	Pic2	Picture	26	Pain	5	5.829	n/a	n/a	428.339
399.359	2.006	Blank	Blank	26	Pain	n/a	3.823	n/a	n/a	431.837
405.189	n/a	ConfirmRating	Rate	26	Pain	5	n/a	3.306	80	437.666
405.212	5.239	ITI	Fixation+	27	No_Pain	n/a	9.229	n/a	n/a	437.689
410.467	3.498	Pic2	Picture	27	No_Pain	32	5.714	n/a	n/a	442.944
413.965	2.006	Blank	Blank	27	No_Pain	n/a	3.708	n/a	n/a	446.442
419.679	n/a	ConfirmRating	Rate	27	No_Pain	32	n/a	3.191	2	452.156
419.702	4.327	ITI	Fixation+	28	Pain	n/a	8.808	n/a	n/a	452.179
424.045	3.498	Pic2	Picture	28	Pain	13	5.293	n/a	n/a	456.522
427.543	2.006	Blank	Blank	28	Pain	n/a	3.287	n/a	n/a	460.02
432.836	n/a	ConfirmRating	Rate	28	Pain	13	n/a	2.77	78	465.313
432.865	5.454	ITI	Fixation+	29	No_Pain	n/a	8.51	n/a	n/a	465.342
438.336	3.498	Pic2	Picture	29	No_Pain	28	4.996	n/a	n/a	470.813
441.834	2.006	Blank	Blank	29	No_Pain	n/a	2.99	n/a	n/a	474.311
446.83	n/a	ConfirmRating	Rate	29	No_Pain	28	n/a	2.474	8	479.307
446.858	5.885	ITI	Fixation+	30	Pain	n/a	9.077	n/a	n/a	479.335
452.76	3.498	Pic2	Picture	30	Pain	4	5.562	n/a	n/a	485.237
456.258	2.006	Blank	Blank	30	Pain	n/a	3.556	n/a	n/a	488.735
461.82	n/a	ConfirmRating	Rate	30	Pain	4	n/a	3.039	76	494.297
461.845	4.742	ITI	Fixation+	31	No_Pain	n/a	11.486	n/a	n/a	494.322
466.603	3.498	Pic2	Picture	31	No_Pain	30	7.972	n/a	n/a	499.08
470.101	2.006	Blank	Blank	31	No_Pain	n/a	5.966	n/a	n/a	502.578
478.072	n/a	ConfirmRating	Rate	31	No_Pain	30	n/a	5.449	10	510.55
478.092	5.222	ITI	Fixation+	32	Pain	n/a	9.133	n/a	n/a	510.569
483.331	3.498	Pic2	Picture	32	Pain	3	5.618	n/a	n/a	515.808
486.829	2.006	Blank	Blank	32	Pain	n/a	3.612	n/a	n/a	519.306
492.447	n/a	ConfirmRating	Rate	32	Pain	3	n/a	3.096	70	524.924
492.465	4.576	ITI	Fixation+	33	Pain	n/a	9.21	n/a	n/a	524.943
497.058	3.498	Pic2	Picture	33	Pain	12	5.695	n/a	n/a	529.535
500.556	2.006	Blank	Blank	33	Pain	n/a	3.689	n/a	n/a	533.033
506.251	n/a	ConfirmRating	Rate	33	Pain	12	n/a	3.173	78	538.728
506.276	5.488	ITI	Fixation+	34	No_Pain	n/a	8.215	n/a	n/a	538.753
511.78	3.498	Pic2	Picture	34	No_Pain	26	4.7	n/a	n/a	544.257
515.278	2.006	Blank	Blank	34	No_Pain	n/a	2.694	n/a	n/a	547.755
519.978	n/a	ConfirmRating	Rate	34	No_Pain	26	n/a	2.177	7	552.455
520.003	4.46	ITI	Fixation+	35	Pain	n/a	10.769	n/a	n/a	552.48
524.479	3.498	Pic2	Picture	35	Pain	2	7.254	n/a	n/a	556.956
527.977	2.006	Blank	Blank	35	Pain	n/a	5.248	n/a	n/a	560.454
535.231	n/a	ConfirmRating	Rate	35	Pain	2	n/a	4.732	74	567.708
535.255	4.708	ITI	Fixation+	36	No_Pain	n/a	8.597	n/a	n/a	567.732
539.98	3.498	Pic2	Picture	36	No_Pain	37	5.082	n/a	n/a	572.457
543.478	2.006	Blank	Blank	36	No_Pain	n/a	3.076	n/a	n/a	575.955
548.56	n/a	ConfirmRating	Rate	36	No_Pain	37	n/a	2.56	4	581.037
548.584	5.139	ITI	Fixation+	37	Pain	n/a	8.978	n/a	n/a	581.062
553.74	3.498	Pic2	Picture	37	Pain	19	5.463	n/a	n/a	586.217
557.239	2.006	Blank	Blank	37	Pain	n/a	3.457	n/a	n/a	589.716
562.702	n/a	ConfirmRating	Rate	37	Pain	19	n/a	2.941	69	595.179
562.726	4.178	ITI	Fixation+	38	No_Pain	n/a	11.547	n/a	n/a	595.203
566.92	3.498	Pic2	Picture	38	No_Pain	25	8.032	n/a	n/a	599.398
570.418	2.006	Blank	Blank	38	No_Pain	n/a	6.026	n/a	n/a	602.896
578.451	n/a	ConfirmRating	Rate	38	No_Pain	25	n/a	5.509	5	610.928
578.476	5.156	ITI	Fixation+	39	No_Pain	n/a	10.788	n/a	n/a	610.953
583.648	3.498	Pic2	Picture	39	No_Pain	24	7.274	n/a	n/a	616.125
587.146	2.006	Blank	Blank	39	No_Pain	n/a	5.268	n/a	n/a	619.624
594.42	n/a	ConfirmRating	Rate	39	No_Pain	24	n/a	4.751	3	626.897
