onset	duration	trial_type	event_type	time_until_response	response_time	trial_number	block_num_within_trial	image_seq_num_within_block	question_seq_num_within_block	image_seq_num	picture_number	condition	question_type	block_type	rating	rating_computed	onset_uncorrected	KDEV_imagefile
0.01	10.014	ITI	Fixation+	100.926	n/a	1	n/a	n/a	n/a	n/a	n/a	n/a	n/a	n/a	n/a	n/a	29.14	n/a
10.04	0.497	happy	Picture	100.412	n/a	1	1	1	n/a	1	46	2	n/a	n/a	n/a	n/a	39.17	AF09HAS.jpg
10.537	0.514	Blank	Blank	99.898	n/a	1	1	1	n/a	1	n/a	2	n/a	n/a	n/a	n/a	39.667	n/a
11.068	0.497	happy	Picture	99.384	n/a	1	1	2	n/a	2	69	2	n/a	n/a	n/a	n/a	40.198	AM10HAS.jpg
11.565	0.514	Blank	Blank	98.87	n/a	1	1	2	n/a	2	n/a	2	n/a	n/a	n/a	n/a	40.695	n/a
12.096	0.497	happy	Picture	98.356	n/a	1	1	3	n/a	3	71	2	n/a	n/a	n/a	n/a	41.226	BM12HAS.jpg
12.593	0.514	Blank	Blank	97.842	n/a	1	1	3	n/a	3	n/a	2	n/a	n/a	n/a	n/a	41.723	n/a
13.123	0.497	happy	Picture	97.328	n/a	1	1	4	n/a	4	51	2	n/a	n/a	n/a	n/a	42.254	AF20HAS.jpg
13.621	0.514	Blank	Blank	96.814	n/a	1	1	4	n/a	4	n/a	2	n/a	n/a	n/a	n/a	42.751	n/a
14.151	0.497	happy	Picture	96.3	n/a	1	1	5	n/a	5	67	2	n/a	n/a	n/a	n/a	43.282	BM08HAS.jpg
14.649	0.514	Blank	Blank	95.787	n/a	1	1	5	n/a	5	n/a	2	n/a	n/a	n/a	n/a	43.779	n/a
15.179	0.497	happy	Picture	95.273	n/a	1	1	6	n/a	6	60	2	n/a	n/a	n/a	n/a	44.309	AF32HAS.jpg
15.677	0.514	Blank	Blank	94.759	n/a	1	1	6	n/a	6	n/a	2	n/a	n/a	n/a	n/a	44.807	n/a
16.207	0.497	happy	Picture	94.245	n/a	1	1	7	n/a	7	42	2	n/a	n/a	n/a	n/a	45.337	AF03HAS.jpg
16.705	0.514	Blank	Blank	93.731	n/a	1	1	7	n/a	7	n/a	2	n/a	n/a	n/a	n/a	45.835	n/a
17.235	0.497	happy	Picture	93.217	n/a	1	1	8	n/a	8	55	2	n/a	n/a	n/a	n/a	46.365	AF25HAS.jpg
17.732	0.514	Blank	Blank	92.703	n/a	1	1	8	n/a	8	n/a	2	n/a	n/a	n/a	n/a	46.863	n/a
18.263	0.497	happy	Picture	92.189	n/a	1	1	9	n/a	9	72	2	n/a	n/a	n/a	n/a	47.393	AM14HAS.jpg
18.76	0.514	Blank	Blank	91.675	n/a	1	1	9	n/a	9	n/a	2	n/a	n/a	n/a	n/a	47.891	n/a
19.291	0.497	happy	Picture	91.161	n/a	1	1	10	n/a	10	63	2	n/a	n/a	n/a	n/a	48.421	AM04HAS.jpg
19.788	0.514	Blank	Blank	90.647	n/a	1	1	10	n/a	10	n/a	2	n/a	n/a	n/a	n/a	48.918	n/a
20.319	0.497	happy	Picture	90.133	n/a	1	1	11	n/a	11	58	2	n/a	n/a	n/a	n/a	49.449	BF29HAS.jpg
20.816	0.514	Blank	Blank	89.619	n/a	1	1	11	n/a	11	n/a	2	n/a	n/a	n/a	n/a	49.946	n/a
21.346	0.497	happy	Picture	89.105	n/a	1	1	12	n/a	12	48	2	n/a	n/a	n/a	n/a	50.477	AF14HAS.jpg
21.844	0.514	Blank	Blank	88.591	n/a	1	1	12	n/a	12	n/a	2	n/a	n/a	n/a	n/a	50.974	n/a
22.374	0.497	happy	Picture	88.077	n/a	1	1	13	n/a	13	66	2	n/a	n/a	n/a	n/a	51.505	BM07HAS.jpg
22.872	0.514	Blank	Blank	87.563	n/a	1	1	13	n/a	13	n/a	2	n/a	n/a	n/a	n/a	52.002	n/a
23.402	0.497	happy	Picture	87.05	n/a	1	1	14	n/a	14	70	2	n/a	n/a	n/a	n/a	52.532	BM11HAS.jpg
23.9	0.514	Blank	Blank	86.536	n/a	1	1	14	n/a	14	n/a	2	n/a	n/a	n/a	n/a	53.03	n/a
24.43	0.497	happy	Picture	86.022	n/a	1	1	15	n/a	15	43	2	n/a	n/a	n/a	n/a	53.56	BF04HAS.jpg
24.928	0.514	Blank	Blank	85.508	n/a	1	1	15	n/a	15	n/a	2	n/a	n/a	n/a	n/a	54.058	n/a
25.458	0.497	happy	Picture	84.994	n/a	1	1	16	n/a	16	49	2	n/a	n/a	n/a	n/a	54.588	AF17HAS.jpg
25.955	0.514	Blank	Blank	84.48	n/a	1	1	16	n/a	16	n/a	2	n/a	n/a	n/a	n/a	55.086	n/a
26.486	0.497	happy	Picture	83.966	n/a	1	1	17	n/a	17	75	2	n/a	n/a	n/a	n/a	55.616	AM23HAS.jpg
26.983	0.514	Blank	Blank	83.452	n/a	1	1	17	n/a	17	n/a	2	n/a	n/a	n/a	n/a	56.114	n/a
27.514	0.497	happy	Picture	82.938	n/a	1	1	18	n/a	18	80	2	n/a	n/a	n/a	n/a	56.644	BM35HAS.jpg
28.011	0.514	Blank	Blank	82.424	n/a	1	1	18	n/a	18	n/a	2	n/a	n/a	n/a	n/a	57.141	n/a
28.542	0.497	happy	Picture	81.91	n/a	1	1	19	n/a	19	76	2	n/a	n/a	n/a	n/a	57.672	BM24HAS.jpg
29.039	0.514	Blank	Blank	81.396	n/a	1	1	19	n/a	19	n/a	2	n/a	n/a	n/a	n/a	58.169	n/a
29.57	0.497	happy	Picture	80.882	n/a	1	1	20	n/a	20	74	2	n/a	n/a	n/a	n/a	58.7	AM22HAS.jpg
30.067	0.514	Blank	Blank	80.368	n/a	1	1	20	n/a	20	n/a	2	n/a	n/a	n/a	n/a	59.197	n/a
30.597	10.014	ITI	Fixation+	70.338	n/a	1	n/a	n/a	n/a	n/a	n/a	n/a	n/a	n/a	n/a	n/a	59.728	n/a
40.628	0.497	neutral	Picture	69.824	n/a	1	2	1	n/a	21	33	1	n/a	n/a	n/a	n/a	69.758	AM21NES.jpg
41.125	0.514	Blank	Blank	69.31	n/a	1	2	1	n/a	21	n/a	1	n/a	n/a	n/a	n/a	70.255	n/a
41.655	0.495	neutral	Picture	68.798	n/a	1	2	2	n/a	22	39	1	n/a	n/a	n/a	n/a	70.786	AM28NES.jpg
42.151	0.516	Blank	Blank	68.282	n/a	1	2	2	n/a	22	n/a	1	n/a	n/a	n/a	n/a	71.281	n/a
42.683	0.497	neutral	Picture	67.769	n/a	1	2	3	n/a	23	25	1	n/a	n/a	n/a	n/a	71.814	BM06NES.jpg
43.181	0.514	Blank	Blank	67.255	n/a	1	2	3	n/a	23	n/a	1	n/a	n/a	n/a	n/a	72.311	n/a
43.711	0.497	neutral	Picture	66.741	n/a	1	2	4	n/a	24	5	1	n/a	n/a	n/a	n/a	72.841	BF07NES.jpg
44.209	0.514	Blank	Blank	66.227	n/a	1	2	4	n/a	24	n/a	1	n/a	n/a	n/a	n/a	73.339	n/a
44.739	0.497	neutral	Picture	65.713	n/a	1	2	5	n/a	25	10	1	n/a	n/a	n/a	n/a	73.869	AF18NES.jpg
45.236	0.514	Blank	Blank	65.199	n/a	1	2	5	n/a	25	n/a	1	n/a	n/a	n/a	n/a	74.367	n/a
45.767	0.497	neutral	Picture	64.685	n/a	1	2	6	n/a	26	34	1	n/a	n/a	n/a	n/a	74.897	AM22NES.jpg
46.264	0.514	Blank	Blank	64.171	n/a	1	2	6	n/a	26	n/a	1	n/a	n/a	n/a	n/a	75.395	n/a
46.795	0.497	neutral	Picture	63.657	n/a	1	2	7	n/a	27	36	1	n/a	n/a	n/a	n/a	75.925	BM24NES.jpg
47.292	0.514	Blank	Blank	63.143	n/a	1	2	7	n/a	27	n/a	1	n/a	n/a	n/a	n/a	76.422	n/a
47.823	0.497	neutral	Picture	62.629	n/a	1	2	8	n/a	28	14	1	n/a	n/a	n/a	n/a	76.953	AF23NES.jpg
48.32	0.514	Blank	Blank	62.115	n/a	1	2	8	n/a	28	n/a	1	n/a	n/a	n/a	n/a	77.45	n/a
48.851	0.497	neutral	Picture	61.601	n/a	1	2	9	n/a	29	9	1	n/a	n/a	n/a	n/a	77.981	AF17NES.jpg
49.348	0.514	Blank	Blank	61.087	n/a	1	2	9	n/a	29	n/a	1	n/a	n/a	n/a	n/a	78.478	n/a
49.878	0.497	neutral	Picture	60.573	n/a	1	2	10	n/a	30	19	1	n/a	n/a	n/a	n/a	79.009	AF31NES.jpg
50.376	0.514	Blank	Blank	60.059	n/a	1	2	10	n/a	30	n/a	1	n/a	n/a	n/a	n/a	79.506	n/a
50.906	0.497	neutral	Picture	59.545	n/a	1	2	11	n/a	31	15	1	n/a	n/a	n/a	n/a	80.037	AF25NES.jpg
51.404	0.514	Blank	Blank	59.032	n/a	1	2	11	n/a	31	n/a	1	n/a	n/a	n/a	n/a	80.534	n/a
51.934	0.497	neutral	Picture	58.518	n/a	1	2	12	n/a	32	22	1	n/a	n/a	n/a	n/a	81.064	BM03NES.jpg
52.432	0.514	Blank	Blank	58.004	n/a	1	2	12	n/a	32	n/a	1	n/a	n/a	n/a	n/a	81.562	n/a
52.962	0.497	neutral	Picture	57.49	n/a	1	2	13	n/a	33	11	1	n/a	n/a	n/a	n/a	82.092	AF20NES.jpg
53.459	0.514	Blank	Blank	56.976	n/a	1	2	13	n/a	33	n/a	1	n/a	n/a	n/a	n/a	82.59	n/a
53.99	0.497	neutral	Picture	56.462	n/a	1	2	14	n/a	34	4	1	n/a	n/a	n/a	n/a	83.12	AF05NES.jpg
54.487	0.514	Blank	Blank	55.948	n/a	1	2	14	n/a	34	n/a	1	n/a	n/a	n/a	n/a	83.618	n/a
55.018	0.497	neutral	Picture	55.434	n/a	1	2	15	n/a	35	17	1	n/a	n/a	n/a	n/a	84.148	BF28NES.jpg
55.515	0.514	Blank	Blank	54.92	n/a	1	2	15	n/a	35	n/a	1	n/a	n/a	n/a	n/a	84.645	n/a
56.046	0.497	neutral	Picture	54.406	n/a	1	2	16	n/a	36	13	1	n/a	n/a	n/a	n/a	85.176	BF22NES.jpg
56.543	0.514	Blank	Blank	53.892	n/a	1	2	16	n/a	36	n/a	1	n/a	n/a	n/a	n/a	85.673	n/a
57.074	0.497	neutral	Picture	53.378	n/a	1	2	17	n/a	37	12	1	n/a	n/a	n/a	n/a	86.204	AF21NES.jpg
57.571	0.514	Blank	Blank	52.864	n/a	1	2	17	n/a	37	n/a	1	n/a	n/a	n/a	n/a	86.701	n/a
58.102	0.497	neutral	Picture	52.35	n/a	1	2	18	n/a	38	24	1	n/a	n/a	n/a	n/a	87.232	BM05NES.jpg
58.599	0.514	Blank	Blank	51.836	n/a	1	2	18	n/a	38	n/a	1	n/a	n/a	n/a	n/a	87.729	n/a
59.129	0.497	neutral	Picture	51.322	n/a	1	2	19	n/a	39	29	1	n/a	n/a	n/a	n/a	88.26	AM10NES.jpg
59.627	0.514	Blank	Blank	50.809	n/a	1	2	19	n/a	39	n/a	1	n/a	n/a	n/a	n/a	88.757	n/a
60.157	0.497	neutral	Picture	50.295	n/a	1	2	20	n/a	40	23	1	n/a	n/a	n/a	n/a	89.287	AM04NES.jpg
60.655	0.514	Blank	Blank	49.781	n/a	1	2	20	n/a	40	n/a	1	n/a	n/a	n/a	n/a	89.785	n/a
61.185	10.014	ITI	Fixation+	39.751	n/a	1	n/a	n/a	n/a	n/a	n/a	n/a	n/a	n/a	n/a	n/a	90.315	n/a
71.215	0.497	happy	Picture	39.237	n/a	1	3	1	n/a	41	62	2	n/a	n/a	n/a	n/a	100.346	BM03HAS.jpg
71.713	0.514	Blank	Blank	38.723	n/a	1	3	1	n/a	41	n/a	2	n/a	n/a	n/a	n/a	100.843	n/a
72.243	0.497	happy	Picture	38.209	n/a	1	3	2	n/a	42	52	2	n/a	n/a	n/a	n/a	101.373	AF21HAS.jpg
72.74	0.514	Blank	Blank	37.695	n/a	1	3	2	n/a	42	n/a	2	n/a	n/a	n/a	n/a	101.871	n/a
73.271	0.497	happy	Picture	37.181	n/a	1	3	3	n/a	43	44	2	n/a	n/a	n/a	n/a	102.401	AF05HAS.jpg
73.768	0.514	Blank	Blank	36.667	n/a	1	3	3	n/a	43	n/a	2	n/a	n/a	n/a	n/a	102.899	n/a
74.299	0.497	happy	Picture	36.153	n/a	1	3	4	n/a	44	53	2	n/a	n/a	n/a	n/a	103.429	BF22HAS.jpg
74.796	0.514	Blank	Blank	35.639	n/a	1	3	4	n/a	44	n/a	2	n/a	n/a	n/a	n/a	103.927	n/a
75.327	0.497	happy	Picture	35.125	n/a	1	3	5	n/a	45	54	2	n/a	n/a	n/a	n/a	104.457	AF23HAS.jpg
75.824	0.514	Blank	Blank	34.611	n/a	1	3	5	n/a	45	n/a	2	n/a	n/a	n/a	n/a	104.954	n/a
76.355	0.497	happy	Picture	34.097	n/a	1	3	6	n/a	46	68	2	n/a	n/a	n/a	n/a	105.485	AM09HAS.jpg
76.852	0.514	Blank	Blank	33.583	n/a	1	3	6	n/a	46	n/a	2	n/a	n/a	n/a	n/a	105.982	n/a
77.382	0.497	happy	Picture	33.069	n/a	1	3	7	n/a	47	64	2	n/a	n/a	n/a	n/a	106.513	BM05HAS.jpg
77.88	0.514	Blank	Blank	32.555	n/a	1	3	7	n/a	47	n/a	2	n/a	n/a	n/a	n/a	107.01	n/a
78.41	0.497	happy	Picture	32.041	n/a	1	3	8	n/a	48	59	2	n/a	n/a	n/a	n/a	107.541	AF31HAS.jpg
78.908	0.514	Blank	Blank	31.527	n/a	1	3	8	n/a	48	n/a	2	n/a	n/a	n/a	n/a	108.038	n/a
79.438	0.497	happy	Picture	31.014	n/a	1	3	9	n/a	49	41	2	n/a	n/a	n/a	n/a	108.569	AF01HAS.jpg
79.936	0.514	Blank	Blank	30.5	n/a	1	3	9	n/a	49	n/a	2	n/a	n/a	n/a	n/a	109.066	n/a
80.466	0.497	happy	Picture	29.986	n/a	1	3	10	n/a	50	73	2	n/a	n/a	n/a	n/a	109.596	AM21HAS.jpg
80.964	0.514	Blank	Blank	29.472	n/a	1	3	10	n/a	50	n/a	2	n/a	n/a	n/a	n/a	110.094	n/a
81.494	0.497	happy	Picture	28.958	n/a	1	3	11	n/a	51	65	2	n/a	n/a	n/a	n/a	110.624	BM06HAS.jpg
81.991	0.514	Blank	Blank	28.444	n/a	1	3	11	n/a	51	n/a	2	n/a	n/a	n/a	n/a	111.122	n/a
82.522	0.497	happy	Picture	27.93	n/a	1	3	12	n/a	52	56	2	n/a	n/a	n/a	n/a	111.652	AF26HAS.jpg
83.019	0.514	Blank	Blank	27.416	n/a	1	3	12	n/a	52	n/a	2	n/a	n/a	n/a	n/a	112.15	n/a
83.55	0.497	happy	Picture	26.902	n/a	1	3	13	n/a	53	45	2	n/a	n/a	n/a	n/a	112.68	BF07HAS.jpg
84.047	0.514	Blank	Blank	26.388	n/a	1	3	13	n/a	53	n/a	2	n/a	n/a	n/a	n/a	113.177	n/a
84.578	0.497	happy	Picture	25.874	n/a	1	3	14	n/a	54	78	2	n/a	n/a	n/a	n/a	113.708	BM26HAS.jpg
85.075	0.514	Blank	Blank	25.36	n/a	1	3	14	n/a	54	n/a	2	n/a	n/a	n/a	n/a	114.205	n/a
85.606	0.497	happy	Picture	24.846	n/a	1	3	15	n/a	55	50	2	n/a	n/a	n/a	n/a	114.736	AF18HAS.jpg
86.103	0.514	Blank	Blank	24.332	n/a	1	3	15	n/a	55	n/a	2	n/a	n/a	n/a	n/a	115.233	n/a
86.633	0.497	happy	Picture	23.818	n/a	1	3	16	n/a	56	47	2	n/a	n/a	n/a	n/a	115.764	BF11HAS.jpg
87.131	0.514	Blank	Blank	23.304	n/a	1	3	16	n/a	56	n/a	2	n/a	n/a	n/a	n/a	116.261	n/a
87.661	0.497	happy	Picture	22.791	n/a	1	3	17	n/a	57	77	2	n/a	n/a	n/a	n/a	116.792	BM25HAS.jpg
88.159	0.514	Blank	Blank	22.277	n/a	1	3	17	n/a	57	n/a	2	n/a	n/a	n/a	n/a	117.289	n/a
88.689	0.497	happy	Picture	21.763	n/a	1	3	18	n/a	58	57	2	n/a	n/a	n/a	n/a	117.82	BF28HAS.jpg
89.186	0.514	Blank	Blank	21.249	n/a	1	3	18	n/a	58	n/a	2	n/a	n/a	n/a	n/a	118.317	n/a
89.717	0.497	happy	Picture	20.735	n/a	1	3	19	n/a	59	61	2	n/a	n/a	n/a	n/a	118.847	AM01HAS.jpg
90.214	0.514	Blank	Blank	20.221	n/a	1	3	19	n/a	59	n/a	2	n/a	n/a	n/a	n/a	119.345	n/a
90.745	0.497	happy	Picture	19.707	n/a	1	3	20	n/a	60	79	2	n/a	n/a	n/a	n/a	119.875	BM28HAS.jpg
91.242	0.514	Blank	Blank	19.193	n/a	1	3	20	n/a	60	n/a	2	n/a	n/a	n/a	n/a	120.373	n/a
91.773	10.014	ITI	Fixation+	9.163	n/a	1	n/a	n/a	n/a	n/a	n/a	n/a	n/a	n/a	n/a	n/a	120.903	n/a
110.949	n/a	ConfirmRating	Rate	n/a	9.135	1	n/a	n/a	0	n/a	n/a	n/a	2	Happy	65	65	140.079	n/a
125.626	n/a	ConfirmRating	Rate	n/a	14.655	1	n/a	n/a	1	n/a	n/a	n/a	3	Happy	11	11	154.756	n/a
125.643	10.014	ITI	Fixation+	101.743	n/a	2	n/a	n/a	n/a	n/a	n/a	n/a	n/a	n/a	n/a	n/a	154.773	n/a
135.673	0.497	angry	Picture	101.229	n/a	2	4	1	n/a	61	119	3	n/a	n/a	n/a	n/a	164.804	BM28ANS.jpg
136.171	0.514	Blank	Blank	100.715	n/a	2	4	1	n/a	61	n/a	3	n/a	n/a	n/a	n/a	165.301	n/a
136.701	0.497	angry	Picture	100.202	n/a	2	4	2	n/a	62	100	3	n/a	n/a	n/a	n/a	165.831	AF32ANS.jpg
137.198	0.514	Blank	Blank	99.688	n/a	2	4	2	n/a	62	n/a	3	n/a	n/a	n/a	n/a	166.329	n/a
137.729	0.497	angry	Picture	99.174	n/a	2	4	3	n/a	63	118	3	n/a	n/a	n/a	n/a	166.859	BM26ANS.jpg
138.226	0.514	Blank	Blank	98.66	n/a	2	4	3	n/a	63	n/a	3	n/a	n/a	n/a	n/a	167.357	n/a
138.757	0.497	angry	Picture	98.146	n/a	2	4	4	n/a	64	89	3	n/a	n/a	n/a	n/a	167.887	AF17ANS.jpg
139.254	0.514	Blank	Blank	97.632	n/a	2	4	4	n/a	64	n/a	3	n/a	n/a	n/a	n/a	168.385	n/a
139.785	0.497	angry	Picture	97.118	n/a	2	4	5	n/a	65	116	3	n/a	n/a	n/a	n/a	168.915	BM24ANS.jpg
140.282	0.514	Blank	Blank	96.604	n/a	2	4	5	n/a	65	n/a	3	n/a	n/a	n/a	n/a	169.412	n/a
140.813	0.497	angry	Picture	96.09	n/a	2	4	6	n/a	66	105	3	n/a	n/a	n/a	n/a	169.943	BM06ANS.jpg
141.31	0.514	Blank	Blank	95.576	n/a	2	4	6	n/a	66	n/a	3	n/a	n/a	n/a	n/a	170.44	n/a
141.84	0.497	angry	Picture	95.062	n/a	2	4	7	n/a	67	106	3	n/a	n/a	n/a	n/a	170.971	AM07ANS.jpg
142.338	0.514	Blank	Blank	94.548	n/a	2	4	7	n/a	67	n/a	3	n/a	n/a	n/a	n/a	171.468	n/a
142.868	0.497	angry	Picture	94.034	n/a	2	4	8	n/a	68	94	3	n/a	n/a	n/a	n/a	171.999	AF23ANS.jpg
143.366	0.514	Blank	Blank	93.52	n/a	2	4	8	n/a	68	n/a	3	n/a	n/a	n/a	n/a	172.496	n/a
143.896	0.497	angry	Picture	93.006	n/a	2	4	9	n/a	69	117	3	n/a	n/a	n/a	n/a	173.026	BM25ANS.jpg
144.394	0.514	Blank	Blank	92.493	n/a	2	4	9	n/a	69	n/a	3	n/a	n/a	n/a	n/a	173.524	n/a
144.924	0.497	angry	Picture	91.979	n/a	2	4	10	n/a	70	90	3	n/a	n/a	n/a	n/a	174.054	AF18ANS.jpg
145.421	0.514	Blank	Blank	91.465	n/a	2	4	10	n/a	70	n/a	3	n/a	n/a	n/a	n/a	174.552	n/a
145.952	0.497	angry	Picture	90.951	n/a	2	4	11	n/a	71	83	3	n/a	n/a	n/a	n/a	175.082	BF04ANS.jpg
146.449	0.514	Blank	Blank	90.437	n/a	2	4	11	n/a	71	n/a	3	n/a	n/a	n/a	n/a	175.58	n/a
146.98	0.497	angry	Picture	89.923	n/a	2	4	12	n/a	72	112	3	n/a	n/a	n/a	n/a	176.11	AM14ANS.jpg
147.477	0.514	Blank	Blank	89.409	n/a	2	4	12	n/a	72	n/a	3	n/a	n/a	n/a	n/a	176.607	n/a
148.008	0.497	angry	Picture	88.895	n/a	2	4	13	n/a	73	102	3	n/a	n/a	n/a	n/a	177.138	BM03ANS.jpg
148.505	0.514	Blank	Blank	88.381	n/a	2	4	13	n/a	73	n/a	3	n/a	n/a	n/a	n/a	177.635	n/a
149.036	0.497	angry	Picture	87.867	n/a	2	4	14	n/a	74	95	3	n/a	n/a	n/a	n/a	178.166	AF25ANS.jpg
149.533	0.514	Blank	Blank	87.353	n/a	2	4	14	n/a	74	n/a	3	n/a	n/a	n/a	n/a	178.663	n/a
150.064	0.497	angry	Picture	86.839	n/a	2	4	15	n/a	75	113	3	n/a	n/a	n/a	n/a	179.194	AM21ANS.jpg
150.561	0.514	Blank	Blank	86.325	n/a	2	4	15	n/a	75	n/a	3	n/a	n/a	n/a	n/a	179.691	n/a
151.091	0.497	angry	Picture	85.811	n/a	2	4	16	n/a	76	88	3	n/a	n/a	n/a	n/a	180.222	AF14ANS.jpg
151.589	0.514	Blank	Blank	85.297	n/a	2	4	16	n/a	76	n/a	3	n/a	n/a	n/a	n/a	180.719	n/a
152.119	0.497	angry	Picture	84.783	n/a	2	4	17	n/a	77	93	3	n/a	n/a	n/a	n/a	181.25	BF22ANS.jpg
152.617	0.514	Blank	Blank	84.269	n/a	2	4	17	n/a	77	n/a	3	n/a	n/a	n/a	n/a	181.747	n/a
153.147	0.497	angry	Picture	83.756	n/a	2	4	18	n/a	78	86	3	n/a	n/a	n/a	n/a	182.278	AF09ANS.jpg
153.644	0.514	Blank	Blank	83.242	n/a	2	4	18	n/a	78	n/a	3	n/a	n/a	n/a	n/a	182.775	n/a
154.175	0.497	angry	Picture	82.728	n/a	2	4	19	n/a	79	92	3	n/a	n/a	n/a	n/a	183.305	AF21ANS.jpg
154.672	0.514	Blank	Blank	82.214	n/a	2	4	19	n/a	79	n/a	3	n/a	n/a	n/a	n/a	183.803	n/a
155.203	0.497	angry	Picture	81.7	n/a	2	4	20	n/a	80	84	3	n/a	n/a	n/a	n/a	184.333	AF05ANS.jpg
155.7	0.514	Blank	Blank	81.186	n/a	2	4	20	n/a	80	n/a	3	n/a	n/a	n/a	n/a	184.831	n/a
156.231	10.014	ITI	Fixation+	71.156	n/a	2	n/a	n/a	n/a	n/a	n/a	n/a	n/a	n/a	n/a	n/a	185.361	n/a
166.261	0.497	neutral	Picture	70.642	n/a	2	5	1	n/a	81	4	1	n/a	n/a	n/a	n/a	195.391	AF05NES.jpg
166.758	0.514	Blank	Blank	70.128	n/a	2	5	1	n/a	81	n/a	1	n/a	n/a	n/a	n/a	195.889	n/a
167.289	0.497	neutral	Picture	69.614	n/a	2	5	2	n/a	82	14	1	n/a	n/a	n/a	n/a	196.419	AF23NES.jpg
167.786	0.514	Blank	Blank	69.1	n/a	2	5	2	n/a	82	n/a	1	n/a	n/a	n/a	n/a	196.916	n/a
168.317	0.497	neutral	Picture	68.586	n/a	2	5	3	n/a	83	19	1	n/a	n/a	n/a	n/a	197.447	AF31NES.jpg
168.814	0.514	Blank	Blank	68.072	n/a	2	5	3	n/a	83	n/a	1	n/a	n/a	n/a	n/a	197.944	n/a
169.344	0.497	neutral	Picture	67.558	n/a	2	5	4	n/a	84	8	1	n/a	n/a	n/a	n/a	198.475	AF14NES.jpg
169.842	0.514	Blank	Blank	67.044	n/a	2	5	4	n/a	84	n/a	1	n/a	n/a	n/a	n/a	198.972	n/a
170.372	0.497	neutral	Picture	66.53	n/a	2	5	5	n/a	85	25	1	n/a	n/a	n/a	n/a	199.503	BM06NES.jpg
170.87	0.514	Blank	Blank	66.016	n/a	2	5	5	n/a	85	n/a	1	n/a	n/a	n/a	n/a	200.0	n/a
171.4	0.497	neutral	Picture	65.502	n/a	2	5	6	n/a	86	9	1	n/a	n/a	n/a	n/a	200.531	AF17NES.jpg
171.898	0.514	Blank	Blank	64.988	n/a	2	5	6	n/a	86	n/a	1	n/a	n/a	n/a	n/a	201.028	n/a
172.428	0.497	neutral	Picture	64.475	n/a	2	5	7	n/a	87	2	1	n/a	n/a	n/a	n/a	201.559	AF03NES.jpg
172.925	0.514	Blank	Blank	63.96	n/a	2	5	7	n/a	87	n/a	1	n/a	n/a	n/a	n/a	202.056	n/a
173.456	0.497	neutral	Picture	63.447	n/a	2	5	8	n/a	88	17	1	n/a	n/a	n/a	n/a	202.586	BF28NES.jpg
173.953	0.514	Blank	Blank	62.933	n/a	2	5	8	n/a	88	n/a	1	n/a	n/a	n/a	n/a	203.084	n/a
174.484	0.497	neutral	Picture	62.419	n/a	2	5	9	n/a	89	6	1	n/a	n/a	n/a	n/a	203.614	AF09NES.jpg
174.981	0.514	Blank	Blank	61.905	n/a	2	5	9	n/a	89	n/a	1	n/a	n/a	n/a	n/a	204.112	n/a
175.512	0.497	neutral	Picture	61.391	n/a	2	5	10	n/a	90	12	1	n/a	n/a	n/a	n/a	204.642	AF21NES.jpg
176.009	0.514	Blank	Blank	60.877	n/a	2	5	10	n/a	90	n/a	1	n/a	n/a	n/a	n/a	205.139	n/a
176.54	0.497	neutral	Picture	60.363	n/a	2	5	11	n/a	91	24	1	n/a	n/a	n/a	n/a	205.67	BM05NES.jpg
177.037	0.514	Blank	Blank	59.849	n/a	2	5	11	n/a	91	n/a	1	n/a	n/a	n/a	n/a	206.167	n/a
177.568	0.497	neutral	Picture	59.335	n/a	2	5	12	n/a	92	34	1	n/a	n/a	n/a	n/a	206.698	AM22NES.jpg
178.065	0.514	Blank	Blank	58.821	n/a	2	5	12	n/a	92	n/a	1	n/a	n/a	n/a	n/a	207.195	n/a
178.595	0.497	neutral	Picture	58.307	n/a	2	5	13	n/a	93	23	1	n/a	n/a	n/a	n/a	207.726	AM04NES.jpg
179.093	0.514	Blank	Blank	57.793	n/a	2	5	13	n/a	93	n/a	1	n/a	n/a	n/a	n/a	208.223	n/a
179.623	0.497	neutral	Picture	57.279	n/a	2	5	14	n/a	94	15	1	n/a	n/a	n/a	n/a	208.754	AF25NES.jpg
180.121	0.514	Blank	Blank	56.765	n/a	2	5	14	n/a	94	n/a	1	n/a	n/a	n/a	n/a	209.251	n/a
180.651	0.497	neutral	Picture	56.251	n/a	2	5	15	n/a	95	37	1	n/a	n/a	n/a	n/a	209.781	BM25NES.jpg
181.149	0.514	Blank	Blank	55.738	n/a	2	5	15	n/a	95	n/a	1	n/a	n/a	n/a	n/a	210.279	n/a
181.679	0.497	neutral	Picture	55.224	n/a	2	5	16	n/a	96	32	1	n/a	n/a	n/a	n/a	210.809	AM14NES.jpg
182.177	0.514	Blank	Blank	54.71	n/a	2	5	16	n/a	96	n/a	1	n/a	n/a	n/a	n/a	211.307	n/a
182.707	0.497	neutral	Picture	54.196	n/a	2	5	17	n/a	97	3	1	n/a	n/a	n/a	n/a	211.837	BF04NES.jpg
183.204	0.514	Blank	Blank	53.682	n/a	2	5	17	n/a	97	n/a	1	n/a	n/a	n/a	n/a	212.335	n/a
183.735	0.497	neutral	Picture	53.168	n/a	2	5	18	n/a	98	16	1	n/a	n/a	n/a	n/a	212.865	AF26NES.jpg
184.232	0.514	Blank	Blank	52.654	n/a	2	5	18	n/a	98	n/a	1	n/a	n/a	n/a	n/a	213.363	n/a
184.763	0.497	neutral	Picture	52.14	n/a	2	5	19	n/a	99	27	1	n/a	n/a	n/a	n/a	213.893	BM08NES.jpg
185.26	0.514	Blank	Blank	51.626	n/a	2	5	19	n/a	99	n/a	1	n/a	n/a	n/a	n/a	214.39	n/a
185.791	0.497	neutral	Picture	51.112	n/a	2	5	20	n/a	100	28	1	n/a	n/a	n/a	n/a	214.921	AM09NES.jpg
186.288	0.514	Blank	Blank	50.598	n/a	2	5	20	n/a	100	n/a	1	n/a	n/a	n/a	n/a	215.418	n/a
186.819	10.014	ITI	Fixation+	40.568	n/a	2	n/a	n/a	n/a	n/a	n/a	n/a	n/a	n/a	n/a	n/a	215.949	n/a
196.849	0.497	angry	Picture	40.054	n/a	2	6	1	n/a	101	81	3	n/a	n/a	n/a	n/a	225.979	AF01ANS.jpg
197.346	0.514	Blank	Blank	39.54	n/a	2	6	1	n/a	101	n/a	3	n/a	n/a	n/a	n/a	226.476	n/a
197.876	0.497	angry	Picture	39.026	n/a	2	6	2	n/a	102	120	3	n/a	n/a	n/a	n/a	227.007	AM35ANS.jpg
198.374	0.514	Blank	Blank	38.512	n/a	2	6	2	n/a	102	n/a	3	n/a	n/a	n/a	n/a	227.504	n/a
198.904	0.497	angry	Picture	37.998	n/a	2	6	3	n/a	103	114	3	n/a	n/a	n/a	n/a	228.035	AM22ANS.jpg
199.402	0.514	Blank	Blank	37.484	n/a	2	6	3	n/a	103	n/a	3	n/a	n/a	n/a	n/a	228.532	n/a
199.932	0.497	angry	Picture	36.97	n/a	2	6	4	n/a	104	109	3	n/a	n/a	n/a	n/a	229.063	AM10ANS.jpg
200.43	0.514	Blank	Blank	36.457	n/a	2	6	4	n/a	104	n/a	3	n/a	n/a	n/a	n/a	229.56	n/a
200.96	0.497	angry	Picture	35.943	n/a	2	6	5	n/a	105	96	3	n/a	n/a	n/a	n/a	230.09	AF26ANS.jpg
201.457	0.514	Blank	Blank	35.429	n/a	2	6	5	n/a	105	n/a	3	n/a	n/a	n/a	n/a	230.588	n/a
201.988	0.497	angry	Picture	34.915	n/a	2	6	6	n/a	106	82	3	n/a	n/a	n/a	n/a	231.118	AF03ANS.jpg
202.485	0.514	Blank	Blank	34.401	n/a	2	6	6	n/a	106	n/a	3	n/a	n/a	n/a	n/a	231.616	n/a
203.016	0.497	angry	Picture	33.887	n/a	2	6	7	n/a	107	97	3	n/a	n/a	n/a	n/a	232.146	BF28ANS.jpg
203.513	0.514	Blank	Blank	33.373	n/a	2	6	7	n/a	107	n/a	3	n/a	n/a	n/a	n/a	232.643	n/a
204.044	0.497	angry	Picture	32.859	n/a	2	6	8	n/a	108	115	3	n/a	n/a	n/a	n/a	233.174	AM23ANS.jpg
204.541	0.514	Blank	Blank	32.345	n/a	2	6	8	n/a	108	n/a	3	n/a	n/a	n/a	n/a	233.671	n/a
205.072	0.497	angry	Picture	31.831	n/a	2	6	9	n/a	109	91	3	n/a	n/a	n/a	n/a	234.202	AF20ANS.jpg
205.569	0.514	Blank	Blank	31.317	n/a	2	6	9	n/a	109	n/a	3	n/a	n/a	n/a	n/a	234.699	n/a
206.1	0.497	angry	Picture	30.803	n/a	2	6	10	n/a	110	87	3	n/a	n/a	n/a	n/a	235.23	BF11ANS.jpg
206.597	0.514	Blank	Blank	30.289	n/a	2	6	10	n/a	110	n/a	3	n/a	n/a	n/a	n/a	235.727	n/a
207.127	0.497	angry	Picture	29.775	n/a	2	6	11	n/a	111	85	3	n/a	n/a	n/a	n/a	236.258	BF07ANS.jpg
207.625	0.514	Blank	Blank	29.261	n/a	2	6	11	n/a	111	n/a	3	n/a	n/a	n/a	n/a	236.755	n/a
208.155	0.497	angry	Picture	28.747	n/a	2	6	12	n/a	112	110	3	n/a	n/a	n/a	n/a	237.286	AM11ANS.jpg
208.653	0.514	Blank	Blank	28.233	n/a	2	6	12	n/a	112	n/a	3	n/a	n/a	n/a	n/a	237.783	n/a
209.183	0.497	angry	Picture	27.72	n/a	2	6	13	n/a	113	111	3	n/a	n/a	n/a	n/a	238.314	BM12ANS.jpg
209.68	0.514	Blank	Blank	27.206	n/a	2	6	13	n/a	113	n/a	3	n/a	n/a	n/a	n/a	238.811	n/a
210.211	0.497	angry	Picture	26.692	n/a	2	6	14	n/a	114	103	3	n/a	n/a	n/a	n/a	239.341	AM04ANS.jpg
210.708	0.514	Blank	Blank	26.178	n/a	2	6	14	n/a	114	n/a	3	n/a	n/a	n/a	n/a	239.839	n/a
211.239	0.497	angry	Picture	25.664	n/a	2	6	15	n/a	115	101	3	n/a	n/a	n/a	n/a	240.369	AM01ANS.jpg
211.736	0.514	Blank	Blank	25.15	n/a	2	6	15	n/a	115	n/a	3	n/a	n/a	n/a	n/a	240.867	n/a
212.267	0.497	angry	Picture	24.636	n/a	2	6	16	n/a	116	104	3	n/a	n/a	n/a	n/a	241.397	BM05ANS.jpg
212.764	0.514	Blank	Blank	24.122	n/a	2	6	16	n/a	116	n/a	3	n/a	n/a	n/a	n/a	241.894	n/a
213.295	0.497	angry	Picture	23.608	n/a	2	6	17	n/a	117	107	3	n/a	n/a	n/a	n/a	242.425	BM08ANS.jpg
213.792	0.514	Blank	Blank	23.094	n/a	2	6	17	n/a	117	n/a	3	n/a	n/a	n/a	n/a	242.922	n/a
214.323	0.497	angry	Picture	22.58	n/a	2	6	18	n/a	118	98	3	n/a	n/a	n/a	n/a	243.453	BF29ANS.jpg
214.82	0.514	Blank	Blank	22.066	n/a	2	6	18	n/a	118	n/a	3	n/a	n/a	n/a	n/a	243.95	n/a
215.35	0.497	angry	Picture	21.552	n/a	2	6	19	n/a	119	99	3	n/a	n/a	n/a	n/a	244.481	AF31ANS.jpg
215.848	0.514	Blank	Blank	21.038	n/a	2	6	19	n/a	119	n/a	3	n/a	n/a	n/a	n/a	244.978	n/a
216.378	0.497	angry	Picture	20.524	n/a	2	6	20	n/a	120	108	3	n/a	n/a	n/a	n/a	245.509	AM09ANS.jpg
216.876	0.514	Blank	Blank	20.01	n/a	2	6	20	n/a	120	n/a	3	n/a	n/a	n/a	n/a	246.006	n/a
217.406	10.014	ITI	Fixation+	9.98	n/a	2	n/a	n/a	n/a	n/a	n/a	n/a	n/a	n/a	n/a	n/a	246.536	n/a
237.4	n/a	ConfirmRating	Rate	n/a	9.964	2	n/a	n/a	0	n/a	n/a	n/a	2	Angry	26	26	266.53	n/a
241.676	n/a	ConfirmRating	Rate	n/a	4.26	2	n/a	n/a	1	n/a	n/a	n/a	3	Angry	43	43	270.806	n/a
241.694	15.004	Rest	Picture	n/a	n/a	n/a	n/a	n/a	n/a	n/a	n/a	n/a	0	n/a	0	0	270.824	n/a
256.714	10.014	ITI	Fixation+	99.89	n/a	3	n/a	n/a	n/a	n/a	n/a	n/a	n/a	n/a	n/a	n/a	285.845	n/a
266.744	0.497	happy	Picture	99.376	n/a	3	7	1	n/a	1	46	2	n/a	n/a	n/a	n/a	295.875	AF09HAS.jpg
267.242	0.514	Blank	Blank	98.862	n/a	3	7	1	n/a	1	n/a	2	n/a	n/a	n/a	n/a	296.372	n/a
267.772	0.497	happy	Picture	98.348	n/a	3	7	2	n/a	2	69	2	n/a	n/a	n/a	n/a	296.903	AM10HAS.jpg
268.27	0.514	Blank	Blank	97.834	n/a	3	7	2	n/a	2	n/a	2	n/a	n/a	n/a	n/a	297.4	n/a
268.8	0.497	happy	Picture	97.32	n/a	3	7	3	n/a	3	71	2	n/a	n/a	n/a	n/a	297.93	BM12HAS.jpg
269.298	0.514	Blank	Blank	96.806	n/a	3	7	3	n/a	3	n/a	2	n/a	n/a	n/a	n/a	298.428	n/a
269.828	0.497	happy	Picture	96.292	n/a	3	7	4	n/a	4	51	2	n/a	n/a	n/a	n/a	298.958	AF20HAS.jpg
270.325	0.514	Blank	Blank	95.778	n/a	3	7	4	n/a	4	n/a	2	n/a	n/a	n/a	n/a	299.456	n/a
270.856	0.497	happy	Picture	95.264	n/a	3	7	5	n/a	5	67	2	n/a	n/a	n/a	n/a	299.986	BM08HAS.jpg
271.353	0.514	Blank	Blank	94.75	n/a	3	7	5	n/a	5	n/a	2	n/a	n/a	n/a	n/a	300.483	n/a
271.884	0.497	happy	Picture	94.236	n/a	3	7	6	n/a	6	60	2	n/a	n/a	n/a	n/a	301.014	AF32HAS.jpg
272.381	0.514	Blank	Blank	93.723	n/a	3	7	6	n/a	6	n/a	2	n/a	n/a	n/a	n/a	301.512	n/a
272.912	0.497	happy	Picture	93.209	n/a	3	7	7	n/a	7	42	2	n/a	n/a	n/a	n/a	302.042	AF03HAS.jpg
273.409	0.514	Blank	Blank	92.695	n/a	3	7	7	n/a	7	n/a	2	n/a	n/a	n/a	n/a	302.539	n/a
273.94	0.497	happy	Picture	92.181	n/a	3	7	8	n/a	8	55	2	n/a	n/a	n/a	n/a	303.07	AF25HAS.jpg
274.437	0.514	Blank	Blank	91.667	n/a	3	7	8	n/a	8	n/a	2	n/a	n/a	n/a	n/a	303.567	n/a
274.967	0.497	happy	Picture	91.153	n/a	3	7	9	n/a	9	72	2	n/a	n/a	n/a	n/a	304.098	AM14HAS.jpg
275.465	0.514	Blank	Blank	90.639	n/a	3	7	9	n/a	9	n/a	2	n/a	n/a	n/a	n/a	304.595	n/a
275.995	0.497	happy	Picture	90.125	n/a	3	7	10	n/a	10	63	2	n/a	n/a	n/a	n/a	305.126	AM04HAS.jpg
276.493	0.514	Blank	Blank	89.611	n/a	3	7	10	n/a	10	n/a	2	n/a	n/a	n/a	n/a	305.623	n/a
277.023	0.497	happy	Picture	89.097	n/a	3	7	11	n/a	11	58	2	n/a	n/a	n/a	n/a	306.154	BF29HAS.jpg
277.521	0.514	Blank	Blank	88.583	n/a	3	7	11	n/a	11	n/a	2	n/a	n/a	n/a	n/a	306.651	n/a
278.051	0.497	happy	Picture	88.069	n/a	3	7	12	n/a	12	48	2	n/a	n/a	n/a	n/a	307.181	AF14HAS.jpg
278.548	0.514	Blank	Blank	87.555	n/a	3	7	12	n/a	12	n/a	2	n/a	n/a	n/a	n/a	307.679	n/a
279.079	0.497	happy	Picture	87.041	n/a	3	7	13	n/a	13	66	2	n/a	n/a	n/a	n/a	308.209	BM07HAS.jpg
279.576	0.514	Blank	Blank	86.527	n/a	3	7	13	n/a	13	n/a	2	n/a	n/a	n/a	n/a	308.707	n/a
280.107	0.497	happy	Picture	86.013	n/a	3	7	14	n/a	14	70	2	n/a	n/a	n/a	n/a	309.237	BM11HAS.jpg
280.604	0.514	Blank	Blank	85.5	n/a	3	7	14	n/a	14	n/a	2	n/a	n/a	n/a	n/a	309.735	n/a
281.135	0.497	happy	Picture	84.986	n/a	3	7	15	n/a	15	43	2	n/a	n/a	n/a	n/a	310.265	BF04HAS.jpg
281.632	0.514	Blank	Blank	84.472	n/a	3	7	15	n/a	15	n/a	2	n/a	n/a	n/a	n/a	310.762	n/a
282.163	0.497	happy	Picture	83.958	n/a	3	7	16	n/a	16	49	2	n/a	n/a	n/a	n/a	311.293	AF17HAS.jpg
282.66	0.514	Blank	Blank	83.444	n/a	3	7	16	n/a	16	n/a	2	n/a	n/a	n/a	n/a	311.79	n/a
283.191	0.497	happy	Picture	82.93	n/a	3	7	17	n/a	17	75	2	n/a	n/a	n/a	n/a	312.321	AM23HAS.jpg
283.688	0.514	Blank	Blank	82.416	n/a	3	7	17	n/a	17	n/a	2	n/a	n/a	n/a	n/a	312.818	n/a
284.218	0.497	happy	Picture	81.902	n/a	3	7	18	n/a	18	80	2	n/a	n/a	n/a	n/a	313.349	BM35HAS.jpg
284.716	0.514	Blank	Blank	81.388	n/a	3	7	18	n/a	18	n/a	2	n/a	n/a	n/a	n/a	313.846	n/a
285.246	0.497	happy	Picture	80.874	n/a	3	7	19	n/a	19	76	2	n/a	n/a	n/a	n/a	314.377	BM24HAS.jpg
285.744	0.514	Blank	Blank	80.36	n/a	3	7	19	n/a	19	n/a	2	n/a	n/a	n/a	n/a	314.874	n/a
286.274	0.497	happy	Picture	79.846	n/a	3	7	20	n/a	20	74	2	n/a	n/a	n/a	n/a	315.404	AM22HAS.jpg
286.772	0.514	Blank	Blank	79.332	n/a	3	7	20	n/a	20	n/a	2	n/a	n/a	n/a	n/a	315.902	n/a
287.302	10.014	ITI	Fixation+	69.302	n/a	3	n/a	n/a	n/a	n/a	n/a	n/a	n/a	n/a	n/a	n/a	316.432	n/a
297.332	0.497	neutral	Picture	68.788	n/a	3	8	1	n/a	21	33	1	n/a	n/a	n/a	n/a	326.462	AM21NES.jpg
297.829	0.514	Blank	Blank	68.274	n/a	3	8	1	n/a	21	n/a	1	n/a	n/a	n/a	n/a	326.96	n/a
298.36	0.497	neutral	Picture	67.76	n/a	3	8	2	n/a	22	39	1	n/a	n/a	n/a	n/a	327.49	AM28NES.jpg
298.857	0.514	Blank	Blank	67.246	n/a	3	8	2	n/a	22	n/a	1	n/a	n/a	n/a	n/a	327.988	n/a
299.388	0.497	neutral	Picture	66.732	n/a	3	8	3	n/a	23	25	1	n/a	n/a	n/a	n/a	328.518	BM06NES.jpg
299.885	0.514	Blank	Blank	66.218	n/a	3	8	3	n/a	23	n/a	1	n/a	n/a	n/a	n/a	329.015	n/a
300.416	0.497	neutral	Picture	65.704	n/a	3	8	4	n/a	24	5	1	n/a	n/a	n/a	n/a	329.546	BF07NES.jpg
300.913	0.514	Blank	Blank	65.191	n/a	3	8	4	n/a	24	n/a	1	n/a	n/a	n/a	n/a	330.043	n/a
301.444	0.497	neutral	Picture	64.677	n/a	3	8	5	n/a	25	10	1	n/a	n/a	n/a	n/a	330.574	AF18NES.jpg
301.941	0.514	Blank	Blank	64.163	n/a	3	8	5	n/a	25	n/a	1	n/a	n/a	n/a	n/a	331.071	n/a
302.472	0.497	neutral	Picture	63.649	n/a	3	8	6	n/a	26	34	1	n/a	n/a	n/a	n/a	331.602	AM22NES.jpg
302.969	0.514	Blank	Blank	63.135	n/a	3	8	6	n/a	26	n/a	1	n/a	n/a	n/a	n/a	332.099	n/a
303.499	0.497	neutral	Picture	62.621	n/a	3	8	7	n/a	27	36	1	n/a	n/a	n/a	n/a	332.63	BM24NES.jpg
303.997	0.514	Blank	Blank	62.107	n/a	3	8	7	n/a	27	n/a	1	n/a	n/a	n/a	n/a	333.127	n/a
304.527	0.497	neutral	Picture	61.593	n/a	3	8	8	n/a	28	14	1	n/a	n/a	n/a	n/a	333.658	AF23NES.jpg
305.025	0.514	Blank	Blank	61.079	n/a	3	8	8	n/a	28	n/a	1	n/a	n/a	n/a	n/a	334.155	n/a
305.555	0.497	neutral	Picture	60.565	n/a	3	8	9	n/a	29	9	1	n/a	n/a	n/a	n/a	334.685	AF17NES.jpg
306.053	0.514	Blank	Blank	60.051	n/a	3	8	9	n/a	29	n/a	1	n/a	n/a	n/a	n/a	335.183	n/a
306.583	0.497	neutral	Picture	59.537	n/a	3	8	10	n/a	30	19	1	n/a	n/a	n/a	n/a	335.713	AF31NES.jpg
307.08	0.514	Blank	Blank	59.023	n/a	3	8	10	n/a	30	n/a	1	n/a	n/a	n/a	n/a	336.211	n/a
307.611	0.497	neutral	Picture	58.509	n/a	3	8	11	n/a	31	15	1	n/a	n/a	n/a	n/a	336.741	AF25NES.jpg
308.108	0.514	Blank	Blank	57.995	n/a	3	8	11	n/a	31	n/a	1	n/a	n/a	n/a	n/a	337.239	n/a
308.639	0.497	neutral	Picture	57.482	n/a	3	8	12	n/a	32	22	1	n/a	n/a	n/a	n/a	337.769	BM03NES.jpg
309.136	0.514	Blank	Blank	56.968	n/a	3	8	12	n/a	32	n/a	1	n/a	n/a	n/a	n/a	338.266	n/a
309.667	0.497	neutral	Picture	56.454	n/a	3	8	13	n/a	33	11	1	n/a	n/a	n/a	n/a	338.797	AF20NES.jpg
310.164	0.514	Blank	Blank	55.94	n/a	3	8	13	n/a	33	n/a	1	n/a	n/a	n/a	n/a	339.294	n/a
310.695	0.497	neutral	Picture	55.426	n/a	3	8	14	n/a	34	4	1	n/a	n/a	n/a	n/a	339.825	AF05NES.jpg
311.192	0.514	Blank	Blank	54.912	n/a	3	8	14	n/a	34	n/a	1	n/a	n/a	n/a	n/a	340.322	n/a
311.722	0.497	neutral	Picture	54.398	n/a	3	8	15	n/a	35	17	1	n/a	n/a	n/a	n/a	340.853	BF28NES.jpg
312.22	0.514	Blank	Blank	53.884	n/a	3	8	15	n/a	35	n/a	1	n/a	n/a	n/a	n/a	341.35	n/a
312.75	0.497	neutral	Picture	53.37	n/a	3	8	16	n/a	36	13	1	n/a	n/a	n/a	n/a	341.881	BF22NES.jpg
313.248	0.514	Blank	Blank	52.856	n/a	3	8	16	n/a	36	n/a	1	n/a	n/a	n/a	n/a	342.378	n/a
313.778	0.497	neutral	Picture	52.342	n/a	3	8	17	n/a	37	12	1	n/a	n/a	n/a	n/a	342.909	AF21NES.jpg
314.276	0.514	Blank	Blank	51.828	n/a	3	8	17	n/a	37	n/a	1	n/a	n/a	n/a	n/a	343.406	n/a
314.806	0.497	neutral	Picture	51.314	n/a	3	8	18	n/a	38	24	1	n/a	n/a	n/a	n/a	343.936	BM05NES.jpg
315.303	0.514	Blank	Blank	50.8	n/a	3	8	18	n/a	38	n/a	1	n/a	n/a	n/a	n/a	344.434	n/a
315.834	0.497	neutral	Picture	50.286	n/a	3	8	19	n/a	39	29	1	n/a	n/a	n/a	n/a	344.964	AM10NES.jpg
316.331	0.514	Blank	Blank	49.772	n/a	3	8	19	n/a	39	n/a	1	n/a	n/a	n/a	n/a	345.462	n/a
316.862	0.497	neutral	Picture	49.258	n/a	3	8	20	n/a	40	23	1	n/a	n/a	n/a	n/a	345.992	AM04NES.jpg
317.359	0.514	Blank	Blank	48.745	n/a	3	8	20	n/a	40	n/a	1	n/a	n/a	n/a	n/a	346.49	n/a
317.89	10.014	ITI	Fixation+	38.714	n/a	3	n/a	n/a	n/a	n/a	n/a	n/a	n/a	n/a	n/a	n/a	347.02	n/a
327.92	0.497	happy	Picture	38.2	n/a	3	9	1	n/a	41	62	2	n/a	n/a	n/a	n/a	357.05	BM03HAS.jpg
328.417	0.514	Blank	Blank	37.687	n/a	3	9	1	n/a	41	n/a	2	n/a	n/a	n/a	n/a	357.548	n/a
328.948	0.497	happy	Picture	37.173	n/a	3	9	2	n/a	42	52	2	n/a	n/a	n/a	n/a	358.078	AF21HAS.jpg
329.445	0.514	Blank	Blank	36.659	n/a	3	9	2	n/a	42	n/a	2	n/a	n/a	n/a	n/a	358.575	n/a
329.976	0.497	happy	Picture	36.145	n/a	3	9	3	n/a	43	44	2	n/a	n/a	n/a	n/a	359.106	AF05HAS.jpg
330.473	0.514	Blank	Blank	35.631	n/a	3	9	3	n/a	43	n/a	2	n/a	n/a	n/a	n/a	359.603	n/a
331.003	0.497	happy	Picture	35.117	n/a	3	9	4	n/a	44	53	2	n/a	n/a	n/a	n/a	360.134	BF22HAS.jpg
331.501	0.514	Blank	Blank	34.603	n/a	3	9	4	n/a	44	n/a	2	n/a	n/a	n/a	n/a	360.631	n/a
332.031	0.497	happy	Picture	34.089	n/a	3	9	5	n/a	45	54	2	n/a	n/a	n/a	n/a	361.162	AF23HAS.jpg
332.529	0.514	Blank	Blank	33.575	n/a	3	9	5	n/a	45	n/a	2	n/a	n/a	n/a	n/a	361.659	n/a
333.059	0.497	happy	Picture	33.061	n/a	3	9	6	n/a	46	68	2	n/a	n/a	n/a	n/a	362.19	AM09HAS.jpg
333.557	0.514	Blank	Blank	32.547	n/a	3	9	6	n/a	46	n/a	2	n/a	n/a	n/a	n/a	362.687	n/a
334.087	0.497	happy	Picture	32.033	n/a	3	9	7	n/a	47	64	2	n/a	n/a	n/a	n/a	363.217	BM05HAS.jpg
334.584	0.514	Blank	Blank	31.519	n/a	3	9	7	n/a	47	n/a	2	n/a	n/a	n/a	n/a	363.715	n/a
335.115	0.497	happy	Picture	31.005	n/a	3	9	8	n/a	48	59	2	n/a	n/a	n/a	n/a	364.245	AF31HAS.jpg
335.612	0.514	Blank	Blank	30.491	n/a	3	9	8	n/a	48	n/a	2	n/a	n/a	n/a	n/a	364.743	n/a
336.142	0.498	happy	Picture	29.977	n/a	3	9	9	n/a	49	41	2	n/a	n/a	n/a	n/a	365.272	AF01HAS.jpg
336.64	0.514	Blank	Blank	29.464	n/a	3	9	9	n/a	49	n/a	2	n/a	n/a	n/a	n/a	365.771	n/a
337.171	0.497	happy	Picture	28.95	n/a	3	9	10	n/a	50	73	2	n/a	n/a	n/a	n/a	366.301	AM21HAS.jpg
337.668	0.514	Blank	Blank	28.436	n/a	3	9	10	n/a	50	n/a	2	n/a	n/a	n/a	n/a	366.798	n/a
338.199	0.497	happy	Picture	27.922	n/a	3	9	11	n/a	51	65	2	n/a	n/a	n/a	n/a	367.329	BM06HAS.jpg
338.696	0.514	Blank	Blank	27.408	n/a	3	9	11	n/a	51	n/a	2	n/a	n/a	n/a	n/a	367.826	n/a
339.227	0.497	happy	Picture	26.894	n/a	3	9	12	n/a	52	56	2	n/a	n/a	n/a	n/a	368.357	AF26HAS.jpg
339.724	0.514	Blank	Blank	26.38	n/a	3	9	12	n/a	52	n/a	2	n/a	n/a	n/a	n/a	368.854	n/a
340.254	0.497	happy	Picture	25.866	n/a	3	9	13	n/a	53	45	2	n/a	n/a	n/a	n/a	369.385	BF07HAS.jpg
340.752	0.514	Blank	Blank	25.352	n/a	3	9	13	n/a	53	n/a	2	n/a	n/a	n/a	n/a	369.882	n/a
341.282	0.497	happy	Picture	24.838	n/a	3	9	14	n/a	54	78	2	n/a	n/a	n/a	n/a	370.413	BM26HAS.jpg
341.78	0.514	Blank	Blank	24.324	n/a	3	9	14	n/a	54	n/a	2	n/a	n/a	n/a	n/a	370.91	n/a
342.31	0.497	happy	Picture	23.81	n/a	3	9	15	n/a	55	50	2	n/a	n/a	n/a	n/a	371.44	AF18HAS.jpg
342.808	0.514	Blank	Blank	23.296	n/a	3	9	15	n/a	55	n/a	2	n/a	n/a	n/a	n/a	371.938	n/a
343.338	0.497	happy	Picture	22.782	n/a	3	9	16	n/a	56	47	2	n/a	n/a	n/a	n/a	372.468	BF11HAS.jpg
343.835	0.514	Blank	Blank	22.268	n/a	3	9	16	n/a	56	n/a	2	n/a	n/a	n/a	n/a	372.966	n/a
344.366	0.497	happy	Picture	21.754	n/a	3	9	17	n/a	57	77	2	n/a	n/a	n/a	n/a	373.496	BM25HAS.jpg
344.863	0.514	Blank	Blank	21.24	n/a	3	9	17	n/a	57	n/a	2	n/a	n/a	n/a	n/a	373.993	n/a
345.394	0.497	happy	Picture	20.727	n/a	3	9	18	n/a	58	57	2	n/a	n/a	n/a	n/a	374.524	BF28HAS.jpg
345.891	0.514	Blank	Blank	20.212	n/a	3	9	18	n/a	58	n/a	2	n/a	n/a	n/a	n/a	375.021	n/a
346.422	0.497	happy	Picture	19.699	n/a	3	9	19	n/a	59	61	2	n/a	n/a	n/a	n/a	375.552	AM01HAS.jpg
346.919	0.514	Blank	Blank	19.185	n/a	3	9	19	n/a	59	n/a	2	n/a	n/a	n/a	n/a	376.049	n/a
347.45	0.497	happy	Picture	18.671	n/a	3	9	20	n/a	60	79	2	n/a	n/a	n/a	n/a	376.58	BM28HAS.jpg
347.947	0.514	Blank	Blank	18.157	n/a	3	9	20	n/a	60	n/a	2	n/a	n/a	n/a	n/a	377.077	n/a
348.477	10.014	ITI	Fixation+	8.127	n/a	3	n/a	n/a	n/a	n/a	n/a	n/a	n/a	n/a	n/a	n/a	377.608	n/a
366.618	n/a	ConfirmRating	Rate	n/a	8.124	3	n/a	n/a	0	n/a	n/a	n/a	2	Happy	71	71	395.748	n/a
378.375	n/a	ConfirmRating	Rate	n/a	11.737	3	n/a	n/a	1	n/a	n/a	n/a	3	Happy	12	12	407.506	n/a
378.402	10.014	ITI	Fixation+	100.921	n/a	4	n/a	n/a	n/a	n/a	n/a	n/a	n/a	n/a	n/a	n/a	407.532	n/a
388.432	0.497	angry	Picture	100.407	n/a	4	10	1	n/a	61	119	3	n/a	n/a	n/a	n/a	417.562	BM28ANS.jpg
388.929	0.514	Blank	Blank	99.893	n/a	4	10	1	n/a	61	n/a	3	n/a	n/a	n/a	n/a	418.06	n/a
389.46	0.497	angry	Picture	99.379	n/a	4	10	2	n/a	62	100	3	n/a	n/a	n/a	n/a	418.59	AF32ANS.jpg
389.957	0.514	Blank	Blank	98.865	n/a	4	10	2	n/a	62	n/a	3	n/a	n/a	n/a	n/a	419.088	n/a
390.488	0.497	angry	Picture	98.351	n/a	4	10	3	n/a	63	118	3	n/a	n/a	n/a	n/a	419.618	BM26ANS.jpg
390.985	0.514	Blank	Blank	97.837	n/a	4	10	3	n/a	63	n/a	3	n/a	n/a	n/a	n/a	420.115	n/a
391.516	0.497	angry	Picture	97.323	n/a	4	10	4	n/a	64	89	3	n/a	n/a	n/a	n/a	420.646	AF17ANS.jpg
392.013	0.514	Blank	Blank	96.809	n/a	4	10	4	n/a	64	n/a	3	n/a	n/a	n/a	n/a	421.143	n/a
392.544	0.497	angry	Picture	96.295	n/a	4	10	5	n/a	65	116	3	n/a	n/a	n/a	n/a	421.674	BM24ANS.jpg
393.041	0.514	Blank	Blank	95.781	n/a	4	10	5	n/a	65	n/a	3	n/a	n/a	n/a	n/a	422.171	n/a
393.572	0.497	angry	Picture	95.267	n/a	4	10	6	n/a	66	105	3	n/a	n/a	n/a	n/a	422.702	BM06ANS.jpg
394.069	0.514	Blank	Blank	94.753	n/a	4	10	6	n/a	66	n/a	3	n/a	n/a	n/a	n/a	423.199	n/a
394.599	0.497	angry	Picture	94.24	n/a	4	10	7	n/a	67	106	3	n/a	n/a	n/a	n/a	423.73	AM07ANS.jpg
395.097	0.514	Blank	Blank	93.726	n/a	4	10	7	n/a	67	n/a	3	n/a	n/a	n/a	n/a	424.227	n/a
395.627	0.497	angry	Picture	93.212	n/a	4	10	8	n/a	68	94	3	n/a	n/a	n/a	n/a	424.757	AF23ANS.jpg
396.125	0.514	Blank	Blank	92.698	n/a	4	10	8	n/a	68	n/a	3	n/a	n/a	n/a	n/a	425.255	n/a
396.655	0.497	angry	Picture	92.184	n/a	4	10	9	n/a	69	117	3	n/a	n/a	n/a	n/a	425.785	BM25ANS.jpg
397.153	0.514	Blank	Blank	91.67	n/a	4	10	9	n/a	69	n/a	3	n/a	n/a	n/a	n/a	426.283	n/a
397.683	0.497	angry	Picture	91.156	n/a	4	10	10	n/a	70	90	3	n/a	n/a	n/a	n/a	426.813	AF18ANS.jpg
398.18	0.514	Blank	Blank	90.642	n/a	4	10	10	n/a	70	n/a	3	n/a	n/a	n/a	n/a	427.311	n/a
398.711	0.497	angry	Picture	90.128	n/a	4	10	11	n/a	71	83	3	n/a	n/a	n/a	n/a	427.841	BF04ANS.jpg
399.208	0.514	Blank	Blank	89.614	n/a	4	10	11	n/a	71	n/a	3	n/a	n/a	n/a	n/a	428.339	n/a
399.739	0.497	angry	Picture	89.1	n/a	4	10	12	n/a	72	112	3	n/a	n/a	n/a	n/a	428.869	AM14ANS.jpg
400.236	0.514	Blank	Blank	88.586	n/a	4	10	12	n/a	72	n/a	3	n/a	n/a	n/a	n/a	429.366	n/a
400.767	0.497	angry	Picture	88.072	n/a	4	10	13	n/a	73	102	3	n/a	n/a	n/a	n/a	429.897	BM03ANS.jpg
401.264	0.514	Blank	Blank	87.558	n/a	4	10	13	n/a	73	n/a	3	n/a	n/a	n/a	n/a	430.394	n/a
401.795	0.497	angry	Picture	87.044	n/a	4	10	14	n/a	74	95	3	n/a	n/a	n/a	n/a	430.925	AF25ANS.jpg
402.292	0.514	Blank	Blank	86.531	n/a	4	10	14	n/a	74	n/a	3	n/a	n/a	n/a	n/a	431.422	n/a
402.822	0.497	angry	Picture	86.017	n/a	4	10	15	n/a	75	113	3	n/a	n/a	n/a	n/a	431.953	AM21ANS.jpg
403.32	0.514	Blank	Blank	85.503	n/a	4	10	15	n/a	75	n/a	3	n/a	n/a	n/a	n/a	432.45	n/a
403.85	0.497	angry	Picture	84.989	n/a	4	10	16	n/a	76	88	3	n/a	n/a	n/a	n/a	432.981	AF14ANS.jpg
404.348	0.514	Blank	Blank	84.475	n/a	4	10	16	n/a	76	n/a	3	n/a	n/a	n/a	n/a	433.478	n/a
404.878	0.497	angry	Picture	83.961	n/a	4	10	17	n/a	77	93	3	n/a	n/a	n/a	n/a	434.008	BF22ANS.jpg
405.376	0.514	Blank	Blank	83.447	n/a	4	10	17	n/a	77	n/a	3	n/a	n/a	n/a	n/a	434.506	n/a
405.906	0.497	angry	Picture	82.933	n/a	4	10	18	n/a	78	86	3	n/a	n/a	n/a	n/a	435.036	AF09ANS.jpg
406.403	0.514	Blank	Blank	82.419	n/a	4	10	18	n/a	78	n/a	3	n/a	n/a	n/a	n/a	435.534	n/a
406.934	0.497	angry	Picture	81.905	n/a	4	10	19	n/a	79	92	3	n/a	n/a	n/a	n/a	436.064	AF21ANS.jpg
407.431	0.514	Blank	Blank	81.391	n/a	4	10	19	n/a	79	n/a	3	n/a	n/a	n/a	n/a	436.562	n/a
407.962	0.497	angry	Picture	80.877	n/a	4	10	20	n/a	80	84	3	n/a	n/a	n/a	n/a	437.092	AF05ANS.jpg
408.459	0.514	Blank	Blank	80.363	n/a	4	10	20	n/a	80	n/a	3	n/a	n/a	n/a	n/a	437.589	n/a
408.99	10.014	ITI	Fixation+	70.333	n/a	4	n/a	n/a	n/a	n/a	n/a	n/a	n/a	n/a	n/a	n/a	438.12	n/a
419.02	0.497	neutral	Picture	69.819	n/a	4	11	1	n/a	81	4	1	n/a	n/a	n/a	n/a	448.15	AF05NES.jpg
419.517	0.514	Blank	Blank	69.305	n/a	4	11	1	n/a	81	n/a	1	n/a	n/a	n/a	n/a	448.647	n/a
420.048	0.497	neutral	Picture	68.791	n/a	4	11	2	n/a	82	14	1	n/a	n/a	n/a	n/a	449.178	AF23NES.jpg
420.545	0.514	Blank	Blank	68.277	n/a	4	11	2	n/a	82	n/a	1	n/a	n/a	n/a	n/a	449.675	n/a
421.076	0.497	neutral	Picture	67.763	n/a	4	11	3	n/a	83	19	1	n/a	n/a	n/a	n/a	450.206	AF31NES.jpg
421.573	0.514	Blank	Blank	67.25	n/a	4	11	3	n/a	83	n/a	1	n/a	n/a	n/a	n/a	450.703	n/a
422.103	0.497	neutral	Picture	66.735	n/a	4	11	4	n/a	84	8	1	n/a	n/a	n/a	n/a	451.234	AF14NES.jpg
422.601	0.514	Blank	Blank	66.222	n/a	4	11	4	n/a	84	n/a	1	n/a	n/a	n/a	n/a	451.731	n/a
423.131	0.497	neutral	Picture	65.708	n/a	4	11	5	n/a	85	25	1	n/a	n/a	n/a	n/a	452.262	BM06NES.jpg
423.629	0.514	Blank	Blank	65.194	n/a	4	11	5	n/a	85	n/a	1	n/a	n/a	n/a	n/a	452.759	n/a
424.159	0.497	neutral	Picture	64.68	n/a	4	11	6	n/a	86	9	1	n/a	n/a	n/a	n/a	453.289	AF17NES.jpg
424.657	0.514	Blank	Blank	64.166	n/a	4	11	6	n/a	86	n/a	1	n/a	n/a	n/a	n/a	453.787	n/a
425.187	0.497	neutral	Picture	63.652	n/a	4	11	7	n/a	87	2	1	n/a	n/a	n/a	n/a	454.317	AF03NES.jpg
425.684	0.514	Blank	Blank	63.138	n/a	4	11	7	n/a	87	n/a	1	n/a	n/a	n/a	n/a	454.815	n/a
426.215	0.497	neutral	Picture	62.624	n/a	4	11	8	n/a	88	17	1	n/a	n/a	n/a	n/a	455.345	BF28NES.jpg
426.712	0.514	Blank	Blank	62.11	n/a	4	11	8	n/a	88	n/a	1	n/a	n/a	n/a	n/a	455.843	n/a
427.243	0.497	neutral	Picture	61.596	n/a	4	11	9	n/a	89	6	1	n/a	n/a	n/a	n/a	456.373	AF09NES.jpg
427.74	0.514	Blank	Blank	61.082	n/a	4	11	9	n/a	89	n/a	1	n/a	n/a	n/a	n/a	456.87	n/a
428.271	0.497	neutral	Picture	60.568	n/a	4	11	10	n/a	90	12	1	n/a	n/a	n/a	n/a	457.401	AF21NES.jpg
428.768	0.514	Blank	Blank	60.054	n/a	4	11	10	n/a	90	n/a	1	n/a	n/a	n/a	n/a	457.898	n/a
429.299	0.497	neutral	Picture	59.54	n/a	4	11	11	n/a	91	24	1	n/a	n/a	n/a	n/a	458.429	BM05NES.jpg
429.796	0.514	Blank	Blank	59.026	n/a	4	11	11	n/a	91	n/a	1	n/a	n/a	n/a	n/a	458.926	n/a
430.326	0.497	neutral	Picture	58.512	n/a	4	11	12	n/a	92	34	1	n/a	n/a	n/a	n/a	459.457	AM22NES.jpg
430.824	0.514	Blank	Blank	57.999	n/a	4	11	12	n/a	92	n/a	1	n/a	n/a	n/a	n/a	459.954	n/a
431.354	0.497	neutral	Picture	57.485	n/a	4	11	13	n/a	93	23	1	n/a	n/a	n/a	n/a	460.485	AM04NES.jpg
431.852	0.514	Blank	Blank	56.971	n/a	4	11	13	n/a	93	n/a	1	n/a	n/a	n/a	n/a	460.982	n/a
432.382	0.497	neutral	Picture	56.457	n/a	4	11	14	n/a	94	15	1	n/a	n/a	n/a	n/a	461.512	AF25NES.jpg
432.88	0.514	Blank	Blank	55.943	n/a	4	11	14	n/a	94	n/a	1	n/a	n/a	n/a	n/a	462.01	n/a
433.41	0.497	neutral	Picture	55.429	n/a	4	11	15	n/a	95	37	1	n/a	n/a	n/a	n/a	462.54	BM25NES.jpg
433.907	0.514	Blank	Blank	54.915	n/a	4	11	15	n/a	95	n/a	1	n/a	n/a	n/a	n/a	463.038	n/a
434.438	0.497	neutral	Picture	54.401	n/a	4	11	16	n/a	96	32	1	n/a	n/a	n/a	n/a	463.568	AM14NES.jpg
434.935	0.514	Blank	Blank	53.887	n/a	4	11	16	n/a	96	n/a	1	n/a	n/a	n/a	n/a	464.066	n/a
435.466	0.497	neutral	Picture	53.373	n/a	4	11	17	n/a	97	3	1	n/a	n/a	n/a	n/a	464.596	BF04NES.jpg
435.963	0.514	Blank	Blank	52.859	n/a	4	11	17	n/a	97	n/a	1	n/a	n/a	n/a	n/a	465.094	n/a
436.494	0.497	neutral	Picture	52.345	n/a	4	11	18	n/a	98	16	1	n/a	n/a	n/a	n/a	465.624	AF26NES.jpg
436.991	0.514	Blank	Blank	51.831	n/a	4	11	18	n/a	98	n/a	1	n/a	n/a	n/a	n/a	466.121	n/a
437.522	0.497	neutral	Picture	51.317	n/a	4	11	19	n/a	99	27	1	n/a	n/a	n/a	n/a	466.652	BM08NES.jpg
438.019	0.514	Blank	Blank	50.803	n/a	4	11	19	n/a	99	n/a	1	n/a	n/a	n/a	n/a	467.149	n/a
438.55	0.497	neutral	Picture	50.289	n/a	4	11	20	n/a	100	28	1	n/a	n/a	n/a	n/a	467.68	AM09NES.jpg
439.047	0.514	Blank	Blank	49.775	n/a	4	11	20	n/a	100	n/a	1	n/a	n/a	n/a	n/a	468.177	n/a
439.577	10.014	ITI	Fixation+	39.745	n/a	4	n/a	n/a	n/a	n/a	n/a	n/a	n/a	n/a	n/a	n/a	468.708	n/a
449.608	0.497	angry	Picture	39.231	n/a	4	12	1	n/a	101	81	3	n/a	n/a	n/a	n/a	478.738	AF01ANS.jpg
450.105	0.514	Blank	Blank	38.717	n/a	4	12	1	n/a	101	n/a	3	n/a	n/a	n/a	n/a	479.235	n/a
450.635	0.497	angry	Picture	38.204	n/a	4	12	2	n/a	102	120	3	n/a	n/a	n/a	n/a	479.766	AM35ANS.jpg
451.133	0.514	Blank	Blank	37.69	n/a	4	12	2	n/a	102	n/a	3	n/a	n/a	n/a	n/a	480.263	n/a
451.663	0.497	angry	Picture	37.176	n/a	4	12	3	n/a	103	114	3	n/a	n/a	n/a	n/a	480.793	AM22ANS.jpg
452.161	0.514	Blank	Blank	36.662	n/a	4	12	3	n/a	103	n/a	3	n/a	n/a	n/a	n/a	481.291	n/a
452.691	0.497	angry	Picture	36.148	n/a	4	12	4	n/a	104	109	3	n/a	n/a	n/a	n/a	481.821	AM10ANS.jpg
453.189	0.514	Blank	Blank	35.634	n/a	4	12	4	n/a	104	n/a	3	n/a	n/a	n/a	n/a	482.319	n/a
453.719	0.497	angry	Picture	35.12	n/a	4	12	5	n/a	105	96	3	n/a	n/a	n/a	n/a	482.849	AF26ANS.jpg
454.216	0.514	Blank	Blank	34.606	n/a	4	12	5	n/a	105	n/a	3	n/a	n/a	n/a	n/a	483.347	n/a
454.747	0.497	angry	Picture	34.092	n/a	4	12	6	n/a	106	82	3	n/a	n/a	n/a	n/a	483.877	AF03ANS.jpg
455.244	0.514	Blank	Blank	33.578	n/a	4	12	6	n/a	106	n/a	3	n/a	n/a	n/a	n/a	484.375	n/a
455.775	0.497	angry	Picture	33.064	n/a	4	12	7	n/a	107	97	3	n/a	n/a	n/a	n/a	484.905	BF28ANS.jpg
456.272	0.514	Blank	Blank	32.55	n/a	4	12	7	n/a	107	n/a	3	n/a	n/a	n/a	n/a	485.402	n/a
456.803	0.497	angry	Picture	32.036	n/a	4	12	8	n/a	108	115	3	n/a	n/a	n/a	n/a	485.933	AM23ANS.jpg
457.3	0.514	Blank	Blank	31.522	n/a	4	12	8	n/a	108	n/a	3	n/a	n/a	n/a	n/a	486.43	n/a
457.831	0.497	angry	Picture	31.008	n/a	4	12	9	n/a	109	91	3	n/a	n/a	n/a	n/a	486.961	AF20ANS.jpg
458.328	0.514	Blank	Blank	30.495	n/a	4	12	9	n/a	109	n/a	3	n/a	n/a	n/a	n/a	487.458	n/a
458.858	0.497	angry	Picture	29.981	n/a	4	12	10	n/a	110	87	3	n/a	n/a	n/a	n/a	487.989	BF11ANS.jpg
459.356	0.514	Blank	Blank	29.467	n/a	4	12	10	n/a	110	n/a	3	n/a	n/a	n/a	n/a	488.486	n/a
459.886	0.497	angry	Picture	28.953	n/a	4	12	11	n/a	111	85	3	n/a	n/a	n/a	n/a	489.017	BF07ANS.jpg
460.384	0.514	Blank	Blank	28.439	n/a	4	12	11	n/a	111	n/a	3	n/a	n/a	n/a	n/a	489.514	n/a
460.914	0.497	angry	Picture	27.925	n/a	4	12	12	n/a	112	110	3	n/a	n/a	n/a	n/a	490.044	AM11ANS.jpg
461.412	0.514	Blank	Blank	27.411	n/a	4	12	12	n/a	112	n/a	3	n/a	n/a	n/a	n/a	490.542	n/a
461.942	0.497	angry	Picture	26.897	n/a	4	12	13	n/a	113	111	3	n/a	n/a	n/a	n/a	491.072	BM12ANS.jpg
462.439	0.514	Blank	Blank	26.383	n/a	4	12	13	n/a	113	n/a	3	n/a	n/a	n/a	n/a	491.57	n/a
462.97	0.497	angry	Picture	25.869	n/a	4	12	14	n/a	114	103	3	n/a	n/a	n/a	n/a	492.1	AM04ANS.jpg
463.467	0.514	Blank	Blank	25.355	n/a	4	12	14	n/a	114	n/a	3	n/a	n/a	n/a	n/a	492.598	n/a
463.998	0.497	angry	Picture	24.841	n/a	4	12	15	n/a	115	101	3	n/a	n/a	n/a	n/a	493.128	AM01ANS.jpg
464.495	0.514	Blank	Blank	24.327	n/a	4	12	15	n/a	115	n/a	3	n/a	n/a	n/a	n/a	493.625	n/a
465.026	0.497	angry	Picture	23.813	n/a	4	12	16	n/a	116	104	3	n/a	n/a	n/a	n/a	494.156	BM05ANS.jpg
465.523	0.514	Blank	Blank	23.299	n/a	4	12	16	n/a	116	n/a	3	n/a	n/a	n/a	n/a	494.653	n/a
466.054	0.497	angry	Picture	22.785	n/a	4	12	17	n/a	117	107	3	n/a	n/a	n/a	n/a	495.184	BM08ANS.jpg
466.551	0.514	Blank	Blank	22.272	n/a	4	12	17	n/a	117	n/a	3	n/a	n/a	n/a	n/a	495.681	n/a
467.081	0.497	angry	Picture	21.757	n/a	4	12	18	n/a	118	98	3	n/a	n/a	n/a	n/a	496.212	BF29ANS.jpg
467.579	0.514	Blank	Blank	21.244	n/a	4	12	18	n/a	118	n/a	3	n/a	n/a	n/a	n/a	496.709	n/a
468.109	0.497	angry	Picture	20.73	n/a	4	12	19	n/a	119	99	3	n/a	n/a	n/a	n/a	497.24	AF31ANS.jpg
468.607	0.514	Blank	Blank	20.216	n/a	4	12	19	n/a	119	n/a	3	n/a	n/a	n/a	n/a	497.737	n/a
469.134	0.501	angry	Picture	19.702	n/a	4	12	20	n/a	120	108	3	n/a	n/a	n/a	n/a	498.264	AM09ANS.jpg
469.635	0.514	Blank	Blank	19.188	n/a	4	12	20	n/a	120	n/a	3	n/a	n/a	n/a	n/a	498.765	n/a
470.165	10.014	ITI	Fixation+	9.158	n/a	4	n/a	n/a	n/a	n/a	n/a	n/a	n/a	n/a	n/a	n/a	499.295	n/a
489.336	n/a	ConfirmRating	Rate	n/a	9.151	4	n/a	n/a	0	n/a	n/a	n/a	2	Angry	23	23	518.467	n/a
494.501	n/a	ConfirmRating	Rate	n/a	5.139	4	n/a	n/a	1	n/a	n/a	n/a	3	Angry	56	56	523.631	n/a
