onset	duration	trial_type	event_type	time_until_response	response_time	trial_number	block_num_within_trial	image_seq_num_within_block	question_seq_num_within_block	image_seq_num	picture_number	condition	question_type	block_type	rating	rating_computed	onset_uncorrected	KDEV_imagefile
0.01	10.014	ITI	Fixation+	106.291	n/a	1	n/a	n/a	n/a	n/a	n/a	n/a	n/a	n/a	n/a	n/a	35.224	n/a
10.04	0.497	happy	Picture	105.777	n/a	1	1	1	n/a	1	46	2	n/a	n/a	n/a	n/a	45.255	AF09HAS.jpg
10.537	0.514	Blank	Blank	105.263	n/a	1	1	1	n/a	1	n/a	2	n/a	n/a	n/a	n/a	45.752	n/a
11.068	0.497	happy	Picture	104.749	n/a	1	1	2	n/a	2	69	2	n/a	n/a	n/a	n/a	46.282	AM10HAS.jpg
11.565	0.514	Blank	Blank	104.235	n/a	1	1	2	n/a	2	n/a	2	n/a	n/a	n/a	n/a	46.78	n/a
12.096	0.497	happy	Picture	103.721	n/a	1	1	3	n/a	3	71	2	n/a	n/a	n/a	n/a	47.31	BM12HAS.jpg
12.593	0.514	Blank	Blank	103.207	n/a	1	1	3	n/a	3	n/a	2	n/a	n/a	n/a	n/a	47.808	n/a
13.123	0.497	happy	Picture	102.694	n/a	1	1	4	n/a	4	51	2	n/a	n/a	n/a	n/a	48.338	AF20HAS.jpg
13.621	0.514	Blank	Blank	102.18	n/a	1	1	4	n/a	4	n/a	2	n/a	n/a	n/a	n/a	48.836	n/a
14.151	0.497	happy	Picture	101.666	n/a	1	1	5	n/a	5	67	2	n/a	n/a	n/a	n/a	49.366	BM08HAS.jpg
14.649	0.514	Blank	Blank	101.152	n/a	1	1	5	n/a	5	n/a	2	n/a	n/a	n/a	n/a	49.864	n/a
15.179	0.497	happy	Picture	100.638	n/a	1	1	6	n/a	6	60	2	n/a	n/a	n/a	n/a	50.394	AF32HAS.jpg
15.677	0.514	Blank	Blank	100.124	n/a	1	1	6	n/a	6	n/a	2	n/a	n/a	n/a	n/a	50.891	n/a
16.207	0.497	happy	Picture	99.61	n/a	1	1	7	n/a	7	42	2	n/a	n/a	n/a	n/a	51.422	AF03HAS.jpg
16.705	0.514	Blank	Blank	99.096	n/a	1	1	7	n/a	7	n/a	2	n/a	n/a	n/a	n/a	51.919	n/a
17.235	0.497	happy	Picture	98.582	n/a	1	1	8	n/a	8	55	2	n/a	n/a	n/a	n/a	52.45	AF25HAS.jpg
17.732	0.514	Blank	Blank	98.068	n/a	1	1	8	n/a	8	n/a	2	n/a	n/a	n/a	n/a	52.947	n/a
18.263	0.497	happy	Picture	97.554	n/a	1	1	9	n/a	9	72	2	n/a	n/a	n/a	n/a	53.478	AM14HAS.jpg
18.76	0.514	Blank	Blank	97.04	n/a	1	1	9	n/a	9	n/a	2	n/a	n/a	n/a	n/a	53.975	n/a
19.291	0.497	happy	Picture	96.526	n/a	1	1	10	n/a	10	63	2	n/a	n/a	n/a	n/a	54.506	AM04HAS.jpg
19.788	0.514	Blank	Blank	96.012	n/a	1	1	10	n/a	10	n/a	2	n/a	n/a	n/a	n/a	55.003	n/a
20.319	0.497	happy	Picture	95.498	n/a	1	1	11	n/a	11	58	2	n/a	n/a	n/a	n/a	55.533	BF29HAS.jpg
20.816	0.514	Blank	Blank	94.984	n/a	1	1	11	n/a	11	n/a	2	n/a	n/a	n/a	n/a	56.031	n/a
21.347	0.497	happy	Picture	94.47	n/a	1	1	12	n/a	12	48	2	n/a	n/a	n/a	n/a	56.561	AF14HAS.jpg
21.844	0.514	Blank	Blank	93.957	n/a	1	1	12	n/a	12	n/a	2	n/a	n/a	n/a	n/a	57.059	n/a
22.374	0.497	happy	Picture	93.442	n/a	1	1	13	n/a	13	66	2	n/a	n/a	n/a	n/a	57.589	BM07HAS.jpg
22.872	0.514	Blank	Blank	92.929	n/a	1	1	13	n/a	13	n/a	2	n/a	n/a	n/a	n/a	58.087	n/a
23.402	0.497	happy	Picture	92.415	n/a	1	1	14	n/a	14	70	2	n/a	n/a	n/a	n/a	58.617	BM11HAS.jpg
23.9	0.514	Blank	Blank	91.901	n/a	1	1	14	n/a	14	n/a	2	n/a	n/a	n/a	n/a	59.114	n/a
24.43	0.497	happy	Picture	91.387	n/a	1	1	15	n/a	15	43	2	n/a	n/a	n/a	n/a	59.645	BF04HAS.jpg
24.928	0.514	Blank	Blank	90.873	n/a	1	1	15	n/a	15	n/a	2	n/a	n/a	n/a	n/a	60.142	n/a
25.458	0.497	happy	Picture	90.359	n/a	1	1	16	n/a	16	49	2	n/a	n/a	n/a	n/a	60.673	AF17HAS.jpg
25.955	0.514	Blank	Blank	89.845	n/a	1	1	16	n/a	16	n/a	2	n/a	n/a	n/a	n/a	61.17	n/a
26.486	0.497	happy	Picture	89.331	n/a	1	1	17	n/a	17	75	2	n/a	n/a	n/a	n/a	61.701	AM23HAS.jpg
26.983	0.514	Blank	Blank	88.817	n/a	1	1	17	n/a	17	n/a	2	n/a	n/a	n/a	n/a	62.198	n/a
27.514	0.497	happy	Picture	88.303	n/a	1	1	18	n/a	18	80	2	n/a	n/a	n/a	n/a	62.729	BM35HAS.jpg
28.011	0.514	Blank	Blank	87.789	n/a	1	1	18	n/a	18	n/a	2	n/a	n/a	n/a	n/a	63.226	n/a
28.542	0.497	happy	Picture	87.275	n/a	1	1	19	n/a	19	76	2	n/a	n/a	n/a	n/a	63.757	BM24HAS.jpg
29.039	0.514	Blank	Blank	86.761	n/a	1	1	19	n/a	19	n/a	2	n/a	n/a	n/a	n/a	64.254	n/a
29.57	0.497	happy	Picture	86.247	n/a	1	1	20	n/a	20	74	2	n/a	n/a	n/a	n/a	64.784	AM22HAS.jpg
30.067	0.514	Blank	Blank	85.733	n/a	1	1	20	n/a	20	n/a	2	n/a	n/a	n/a	n/a	65.282	n/a
30.597	10.014	ITI	Fixation+	75.703	n/a	1	n/a	n/a	n/a	n/a	n/a	n/a	n/a	n/a	n/a	n/a	65.812	n/a
40.628	0.497	neutral	Picture	75.189	n/a	1	2	1	n/a	21	33	1	n/a	n/a	n/a	n/a	75.842	AM21NES.jpg
41.125	0.514	Blank	Blank	74.675	n/a	1	2	1	n/a	21	n/a	1	n/a	n/a	n/a	n/a	76.34	n/a
41.656	0.497	neutral	Picture	74.161	n/a	1	2	2	n/a	22	39	1	n/a	n/a	n/a	n/a	76.87	AM28NES.jpg
42.153	0.514	Blank	Blank	73.648	n/a	1	2	2	n/a	22	n/a	1	n/a	n/a	n/a	n/a	77.368	n/a
42.683	0.497	neutral	Picture	73.134	n/a	1	2	3	n/a	23	25	1	n/a	n/a	n/a	n/a	77.898	BM06NES.jpg
43.181	0.514	Blank	Blank	72.62	n/a	1	2	3	n/a	23	n/a	1	n/a	n/a	n/a	n/a	78.395	n/a
43.711	0.497	neutral	Picture	72.106	n/a	1	2	4	n/a	24	5	1	n/a	n/a	n/a	n/a	78.926	BF07NES.jpg
44.209	0.514	Blank	Blank	71.592	n/a	1	2	4	n/a	24	n/a	1	n/a	n/a	n/a	n/a	79.423	n/a
44.739	0.497	neutral	Picture	71.078	n/a	1	2	5	n/a	25	10	1	n/a	n/a	n/a	n/a	79.954	AF18NES.jpg
45.237	0.514	Blank	Blank	70.564	n/a	1	2	5	n/a	25	n/a	1	n/a	n/a	n/a	n/a	80.451	n/a
45.767	0.497	neutral	Picture	70.05	n/a	1	2	6	n/a	26	34	1	n/a	n/a	n/a	n/a	80.982	AM22NES.jpg
46.264	0.514	Blank	Blank	69.536	n/a	1	2	6	n/a	26	n/a	1	n/a	n/a	n/a	n/a	81.479	n/a
46.795	0.497	neutral	Picture	69.022	n/a	1	2	7	n/a	27	36	1	n/a	n/a	n/a	n/a	82.01	BM24NES.jpg
47.292	0.514	Blank	Blank	68.508	n/a	1	2	7	n/a	27	n/a	1	n/a	n/a	n/a	n/a	82.507	n/a
47.823	0.497	neutral	Picture	67.994	n/a	1	2	8	n/a	28	14	1	n/a	n/a	n/a	n/a	83.038	AF23NES.jpg
48.32	0.514	Blank	Blank	67.48	n/a	1	2	8	n/a	28	n/a	1	n/a	n/a	n/a	n/a	83.535	n/a
48.851	0.497	neutral	Picture	66.966	n/a	1	2	9	n/a	29	9	1	n/a	n/a	n/a	n/a	84.066	AF17NES.jpg
49.348	0.514	Blank	Blank	66.452	n/a	1	2	9	n/a	29	n/a	1	n/a	n/a	n/a	n/a	84.563	n/a
49.879	0.497	neutral	Picture	65.938	n/a	1	2	10	n/a	30	19	1	n/a	n/a	n/a	n/a	85.093	AF31NES.jpg
50.376	0.514	Blank	Blank	65.424	n/a	1	2	10	n/a	30	n/a	1	n/a	n/a	n/a	n/a	85.591	n/a
50.906	0.497	neutral	Picture	64.91	n/a	1	2	11	n/a	31	15	1	n/a	n/a	n/a	n/a	86.121	AF25NES.jpg
51.404	0.514	Blank	Blank	64.397	n/a	1	2	11	n/a	31	n/a	1	n/a	n/a	n/a	n/a	86.619	n/a
51.934	0.497	neutral	Picture	63.883	n/a	1	2	12	n/a	32	22	1	n/a	n/a	n/a	n/a	87.149	BM03NES.jpg
52.432	0.514	Blank	Blank	63.369	n/a	1	2	12	n/a	32	n/a	1	n/a	n/a	n/a	n/a	87.647	n/a
52.962	0.497	neutral	Picture	62.855	n/a	1	2	13	n/a	33	11	1	n/a	n/a	n/a	n/a	88.177	AF20NES.jpg
53.46	0.514	Blank	Blank	62.341	n/a	1	2	13	n/a	33	n/a	1	n/a	n/a	n/a	n/a	88.674	n/a
53.99	0.497	neutral	Picture	61.827	n/a	1	2	14	n/a	34	4	1	n/a	n/a	n/a	n/a	89.205	AF05NES.jpg
54.487	0.514	Blank	Blank	61.313	n/a	1	2	14	n/a	34	n/a	1	n/a	n/a	n/a	n/a	89.702	n/a
55.018	0.497	neutral	Picture	60.799	n/a	1	2	15	n/a	35	17	1	n/a	n/a	n/a	n/a	90.233	BF28NES.jpg
55.515	0.514	Blank	Blank	60.285	n/a	1	2	15	n/a	35	n/a	1	n/a	n/a	n/a	n/a	90.73	n/a
56.046	0.497	neutral	Picture	59.771	n/a	1	2	16	n/a	36	13	1	n/a	n/a	n/a	n/a	91.261	BF22NES.jpg
56.543	0.514	Blank	Blank	59.257	n/a	1	2	16	n/a	36	n/a	1	n/a	n/a	n/a	n/a	91.758	n/a
57.074	0.497	neutral	Picture	58.743	n/a	1	2	17	n/a	37	12	1	n/a	n/a	n/a	n/a	92.288	AF21NES.jpg
57.571	0.514	Blank	Blank	58.229	n/a	1	2	17	n/a	37	n/a	1	n/a	n/a	n/a	n/a	92.786	n/a
58.102	0.497	neutral	Picture	57.715	n/a	1	2	18	n/a	38	24	1	n/a	n/a	n/a	n/a	93.316	BM05NES.jpg
58.599	0.514	Blank	Blank	57.201	n/a	1	2	18	n/a	38	n/a	1	n/a	n/a	n/a	n/a	93.814	n/a
59.13	0.497	neutral	Picture	56.687	n/a	1	2	19	n/a	39	29	1	n/a	n/a	n/a	n/a	94.344	AM10NES.jpg
59.627	0.514	Blank	Blank	56.173	n/a	1	2	19	n/a	39	n/a	1	n/a	n/a	n/a	n/a	94.842	n/a
60.157	0.497	neutral	Picture	55.66	n/a	1	2	20	n/a	40	23	1	n/a	n/a	n/a	n/a	95.372	AM04NES.jpg
60.655	0.514	Blank	Blank	55.146	n/a	1	2	20	n/a	40	n/a	1	n/a	n/a	n/a	n/a	95.87	n/a
61.185	10.014	ITI	Fixation+	45.115	n/a	1	n/a	n/a	n/a	n/a	n/a	n/a	n/a	n/a	n/a	n/a	96.4	n/a
71.215	0.497	happy	Picture	44.602	n/a	1	3	1	n/a	41	62	2	n/a	n/a	n/a	n/a	106.43	BM03HAS.jpg
71.713	0.514	Blank	Blank	44.088	n/a	1	3	1	n/a	41	n/a	2	n/a	n/a	n/a	n/a	106.927	n/a
72.243	0.497	happy	Picture	43.574	n/a	1	3	2	n/a	42	52	2	n/a	n/a	n/a	n/a	107.458	AF21HAS.jpg
72.741	0.514	Blank	Blank	43.06	n/a	1	3	2	n/a	42	n/a	2	n/a	n/a	n/a	n/a	107.955	n/a
73.271	0.497	happy	Picture	42.546	n/a	1	3	3	n/a	43	44	2	n/a	n/a	n/a	n/a	108.486	AF05HAS.jpg
73.769	0.514	Blank	Blank	42.032	n/a	1	3	3	n/a	43	n/a	2	n/a	n/a	n/a	n/a	108.983	n/a
74.299	0.497	happy	Picture	41.518	n/a	1	3	4	n/a	44	53	2	n/a	n/a	n/a	n/a	109.514	BF22HAS.jpg
74.796	0.514	Blank	Blank	41.004	n/a	1	3	4	n/a	44	n/a	2	n/a	n/a	n/a	n/a	110.011	n/a
75.327	0.497	happy	Picture	40.49	n/a	1	3	5	n/a	45	54	2	n/a	n/a	n/a	n/a	110.542	AF23HAS.jpg
75.824	0.514	Blank	Blank	39.976	n/a	1	3	5	n/a	45	n/a	2	n/a	n/a	n/a	n/a	111.039	n/a
76.355	0.497	happy	Picture	39.462	n/a	1	3	6	n/a	46	68	2	n/a	n/a	n/a	n/a	111.57	AM09HAS.jpg
76.852	0.514	Blank	Blank	38.948	n/a	1	3	6	n/a	46	n/a	2	n/a	n/a	n/a	n/a	112.067	n/a
77.383	0.497	happy	Picture	38.434	n/a	1	3	7	n/a	47	64	2	n/a	n/a	n/a	n/a	112.597	BM05HAS.jpg
77.88	0.514	Blank	Blank	37.92	n/a	1	3	7	n/a	47	n/a	2	n/a	n/a	n/a	n/a	113.095	n/a
78.411	0.497	happy	Picture	37.406	n/a	1	3	8	n/a	48	59	2	n/a	n/a	n/a	n/a	113.625	AF31HAS.jpg
78.908	0.514	Blank	Blank	36.892	n/a	1	3	8	n/a	48	n/a	2	n/a	n/a	n/a	n/a	114.123	n/a
79.438	0.497	happy	Picture	36.379	n/a	1	3	9	n/a	49	41	2	n/a	n/a	n/a	n/a	114.653	AF01HAS.jpg
79.936	0.514	Blank	Blank	35.865	n/a	1	3	9	n/a	49	n/a	2	n/a	n/a	n/a	n/a	115.151	n/a
80.466	0.497	happy	Picture	35.351	n/a	1	3	10	n/a	50	73	2	n/a	n/a	n/a	n/a	115.681	AM21HAS.jpg
80.964	0.514	Blank	Blank	34.837	n/a	1	3	10	n/a	50	n/a	2	n/a	n/a	n/a	n/a	116.178	n/a
81.494	0.497	happy	Picture	34.323	n/a	1	3	11	n/a	51	65	2	n/a	n/a	n/a	n/a	116.709	BM06HAS.jpg
81.992	0.514	Blank	Blank	33.809	n/a	1	3	11	n/a	51	n/a	2	n/a	n/a	n/a	n/a	117.206	n/a
82.522	0.497	happy	Picture	33.295	n/a	1	3	12	n/a	52	56	2	n/a	n/a	n/a	n/a	117.737	AF26HAS.jpg
83.019	0.514	Blank	Blank	32.781	n/a	1	3	12	n/a	52	n/a	2	n/a	n/a	n/a	n/a	118.234	n/a
83.55	0.497	happy	Picture	32.267	n/a	1	3	13	n/a	53	45	2	n/a	n/a	n/a	n/a	118.765	BF07HAS.jpg
84.047	0.514	Blank	Blank	31.753	n/a	1	3	13	n/a	53	n/a	2	n/a	n/a	n/a	n/a	119.262	n/a
84.578	0.497	happy	Picture	31.239	n/a	1	3	14	n/a	54	78	2	n/a	n/a	n/a	n/a	119.793	BM26HAS.jpg
85.075	0.514	Blank	Blank	30.725	n/a	1	3	14	n/a	54	n/a	2	n/a	n/a	n/a	n/a	120.29	n/a
85.606	0.497	happy	Picture	30.211	n/a	1	3	15	n/a	55	50	2	n/a	n/a	n/a	n/a	120.82	AF18HAS.jpg
86.103	0.514	Blank	Blank	29.697	n/a	1	3	15	n/a	55	n/a	2	n/a	n/a	n/a	n/a	121.318	n/a
86.634	0.497	happy	Picture	29.183	n/a	1	3	16	n/a	56	47	2	n/a	n/a	n/a	n/a	121.848	BF11HAS.jpg
87.131	0.514	Blank	Blank	28.669	n/a	1	3	16	n/a	56	n/a	2	n/a	n/a	n/a	n/a	122.346	n/a
87.662	0.497	happy	Picture	28.155	n/a	1	3	17	n/a	57	77	2	n/a	n/a	n/a	n/a	122.876	BM25HAS.jpg
88.159	0.514	Blank	Blank	27.641	n/a	1	3	17	n/a	57	n/a	2	n/a	n/a	n/a	n/a	123.374	n/a
88.689	0.497	happy	Picture	27.128	n/a	1	3	18	n/a	58	57	2	n/a	n/a	n/a	n/a	123.904	BF28HAS.jpg
89.187	0.514	Blank	Blank	26.614	n/a	1	3	18	n/a	58	n/a	2	n/a	n/a	n/a	n/a	124.401	n/a
89.717	0.497	happy	Picture	26.1	n/a	1	3	19	n/a	59	61	2	n/a	n/a	n/a	n/a	124.932	AM01HAS.jpg
90.215	0.514	Blank	Blank	25.586	n/a	1	3	19	n/a	59	n/a	2	n/a	n/a	n/a	n/a	125.429	n/a
90.745	0.497	happy	Picture	25.072	n/a	1	3	20	n/a	60	79	2	n/a	n/a	n/a	n/a	125.96	BM28HAS.jpg
91.243	0.514	Blank	Blank	24.558	n/a	1	3	20	n/a	60	n/a	2	n/a	n/a	n/a	n/a	126.457	n/a
91.773	10.014	ITI	Fixation+	14.528	n/a	1	n/a	n/a	n/a	n/a	n/a	n/a	n/a	n/a	n/a	n/a	126.988	n/a
116.314	n/a	ConfirmRating	Rate	n/a	14.522	1	n/a	n/a	0	n/a	n/a	n/a	2	Happy	48	50	151.529	n/a
126.657	n/a	ConfirmRating	Rate	n/a	10.329	1	n/a	n/a	1	n/a	n/a	n/a	3	Happy	0	47	161.872	n/a
126.688	10.014	ITI	Fixation+	105.834	n/a	2	n/a	n/a	n/a	n/a	n/a	n/a	n/a	n/a	n/a	n/a	161.903	n/a
136.718	0.497	angry	Picture	105.32	n/a	2	4	1	n/a	61	119	3	n/a	n/a	n/a	n/a	171.933	BM28ANS.jpg
137.215	0.514	Blank	Blank	104.806	n/a	2	4	1	n/a	61	n/a	3	n/a	n/a	n/a	n/a	172.43	n/a
137.746	0.497	angry	Picture	104.292	n/a	2	4	2	n/a	62	100	3	n/a	n/a	n/a	n/a	172.961	AF32ANS.jpg
138.243	0.514	Blank	Blank	103.778	n/a	2	4	2	n/a	62	n/a	3	n/a	n/a	n/a	n/a	173.458	n/a
138.774	0.497	angry	Picture	103.264	n/a	2	4	3	n/a	63	118	3	n/a	n/a	n/a	n/a	173.989	BM26ANS.jpg
139.271	0.514	Blank	Blank	102.75	n/a	2	4	3	n/a	63	n/a	3	n/a	n/a	n/a	n/a	174.486	n/a
139.802	0.497	angry	Picture	102.236	n/a	2	4	4	n/a	64	89	3	n/a	n/a	n/a	n/a	175.016	AF17ANS.jpg
140.299	0.514	Blank	Blank	101.722	n/a	2	4	4	n/a	64	n/a	3	n/a	n/a	n/a	n/a	175.514	n/a
140.829	0.497	angry	Picture	101.208	n/a	2	4	5	n/a	65	116	3	n/a	n/a	n/a	n/a	176.044	BM24ANS.jpg
141.327	0.514	Blank	Blank	100.694	n/a	2	4	5	n/a	65	n/a	3	n/a	n/a	n/a	n/a	176.542	n/a
141.857	0.497	angry	Picture	100.18	n/a	2	4	6	n/a	66	105	3	n/a	n/a	n/a	n/a	177.072	BM06ANS.jpg
142.355	0.514	Blank	Blank	99.666	n/a	2	4	6	n/a	66	n/a	3	n/a	n/a	n/a	n/a	177.57	n/a
142.885	0.497	angry	Picture	99.152	n/a	2	4	7	n/a	67	106	3	n/a	n/a	n/a	n/a	178.1	AM07ANS.jpg
143.383	0.514	Blank	Blank	98.638	n/a	2	4	7	n/a	67	n/a	3	n/a	n/a	n/a	n/a	178.597	n/a
143.913	0.497	angry	Picture	98.125	n/a	2	4	8	n/a	68	94	3	n/a	n/a	n/a	n/a	179.128	AF23ANS.jpg
144.411	0.514	Blank	Blank	97.61	n/a	2	4	8	n/a	68	n/a	3	n/a	n/a	n/a	n/a	179.625	n/a
144.941	0.497	angry	Picture	97.097	n/a	2	4	9	n/a	69	117	3	n/a	n/a	n/a	n/a	180.156	BM25ANS.jpg
145.438	0.514	Blank	Blank	96.583	n/a	2	4	9	n/a	69	n/a	3	n/a	n/a	n/a	n/a	180.653	n/a
145.969	0.497	angry	Picture	96.069	n/a	2	4	10	n/a	70	90	3	n/a	n/a	n/a	n/a	181.184	AF18ANS.jpg
146.466	0.514	Blank	Blank	95.555	n/a	2	4	10	n/a	70	n/a	3	n/a	n/a	n/a	n/a	181.681	n/a
146.997	0.497	angry	Picture	95.041	n/a	2	4	11	n/a	71	83	3	n/a	n/a	n/a	n/a	182.212	BF04ANS.jpg
147.494	0.514	Blank	Blank	94.527	n/a	2	4	11	n/a	71	n/a	3	n/a	n/a	n/a	n/a	182.709	n/a
148.025	0.497	angry	Picture	94.013	n/a	2	4	12	n/a	72	112	3	n/a	n/a	n/a	n/a	183.239	AM14ANS.jpg
148.522	0.514	Blank	Blank	93.499	n/a	2	4	12	n/a	72	n/a	3	n/a	n/a	n/a	n/a	183.737	n/a
149.053	0.497	angry	Picture	92.985	n/a	2	4	13	n/a	73	102	3	n/a	n/a	n/a	n/a	184.267	BM03ANS.jpg
149.55	0.514	Blank	Blank	92.471	n/a	2	4	13	n/a	73	n/a	3	n/a	n/a	n/a	n/a	184.765	n/a
150.081	0.497	angry	Picture	91.957	n/a	2	4	14	n/a	74	95	3	n/a	n/a	n/a	n/a	185.295	AF25ANS.jpg
150.578	0.514	Blank	Blank	91.443	n/a	2	4	14	n/a	74	n/a	3	n/a	n/a	n/a	n/a	185.793	n/a
151.108	0.497	angry	Picture	90.929	n/a	2	4	15	n/a	75	113	3	n/a	n/a	n/a	n/a	186.323	AM21ANS.jpg
151.606	0.514	Blank	Blank	90.415	n/a	2	4	15	n/a	75	n/a	3	n/a	n/a	n/a	n/a	186.821	n/a
152.136	0.497	angry	Picture	89.901	n/a	2	4	16	n/a	76	88	3	n/a	n/a	n/a	n/a	187.351	AF14ANS.jpg
152.634	0.514	Blank	Blank	89.387	n/a	2	4	16	n/a	76	n/a	3	n/a	n/a	n/a	n/a	187.848	n/a
153.164	0.497	angry	Picture	88.874	n/a	2	4	17	n/a	77	93	3	n/a	n/a	n/a	n/a	188.379	BF22ANS.jpg
153.661	0.514	Blank	Blank	88.36	n/a	2	4	17	n/a	77	n/a	3	n/a	n/a	n/a	n/a	188.876	n/a
154.192	0.497	angry	Picture	87.846	n/a	2	4	18	n/a	78	86	3	n/a	n/a	n/a	n/a	189.407	AF09ANS.jpg
154.689	0.514	Blank	Blank	87.332	n/a	2	4	18	n/a	78	n/a	3	n/a	n/a	n/a	n/a	189.904	n/a
155.22	0.497	angry	Picture	86.818	n/a	2	4	19	n/a	79	92	3	n/a	n/a	n/a	n/a	190.435	AF21ANS.jpg
155.717	0.514	Blank	Blank	86.304	n/a	2	4	19	n/a	79	n/a	3	n/a	n/a	n/a	n/a	190.932	n/a
156.248	0.497	angry	Picture	85.79	n/a	2	4	20	n/a	80	84	3	n/a	n/a	n/a	n/a	191.463	AF05ANS.jpg
156.745	0.514	Blank	Blank	85.276	n/a	2	4	20	n/a	80	n/a	3	n/a	n/a	n/a	n/a	191.96	n/a
157.276	10.014	ITI	Fixation+	75.246	n/a	2	n/a	n/a	n/a	n/a	n/a	n/a	n/a	n/a	n/a	n/a	192.49	n/a
167.306	0.497	neutral	Picture	74.732	n/a	2	5	1	n/a	81	4	1	n/a	n/a	n/a	n/a	202.521	AF05NES.jpg
167.803	0.514	Blank	Blank	74.218	n/a	2	5	1	n/a	81	n/a	1	n/a	n/a	n/a	n/a	203.018	n/a
168.334	0.497	neutral	Picture	73.704	n/a	2	5	2	n/a	82	14	1	n/a	n/a	n/a	n/a	203.548	AF23NES.jpg
168.831	0.514	Blank	Blank	73.19	n/a	2	5	2	n/a	82	n/a	1	n/a	n/a	n/a	n/a	204.046	n/a
169.362	0.497	neutral	Picture	72.676	n/a	2	5	3	n/a	83	19	1	n/a	n/a	n/a	n/a	204.576	AF31NES.jpg
169.859	0.514	Blank	Blank	72.162	n/a	2	5	3	n/a	83	n/a	1	n/a	n/a	n/a	n/a	205.074	n/a
170.389	0.497	neutral	Picture	71.648	n/a	2	5	4	n/a	84	8	1	n/a	n/a	n/a	n/a	205.604	AF14NES.jpg
170.887	0.514	Blank	Blank	71.134	n/a	2	5	4	n/a	84	n/a	1	n/a	n/a	n/a	n/a	206.102	n/a
171.417	0.497	neutral	Picture	70.62	n/a	2	5	5	n/a	85	25	1	n/a	n/a	n/a	n/a	206.632	BM06NES.jpg
171.915	0.514	Blank	Blank	70.106	n/a	2	5	5	n/a	85	n/a	1	n/a	n/a	n/a	n/a	207.13	n/a
172.445	0.497	neutral	Picture	69.593	n/a	2	5	6	n/a	86	9	1	n/a	n/a	n/a	n/a	207.66	AF17NES.jpg
172.942	0.514	Blank	Blank	69.078	n/a	2	5	6	n/a	86	n/a	1	n/a	n/a	n/a	n/a	208.157	n/a
173.473	0.497	neutral	Picture	68.565	n/a	2	5	7	n/a	87	2	1	n/a	n/a	n/a	n/a	208.688	AF03NES.jpg
173.97	0.514	Blank	Blank	68.051	n/a	2	5	7	n/a	87	n/a	1	n/a	n/a	n/a	n/a	209.185	n/a
174.501	0.497	neutral	Picture	67.537	n/a	2	5	8	n/a	88	17	1	n/a	n/a	n/a	n/a	209.716	BF28NES.jpg
174.998	0.514	Blank	Blank	67.023	n/a	2	5	8	n/a	88	n/a	1	n/a	n/a	n/a	n/a	210.213	n/a
175.529	0.497	neutral	Picture	66.509	n/a	2	5	9	n/a	89	6	1	n/a	n/a	n/a	n/a	210.744	AF09NES.jpg
176.026	0.514	Blank	Blank	65.995	n/a	2	5	9	n/a	89	n/a	1	n/a	n/a	n/a	n/a	211.241	n/a
176.557	0.497	neutral	Picture	65.481	n/a	2	5	10	n/a	90	12	1	n/a	n/a	n/a	n/a	211.772	AF21NES.jpg
177.054	0.514	Blank	Blank	64.967	n/a	2	5	10	n/a	90	n/a	1	n/a	n/a	n/a	n/a	212.269	n/a
177.585	0.497	neutral	Picture	64.453	n/a	2	5	11	n/a	91	24	1	n/a	n/a	n/a	n/a	212.799	BM05NES.jpg
178.082	0.514	Blank	Blank	63.939	n/a	2	5	11	n/a	91	n/a	1	n/a	n/a	n/a	n/a	213.297	n/a
178.613	0.497	neutral	Picture	63.425	n/a	2	5	12	n/a	92	34	1	n/a	n/a	n/a	n/a	213.827	AM22NES.jpg
179.11	0.514	Blank	Blank	62.911	n/a	2	5	12	n/a	92	n/a	1	n/a	n/a	n/a	n/a	214.325	n/a
179.64	0.497	neutral	Picture	62.397	n/a	2	5	13	n/a	93	23	1	n/a	n/a	n/a	n/a	214.855	AM04NES.jpg
180.138	0.514	Blank	Blank	61.883	n/a	2	5	13	n/a	93	n/a	1	n/a	n/a	n/a	n/a	215.352	n/a
180.668	0.497	neutral	Picture	61.369	n/a	2	5	14	n/a	94	15	1	n/a	n/a	n/a	n/a	215.883	AF25NES.jpg
181.166	0.514	Blank	Blank	60.855	n/a	2	5	14	n/a	94	n/a	1	n/a	n/a	n/a	n/a	216.38	n/a
181.696	0.497	neutral	Picture	60.341	n/a	2	5	15	n/a	95	37	1	n/a	n/a	n/a	n/a	216.911	BM25NES.jpg
182.194	0.514	Blank	Blank	59.828	n/a	2	5	15	n/a	95	n/a	1	n/a	n/a	n/a	n/a	217.408	n/a
182.724	0.497	neutral	Picture	59.314	n/a	2	5	16	n/a	96	32	1	n/a	n/a	n/a	n/a	217.939	AM14NES.jpg
183.221	0.514	Blank	Blank	58.8	n/a	2	5	16	n/a	96	n/a	1	n/a	n/a	n/a	n/a	218.436	n/a
183.752	0.497	neutral	Picture	58.286	n/a	2	5	17	n/a	97	3	1	n/a	n/a	n/a	n/a	218.967	BF04NES.jpg
184.249	0.514	Blank	Blank	57.772	n/a	2	5	17	n/a	97	n/a	1	n/a	n/a	n/a	n/a	219.464	n/a
184.78	0.497	neutral	Picture	57.258	n/a	2	5	18	n/a	98	16	1	n/a	n/a	n/a	n/a	219.995	AF26NES.jpg
185.277	0.514	Blank	Blank	56.744	n/a	2	5	18	n/a	98	n/a	1	n/a	n/a	n/a	n/a	220.492	n/a
185.808	0.497	neutral	Picture	56.23	n/a	2	5	19	n/a	99	27	1	n/a	n/a	n/a	n/a	221.022	BM08NES.jpg
186.305	0.514	Blank	Blank	55.716	n/a	2	5	19	n/a	99	n/a	1	n/a	n/a	n/a	n/a	221.52	n/a
186.835	0.497	neutral	Picture	55.202	n/a	2	5	20	n/a	100	28	1	n/a	n/a	n/a	n/a	222.05	AM09NES.jpg
187.333	0.514	Blank	Blank	54.688	n/a	2	5	20	n/a	100	n/a	1	n/a	n/a	n/a	n/a	222.548	n/a
187.863	10.014	ITI	Fixation+	44.658	n/a	2	n/a	n/a	n/a	n/a	n/a	n/a	n/a	n/a	n/a	n/a	223.078	n/a
197.894	0.497	angry	Picture	44.144	n/a	2	6	1	n/a	101	81	3	n/a	n/a	n/a	n/a	233.108	AF01ANS.jpg
198.391	0.514	Blank	Blank	43.63	n/a	2	6	1	n/a	101	n/a	3	n/a	n/a	n/a	n/a	233.606	n/a
198.921	0.497	angry	Picture	43.116	n/a	2	6	2	n/a	102	120	3	n/a	n/a	n/a	n/a	234.136	AM35ANS.jpg
199.419	0.514	Blank	Blank	42.602	n/a	2	6	2	n/a	102	n/a	3	n/a	n/a	n/a	n/a	234.634	n/a
199.949	0.497	angry	Picture	42.088	n/a	2	6	3	n/a	103	114	3	n/a	n/a	n/a	n/a	235.164	AM22ANS.jpg
200.447	0.514	Blank	Blank	41.574	n/a	2	6	3	n/a	103	n/a	3	n/a	n/a	n/a	n/a	235.661	n/a
200.977	0.497	angry	Picture	41.06	n/a	2	6	4	n/a	104	109	3	n/a	n/a	n/a	n/a	236.192	AM10ANS.jpg
201.475	0.514	Blank	Blank	40.546	n/a	2	6	4	n/a	104	n/a	3	n/a	n/a	n/a	n/a	236.689	n/a
202.005	0.497	angry	Picture	40.033	n/a	2	6	5	n/a	105	96	3	n/a	n/a	n/a	n/a	237.22	AF26ANS.jpg
202.502	0.514	Blank	Blank	39.519	n/a	2	6	5	n/a	105	n/a	3	n/a	n/a	n/a	n/a	237.717	n/a
203.033	0.497	angry	Picture	39.005	n/a	2	6	6	n/a	106	82	3	n/a	n/a	n/a	n/a	238.248	AF03ANS.jpg
203.53	0.514	Blank	Blank	38.491	n/a	2	6	6	n/a	106	n/a	3	n/a	n/a	n/a	n/a	238.745	n/a
204.061	0.497	angry	Picture	37.977	n/a	2	6	7	n/a	107	97	3	n/a	n/a	n/a	n/a	239.276	BF28ANS.jpg
204.558	0.514	Blank	Blank	37.463	n/a	2	6	7	n/a	107	n/a	3	n/a	n/a	n/a	n/a	239.773	n/a
205.089	0.497	angry	Picture	36.949	n/a	2	6	8	n/a	108	115	3	n/a	n/a	n/a	n/a	240.304	AM23ANS.jpg
205.586	0.514	Blank	Blank	36.435	n/a	2	6	8	n/a	108	n/a	3	n/a	n/a	n/a	n/a	240.801	n/a
206.117	0.497	angry	Picture	35.921	n/a	2	6	9	n/a	109	91	3	n/a	n/a	n/a	n/a	241.331	AF20ANS.jpg
206.614	0.514	Blank	Blank	35.407	n/a	2	6	9	n/a	109	n/a	3	n/a	n/a	n/a	n/a	241.829	n/a
207.144	0.497	angry	Picture	34.893	n/a	2	6	10	n/a	110	87	3	n/a	n/a	n/a	n/a	242.359	BF11ANS.jpg
207.642	0.514	Blank	Blank	34.379	n/a	2	6	10	n/a	110	n/a	3	n/a	n/a	n/a	n/a	242.857	n/a
208.172	0.497	angry	Picture	33.865	n/a	2	6	11	n/a	111	85	3	n/a	n/a	n/a	n/a	243.387	BF07ANS.jpg
208.67	0.514	Blank	Blank	33.351	n/a	2	6	11	n/a	111	n/a	3	n/a	n/a	n/a	n/a	243.885	n/a
209.2	0.497	angry	Picture	32.837	n/a	2	6	12	n/a	112	110	3	n/a	n/a	n/a	n/a	244.415	AM11ANS.jpg
209.698	0.514	Blank	Blank	32.323	n/a	2	6	12	n/a	112	n/a	3	n/a	n/a	n/a	n/a	244.912	n/a
210.228	0.497	angry	Picture	31.809	n/a	2	6	13	n/a	113	111	3	n/a	n/a	n/a	n/a	245.443	BM12ANS.jpg
210.726	0.514	Blank	Blank	31.296	n/a	2	6	13	n/a	113	n/a	3	n/a	n/a	n/a	n/a	245.94	n/a
211.256	0.497	angry	Picture	30.782	n/a	2	6	14	n/a	114	103	3	n/a	n/a	n/a	n/a	246.471	AM04ANS.jpg
211.753	0.514	Blank	Blank	30.268	n/a	2	6	14	n/a	114	n/a	3	n/a	n/a	n/a	n/a	246.968	n/a
212.284	0.497	angry	Picture	29.754	n/a	2	6	15	n/a	115	101	3	n/a	n/a	n/a	n/a	247.499	AM01ANS.jpg
212.781	0.514	Blank	Blank	29.24	n/a	2	6	15	n/a	115	n/a	3	n/a	n/a	n/a	n/a	247.996	n/a
213.312	0.497	angry	Picture	28.726	n/a	2	6	16	n/a	116	104	3	n/a	n/a	n/a	n/a	248.527	BM05ANS.jpg
213.809	0.514	Blank	Blank	28.212	n/a	2	6	16	n/a	116	n/a	3	n/a	n/a	n/a	n/a	249.024	n/a
214.34	0.497	angry	Picture	27.698	n/a	2	6	17	n/a	117	107	3	n/a	n/a	n/a	n/a	249.554	BM08ANS.jpg
214.837	0.514	Blank	Blank	27.184	n/a	2	6	17	n/a	117	n/a	3	n/a	n/a	n/a	n/a	250.052	n/a
215.368	0.497	angry	Picture	26.67	n/a	2	6	18	n/a	118	98	3	n/a	n/a	n/a	n/a	250.582	BF29ANS.jpg
215.865	0.514	Blank	Blank	26.156	n/a	2	6	18	n/a	118	n/a	3	n/a	n/a	n/a	n/a	251.08	n/a
216.395	0.497	angry	Picture	25.642	n/a	2	6	19	n/a	119	99	3	n/a	n/a	n/a	n/a	251.61	AF31ANS.jpg
216.893	0.514	Blank	Blank	25.128	n/a	2	6	19	n/a	119	n/a	3	n/a	n/a	n/a	n/a	252.108	n/a
217.423	0.497	angry	Picture	24.614	n/a	2	6	20	n/a	120	108	3	n/a	n/a	n/a	n/a	252.638	AM09ANS.jpg
217.921	0.514	Blank	Blank	24.1	n/a	2	6	20	n/a	120	n/a	3	n/a	n/a	n/a	n/a	253.136	n/a
218.451	10.014	ITI	Fixation+	14.07	n/a	2	n/a	n/a	n/a	n/a	n/a	n/a	n/a	n/a	n/a	n/a	253.666	n/a
242.535	n/a	ConfirmRating	Rate	n/a	14.058	2	n/a	n/a	0	n/a	n/a	n/a	2	Angry	47	50	277.75	n/a
250.484	n/a	ConfirmRating	Rate	n/a	7.941	2	n/a	n/a	1	n/a	n/a	n/a	3	Angry	0	47	285.699	n/a
250.515	15.004	Rest	Picture	n/a	n/a	n/a	n/a	n/a	n/a	n/a	n/a	n/a	0	n/a	0	0	285.729	n/a
265.535	10.014	ITI	Fixation+	105.063	n/a	3	n/a	n/a	n/a	n/a	n/a	n/a	n/a	n/a	n/a	n/a	300.75	n/a
275.565	0.497	happy	Picture	104.549	n/a	3	7	1	n/a	1	46	2	n/a	n/a	n/a	n/a	310.78	AF09HAS.jpg
276.062	0.514	Blank	Blank	104.035	n/a	3	7	1	n/a	1	n/a	2	n/a	n/a	n/a	n/a	311.277	n/a
276.593	0.497	happy	Picture	103.521	n/a	3	7	2	n/a	2	69	2	n/a	n/a	n/a	n/a	311.808	AM10HAS.jpg
277.09	0.514	Blank	Blank	103.007	n/a	3	7	2	n/a	2	n/a	2	n/a	n/a	n/a	n/a	312.305	n/a
277.621	0.497	happy	Picture	102.493	n/a	3	7	3	n/a	3	71	2	n/a	n/a	n/a	n/a	312.836	BM12HAS.jpg
278.118	0.514	Blank	Blank	101.979	n/a	3	7	3	n/a	3	n/a	2	n/a	n/a	n/a	n/a	313.333	n/a
278.649	0.497	happy	Picture	101.465	n/a	3	7	4	n/a	4	51	2	n/a	n/a	n/a	n/a	313.863	AF20HAS.jpg
279.146	0.514	Blank	Blank	100.952	n/a	3	7	4	n/a	4	n/a	2	n/a	n/a	n/a	n/a	314.361	n/a
279.677	0.497	happy	Picture	100.438	n/a	3	7	5	n/a	5	67	2	n/a	n/a	n/a	n/a	314.891	BM08HAS.jpg
280.174	0.514	Blank	Blank	99.924	n/a	3	7	5	n/a	5	n/a	2	n/a	n/a	n/a	n/a	315.389	n/a
280.704	0.497	happy	Picture	99.41	n/a	3	7	6	n/a	6	60	2	n/a	n/a	n/a	n/a	315.919	AF32HAS.jpg
281.202	0.514	Blank	Blank	98.896	n/a	3	7	6	n/a	6	n/a	2	n/a	n/a	n/a	n/a	316.416	n/a
281.732	0.497	happy	Picture	98.382	n/a	3	7	7	n/a	7	42	2	n/a	n/a	n/a	n/a	316.947	AF03HAS.jpg
282.23	0.514	Blank	Blank	97.868	n/a	3	7	7	n/a	7	n/a	2	n/a	n/a	n/a	n/a	317.444	n/a
282.76	0.497	happy	Picture	97.354	n/a	3	7	8	n/a	8	55	2	n/a	n/a	n/a	n/a	317.975	AF25HAS.jpg
283.258	0.514	Blank	Blank	96.84	n/a	3	7	8	n/a	8	n/a	2	n/a	n/a	n/a	n/a	318.472	n/a
283.788	0.497	happy	Picture	96.326	n/a	3	7	9	n/a	9	72	2	n/a	n/a	n/a	n/a	319.003	AM14HAS.jpg
284.285	0.514	Blank	Blank	95.812	n/a	3	7	9	n/a	9	n/a	2	n/a	n/a	n/a	n/a	319.5	n/a
284.816	0.497	happy	Picture	95.298	n/a	3	7	10	n/a	10	63	2	n/a	n/a	n/a	n/a	320.031	AM04HAS.jpg
285.313	0.514	Blank	Blank	94.784	n/a	3	7	10	n/a	10	n/a	2	n/a	n/a	n/a	n/a	320.528	n/a
285.844	0.497	happy	Picture	94.27	n/a	3	7	11	n/a	11	58	2	n/a	n/a	n/a	n/a	321.059	BF29HAS.jpg
286.341	0.514	Blank	Blank	93.756	n/a	3	7	11	n/a	11	n/a	2	n/a	n/a	n/a	n/a	321.556	n/a
286.872	0.497	happy	Picture	93.242	n/a	3	7	12	n/a	12	48	2	n/a	n/a	n/a	n/a	322.087	AF14HAS.jpg
287.369	0.514	Blank	Blank	92.728	n/a	3	7	12	n/a	12	n/a	2	n/a	n/a	n/a	n/a	322.584	n/a
287.899	0.497	happy	Picture	92.214	n/a	3	7	13	n/a	13	66	2	n/a	n/a	n/a	n/a	323.114	BM07HAS.jpg
288.397	0.514	Blank	Blank	91.701	n/a	3	7	13	n/a	13	n/a	2	n/a	n/a	n/a	n/a	323.612	n/a
288.927	0.497	happy	Picture	91.187	n/a	3	7	14	n/a	14	70	2	n/a	n/a	n/a	n/a	324.142	BM11HAS.jpg
289.425	0.514	Blank	Blank	90.673	n/a	3	7	14	n/a	14	n/a	2	n/a	n/a	n/a	n/a	324.64	n/a
289.955	0.497	happy	Picture	90.159	n/a	3	7	15	n/a	15	43	2	n/a	n/a	n/a	n/a	325.17	BF04HAS.jpg
290.453	0.514	Blank	Blank	89.645	n/a	3	7	15	n/a	15	n/a	2	n/a	n/a	n/a	n/a	325.668	n/a
290.983	0.497	happy	Picture	89.131	n/a	3	7	16	n/a	16	49	2	n/a	n/a	n/a	n/a	326.198	AF17HAS.jpg
291.481	0.514	Blank	Blank	88.617	n/a	3	7	16	n/a	16	n/a	2	n/a	n/a	n/a	n/a	326.695	n/a
292.011	0.497	happy	Picture	88.103	n/a	3	7	17	n/a	17	75	2	n/a	n/a	n/a	n/a	327.226	AM23HAS.jpg
292.508	0.514	Blank	Blank	87.589	n/a	3	7	17	n/a	17	n/a	2	n/a	n/a	n/a	n/a	327.723	n/a
293.039	0.497	happy	Picture	87.075	n/a	3	7	18	n/a	18	80	2	n/a	n/a	n/a	n/a	328.254	BM35HAS.jpg
293.536	0.514	Blank	Blank	86.561	n/a	3	7	18	n/a	18	n/a	2	n/a	n/a	n/a	n/a	328.751	n/a
294.067	0.497	happy	Picture	86.047	n/a	3	7	19	n/a	19	76	2	n/a	n/a	n/a	n/a	329.282	BM24HAS.jpg
294.564	0.514	Blank	Blank	85.533	n/a	3	7	19	n/a	19	n/a	2	n/a	n/a	n/a	n/a	329.779	n/a
295.095	0.497	happy	Picture	85.019	n/a	3	7	20	n/a	20	74	2	n/a	n/a	n/a	n/a	330.31	AM22HAS.jpg
295.592	0.514	Blank	Blank	84.505	n/a	3	7	20	n/a	20	n/a	2	n/a	n/a	n/a	n/a	330.807	n/a
296.123	10.014	ITI	Fixation+	74.475	n/a	3	n/a	n/a	n/a	n/a	n/a	n/a	n/a	n/a	n/a	n/a	331.337	n/a
306.153	0.497	neutral	Picture	73.961	n/a	3	8	1	n/a	21	33	1	n/a	n/a	n/a	n/a	341.368	AM21NES.jpg
306.65	0.514	Blank	Blank	73.447	n/a	3	8	1	n/a	21	n/a	1	n/a	n/a	n/a	n/a	341.865	n/a
307.181	0.497	neutral	Picture	72.933	n/a	3	8	2	n/a	22	39	1	n/a	n/a	n/a	n/a	342.395	AM28NES.jpg
307.678	0.514	Blank	Blank	72.42	n/a	3	8	2	n/a	22	n/a	1	n/a	n/a	n/a	n/a	342.893	n/a
308.208	0.497	neutral	Picture	71.906	n/a	3	8	3	n/a	23	25	1	n/a	n/a	n/a	n/a	343.423	BM06NES.jpg
308.706	0.514	Blank	Blank	71.392	n/a	3	8	3	n/a	23	n/a	1	n/a	n/a	n/a	n/a	343.921	n/a
309.236	0.497	neutral	Picture	70.878	n/a	3	8	4	n/a	24	5	1	n/a	n/a	n/a	n/a	344.451	BF07NES.jpg
309.734	0.514	Blank	Blank	70.364	n/a	3	8	4	n/a	24	n/a	1	n/a	n/a	n/a	n/a	344.949	n/a
310.264	0.497	neutral	Picture	69.85	n/a	3	8	5	n/a	25	10	1	n/a	n/a	n/a	n/a	345.479	AF18NES.jpg
310.762	0.514	Blank	Blank	69.336	n/a	3	8	5	n/a	25	n/a	1	n/a	n/a	n/a	n/a	345.976	n/a
311.292	0.497	neutral	Picture	68.822	n/a	3	8	6	n/a	26	34	1	n/a	n/a	n/a	n/a	346.507	AM22NES.jpg
311.789	0.514	Blank	Blank	68.308	n/a	3	8	6	n/a	26	n/a	1	n/a	n/a	n/a	n/a	347.004	n/a
312.32	0.497	neutral	Picture	67.794	n/a	3	8	7	n/a	27	36	1	n/a	n/a	n/a	n/a	347.535	BM24NES.jpg
312.817	0.514	Blank	Blank	67.28	n/a	3	8	7	n/a	27	n/a	1	n/a	n/a	n/a	n/a	348.032	n/a
313.348	0.497	neutral	Picture	66.766	n/a	3	8	8	n/a	28	14	1	n/a	n/a	n/a	n/a	348.563	AF23NES.jpg
313.845	0.514	Blank	Blank	66.252	n/a	3	8	8	n/a	28	n/a	1	n/a	n/a	n/a	n/a	349.06	n/a
314.376	0.497	neutral	Picture	65.738	n/a	3	8	9	n/a	29	9	1	n/a	n/a	n/a	n/a	349.591	AF17NES.jpg
314.873	0.514	Blank	Blank	65.224	n/a	3	8	9	n/a	29	n/a	1	n/a	n/a	n/a	n/a	350.088	n/a
315.404	0.497	neutral	Picture	64.71	n/a	3	8	10	n/a	30	19	1	n/a	n/a	n/a	n/a	350.618	AF31NES.jpg
315.901	0.514	Blank	Blank	64.196	n/a	3	8	10	n/a	30	n/a	1	n/a	n/a	n/a	n/a	351.116	n/a
316.432	0.497	neutral	Picture	63.682	n/a	3	8	11	n/a	31	15	1	n/a	n/a	n/a	n/a	351.646	AF25NES.jpg
316.929	0.514	Blank	Blank	63.168	n/a	3	8	11	n/a	31	n/a	1	n/a	n/a	n/a	n/a	352.144	n/a
317.459	0.497	neutral	Picture	62.655	n/a	3	8	12	n/a	32	22	1	n/a	n/a	n/a	n/a	352.674	BM03NES.jpg
317.957	0.514	Blank	Blank	62.141	n/a	3	8	12	n/a	32	n/a	1	n/a	n/a	n/a	n/a	353.172	n/a
318.487	0.497	neutral	Picture	61.627	n/a	3	8	13	n/a	33	11	1	n/a	n/a	n/a	n/a	353.702	AF20NES.jpg
318.985	0.514	Blank	Blank	61.113	n/a	3	8	13	n/a	33	n/a	1	n/a	n/a	n/a	n/a	354.2	n/a
319.515	0.497	neutral	Picture	60.599	n/a	3	8	14	n/a	34	4	1	n/a	n/a	n/a	n/a	354.73	AF05NES.jpg
320.013	0.514	Blank	Blank	60.085	n/a	3	8	14	n/a	34	n/a	1	n/a	n/a	n/a	n/a	355.227	n/a
320.543	0.497	neutral	Picture	59.571	n/a	3	8	15	n/a	35	17	1	n/a	n/a	n/a	n/a	355.758	BF28NES.jpg
321.04	0.514	Blank	Blank	59.057	n/a	3	8	15	n/a	35	n/a	1	n/a	n/a	n/a	n/a	356.255	n/a
321.571	0.497	neutral	Picture	58.543	n/a	3	8	16	n/a	36	13	1	n/a	n/a	n/a	n/a	356.786	BF22NES.jpg
322.068	0.514	Blank	Blank	58.029	n/a	3	8	16	n/a	36	n/a	1	n/a	n/a	n/a	n/a	357.283	n/a
322.599	0.497	neutral	Picture	57.515	n/a	3	8	17	n/a	37	12	1	n/a	n/a	n/a	n/a	357.814	AF21NES.jpg
323.096	0.514	Blank	Blank	57.001	n/a	3	8	17	n/a	37	n/a	1	n/a	n/a	n/a	n/a	358.311	n/a
323.627	0.497	neutral	Picture	56.487	n/a	3	8	18	n/a	38	24	1	n/a	n/a	n/a	n/a	358.841	BM05NES.jpg
324.124	0.514	Blank	Blank	55.973	n/a	3	8	18	n/a	38	n/a	1	n/a	n/a	n/a	n/a	359.339	n/a
324.655	0.497	neutral	Picture	55.459	n/a	3	8	19	n/a	39	29	1	n/a	n/a	n/a	n/a	359.869	AM10NES.jpg
325.152	0.514	Blank	Blank	54.945	n/a	3	8	19	n/a	39	n/a	1	n/a	n/a	n/a	n/a	360.367	n/a
325.683	0.497	neutral	Picture	54.431	n/a	3	8	20	n/a	40	23	1	n/a	n/a	n/a	n/a	360.897	AM04NES.jpg
326.18	0.514	Blank	Blank	53.918	n/a	3	8	20	n/a	40	n/a	1	n/a	n/a	n/a	n/a	361.395	n/a
326.71	10.014	ITI	Fixation+	43.887	n/a	3	n/a	n/a	n/a	n/a	n/a	n/a	n/a	n/a	n/a	n/a	361.925	n/a
336.74	0.497	happy	Picture	43.373	n/a	3	9	1	n/a	41	62	2	n/a	n/a	n/a	n/a	371.955	BM03HAS.jpg
337.238	0.514	Blank	Blank	42.86	n/a	3	9	1	n/a	41	n/a	2	n/a	n/a	n/a	n/a	372.453	n/a
337.768	0.497	happy	Picture	42.346	n/a	3	9	2	n/a	42	52	2	n/a	n/a	n/a	n/a	372.983	AF21HAS.jpg
338.266	0.514	Blank	Blank	41.832	n/a	3	9	2	n/a	42	n/a	2	n/a	n/a	n/a	n/a	373.481	n/a
338.796	0.497	happy	Picture	41.318	n/a	3	9	3	n/a	43	44	2	n/a	n/a	n/a	n/a	374.011	AF05HAS.jpg
339.294	0.514	Blank	Blank	40.804	n/a	3	9	3	n/a	43	n/a	2	n/a	n/a	n/a	n/a	374.508	n/a
339.824	0.497	happy	Picture	40.29	n/a	3	9	4	n/a	44	53	2	n/a	n/a	n/a	n/a	375.039	BF22HAS.jpg
340.322	0.514	Blank	Blank	39.776	n/a	3	9	4	n/a	44	n/a	2	n/a	n/a	n/a	n/a	375.536	n/a
340.852	0.497	happy	Picture	39.262	n/a	3	9	5	n/a	45	54	2	n/a	n/a	n/a	n/a	376.067	AF23HAS.jpg
341.349	0.514	Blank	Blank	38.748	n/a	3	9	5	n/a	45	n/a	2	n/a	n/a	n/a	n/a	376.564	n/a
341.88	0.497	happy	Picture	38.234	n/a	3	9	6	n/a	46	68	2	n/a	n/a	n/a	n/a	377.095	AM09HAS.jpg
342.377	0.514	Blank	Blank	37.72	n/a	3	9	6	n/a	46	n/a	2	n/a	n/a	n/a	n/a	377.592	n/a
342.908	0.497	happy	Picture	37.206	n/a	3	9	7	n/a	47	64	2	n/a	n/a	n/a	n/a	378.123	BM05HAS.jpg
343.405	0.514	Blank	Blank	36.692	n/a	3	9	7	n/a	47	n/a	2	n/a	n/a	n/a	n/a	378.62	n/a
343.936	0.497	happy	Picture	36.178	n/a	3	9	8	n/a	48	59	2	n/a	n/a	n/a	n/a	379.151	AF31HAS.jpg
344.433	0.514	Blank	Blank	35.664	n/a	3	9	8	n/a	48	n/a	2	n/a	n/a	n/a	n/a	379.648	n/a
344.964	0.497	happy	Picture	35.15	n/a	3	9	9	n/a	49	41	2	n/a	n/a	n/a	n/a	380.178	AF01HAS.jpg
345.461	0.514	Blank	Blank	34.636	n/a	3	9	9	n/a	49	n/a	2	n/a	n/a	n/a	n/a	380.676	n/a
345.991	0.497	happy	Picture	34.123	n/a	3	9	10	n/a	50	73	2	n/a	n/a	n/a	n/a	381.206	AM21HAS.jpg
346.489	0.514	Blank	Blank	33.609	n/a	3	9	10	n/a	50	n/a	2	n/a	n/a	n/a	n/a	381.704	n/a
347.019	0.497	happy	Picture	33.095	n/a	3	9	11	n/a	51	65	2	n/a	n/a	n/a	n/a	382.234	BM06HAS.jpg
347.517	0.514	Blank	Blank	32.581	n/a	3	9	11	n/a	51	n/a	2	n/a	n/a	n/a	n/a	382.731	n/a
348.047	0.497	happy	Picture	32.067	n/a	3	9	12	n/a	52	56	2	n/a	n/a	n/a	n/a	383.262	AF26HAS.jpg
348.545	0.514	Blank	Blank	31.553	n/a	3	9	12	n/a	52	n/a	2	n/a	n/a	n/a	n/a	383.759	n/a
349.075	0.497	happy	Picture	31.039	n/a	3	9	13	n/a	53	45	2	n/a	n/a	n/a	n/a	384.29	BF07HAS.jpg
349.572	0.514	Blank	Blank	30.525	n/a	3	9	13	n/a	53	n/a	2	n/a	n/a	n/a	n/a	384.787	n/a
350.103	0.497	happy	Picture	30.011	n/a	3	9	14	n/a	54	78	2	n/a	n/a	n/a	n/a	385.318	BM26HAS.jpg
350.6	0.514	Blank	Blank	29.497	n/a	3	9	14	n/a	54	n/a	2	n/a	n/a	n/a	n/a	385.815	n/a
351.131	0.497	happy	Picture	28.983	n/a	3	9	15	n/a	55	50	2	n/a	n/a	n/a	n/a	386.346	AF18HAS.jpg
351.628	0.514	Blank	Blank	28.469	n/a	3	9	15	n/a	55	n/a	2	n/a	n/a	n/a	n/a	386.843	n/a
352.159	0.497	happy	Picture	27.955	n/a	3	9	16	n/a	56	47	2	n/a	n/a	n/a	n/a	387.373	BF11HAS.jpg
352.656	0.514	Blank	Blank	27.441	n/a	3	9	16	n/a	56	n/a	2	n/a	n/a	n/a	n/a	387.871	n/a
353.187	0.497	happy	Picture	26.927	n/a	3	9	17	n/a	57	77	2	n/a	n/a	n/a	n/a	388.401	BM25HAS.jpg
353.684	0.514	Blank	Blank	26.414	n/a	3	9	17	n/a	57	n/a	2	n/a	n/a	n/a	n/a	388.899	n/a
354.215	0.497	happy	Picture	25.899	n/a	3	9	18	n/a	58	57	2	n/a	n/a	n/a	n/a	389.429	BF28HAS.jpg
354.712	0.514	Blank	Blank	25.386	n/a	3	9	18	n/a	58	n/a	2	n/a	n/a	n/a	n/a	389.927	n/a
355.242	0.497	happy	Picture	24.872	n/a	3	9	19	n/a	59	61	2	n/a	n/a	n/a	n/a	390.457	AM01HAS.jpg
355.74	0.514	Blank	Blank	24.358	n/a	3	9	19	n/a	59	n/a	2	n/a	n/a	n/a	n/a	390.954	n/a
356.27	0.497	happy	Picture	23.844	n/a	3	9	20	n/a	60	79	2	n/a	n/a	n/a	n/a	391.485	BM28HAS.jpg
356.768	0.514	Blank	Blank	23.33	n/a	3	9	20	n/a	60	n/a	2	n/a	n/a	n/a	n/a	391.982	n/a
357.298	10.014	ITI	Fixation+	13.3	n/a	3	n/a	n/a	n/a	n/a	n/a	n/a	n/a	n/a	n/a	n/a	392.513	n/a
380.611	n/a	ConfirmRating	Rate	n/a	13.296	3	n/a	n/a	0	n/a	n/a	n/a	2	Happy	42	54	415.826	n/a
390.757	n/a	ConfirmRating	Rate	n/a	10.13	3	n/a	n/a	1	n/a	n/a	n/a	3	Happy	2	45	425.972	n/a
390.787	10.014	ITI	Fixation+	102.263	n/a	4	n/a	n/a	n/a	n/a	n/a	n/a	n/a	n/a	n/a	n/a	426.002	n/a
400.817	0.497	angry	Picture	101.749	n/a	4	10	1	n/a	61	119	3	n/a	n/a	n/a	n/a	436.032	BM28ANS.jpg
401.315	0.514	Blank	Blank	101.236	n/a	4	10	1	n/a	61	n/a	3	n/a	n/a	n/a	n/a	436.529	n/a
401.845	0.497	angry	Picture	100.722	n/a	4	10	2	n/a	62	100	3	n/a	n/a	n/a	n/a	437.06	AF32ANS.jpg
402.343	0.514	Blank	Blank	100.208	n/a	4	10	2	n/a	62	n/a	3	n/a	n/a	n/a	n/a	437.557	n/a
402.873	0.497	angry	Picture	99.694	n/a	4	10	3	n/a	63	118	3	n/a	n/a	n/a	n/a	438.088	BM26ANS.jpg
403.37	0.514	Blank	Blank	99.18	n/a	4	10	3	n/a	63	n/a	3	n/a	n/a	n/a	n/a	438.585	n/a
403.901	0.497	angry	Picture	98.666	n/a	4	10	4	n/a	64	89	3	n/a	n/a	n/a	n/a	439.116	AF17ANS.jpg
404.398	0.514	Blank	Blank	98.152	n/a	4	10	4	n/a	64	n/a	3	n/a	n/a	n/a	n/a	439.613	n/a
404.929	0.497	angry	Picture	97.638	n/a	4	10	5	n/a	65	116	3	n/a	n/a	n/a	n/a	440.144	BM24ANS.jpg
405.426	0.514	Blank	Blank	97.124	n/a	4	10	5	n/a	65	n/a	3	n/a	n/a	n/a	n/a	440.641	n/a
405.957	0.497	angry	Picture	96.61	n/a	4	10	6	n/a	66	105	3	n/a	n/a	n/a	n/a	441.172	BM06ANS.jpg
406.454	0.514	Blank	Blank	96.096	n/a	4	10	6	n/a	66	n/a	3	n/a	n/a	n/a	n/a	441.669	n/a
406.985	0.497	angry	Picture	95.582	n/a	4	10	7	n/a	67	106	3	n/a	n/a	n/a	n/a	442.199	AM07ANS.jpg
407.482	0.514	Blank	Blank	95.068	n/a	4	10	7	n/a	67	n/a	3	n/a	n/a	n/a	n/a	442.697	n/a
408.013	0.497	angry	Picture	94.554	n/a	4	10	8	n/a	68	94	3	n/a	n/a	n/a	n/a	443.227	AF23ANS.jpg
408.51	0.514	Blank	Blank	94.04	n/a	4	10	8	n/a	68	n/a	3	n/a	n/a	n/a	n/a	443.725	n/a
409.04	0.497	angry	Picture	93.526	n/a	4	10	9	n/a	69	117	3	n/a	n/a	n/a	n/a	444.255	BM25ANS.jpg
409.538	0.514	Blank	Blank	93.013	n/a	4	10	9	n/a	69	n/a	3	n/a	n/a	n/a	n/a	444.753	n/a
410.068	0.497	angry	Picture	92.499	n/a	4	10	10	n/a	70	90	3	n/a	n/a	n/a	n/a	445.283	AF18ANS.jpg
410.566	0.514	Blank	Blank	91.985	n/a	4	10	10	n/a	70	n/a	3	n/a	n/a	n/a	n/a	445.78	n/a
411.096	0.497	angry	Picture	91.471	n/a	4	10	11	n/a	71	83	3	n/a	n/a	n/a	n/a	446.311	BF04ANS.jpg
411.593	0.514	Blank	Blank	90.957	n/a	4	10	11	n/a	71	n/a	3	n/a	n/a	n/a	n/a	446.808	n/a
412.124	0.497	angry	Picture	90.443	n/a	4	10	12	n/a	72	112	3	n/a	n/a	n/a	n/a	447.339	AM14ANS.jpg
412.621	0.514	Blank	Blank	89.929	n/a	4	10	12	n/a	72	n/a	3	n/a	n/a	n/a	n/a	447.836	n/a
413.152	0.497	angry	Picture	89.415	n/a	4	10	13	n/a	73	102	3	n/a	n/a	n/a	n/a	448.367	BM03ANS.jpg
413.649	0.514	Blank	Blank	88.901	n/a	4	10	13	n/a	73	n/a	3	n/a	n/a	n/a	n/a	448.864	n/a
414.18	0.497	angry	Picture	88.387	n/a	4	10	14	n/a	74	95	3	n/a	n/a	n/a	n/a	449.395	AF25ANS.jpg
414.677	0.514	Blank	Blank	87.873	n/a	4	10	14	n/a	74	n/a	3	n/a	n/a	n/a	n/a	449.892	n/a
415.208	0.497	angry	Picture	87.359	n/a	4	10	15	n/a	75	113	3	n/a	n/a	n/a	n/a	450.423	AM21ANS.jpg
415.705	0.514	Blank	Blank	86.845	n/a	4	10	15	n/a	75	n/a	3	n/a	n/a	n/a	n/a	450.92	n/a
416.236	0.497	angry	Picture	86.331	n/a	4	10	16	n/a	76	88	3	n/a	n/a	n/a	n/a	451.45	AF14ANS.jpg
416.733	0.514	Blank	Blank	85.817	n/a	4	10	16	n/a	76	n/a	3	n/a	n/a	n/a	n/a	451.948	n/a
417.264	0.497	angry	Picture	85.303	n/a	4	10	17	n/a	77	93	3	n/a	n/a	n/a	n/a	452.478	BF22ANS.jpg
417.761	0.514	Blank	Blank	84.789	n/a	4	10	17	n/a	77	n/a	3	n/a	n/a	n/a	n/a	452.976	n/a
418.291	0.497	angry	Picture	84.276	n/a	4	10	18	n/a	78	86	3	n/a	n/a	n/a	n/a	453.506	AF09ANS.jpg
418.789	0.514	Blank	Blank	83.762	n/a	4	10	18	n/a	78	n/a	3	n/a	n/a	n/a	n/a	454.003	n/a
419.319	0.497	angry	Picture	83.248	n/a	4	10	19	n/a	79	92	3	n/a	n/a	n/a	n/a	454.534	AF21ANS.jpg
419.817	0.514	Blank	Blank	82.734	n/a	4	10	19	n/a	79	n/a	3	n/a	n/a	n/a	n/a	455.031	n/a
420.347	0.497	angry	Picture	82.22	n/a	4	10	20	n/a	80	84	3	n/a	n/a	n/a	n/a	455.562	AF05ANS.jpg
420.845	0.514	Blank	Blank	81.706	n/a	4	10	20	n/a	80	n/a	3	n/a	n/a	n/a	n/a	456.059	n/a
421.375	10.014	ITI	Fixation+	71.676	n/a	4	n/a	n/a	n/a	n/a	n/a	n/a	n/a	n/a	n/a	n/a	456.59	n/a
431.405	0.497	neutral	Picture	71.162	n/a	4	11	1	n/a	81	4	1	n/a	n/a	n/a	n/a	466.62	AF05NES.jpg
431.903	0.514	Blank	Blank	70.648	n/a	4	11	1	n/a	81	n/a	1	n/a	n/a	n/a	n/a	467.117	n/a
432.433	0.497	neutral	Picture	70.134	n/a	4	11	2	n/a	82	14	1	n/a	n/a	n/a	n/a	467.648	AF23NES.jpg
432.93	0.514	Blank	Blank	69.62	n/a	4	11	2	n/a	82	n/a	1	n/a	n/a	n/a	n/a	468.145	n/a
433.461	0.497	neutral	Picture	69.106	n/a	4	11	3	n/a	83	19	1	n/a	n/a	n/a	n/a	468.676	AF31NES.jpg
433.958	0.514	Blank	Blank	68.592	n/a	4	11	3	n/a	83	n/a	1	n/a	n/a	n/a	n/a	469.173	n/a
434.489	0.497	neutral	Picture	68.078	n/a	4	11	4	n/a	84	8	1	n/a	n/a	n/a	n/a	469.704	AF14NES.jpg
434.986	0.514	Blank	Blank	67.564	n/a	4	11	4	n/a	84	n/a	1	n/a	n/a	n/a	n/a	470.201	n/a
435.517	0.497	neutral	Picture	67.05	n/a	4	11	5	n/a	85	25	1	n/a	n/a	n/a	n/a	470.731	BM06NES.jpg
436.014	0.514	Blank	Blank	66.536	n/a	4	11	5	n/a	85	n/a	1	n/a	n/a	n/a	n/a	471.229	n/a
436.544	0.497	neutral	Picture	66.022	n/a	4	11	6	n/a	86	9	1	n/a	n/a	n/a	n/a	471.759	AF17NES.jpg
437.042	0.514	Blank	Blank	65.508	n/a	4	11	6	n/a	86	n/a	1	n/a	n/a	n/a	n/a	472.257	n/a
437.572	0.497	neutral	Picture	64.994	n/a	4	11	7	n/a	87	2	1	n/a	n/a	n/a	n/a	472.787	AF03NES.jpg
438.07	0.514	Blank	Blank	64.481	n/a	4	11	7	n/a	87	n/a	1	n/a	n/a	n/a	n/a	473.285	n/a
438.6	0.497	neutral	Picture	63.967	n/a	4	11	8	n/a	88	17	1	n/a	n/a	n/a	n/a	473.815	BF28NES.jpg
439.098	0.514	Blank	Blank	63.453	n/a	4	11	8	n/a	88	n/a	1	n/a	n/a	n/a	n/a	474.313	n/a
439.628	0.497	neutral	Picture	62.939	n/a	4	11	9	n/a	89	6	1	n/a	n/a	n/a	n/a	474.843	AF09NES.jpg
440.125	0.514	Blank	Blank	62.425	n/a	4	11	9	n/a	89	n/a	1	n/a	n/a	n/a	n/a	475.34	n/a
440.656	0.497	neutral	Picture	61.911	n/a	4	11	10	n/a	90	12	1	n/a	n/a	n/a	n/a	475.871	AF21NES.jpg
441.153	0.514	Blank	Blank	61.397	n/a	4	11	10	n/a	90	n/a	1	n/a	n/a	n/a	n/a	476.368	n/a
441.684	0.497	neutral	Picture	60.883	n/a	4	11	11	n/a	91	24	1	n/a	n/a	n/a	n/a	476.899	BM05NES.jpg
442.181	0.514	Blank	Blank	60.369	n/a	4	11	11	n/a	91	n/a	1	n/a	n/a	n/a	n/a	477.396	n/a
442.712	0.497	neutral	Picture	59.855	n/a	4	11	12	n/a	92	34	1	n/a	n/a	n/a	n/a	477.927	AM22NES.jpg
443.209	0.514	Blank	Blank	59.341	n/a	4	11	12	n/a	92	n/a	1	n/a	n/a	n/a	n/a	478.424	n/a
443.74	0.497	neutral	Picture	58.827	n/a	4	11	13	n/a	93	23	1	n/a	n/a	n/a	n/a	478.954	AM04NES.jpg
444.237	0.514	Blank	Blank	58.313	n/a	4	11	13	n/a	93	n/a	1	n/a	n/a	n/a	n/a	479.452	n/a
444.768	0.497	neutral	Picture	57.799	n/a	4	11	14	n/a	94	15	1	n/a	n/a	n/a	n/a	479.982	AF25NES.jpg
445.265	0.514	Blank	Blank	57.285	n/a	4	11	14	n/a	94	n/a	1	n/a	n/a	n/a	n/a	480.48	n/a
445.795	0.497	neutral	Picture	56.771	n/a	4	11	15	n/a	95	37	1	n/a	n/a	n/a	n/a	481.01	BM25NES.jpg
446.293	0.514	Blank	Blank	56.257	n/a	4	11	15	n/a	95	n/a	1	n/a	n/a	n/a	n/a	481.508	n/a
446.823	0.497	neutral	Picture	55.744	n/a	4	11	16	n/a	96	32	1	n/a	n/a	n/a	n/a	482.038	AM14NES.jpg
447.321	0.514	Blank	Blank	55.23	n/a	4	11	16	n/a	96	n/a	1	n/a	n/a	n/a	n/a	482.536	n/a
447.851	0.497	neutral	Picture	54.716	n/a	4	11	17	n/a	97	3	1	n/a	n/a	n/a	n/a	483.066	BF04NES.jpg
448.349	0.514	Blank	Blank	54.202	n/a	4	11	17	n/a	97	n/a	1	n/a	n/a	n/a	n/a	483.563	n/a
448.879	0.497	neutral	Picture	53.688	n/a	4	11	18	n/a	98	16	1	n/a	n/a	n/a	n/a	484.094	AF26NES.jpg
449.376	0.514	Blank	Blank	53.174	n/a	4	11	18	n/a	98	n/a	1	n/a	n/a	n/a	n/a	484.591	n/a
449.907	0.497	neutral	Picture	52.66	n/a	4	11	19	n/a	99	27	1	n/a	n/a	n/a	n/a	485.122	BM08NES.jpg
450.404	0.514	Blank	Blank	52.146	n/a	4	11	19	n/a	99	n/a	1	n/a	n/a	n/a	n/a	485.619	n/a
450.935	0.497	neutral	Picture	51.632	n/a	4	11	20	n/a	100	28	1	n/a	n/a	n/a	n/a	486.15	AM09NES.jpg
451.432	0.514	Blank	Blank	51.118	n/a	4	11	20	n/a	100	n/a	1	n/a	n/a	n/a	n/a	486.647	n/a
451.963	10.014	ITI	Fixation+	41.088	n/a	4	n/a	n/a	n/a	n/a	n/a	n/a	n/a	n/a	n/a	n/a	487.178	n/a
461.993	0.497	angry	Picture	40.574	n/a	4	12	1	n/a	101	81	3	n/a	n/a	n/a	n/a	497.208	AF01ANS.jpg
462.49	0.514	Blank	Blank	40.06	n/a	4	12	1	n/a	101	n/a	3	n/a	n/a	n/a	n/a	497.705	n/a
463.021	0.497	angry	Picture	39.546	n/a	4	12	2	n/a	102	120	3	n/a	n/a	n/a	n/a	498.236	AM35ANS.jpg
463.518	0.514	Blank	Blank	39.032	n/a	4	12	2	n/a	102	n/a	3	n/a	n/a	n/a	n/a	498.733	n/a
464.049	0.497	angry	Picture	38.518	n/a	4	12	3	n/a	103	114	3	n/a	n/a	n/a	n/a	499.264	AM22ANS.jpg
464.546	0.514	Blank	Blank	38.004	n/a	4	12	3	n/a	103	n/a	3	n/a	n/a	n/a	n/a	499.761	n/a
465.077	0.497	angry	Picture	37.49	n/a	4	12	4	n/a	104	109	3	n/a	n/a	n/a	n/a	500.291	AM10ANS.jpg
465.574	0.514	Blank	Blank	36.976	n/a	4	12	4	n/a	104	n/a	3	n/a	n/a	n/a	n/a	500.789	n/a
466.104	0.497	angry	Picture	36.462	n/a	4	12	5	n/a	105	96	3	n/a	n/a	n/a	n/a	501.319	AF26ANS.jpg
466.602	0.514	Blank	Blank	35.949	n/a	4	12	5	n/a	105	n/a	3	n/a	n/a	n/a	n/a	501.817	n/a
467.132	0.497	angry	Picture	35.435	n/a	4	12	6	n/a	106	82	3	n/a	n/a	n/a	n/a	502.347	AF03ANS.jpg
467.63	0.514	Blank	Blank	34.921	n/a	4	12	6	n/a	106	n/a	3	n/a	n/a	n/a	n/a	502.844	n/a
468.16	0.497	angry	Picture	34.407	n/a	4	12	7	n/a	107	97	3	n/a	n/a	n/a	n/a	503.375	BF28ANS.jpg
468.658	0.514	Blank	Blank	33.893	n/a	4	12	7	n/a	107	n/a	3	n/a	n/a	n/a	n/a	503.872	n/a
469.188	0.497	angry	Picture	33.379	n/a	4	12	8	n/a	108	115	3	n/a	n/a	n/a	n/a	504.403	AM23ANS.jpg
469.685	0.514	Blank	Blank	32.865	n/a	4	12	8	n/a	108	n/a	3	n/a	n/a	n/a	n/a	504.9	n/a
470.216	0.497	angry	Picture	32.351	n/a	4	12	9	n/a	109	91	3	n/a	n/a	n/a	n/a	505.431	AF20ANS.jpg
470.713	0.514	Blank	Blank	31.837	n/a	4	12	9	n/a	109	n/a	3	n/a	n/a	n/a	n/a	505.928	n/a
471.244	0.497	angry	Picture	31.323	n/a	4	12	10	n/a	110	87	3	n/a	n/a	n/a	n/a	506.459	BF11ANS.jpg
471.741	0.514	Blank	Blank	30.809	n/a	4	12	10	n/a	110	n/a	3	n/a	n/a	n/a	n/a	506.956	n/a
472.272	0.497	angry	Picture	30.295	n/a	4	12	11	n/a	111	85	3	n/a	n/a	n/a	n/a	507.486	BF07ANS.jpg
472.769	0.514	Blank	Blank	29.781	n/a	4	12	11	n/a	111	n/a	3	n/a	n/a	n/a	n/a	507.984	n/a
473.3	0.497	angry	Picture	29.267	n/a	4	12	12	n/a	112	110	3	n/a	n/a	n/a	n/a	508.514	AM11ANS.jpg
473.797	0.514	Blank	Blank	28.753	n/a	4	12	12	n/a	112	n/a	3	n/a	n/a	n/a	n/a	509.012	n/a
474.327	0.497	angry	Picture	28.239	n/a	4	12	13	n/a	113	111	3	n/a	n/a	n/a	n/a	509.542	BM12ANS.jpg
474.825	0.514	Blank	Blank	27.725	n/a	4	12	13	n/a	113	n/a	3	n/a	n/a	n/a	n/a	510.04	n/a
475.355	0.497	angry	Picture	27.212	n/a	4	12	14	n/a	114	103	3	n/a	n/a	n/a	n/a	510.57	AM04ANS.jpg
475.853	0.514	Blank	Blank	26.697	n/a	4	12	14	n/a	114	n/a	3	n/a	n/a	n/a	n/a	511.067	n/a
476.383	0.497	angry	Picture	26.184	n/a	4	12	15	n/a	115	101	3	n/a	n/a	n/a	n/a	511.598	AM01ANS.jpg
476.881	0.514	Blank	Blank	25.67	n/a	4	12	15	n/a	115	n/a	3	n/a	n/a	n/a	n/a	512.095	n/a
477.411	0.497	angry	Picture	25.156	n/a	4	12	16	n/a	116	104	3	n/a	n/a	n/a	n/a	512.626	BM05ANS.jpg
477.909	0.514	Blank	Blank	24.642	n/a	4	12	16	n/a	116	n/a	3	n/a	n/a	n/a	n/a	513.123	n/a
478.439	0.497	angry	Picture	24.128	n/a	4	12	17	n/a	117	107	3	n/a	n/a	n/a	n/a	513.654	BM08ANS.jpg
478.936	0.514	Blank	Blank	23.614	n/a	4	12	17	n/a	117	n/a	3	n/a	n/a	n/a	n/a	514.151	n/a
479.467	0.497	angry	Picture	23.1	n/a	4	12	18	n/a	118	98	3	n/a	n/a	n/a	n/a	514.682	BF29ANS.jpg
479.964	0.514	Blank	Blank	22.586	n/a	4	12	18	n/a	118	n/a	3	n/a	n/a	n/a	n/a	515.179	n/a
480.495	0.497	angry	Picture	22.072	n/a	4	12	19	n/a	119	99	3	n/a	n/a	n/a	n/a	515.71	AF31ANS.jpg
480.992	0.514	Blank	Blank	21.558	n/a	4	12	19	n/a	119	n/a	3	n/a	n/a	n/a	n/a	516.207	n/a
481.523	0.497	angry	Picture	21.044	n/a	4	12	20	n/a	120	108	3	n/a	n/a	n/a	n/a	516.737	AM09ANS.jpg
482.02	0.514	Blank	Blank	20.53	n/a	4	12	20	n/a	120	n/a	3	n/a	n/a	n/a	n/a	517.235	n/a
482.551	10.014	ITI	Fixation+	10.5	n/a	4	n/a	n/a	n/a	n/a	n/a	n/a	n/a	n/a	n/a	n/a	517.765	n/a
503.064	n/a	ConfirmRating	Rate	n/a	10.494	4	n/a	n/a	0	n/a	n/a	n/a	2	Angry	33	48	538.279	n/a
511.795	n/a	ConfirmRating	Rate	n/a	8.704	4	n/a	n/a	1	n/a	n/a	n/a	3	Angry	8	46	547.01	n/a
