onset	duration	trial_type	event_type	trial_number	condition	picture_number	time_until_response	response_time	unpleasantness_rating	onset_uncorrected
0.003	5.421	ITI	Fixation+	0	Pain	n/a	9.523	n/a	n/a	29.223
5.441	3.498	Pic2	Picture	0	Pain	7	6.008	n/a	n/a	34.661
8.939	2.006	Blank	Blank	0	Pain	n/a	4.002	n/a	n/a	38.159
14.947	n/a	ConfirmRating	Rate	0	Pain	7	n/a	3.486	30	44.167
14.973	5.488	ITI	Fixation+	1	Pain	n/a	11.554	n/a	n/a	44.193
20.478	3.498	Pic2	Picture	1	Pain	15	8.039	n/a	n/a	49.697
23.976	2.006	Blank	Blank	1	Pain	n/a	6.033	n/a	n/a	53.196
32.015	n/a	ConfirmRating	Rate	1	Pain	15	n/a	5.516	65	61.235
32.033	4.344	ITI	Fixation+	2	No_Pain	n/a	9.709	n/a	n/a	61.253
36.393	3.498	Pic2	Picture	2	No_Pain	34	6.194	n/a	n/a	65.613
39.891	2.006	Blank	Blank	2	No_Pain	n/a	4.188	n/a	n/a	69.111
46.085	n/a	ConfirmRating	Rate	2	No_Pain	34	n/a	3.672	0	75.305
46.108	4.46	ITI	Fixation+	3	No_Pain	n/a	8.344	n/a	n/a	75.328
50.585	3.498	Pic2	Picture	3	No_Pain	35	4.83	n/a	n/a	79.804
54.083	2.006	Blank	Blank	3	No_Pain	n/a	2.824	n/a	n/a	83.302
58.912	n/a	ConfirmRating	Rate	3	No_Pain	35	n/a	2.307	0	88.132
58.94	4.907	ITI	Fixation+	4	Pain	n/a	10.156	n/a	n/a	88.16
63.864	3.498	Pic2	Picture	4	Pain	6	6.642	n/a	n/a	93.084
67.362	2.006	Blank	Blank	4	Pain	n/a	4.636	n/a	n/a	96.582
74.004	n/a	ConfirmRating	Rate	4	Pain	6	n/a	4.119	48	103.224
74.027	5.504	ITI	Fixation+	5	No_Pain	n/a	9.813	n/a	n/a	103.247
79.547	3.498	Pic2	Picture	5	No_Pain	29	6.298	n/a	n/a	108.767
83.046	2.006	Blank	Blank	5	No_Pain	n/a	4.292	n/a	n/a	112.266
89.343	n/a	ConfirmRating	Rate	5	No_Pain	29	n/a	3.775	0	118.563
89.362	5.04	ITI	Fixation+	6	No_Pain	n/a	8.594	n/a	n/a	118.582
94.419	3.498	Pic2	Picture	6	No_Pain	39	5.079	n/a	n/a	123.638
97.917	2.006	Blank	Blank	6	No_Pain	n/a	3.073	n/a	n/a	127.137
102.996	n/a	ConfirmRating	Rate	6	No_Pain	39	n/a	2.557	0	132.216
103.023	4.012	ITI	Fixation+	7	Pain	n/a	8.637	n/a	n/a	132.243
107.052	3.498	Pic2	Picture	7	Pain	9	5.122	n/a	n/a	136.271
110.55	2.006	Blank	Blank	7	Pain	n/a	3.116	n/a	n/a	139.769
115.672	n/a	ConfirmRating	Rate	7	Pain	9	n/a	2.599	80	144.892
115.689	5.09	ITI	Fixation+	8	Pain	n/a	11.287	n/a	n/a	144.909
120.795	3.498	Pic2	Picture	8	Pain	14	7.772	n/a	n/a	150.015
124.293	2.006	Blank	Blank	8	Pain	n/a	5.766	n/a	n/a	153.513
132.065	n/a	ConfirmRating	Rate	8	Pain	14	n/a	5.25	76	161.285
132.085	4.808	ITI	Fixation+	9	No_Pain	n/a	9.306	n/a	n/a	161.305
136.91	3.498	Pic2	Picture	9	No_Pain	27	5.791	n/a	n/a	166.13
140.408	2.006	Blank	Blank	9	No_Pain	n/a	3.785	n/a	n/a	169.628
146.199	n/a	ConfirmRating	Rate	9	No_Pain	27	n/a	3.269	0	175.419
146.227	4.128	ITI	Fixation+	10	Pain	n/a	9.735	n/a	n/a	175.447
150.372	3.498	Pic2	Picture	10	Pain	20	6.22	n/a	n/a	179.591
153.87	2.006	Blank	Blank	10	Pain	n/a	4.214	n/a	n/a	183.09
160.09	n/a	ConfirmRating	Rate	10	Pain	20	n/a	3.697	60	189.31
160.12	4.095	ITI	Fixation+	11	No_Pain	n/a	9.742	n/a	n/a	189.34
164.231	3.498	Pic2	Picture	11	No_Pain	40	6.227	n/a	n/a	193.451
167.73	2.006	Blank	Blank	11	No_Pain	n/a	4.221	n/a	n/a	196.949
173.957	n/a	ConfirmRating	Rate	11	No_Pain	40	n/a	3.704	0	203.176
173.98	5.073	ITI	Fixation+	12	No_Pain	n/a	8.453	n/a	n/a	203.2
179.069	3.498	Pic2	Picture	12	No_Pain	33	4.939	n/a	n/a	208.289
182.567	2.006	Blank	Blank	12	No_Pain	n/a	2.933	n/a	n/a	211.787
187.506	n/a	ConfirmRating	Rate	12	No_Pain	33	n/a	2.417	0	216.726
187.524	4.924	ITI	Fixation+	13	Pain	n/a	9.982	n/a	n/a	216.744
192.465	3.498	Pic2	Picture	13	Pain	18	6.468	n/a	n/a	221.685
195.963	2.006	Blank	Blank	13	Pain	n/a	4.462	n/a	n/a	225.183
202.431	n/a	ConfirmRating	Rate	13	Pain	18	n/a	3.945	56	231.651
202.462	5.886	ITI	Fixation+	14	No_Pain	n/a	6.859	n/a	n/a	231.682
208.364	3.498	Pic2	Picture	14	No_Pain	31	3.345	n/a	n/a	237.584
211.862	2.006	Blank	Blank	14	No_Pain	n/a	1.339	n/a	n/a	241.082
215.207	n/a	ConfirmRating	Rate	14	No_Pain	31	n/a	0.822	0	244.427
215.227	5.123	ITI	Fixation+	15	Pain	n/a	8.642	n/a	n/a	244.447
220.367	3.498	Pic2	Picture	15	Pain	17	5.127	n/a	n/a	249.587
223.865	2.006	Blank	Blank	15	Pain	n/a	3.121	n/a	n/a	253.085
228.992	n/a	ConfirmRating	Rate	15	Pain	17	n/a	2.605	90	258.212
229.021	5.471	ITI	Fixation+	16	Pain	n/a	7.665	n/a	n/a	258.241
234.508	3.498	Pic2	Picture	16	Pain	11	4.15	n/a	n/a	263.728
238.007	2.006	Blank	Blank	16	Pain	n/a	2.144	n/a	n/a	267.226
242.157	n/a	ConfirmRating	Rate	16	Pain	11	n/a	1.627	65	271.377
242.184	4.427	ITI	Fixation+	17	No_Pain	n/a	7.36	n/a	n/a	271.404
246.627	3.498	Pic2	Picture	17	No_Pain	36	3.845	n/a	n/a	275.847
250.125	2.006	Blank	Blank	17	No_Pain	n/a	1.839	n/a	n/a	279.345
253.971	n/a	ConfirmRating	Rate	17	No_Pain	36	n/a	1.322	0	283.191
253.988	5.487	ITI	Fixation+	18	Pain	n/a	6.559	n/a	n/a	283.208
259.493	3.498	Pic2	Picture	18	Pain	10	3.045	n/a	n/a	288.712
262.991	2.006	Blank	Blank	18	Pain	n/a	1.039	n/a	n/a	292.211
266.035	n/a	ConfirmRating	Rate	18	Pain	10	n/a	0.522	70	295.255
266.058	5.04	ITI	Fixation+	19	No_Pain	n/a	6.908	n/a	n/a	295.277
271.114	3.498	Pic2	Picture	19	No_Pain	23	3.393	n/a	n/a	300.334
274.612	2.006	Blank	Blank	19	No_Pain	n/a	1.387	n/a	n/a	303.832
278.005	n/a	ConfirmRating	Rate	19	No_Pain	23	n/a	0.871	0	307.225
278.028	15.004	Rest	n/a	19	n/a	n/a	-15.026	n/a	n/a	307.247
293.048	4.045	ITI	Fixation+	20	Pain	n/a	10.503	n/a	n/a	322.268
297.11	3.498	Pic2	Picture	20	Pain	1	6.988	n/a	n/a	326.329
300.608	2.006	Blank	Blank	20	Pain	n/a	4.982	n/a	n/a	329.827
307.596	n/a	ConfirmRating	Rate	20	Pain	1	n/a	4.465	73	336.815
307.62	5.935	ITI	Fixation+	21	Pain	n/a	7.815	n/a	n/a	336.84
313.572	3.498	Pic2	Picture	21	Pain	8	4.3	n/a	n/a	342.792
317.07	2.006	Blank	Blank	21	Pain	n/a	2.294	n/a	n/a	346.29
321.37	n/a	ConfirmRating	Rate	21	Pain	8	n/a	1.778	60	350.59
321.397	4.228	ITI	Fixation+	22	No_Pain	n/a	7.706	n/a	n/a	350.617
325.641	3.498	Pic2	Picture	22	No_Pain	22	4.191	n/a	n/a	354.861
329.139	2.006	Blank	Blank	22	No_Pain	n/a	2.185	n/a	n/a	358.359
333.331	n/a	ConfirmRating	Rate	22	No_Pain	22	n/a	1.668	0	362.551
333.351	5.836	ITI	Fixation+	23	Pain	n/a	7.843	n/a	n/a	362.57
339.203	3.498	Pic2	Picture	23	Pain	16	4.329	n/a	n/a	368.423
342.701	2.006	Blank	Blank	23	Pain	n/a	2.323	n/a	n/a	371.921
347.03	n/a	ConfirmRating	Rate	23	Pain	16	n/a	1.806	73	376.25
347.061	4.377	ITI	Fixation+	24	No_Pain	n/a	8.234	n/a	n/a	376.281
351.454	3.498	Pic2	Picture	24	No_Pain	38	4.72	n/a	n/a	380.674
354.952	2.006	Blank	Blank	24	No_Pain	n/a	2.714	n/a	n/a	384.172
359.672	n/a	ConfirmRating	Rate	24	No_Pain	38	n/a	2.197	0	388.892
359.694	5.106	ITI	Fixation+	25	No_Pain	n/a	8.513	n/a	n/a	388.914
364.817	3.498	Pic2	Picture	25	No_Pain	21	4.998	n/a	n/a	394.037
368.315	2.006	Blank	Blank	25	No_Pain	n/a	2.992	n/a	n/a	397.535
373.313	n/a	ConfirmRating	Rate	25	No_Pain	21	n/a	2.476	0	402.533
373.338	5.222	ITI	Fixation+	26	Pain	n/a	8.209	n/a	n/a	402.558
378.577	3.498	Pic2	Picture	26	Pain	5	4.694	n/a	n/a	407.797
382.075	2.006	Blank	Blank	26	Pain	n/a	2.688	n/a	n/a	411.295
386.77	n/a	ConfirmRating	Rate	26	Pain	5	n/a	2.172	61	415.99
386.8	5.272	ITI	Fixation+	27	No_Pain	n/a	8.177	n/a	n/a	416.02
392.089	3.498	Pic2	Picture	27	No_Pain	32	4.663	n/a	n/a	421.309
395.587	2.006	Blank	Blank	27	No_Pain	n/a	2.657	n/a	n/a	424.807
400.25	n/a	ConfirmRating	Rate	27	No_Pain	32	n/a	2.14	0	429.469
400.279	4.775	ITI	Fixation+	28	Pain	n/a	9.498	n/a	n/a	429.499
405.07	3.498	Pic2	Picture	28	Pain	13	5.983	n/a	n/a	434.29
408.568	2.006	Blank	Blank	28	Pain	n/a	3.977	n/a	n/a	437.788
414.551	n/a	ConfirmRating	Rate	28	Pain	13	n/a	3.461	67	443.771
414.57	5.836	ITI	Fixation+	29	No_Pain	n/a	7.599	n/a	n/a	443.789
420.422	3.498	Pic2	Picture	29	No_Pain	28	4.084	n/a	n/a	449.642
423.92	2.006	Blank	Blank	29	No_Pain	n/a	2.078	n/a	n/a	453.14
428.004	n/a	ConfirmRating	Rate	29	No_Pain	28	n/a	1.561	0	457.224
428.031	4.543	ITI	Fixation+	30	Pain	n/a	9.19	n/a	n/a	457.251
432.591	3.498	Pic2	Picture	30	Pain	4	5.675	n/a	n/a	461.81
436.089	2.006	Blank	Blank	30	Pain	n/a	3.669	n/a	n/a	465.308
441.764	n/a	ConfirmRating	Rate	30	Pain	4	n/a	3.152	51	470.983
441.792	4.675	ITI	Fixation+	31	No_Pain	n/a	6.663	n/a	n/a	471.012
446.483	3.498	Pic2	Picture	31	No_Pain	30	3.149	n/a	n/a	475.703
449.981	2.006	Blank	Blank	31	No_Pain	n/a	1.143	n/a	n/a	479.201
453.13	n/a	ConfirmRating	Rate	31	No_Pain	30	n/a	0.626	0	482.35
453.148	5.985	ITI	Fixation+	32	Pain	n/a	6.711	n/a	n/a	482.368
459.149	3.498	Pic2	Picture	32	Pain	3	3.196	n/a	n/a	488.369
462.648	2.006	Blank	Blank	32	Pain	n/a	1.19	n/a	n/a	491.868
465.844	n/a	ConfirmRating	Rate	32	Pain	3	n/a	0.673	80	495.064
465.864	5.488	ITI	Fixation+	33	Pain	n/a	7.619	n/a	n/a	495.084
471.368	3.498	Pic2	Picture	33	Pain	12	4.105	n/a	n/a	500.588
474.866	2.006	Blank	Blank	33	Pain	n/a	2.099	n/a	n/a	504.086
478.971	n/a	ConfirmRating	Rate	33	Pain	12	n/a	1.582	58	508.191
478.994	5.206	ITI	Fixation+	34	No_Pain	n/a	7.64	n/a	n/a	508.214
484.217	3.498	Pic2	Picture	34	No_Pain	26	4.125	n/a	n/a	513.436
487.715	2.006	Blank	Blank	34	No_Pain	n/a	2.119	n/a	n/a	516.934
491.839	n/a	ConfirmRating	Rate	34	No_Pain	26	n/a	1.602	0	521.059
491.859	4.625	ITI	Fixation+	35	Pain	n/a	7.659	n/a	n/a	521.079
496.501	3.498	Pic2	Picture	35	Pain	2	4.145	n/a	n/a	525.721
499.999	2.006	Blank	Blank	35	Pain	n/a	2.139	n/a	n/a	529.219
504.144	n/a	ConfirmRating	Rate	35	Pain	2	n/a	1.623	52	533.364
504.161	5.653	ITI	Fixation+	36	No_Pain	n/a	8.217	n/a	n/a	533.381
509.831	3.498	Pic2	Picture	36	No_Pain	37	4.702	n/a	n/a	539.051
513.329	2.006	Blank	Blank	36	No_Pain	n/a	2.696	n/a	n/a	542.549
518.031	n/a	ConfirmRating	Rate	36	No_Pain	37	n/a	2.179	0	547.251
518.054	5.355	ITI	Fixation+	37	Pain	n/a	7.048	n/a	n/a	547.274
523.425	3.498	Pic2	Picture	37	Pain	19	3.533	n/a	n/a	552.645
526.923	2.006	Blank	Blank	37	Pain	n/a	1.527	n/a	n/a	556.143
530.456	n/a	ConfirmRating	Rate	37	Pain	19	n/a	1.011	78	559.676
530.488	5.819	ITI	Fixation+	38	No_Pain	n/a	6.748	n/a	n/a	559.707
536.323	3.498	Pic2	Picture	38	No_Pain	25	3.233	n/a	n/a	565.543
539.821	2.006	Blank	Blank	38	No_Pain	n/a	1.227	n/a	n/a	569.041
543.054	n/a	ConfirmRating	Rate	38	No_Pain	25	n/a	0.711	8	572.274
543.071	5.322	ITI	Fixation+	39	No_Pain	n/a	7.671	n/a	n/a	572.291
548.409	3.498	Pic2	Picture	39	No_Pain	24	4.157	n/a	n/a	577.629
551.907	2.006	Blank	Blank	39	No_Pain	n/a	2.151	n/a	n/a	581.127
556.064	n/a	ConfirmRating	Rate	39	No_Pain	24	n/a	1.634	1	585.284
