onset	duration	trial_type	event_type	time_until_response	response_time	trial_number	block_num_within_trial	image_seq_num_within_block	question_seq_num_within_block	image_seq_num	picture_number	condition	question_type	block_type	rating	rating_computed	onset_uncorrected	KDEV_imagefile
0.006	10.014	ITI	Fixation+	99.19	n/a	1	n/a	n/a	n/a	n/a	n/a	n/a	n/a	n/a	n/a	n/a	29.886	n/a
10.036	0.497	happy	Picture	98.676	n/a	1	1	1	n/a	1	46	2	n/a	n/a	n/a	n/a	39.916	AF09HAS.jpg
10.534	0.514	Blank	Blank	98.162	n/a	1	1	1	n/a	1	n/a	2	n/a	n/a	n/a	n/a	40.414	n/a
11.064	0.497	happy	Picture	97.648	n/a	1	1	2	n/a	2	69	2	n/a	n/a	n/a	n/a	40.944	AM10HAS.jpg
11.562	0.514	Blank	Blank	97.134	n/a	1	1	2	n/a	2	n/a	2	n/a	n/a	n/a	n/a	41.441	n/a
12.092	0.497	happy	Picture	96.62	n/a	1	1	3	n/a	3	71	2	n/a	n/a	n/a	n/a	41.972	BM12HAS.jpg
12.59	0.514	Blank	Blank	96.106	n/a	1	1	3	n/a	3	n/a	2	n/a	n/a	n/a	n/a	42.469	n/a
13.12	0.497	happy	Picture	95.592	n/a	1	1	4	n/a	4	51	2	n/a	n/a	n/a	n/a	43.0	AF20HAS.jpg
13.617	0.514	Blank	Blank	95.078	n/a	1	1	4	n/a	4	n/a	2	n/a	n/a	n/a	n/a	43.497	n/a
14.148	0.497	happy	Picture	94.564	n/a	1	1	5	n/a	5	67	2	n/a	n/a	n/a	n/a	44.028	BM08HAS.jpg
14.645	0.514	Blank	Blank	94.05	n/a	1	1	5	n/a	5	n/a	2	n/a	n/a	n/a	n/a	44.525	n/a
15.176	0.497	happy	Picture	93.536	n/a	1	1	6	n/a	6	60	2	n/a	n/a	n/a	n/a	45.056	AF32HAS.jpg
15.673	0.514	Blank	Blank	93.022	n/a	1	1	6	n/a	6	n/a	2	n/a	n/a	n/a	n/a	45.553	n/a
16.204	0.497	happy	Picture	92.509	n/a	1	1	7	n/a	7	42	2	n/a	n/a	n/a	n/a	46.084	AF03HAS.jpg
16.701	0.514	Blank	Blank	91.995	n/a	1	1	7	n/a	7	n/a	2	n/a	n/a	n/a	n/a	46.581	n/a
17.232	0.497	happy	Picture	91.481	n/a	1	1	8	n/a	8	55	2	n/a	n/a	n/a	n/a	47.111	AF25HAS.jpg
17.729	0.514	Blank	Blank	90.967	n/a	1	1	8	n/a	8	n/a	2	n/a	n/a	n/a	n/a	47.609	n/a
18.259	0.497	happy	Picture	90.453	n/a	1	1	9	n/a	9	72	2	n/a	n/a	n/a	n/a	48.139	AM14HAS.jpg
18.757	0.514	Blank	Blank	89.939	n/a	1	1	9	n/a	9	n/a	2	n/a	n/a	n/a	n/a	48.637	n/a
19.287	0.497	happy	Picture	89.425	n/a	1	1	10	n/a	10	63	2	n/a	n/a	n/a	n/a	49.167	AM04HAS.jpg
19.785	0.514	Blank	Blank	88.911	n/a	1	1	10	n/a	10	n/a	2	n/a	n/a	n/a	n/a	49.665	n/a
20.315	0.497	happy	Picture	88.397	n/a	1	1	11	n/a	11	58	2	n/a	n/a	n/a	n/a	50.195	BF29HAS.jpg
20.813	0.514	Blank	Blank	87.883	n/a	1	1	11	n/a	11	n/a	2	n/a	n/a	n/a	n/a	50.693	n/a
21.343	0.497	happy	Picture	87.369	n/a	1	1	12	n/a	12	48	2	n/a	n/a	n/a	n/a	51.223	AF14HAS.jpg
21.84	0.514	Blank	Blank	86.855	n/a	1	1	12	n/a	12	n/a	2	n/a	n/a	n/a	n/a	51.72	n/a
22.371	0.497	happy	Picture	86.341	n/a	1	1	13	n/a	13	66	2	n/a	n/a	n/a	n/a	52.251	BM07HAS.jpg
22.868	0.514	Blank	Blank	85.827	n/a	1	1	13	n/a	13	n/a	2	n/a	n/a	n/a	n/a	52.748	n/a
23.399	0.497	happy	Picture	85.313	n/a	1	1	14	n/a	14	70	2	n/a	n/a	n/a	n/a	53.279	BM11HAS.jpg
23.896	0.514	Blank	Blank	84.799	n/a	1	1	14	n/a	14	n/a	2	n/a	n/a	n/a	n/a	53.776	n/a
24.427	0.497	happy	Picture	84.285	n/a	1	1	15	n/a	15	43	2	n/a	n/a	n/a	n/a	54.307	BF04HAS.jpg
24.924	0.514	Blank	Blank	83.772	n/a	1	1	15	n/a	15	n/a	2	n/a	n/a	n/a	n/a	54.804	n/a
25.455	0.497	happy	Picture	83.258	n/a	1	1	16	n/a	16	49	2	n/a	n/a	n/a	n/a	55.334	AF17HAS.jpg
25.952	0.514	Blank	Blank	82.744	n/a	1	1	16	n/a	16	n/a	2	n/a	n/a	n/a	n/a	55.832	n/a
26.483	0.497	happy	Picture	82.23	n/a	1	1	17	n/a	17	75	2	n/a	n/a	n/a	n/a	56.362	AM23HAS.jpg
26.98	0.514	Blank	Blank	81.716	n/a	1	1	17	n/a	17	n/a	2	n/a	n/a	n/a	n/a	56.86	n/a
27.51	0.497	happy	Picture	81.202	n/a	1	1	18	n/a	18	80	2	n/a	n/a	n/a	n/a	57.39	BM35HAS.jpg
28.008	0.514	Blank	Blank	80.688	n/a	1	1	18	n/a	18	n/a	2	n/a	n/a	n/a	n/a	57.888	n/a
28.538	0.497	happy	Picture	80.174	n/a	1	1	19	n/a	19	76	2	n/a	n/a	n/a	n/a	58.418	BM24HAS.jpg
29.036	0.514	Blank	Blank	79.66	n/a	1	1	19	n/a	19	n/a	2	n/a	n/a	n/a	n/a	58.916	n/a
29.566	0.497	happy	Picture	79.146	n/a	1	1	20	n/a	20	74	2	n/a	n/a	n/a	n/a	59.446	AM22HAS.jpg
30.063	0.514	Blank	Blank	78.632	n/a	1	1	20	n/a	20	n/a	2	n/a	n/a	n/a	n/a	59.943	n/a
30.594	10.014	ITI	Fixation+	68.602	n/a	1	n/a	n/a	n/a	n/a	n/a	n/a	n/a	n/a	n/a	n/a	60.474	n/a
40.624	0.497	neutral	Picture	68.088	n/a	1	2	1	n/a	21	33	1	n/a	n/a	n/a	n/a	70.504	AM21NES.jpg
41.122	0.514	Blank	Blank	67.574	n/a	1	2	1	n/a	21	n/a	1	n/a	n/a	n/a	n/a	71.001	n/a
41.652	0.497	neutral	Picture	67.06	n/a	1	2	2	n/a	22	39	1	n/a	n/a	n/a	n/a	71.532	AM28NES.jpg
42.149	0.514	Blank	Blank	66.546	n/a	1	2	2	n/a	22	n/a	1	n/a	n/a	n/a	n/a	72.029	n/a
42.68	0.497	neutral	Picture	66.032	n/a	1	2	3	n/a	23	25	1	n/a	n/a	n/a	n/a	72.56	BM06NES.jpg
43.177	0.514	Blank	Blank	65.518	n/a	1	2	3	n/a	23	n/a	1	n/a	n/a	n/a	n/a	73.057	n/a
43.708	0.497	neutral	Picture	65.004	n/a	1	2	4	n/a	24	5	1	n/a	n/a	n/a	n/a	73.588	BF07NES.jpg
44.205	0.514	Blank	Blank	64.49	n/a	1	2	4	n/a	24	n/a	1	n/a	n/a	n/a	n/a	74.085	n/a
44.736	0.497	neutral	Picture	63.977	n/a	1	2	5	n/a	25	10	1	n/a	n/a	n/a	n/a	74.616	AF18NES.jpg
45.233	0.514	Blank	Blank	63.463	n/a	1	2	5	n/a	25	n/a	1	n/a	n/a	n/a	n/a	75.113	n/a
45.764	0.497	neutral	Picture	62.949	n/a	1	2	6	n/a	26	34	1	n/a	n/a	n/a	n/a	75.644	AM22NES.jpg
46.261	0.514	Blank	Blank	62.435	n/a	1	2	6	n/a	26	n/a	1	n/a	n/a	n/a	n/a	76.141	n/a
46.792	0.497	neutral	Picture	61.921	n/a	1	2	7	n/a	27	36	1	n/a	n/a	n/a	n/a	76.671	BM24NES.jpg
47.289	0.514	Blank	Blank	61.407	n/a	1	2	7	n/a	27	n/a	1	n/a	n/a	n/a	n/a	77.169	n/a
47.819	0.497	neutral	Picture	60.893	n/a	1	2	8	n/a	28	14	1	n/a	n/a	n/a	n/a	77.699	AF23NES.jpg
48.317	0.514	Blank	Blank	60.379	n/a	1	2	8	n/a	28	n/a	1	n/a	n/a	n/a	n/a	78.197	n/a
48.847	0.497	neutral	Picture	59.865	n/a	1	2	9	n/a	29	9	1	n/a	n/a	n/a	n/a	78.727	AF17NES.jpg
49.345	0.514	Blank	Blank	59.351	n/a	1	2	9	n/a	29	n/a	1	n/a	n/a	n/a	n/a	79.225	n/a
49.875	0.497	neutral	Picture	58.837	n/a	1	2	10	n/a	30	19	1	n/a	n/a	n/a	n/a	79.755	AF31NES.jpg
50.372	0.514	Blank	Blank	58.323	n/a	1	2	10	n/a	30	n/a	1	n/a	n/a	n/a	n/a	80.252	n/a
50.903	0.497	neutral	Picture	57.809	n/a	1	2	11	n/a	31	15	1	n/a	n/a	n/a	n/a	80.783	AF25NES.jpg
51.4	0.514	Blank	Blank	57.295	n/a	1	2	11	n/a	31	n/a	1	n/a	n/a	n/a	n/a	81.28	n/a
51.931	0.497	neutral	Picture	56.781	n/a	1	2	12	n/a	32	22	1	n/a	n/a	n/a	n/a	81.811	BM03NES.jpg
52.428	0.514	Blank	Blank	56.267	n/a	1	2	12	n/a	32	n/a	1	n/a	n/a	n/a	n/a	82.308	n/a
52.959	0.497	neutral	Picture	55.753	n/a	1	2	13	n/a	33	11	1	n/a	n/a	n/a	n/a	82.839	AF20NES.jpg
53.456	0.514	Blank	Blank	55.24	n/a	1	2	13	n/a	33	n/a	1	n/a	n/a	n/a	n/a	83.336	n/a
53.987	0.497	neutral	Picture	54.726	n/a	1	2	14	n/a	34	4	1	n/a	n/a	n/a	n/a	83.867	AF05NES.jpg
54.484	0.514	Blank	Blank	54.212	n/a	1	2	14	n/a	34	n/a	1	n/a	n/a	n/a	n/a	84.364	n/a
55.015	0.497	neutral	Picture	53.698	n/a	1	2	15	n/a	35	17	1	n/a	n/a	n/a	n/a	84.894	BF28NES.jpg
55.512	0.514	Blank	Blank	53.184	n/a	1	2	15	n/a	35	n/a	1	n/a	n/a	n/a	n/a	85.392	n/a
56.042	0.497	neutral	Picture	52.67	n/a	1	2	16	n/a	36	13	1	n/a	n/a	n/a	n/a	85.922	BF22NES.jpg
56.54	0.514	Blank	Blank	52.156	n/a	1	2	16	n/a	36	n/a	1	n/a	n/a	n/a	n/a	86.42	n/a
57.07	0.497	neutral	Picture	51.642	n/a	1	2	17	n/a	37	12	1	n/a	n/a	n/a	n/a	86.95	AF21NES.jpg
57.568	0.514	Blank	Blank	51.128	n/a	1	2	17	n/a	37	n/a	1	n/a	n/a	n/a	n/a	87.448	n/a
58.098	0.497	neutral	Picture	50.614	n/a	1	2	18	n/a	38	24	1	n/a	n/a	n/a	n/a	87.978	BM05NES.jpg
58.595	0.514	Blank	Blank	50.1	n/a	1	2	18	n/a	38	n/a	1	n/a	n/a	n/a	n/a	88.475	n/a
59.126	0.497	neutral	Picture	49.586	n/a	1	2	19	n/a	39	29	1	n/a	n/a	n/a	n/a	89.006	AM10NES.jpg
59.623	0.514	Blank	Blank	49.072	n/a	1	2	19	n/a	39	n/a	1	n/a	n/a	n/a	n/a	89.503	n/a
60.154	0.497	neutral	Picture	48.558	n/a	1	2	20	n/a	40	23	1	n/a	n/a	n/a	n/a	90.034	AM04NES.jpg
60.651	0.514	Blank	Blank	48.044	n/a	1	2	20	n/a	40	n/a	1	n/a	n/a	n/a	n/a	90.531	n/a
61.182	10.014	ITI	Fixation+	38.014	n/a	1	n/a	n/a	n/a	n/a	n/a	n/a	n/a	n/a	n/a	n/a	91.062	n/a
71.212	0.497	happy	Picture	37.5	n/a	1	3	1	n/a	41	62	2	n/a	n/a	n/a	n/a	101.092	BM03HAS.jpg
71.709	0.514	Blank	Blank	36.986	n/a	1	3	1	n/a	41	n/a	2	n/a	n/a	n/a	n/a	101.589	n/a
72.24	0.497	happy	Picture	36.472	n/a	1	3	2	n/a	42	52	2	n/a	n/a	n/a	n/a	102.12	AF21HAS.jpg
72.737	0.514	Blank	Blank	35.958	n/a	1	3	2	n/a	42	n/a	2	n/a	n/a	n/a	n/a	102.617	n/a
73.268	0.497	happy	Picture	35.445	n/a	1	3	3	n/a	43	44	2	n/a	n/a	n/a	n/a	103.148	AF05HAS.jpg
73.765	0.514	Blank	Blank	34.931	n/a	1	3	3	n/a	43	n/a	2	n/a	n/a	n/a	n/a	103.645	n/a
74.296	0.497	happy	Picture	34.417	n/a	1	3	4	n/a	44	53	2	n/a	n/a	n/a	n/a	104.175	BF22HAS.jpg
74.793	0.514	Blank	Blank	33.903	n/a	1	3	4	n/a	44	n/a	2	n/a	n/a	n/a	n/a	104.673	n/a
75.323	0.497	happy	Picture	33.389	n/a	1	3	5	n/a	45	54	2	n/a	n/a	n/a	n/a	105.203	AF23HAS.jpg
75.821	0.514	Blank	Blank	32.875	n/a	1	3	5	n/a	45	n/a	2	n/a	n/a	n/a	n/a	105.701	n/a
76.351	0.497	happy	Picture	32.361	n/a	1	3	6	n/a	46	68	2	n/a	n/a	n/a	n/a	106.231	AM09HAS.jpg
76.849	0.514	Blank	Blank	31.847	n/a	1	3	6	n/a	46	n/a	2	n/a	n/a	n/a	n/a	106.729	n/a
77.379	0.497	happy	Picture	31.333	n/a	1	3	7	n/a	47	64	2	n/a	n/a	n/a	n/a	107.259	BM05HAS.jpg
77.877	0.514	Blank	Blank	30.819	n/a	1	3	7	n/a	47	n/a	2	n/a	n/a	n/a	n/a	107.757	n/a
78.407	0.497	happy	Picture	30.305	n/a	1	3	8	n/a	48	59	2	n/a	n/a	n/a	n/a	108.287	AF31HAS.jpg
78.905	0.514	Blank	Blank	29.791	n/a	1	3	8	n/a	48	n/a	2	n/a	n/a	n/a	n/a	108.784	n/a
79.435	0.497	happy	Picture	29.277	n/a	1	3	9	n/a	49	41	2	n/a	n/a	n/a	n/a	109.315	AF01HAS.jpg
79.932	0.514	Blank	Blank	28.763	n/a	1	3	9	n/a	49	n/a	2	n/a	n/a	n/a	n/a	109.812	n/a
80.463	0.497	happy	Picture	28.249	n/a	1	3	10	n/a	50	73	2	n/a	n/a	n/a	n/a	110.343	AM21HAS.jpg
80.96	0.514	Blank	Blank	27.735	n/a	1	3	10	n/a	50	n/a	2	n/a	n/a	n/a	n/a	110.84	n/a
81.491	0.497	happy	Picture	27.221	n/a	1	3	11	n/a	51	65	2	n/a	n/a	n/a	n/a	111.371	BM06HAS.jpg
81.988	0.514	Blank	Blank	26.707	n/a	1	3	11	n/a	51	n/a	2	n/a	n/a	n/a	n/a	111.868	n/a
82.519	0.497	happy	Picture	26.194	n/a	1	3	12	n/a	52	56	2	n/a	n/a	n/a	n/a	112.398	AF26HAS.jpg
83.016	0.514	Blank	Blank	25.68	n/a	1	3	12	n/a	52	n/a	2	n/a	n/a	n/a	n/a	112.896	n/a
83.547	0.497	happy	Picture	25.166	n/a	1	3	13	n/a	53	45	2	n/a	n/a	n/a	n/a	113.426	BF07HAS.jpg
84.044	0.514	Blank	Blank	24.652	n/a	1	3	13	n/a	53	n/a	2	n/a	n/a	n/a	n/a	113.924	n/a
84.574	0.497	happy	Picture	24.138	n/a	1	3	14	n/a	54	78	2	n/a	n/a	n/a	n/a	114.454	BM26HAS.jpg
85.072	0.514	Blank	Blank	23.624	n/a	1	3	14	n/a	54	n/a	2	n/a	n/a	n/a	n/a	114.952	n/a
85.602	0.497	happy	Picture	23.11	n/a	1	3	15	n/a	55	50	2	n/a	n/a	n/a	n/a	115.482	AF18HAS.jpg
86.1	0.514	Blank	Blank	22.596	n/a	1	3	15	n/a	55	n/a	2	n/a	n/a	n/a	n/a	115.98	n/a
86.63	0.497	happy	Picture	22.082	n/a	1	3	16	n/a	56	47	2	n/a	n/a	n/a	n/a	116.51	BF11HAS.jpg
87.127	0.514	Blank	Blank	21.568	n/a	1	3	16	n/a	56	n/a	2	n/a	n/a	n/a	n/a	117.007	n/a
87.658	0.497	happy	Picture	21.054	n/a	1	3	17	n/a	57	77	2	n/a	n/a	n/a	n/a	117.538	BM25HAS.jpg
88.155	0.514	Blank	Blank	20.54	n/a	1	3	17	n/a	57	n/a	2	n/a	n/a	n/a	n/a	118.035	n/a
88.686	0.497	happy	Picture	20.026	n/a	1	3	18	n/a	58	57	2	n/a	n/a	n/a	n/a	118.566	BF28HAS.jpg
89.183	0.514	Blank	Blank	19.512	n/a	1	3	18	n/a	58	n/a	2	n/a	n/a	n/a	n/a	119.063	n/a
89.714	0.497	happy	Picture	18.998	n/a	1	3	19	n/a	59	61	2	n/a	n/a	n/a	n/a	119.594	AM01HAS.jpg
90.211	0.514	Blank	Blank	18.484	n/a	1	3	19	n/a	59	n/a	2	n/a	n/a	n/a	n/a	120.091	n/a
90.742	0.497	happy	Picture	17.97	n/a	1	3	20	n/a	60	79	2	n/a	n/a	n/a	n/a	120.622	BM28HAS.jpg
91.239	0.514	Blank	Blank	17.457	n/a	1	3	20	n/a	60	n/a	2	n/a	n/a	n/a	n/a	121.119	n/a
91.77	10.014	ITI	Fixation+	7.427	n/a	1	n/a	n/a	n/a	n/a	n/a	n/a	n/a	n/a	n/a	n/a	121.65	n/a
109.21	n/a	ConfirmRating	Rate	n/a	7.411	1	n/a	n/a	0	n/a	n/a	n/a	2	Happy	86	53	139.089	n/a
116.002	n/a	ConfirmRating	Rate	n/a	6.781	1	n/a	n/a	1	n/a	n/a	n/a	3	Happy	0	48	145.881	n/a
116.024	10.014	ITI	Fixation+	96.19	n/a	2	n/a	n/a	n/a	n/a	n/a	n/a	n/a	n/a	n/a	n/a	145.904	n/a
126.054	0.497	angry	Picture	95.676	n/a	2	4	1	n/a	61	119	3	n/a	n/a	n/a	n/a	155.934	BM28ANS.jpg
126.552	0.514	Blank	Blank	95.162	n/a	2	4	1	n/a	61	n/a	3	n/a	n/a	n/a	n/a	156.432	n/a
127.082	0.497	angry	Picture	94.648	n/a	2	4	2	n/a	62	100	3	n/a	n/a	n/a	n/a	156.962	AF32ANS.jpg
127.58	0.514	Blank	Blank	94.134	n/a	2	4	2	n/a	62	n/a	3	n/a	n/a	n/a	n/a	157.46	n/a
128.11	0.497	angry	Picture	93.62	n/a	2	4	3	n/a	63	118	3	n/a	n/a	n/a	n/a	157.99	BM26ANS.jpg
128.608	0.514	Blank	Blank	93.106	n/a	2	4	3	n/a	63	n/a	3	n/a	n/a	n/a	n/a	158.488	n/a
129.138	0.497	angry	Picture	92.592	n/a	2	4	4	n/a	64	89	3	n/a	n/a	n/a	n/a	159.018	AF17ANS.jpg
129.635	0.514	Blank	Blank	92.078	n/a	2	4	4	n/a	64	n/a	3	n/a	n/a	n/a	n/a	159.515	n/a
130.166	0.497	angry	Picture	91.564	n/a	2	4	5	n/a	65	116	3	n/a	n/a	n/a	n/a	160.046	BM24ANS.jpg
130.663	0.514	Blank	Blank	91.05	n/a	2	4	5	n/a	65	n/a	3	n/a	n/a	n/a	n/a	160.543	n/a
131.194	0.497	angry	Picture	90.536	n/a	2	4	6	n/a	66	105	3	n/a	n/a	n/a	n/a	161.074	BM06ANS.jpg
131.691	0.514	Blank	Blank	90.022	n/a	2	4	6	n/a	66	n/a	3	n/a	n/a	n/a	n/a	161.571	n/a
132.222	0.497	angry	Picture	89.508	n/a	2	4	7	n/a	67	106	3	n/a	n/a	n/a	n/a	162.102	AM07ANS.jpg
132.719	0.514	Blank	Blank	88.995	n/a	2	4	7	n/a	67	n/a	3	n/a	n/a	n/a	n/a	162.599	n/a
133.25	0.497	angry	Picture	88.481	n/a	2	4	8	n/a	68	94	3	n/a	n/a	n/a	n/a	163.13	AF23ANS.jpg
133.747	0.514	Blank	Blank	87.967	n/a	2	4	8	n/a	68	n/a	3	n/a	n/a	n/a	n/a	163.627	n/a
134.278	0.497	angry	Picture	87.453	n/a	2	4	9	n/a	69	117	3	n/a	n/a	n/a	n/a	164.157	BM25ANS.jpg
134.775	0.514	Blank	Blank	86.939	n/a	2	4	9	n/a	69	n/a	3	n/a	n/a	n/a	n/a	164.655	n/a
135.305	0.497	angry	Picture	86.425	n/a	2	4	10	n/a	70	90	3	n/a	n/a	n/a	n/a	165.185	AF18ANS.jpg
135.803	0.514	Blank	Blank	85.911	n/a	2	4	10	n/a	70	n/a	3	n/a	n/a	n/a	n/a	165.683	n/a
136.333	0.497	angry	Picture	85.397	n/a	2	4	11	n/a	71	83	3	n/a	n/a	n/a	n/a	166.213	BF04ANS.jpg
136.831	0.514	Blank	Blank	84.883	n/a	2	4	11	n/a	71	n/a	3	n/a	n/a	n/a	n/a	166.71	n/a
137.361	0.497	angry	Picture	84.369	n/a	2	4	12	n/a	72	112	3	n/a	n/a	n/a	n/a	167.241	AM14ANS.jpg
137.859	0.514	Blank	Blank	83.855	n/a	2	4	12	n/a	72	n/a	3	n/a	n/a	n/a	n/a	167.738	n/a
138.389	0.497	angry	Picture	83.341	n/a	2	4	13	n/a	73	102	3	n/a	n/a	n/a	n/a	168.269	BM03ANS.jpg
138.886	0.514	Blank	Blank	82.827	n/a	2	4	13	n/a	73	n/a	3	n/a	n/a	n/a	n/a	168.766	n/a
139.417	0.497	angry	Picture	82.313	n/a	2	4	14	n/a	74	95	3	n/a	n/a	n/a	n/a	169.297	AF25ANS.jpg
139.914	0.514	Blank	Blank	81.799	n/a	2	4	14	n/a	74	n/a	3	n/a	n/a	n/a	n/a	169.794	n/a
140.445	0.497	angry	Picture	81.285	n/a	2	4	15	n/a	75	113	3	n/a	n/a	n/a	n/a	170.325	AM21ANS.jpg
140.942	0.514	Blank	Blank	80.771	n/a	2	4	15	n/a	75	n/a	3	n/a	n/a	n/a	n/a	170.822	n/a
141.473	0.497	angry	Picture	80.258	n/a	2	4	16	n/a	76	88	3	n/a	n/a	n/a	n/a	171.353	AF14ANS.jpg
141.97	0.514	Blank	Blank	79.744	n/a	2	4	16	n/a	76	n/a	3	n/a	n/a	n/a	n/a	171.85	n/a
142.501	0.497	angry	Picture	79.23	n/a	2	4	17	n/a	77	93	3	n/a	n/a	n/a	n/a	172.38	BF22ANS.jpg
142.998	0.514	Blank	Blank	78.716	n/a	2	4	17	n/a	77	n/a	3	n/a	n/a	n/a	n/a	172.878	n/a
143.528	0.497	angry	Picture	78.202	n/a	2	4	18	n/a	78	86	3	n/a	n/a	n/a	n/a	173.408	AF09ANS.jpg
144.026	0.514	Blank	Blank	77.688	n/a	2	4	18	n/a	78	n/a	3	n/a	n/a	n/a	n/a	173.906	n/a
144.556	0.497	angry	Picture	77.174	n/a	2	4	19	n/a	79	92	3	n/a	n/a	n/a	n/a	174.436	AF21ANS.jpg
145.054	0.514	Blank	Blank	76.66	n/a	2	4	19	n/a	79	n/a	3	n/a	n/a	n/a	n/a	174.934	n/a
145.584	0.497	angry	Picture	76.146	n/a	2	4	20	n/a	80	84	3	n/a	n/a	n/a	n/a	175.464	AF05ANS.jpg
146.082	0.514	Blank	Blank	75.632	n/a	2	4	20	n/a	80	n/a	3	n/a	n/a	n/a	n/a	175.961	n/a
146.612	10.014	ITI	Fixation+	65.602	n/a	2	n/a	n/a	n/a	n/a	n/a	n/a	n/a	n/a	n/a	n/a	176.492	n/a
156.642	0.497	neutral	Picture	65.088	n/a	2	5	1	n/a	81	4	1	n/a	n/a	n/a	n/a	186.522	AF05NES.jpg
157.14	0.514	Blank	Blank	64.574	n/a	2	5	1	n/a	81	n/a	1	n/a	n/a	n/a	n/a	187.019	n/a
157.67	0.497	neutral	Picture	64.06	n/a	2	5	2	n/a	82	14	1	n/a	n/a	n/a	n/a	187.55	AF23NES.jpg
158.168	0.514	Blank	Blank	63.546	n/a	2	5	2	n/a	82	n/a	1	n/a	n/a	n/a	n/a	188.047	n/a
158.698	0.497	neutral	Picture	63.032	n/a	2	5	3	n/a	83	19	1	n/a	n/a	n/a	n/a	188.578	AF31NES.jpg
159.195	0.514	Blank	Blank	62.518	n/a	2	5	3	n/a	83	n/a	1	n/a	n/a	n/a	n/a	189.075	n/a
159.726	0.497	neutral	Picture	62.004	n/a	2	5	4	n/a	84	8	1	n/a	n/a	n/a	n/a	189.606	AF14NES.jpg
160.223	0.514	Blank	Blank	61.49	n/a	2	5	4	n/a	84	n/a	1	n/a	n/a	n/a	n/a	190.103	n/a
160.754	0.497	neutral	Picture	60.976	n/a	2	5	5	n/a	85	25	1	n/a	n/a	n/a	n/a	190.634	BM06NES.jpg
161.251	0.514	Blank	Blank	60.463	n/a	2	5	5	n/a	85	n/a	1	n/a	n/a	n/a	n/a	191.131	n/a
161.782	0.497	neutral	Picture	59.949	n/a	2	5	6	n/a	86	9	1	n/a	n/a	n/a	n/a	191.661	AF17NES.jpg
162.279	0.514	Blank	Blank	59.435	n/a	2	5	6	n/a	86	n/a	1	n/a	n/a	n/a	n/a	192.159	n/a
162.81	0.497	neutral	Picture	58.921	n/a	2	5	7	n/a	87	2	1	n/a	n/a	n/a	n/a	192.689	AF03NES.jpg
163.307	0.514	Blank	Blank	58.407	n/a	2	5	7	n/a	87	n/a	1	n/a	n/a	n/a	n/a	193.187	n/a
163.837	0.497	neutral	Picture	57.893	n/a	2	5	8	n/a	88	17	1	n/a	n/a	n/a	n/a	193.717	BF28NES.jpg
164.335	0.514	Blank	Blank	57.379	n/a	2	5	8	n/a	88	n/a	1	n/a	n/a	n/a	n/a	194.215	n/a
164.865	0.497	neutral	Picture	56.865	n/a	2	5	9	n/a	89	6	1	n/a	n/a	n/a	n/a	194.745	AF09NES.jpg
165.363	0.514	Blank	Blank	56.351	n/a	2	5	9	n/a	89	n/a	1	n/a	n/a	n/a	n/a	195.243	n/a
165.893	0.497	neutral	Picture	55.837	n/a	2	5	10	n/a	90	12	1	n/a	n/a	n/a	n/a	195.773	AF21NES.jpg
166.391	0.514	Blank	Blank	55.323	n/a	2	5	10	n/a	90	n/a	1	n/a	n/a	n/a	n/a	196.27	n/a
166.921	0.497	neutral	Picture	54.809	n/a	2	5	11	n/a	91	24	1	n/a	n/a	n/a	n/a	196.801	BM05NES.jpg
167.418	0.514	Blank	Blank	54.295	n/a	2	5	11	n/a	91	n/a	1	n/a	n/a	n/a	n/a	197.298	n/a
167.949	0.497	neutral	Picture	53.781	n/a	2	5	12	n/a	92	34	1	n/a	n/a	n/a	n/a	197.829	AM22NES.jpg
168.446	0.514	Blank	Blank	53.267	n/a	2	5	12	n/a	92	n/a	1	n/a	n/a	n/a	n/a	198.326	n/a
168.977	0.497	neutral	Picture	52.753	n/a	2	5	13	n/a	93	23	1	n/a	n/a	n/a	n/a	198.857	AM04NES.jpg
169.474	0.514	Blank	Blank	52.239	n/a	2	5	13	n/a	93	n/a	1	n/a	n/a	n/a	n/a	199.354	n/a
170.005	0.497	neutral	Picture	51.726	n/a	2	5	14	n/a	94	15	1	n/a	n/a	n/a	n/a	199.885	AF25NES.jpg
170.502	0.514	Blank	Blank	51.212	n/a	2	5	14	n/a	94	n/a	1	n/a	n/a	n/a	n/a	200.382	n/a
171.033	0.497	neutral	Picture	50.698	n/a	2	5	15	n/a	95	37	1	n/a	n/a	n/a	n/a	200.912	BM25NES.jpg
171.53	0.514	Blank	Blank	50.184	n/a	2	5	15	n/a	95	n/a	1	n/a	n/a	n/a	n/a	201.41	n/a
172.06	0.497	neutral	Picture	49.67	n/a	2	5	16	n/a	96	32	1	n/a	n/a	n/a	n/a	201.94	AM14NES.jpg
172.558	0.514	Blank	Blank	49.156	n/a	2	5	16	n/a	96	n/a	1	n/a	n/a	n/a	n/a	202.438	n/a
173.088	0.497	neutral	Picture	48.642	n/a	2	5	17	n/a	97	3	1	n/a	n/a	n/a	n/a	202.968	BF04NES.jpg
173.586	0.514	Blank	Blank	48.128	n/a	2	5	17	n/a	97	n/a	1	n/a	n/a	n/a	n/a	203.466	n/a
174.116	0.497	neutral	Picture	47.614	n/a	2	5	18	n/a	98	16	1	n/a	n/a	n/a	n/a	203.996	AF26NES.jpg
174.614	0.514	Blank	Blank	47.1	n/a	2	5	18	n/a	98	n/a	1	n/a	n/a	n/a	n/a	204.494	n/a
175.144	0.497	neutral	Picture	46.586	n/a	2	5	19	n/a	99	27	1	n/a	n/a	n/a	n/a	205.024	BM08NES.jpg
175.642	0.514	Blank	Blank	46.072	n/a	2	5	19	n/a	99	n/a	1	n/a	n/a	n/a	n/a	205.521	n/a
176.172	0.497	neutral	Picture	45.558	n/a	2	5	20	n/a	100	28	1	n/a	n/a	n/a	n/a	206.052	AM09NES.jpg
176.669	0.514	Blank	Blank	45.044	n/a	2	5	20	n/a	100	n/a	1	n/a	n/a	n/a	n/a	206.549	n/a
177.2	10.014	ITI	Fixation+	35.014	n/a	2	n/a	n/a	n/a	n/a	n/a	n/a	n/a	n/a	n/a	n/a	207.08	n/a
187.23	0.497	angry	Picture	34.5	n/a	2	6	1	n/a	101	81	3	n/a	n/a	n/a	n/a	217.11	AF01ANS.jpg
187.727	0.514	Blank	Blank	33.986	n/a	2	6	1	n/a	101	n/a	3	n/a	n/a	n/a	n/a	217.607	n/a
188.258	0.497	angry	Picture	33.472	n/a	2	6	2	n/a	102	120	3	n/a	n/a	n/a	n/a	218.138	AM35ANS.jpg
188.755	0.514	Blank	Blank	32.958	n/a	2	6	2	n/a	102	n/a	3	n/a	n/a	n/a	n/a	218.635	n/a
189.286	0.497	angry	Picture	32.444	n/a	2	6	3	n/a	103	114	3	n/a	n/a	n/a	n/a	219.166	AM22ANS.jpg
189.783	0.514	Blank	Blank	31.93	n/a	2	6	3	n/a	103	n/a	3	n/a	n/a	n/a	n/a	219.663	n/a
190.314	0.497	angry	Picture	31.417	n/a	2	6	4	n/a	104	109	3	n/a	n/a	n/a	n/a	220.194	AM10ANS.jpg
190.811	0.514	Blank	Blank	30.903	n/a	2	6	4	n/a	104	n/a	3	n/a	n/a	n/a	n/a	220.691	n/a
191.341	0.497	angry	Picture	30.389	n/a	2	6	5	n/a	105	96	3	n/a	n/a	n/a	n/a	221.221	AF26ANS.jpg
191.839	0.514	Blank	Blank	29.875	n/a	2	6	5	n/a	105	n/a	3	n/a	n/a	n/a	n/a	221.719	n/a
192.369	0.497	angry	Picture	29.361	n/a	2	6	6	n/a	106	82	3	n/a	n/a	n/a	n/a	222.249	AF03ANS.jpg
192.867	0.514	Blank	Blank	28.847	n/a	2	6	6	n/a	106	n/a	3	n/a	n/a	n/a	n/a	222.747	n/a
193.397	0.497	angry	Picture	28.333	n/a	2	6	7	n/a	107	97	3	n/a	n/a	n/a	n/a	223.277	BF28ANS.jpg
193.895	0.514	Blank	Blank	27.819	n/a	2	6	7	n/a	107	n/a	3	n/a	n/a	n/a	n/a	223.775	n/a
194.425	0.497	angry	Picture	27.305	n/a	2	6	8	n/a	108	115	3	n/a	n/a	n/a	n/a	224.305	AM23ANS.jpg
194.923	0.514	Blank	Blank	26.791	n/a	2	6	8	n/a	108	n/a	3	n/a	n/a	n/a	n/a	224.802	n/a
195.453	0.497	angry	Picture	26.277	n/a	2	6	9	n/a	109	91	3	n/a	n/a	n/a	n/a	225.333	AF20ANS.jpg
195.95	0.514	Blank	Blank	25.763	n/a	2	6	9	n/a	109	n/a	3	n/a	n/a	n/a	n/a	225.83	n/a
196.481	0.497	angry	Picture	25.249	n/a	2	6	10	n/a	110	87	3	n/a	n/a	n/a	n/a	226.361	BF11ANS.jpg
196.978	0.514	Blank	Blank	24.735	n/a	2	6	10	n/a	110	n/a	3	n/a	n/a	n/a	n/a	226.858	n/a
197.509	0.497	angry	Picture	24.221	n/a	2	6	11	n/a	111	85	3	n/a	n/a	n/a	n/a	227.389	BF07ANS.jpg
198.006	0.514	Blank	Blank	23.707	n/a	2	6	11	n/a	111	n/a	3	n/a	n/a	n/a	n/a	227.886	n/a
198.537	0.497	angry	Picture	23.193	n/a	2	6	12	n/a	112	110	3	n/a	n/a	n/a	n/a	228.417	AM11ANS.jpg
199.034	0.514	Blank	Blank	22.68	n/a	2	6	12	n/a	112	n/a	3	n/a	n/a	n/a	n/a	228.914	n/a
199.565	0.497	angry	Picture	22.166	n/a	2	6	13	n/a	113	111	3	n/a	n/a	n/a	n/a	229.445	BM12ANS.jpg
200.062	0.514	Blank	Blank	21.652	n/a	2	6	13	n/a	113	n/a	3	n/a	n/a	n/a	n/a	229.942	n/a
200.593	0.497	angry	Picture	21.138	n/a	2	6	14	n/a	114	103	3	n/a	n/a	n/a	n/a	230.472	AM04ANS.jpg
201.09	0.514	Blank	Blank	20.624	n/a	2	6	14	n/a	114	n/a	3	n/a	n/a	n/a	n/a	230.97	n/a
201.62	0.497	angry	Picture	20.11	n/a	2	6	15	n/a	115	101	3	n/a	n/a	n/a	n/a	231.5	AM01ANS.jpg
202.118	0.514	Blank	Blank	19.596	n/a	2	6	15	n/a	115	n/a	3	n/a	n/a	n/a	n/a	231.998	n/a
202.648	0.497	angry	Picture	19.082	n/a	2	6	16	n/a	116	104	3	n/a	n/a	n/a	n/a	232.528	BM05ANS.jpg
203.146	0.514	Blank	Blank	18.568	n/a	2	6	16	n/a	116	n/a	3	n/a	n/a	n/a	n/a	233.025	n/a
203.676	0.497	angry	Picture	18.054	n/a	2	6	17	n/a	117	107	3	n/a	n/a	n/a	n/a	233.556	BM08ANS.jpg
204.174	0.514	Blank	Blank	17.54	n/a	2	6	17	n/a	117	n/a	3	n/a	n/a	n/a	n/a	234.053	n/a
204.704	0.497	angry	Picture	17.026	n/a	2	6	18	n/a	118	98	3	n/a	n/a	n/a	n/a	234.584	BF29ANS.jpg
205.201	0.514	Blank	Blank	16.512	n/a	2	6	18	n/a	118	n/a	3	n/a	n/a	n/a	n/a	235.081	n/a
205.732	0.497	angry	Picture	15.998	n/a	2	6	19	n/a	119	99	3	n/a	n/a	n/a	n/a	235.612	AF31ANS.jpg
206.229	0.514	Blank	Blank	15.484	n/a	2	6	19	n/a	119	n/a	3	n/a	n/a	n/a	n/a	236.109	n/a
206.76	0.497	angry	Picture	14.97	n/a	2	6	20	n/a	120	108	3	n/a	n/a	n/a	n/a	236.64	AM09ANS.jpg
207.257	0.514	Blank	Blank	14.456	n/a	2	6	20	n/a	120	n/a	3	n/a	n/a	n/a	n/a	237.137	n/a
207.788	10.014	ITI	Fixation+	4.426	n/a	2	n/a	n/a	n/a	n/a	n/a	n/a	n/a	n/a	n/a	n/a	237.667	n/a
222.228	n/a	ConfirmRating	Rate	n/a	4.41	2	n/a	n/a	0	n/a	n/a	n/a	2	Angry	63	51	252.107	n/a
229.069	n/a	ConfirmRating	Rate	n/a	6.83	2	n/a	n/a	1	n/a	n/a	n/a	3	Angry	26	49	258.949	n/a
229.091	15.004	Rest	Picture	n/a	n/a	n/a	n/a	n/a	n/a	n/a	n/a	n/a	0	n/a	0	0	258.971	n/a
244.112	10.014	ITI	Fixation+	100.937	n/a	3	n/a	n/a	n/a	n/a	n/a	n/a	n/a	n/a	n/a	n/a	273.992	n/a
254.142	0.497	happy	Picture	100.423	n/a	3	7	1	n/a	1	46	2	n/a	n/a	n/a	n/a	284.022	AF09HAS.jpg
254.639	0.514	Blank	Blank	99.909	n/a	3	7	1	n/a	1	n/a	2	n/a	n/a	n/a	n/a	284.519	n/a
255.17	0.497	happy	Picture	99.395	n/a	3	7	2	n/a	2	69	2	n/a	n/a	n/a	n/a	285.05	AM10HAS.jpg
255.667	0.514	Blank	Blank	98.881	n/a	3	7	2	n/a	2	n/a	2	n/a	n/a	n/a	n/a	285.547	n/a
256.198	0.497	happy	Picture	98.367	n/a	3	7	3	n/a	3	71	2	n/a	n/a	n/a	n/a	286.077	BM12HAS.jpg
256.695	0.514	Blank	Blank	97.853	n/a	3	7	3	n/a	3	n/a	2	n/a	n/a	n/a	n/a	286.575	n/a
257.225	0.497	happy	Picture	97.339	n/a	3	7	4	n/a	4	51	2	n/a	n/a	n/a	n/a	287.105	AF20HAS.jpg
257.723	0.514	Blank	Blank	96.825	n/a	3	7	4	n/a	4	n/a	2	n/a	n/a	n/a	n/a	287.603	n/a
258.253	0.497	happy	Picture	96.311	n/a	3	7	5	n/a	5	67	2	n/a	n/a	n/a	n/a	288.133	BM08HAS.jpg
258.751	0.514	Blank	Blank	95.798	n/a	3	7	5	n/a	5	n/a	2	n/a	n/a	n/a	n/a	288.631	n/a
259.281	0.497	happy	Picture	95.284	n/a	3	7	6	n/a	6	60	2	n/a	n/a	n/a	n/a	289.161	AF32HAS.jpg
259.779	0.514	Blank	Blank	94.77	n/a	3	7	6	n/a	6	n/a	2	n/a	n/a	n/a	n/a	289.659	n/a
260.309	0.497	happy	Picture	94.256	n/a	3	7	7	n/a	7	42	2	n/a	n/a	n/a	n/a	290.189	AF03HAS.jpg
260.806	0.514	Blank	Blank	93.742	n/a	3	7	7	n/a	7	n/a	2	n/a	n/a	n/a	n/a	290.686	n/a
261.337	0.497	happy	Picture	93.228	n/a	3	7	8	n/a	8	55	2	n/a	n/a	n/a	n/a	291.217	AF25HAS.jpg
261.834	0.514	Blank	Blank	92.714	n/a	3	7	8	n/a	8	n/a	2	n/a	n/a	n/a	n/a	291.714	n/a
262.365	0.497	happy	Picture	92.2	n/a	3	7	9	n/a	9	72	2	n/a	n/a	n/a	n/a	292.245	AM14HAS.jpg
262.862	0.514	Blank	Blank	91.686	n/a	3	7	9	n/a	9	n/a	2	n/a	n/a	n/a	n/a	292.742	n/a
263.393	0.497	happy	Picture	91.172	n/a	3	7	10	n/a	10	63	2	n/a	n/a	n/a	n/a	293.273	AM04HAS.jpg
263.89	0.514	Blank	Blank	90.658	n/a	3	7	10	n/a	10	n/a	2	n/a	n/a	n/a	n/a	293.77	n/a
264.421	0.497	happy	Picture	90.144	n/a	3	7	11	n/a	11	58	2	n/a	n/a	n/a	n/a	294.3	BF29HAS.jpg
264.918	0.514	Blank	Blank	89.63	n/a	3	7	11	n/a	11	n/a	2	n/a	n/a	n/a	n/a	294.798	n/a
265.448	0.497	happy	Picture	89.116	n/a	3	7	12	n/a	12	48	2	n/a	n/a	n/a	n/a	295.328	AF14HAS.jpg
265.946	0.514	Blank	Blank	88.602	n/a	3	7	12	n/a	12	n/a	2	n/a	n/a	n/a	n/a	295.826	n/a
266.476	0.497	happy	Picture	88.088	n/a	3	7	13	n/a	13	66	2	n/a	n/a	n/a	n/a	296.356	BM07HAS.jpg
266.974	0.514	Blank	Blank	87.574	n/a	3	7	13	n/a	13	n/a	2	n/a	n/a	n/a	n/a	296.854	n/a
267.504	0.497	happy	Picture	87.06	n/a	3	7	14	n/a	14	70	2	n/a	n/a	n/a	n/a	297.384	BM11HAS.jpg
268.002	0.514	Blank	Blank	86.546	n/a	3	7	14	n/a	14	n/a	2	n/a	n/a	n/a	n/a	297.882	n/a
268.532	0.497	happy	Picture	86.033	n/a	3	7	15	n/a	15	43	2	n/a	n/a	n/a	n/a	298.412	BF04HAS.jpg
269.029	0.514	Blank	Blank	85.519	n/a	3	7	15	n/a	15	n/a	2	n/a	n/a	n/a	n/a	298.909	n/a
269.56	0.497	happy	Picture	85.005	n/a	3	7	16	n/a	16	49	2	n/a	n/a	n/a	n/a	299.44	AF17HAS.jpg
270.057	0.514	Blank	Blank	84.491	n/a	3	7	16	n/a	16	n/a	2	n/a	n/a	n/a	n/a	299.937	n/a
270.588	0.497	happy	Picture	83.977	n/a	3	7	17	n/a	17	75	2	n/a	n/a	n/a	n/a	300.468	AM23HAS.jpg
271.085	0.514	Blank	Blank	83.463	n/a	3	7	17	n/a	17	n/a	2	n/a	n/a	n/a	n/a	300.965	n/a
271.616	0.497	happy	Picture	82.949	n/a	3	7	18	n/a	18	80	2	n/a	n/a	n/a	n/a	301.496	BM35HAS.jpg
272.113	0.514	Blank	Blank	82.435	n/a	3	7	18	n/a	18	n/a	2	n/a	n/a	n/a	n/a	301.993	n/a
272.644	0.497	happy	Picture	81.921	n/a	3	7	19	n/a	19	76	2	n/a	n/a	n/a	n/a	302.524	BM24HAS.jpg
273.141	0.514	Blank	Blank	81.407	n/a	3	7	19	n/a	19	n/a	2	n/a	n/a	n/a	n/a	303.021	n/a
273.672	0.497	happy	Picture	80.893	n/a	3	7	20	n/a	20	74	2	n/a	n/a	n/a	n/a	303.551	AM22HAS.jpg
274.169	0.514	Blank	Blank	80.379	n/a	3	7	20	n/a	20	n/a	2	n/a	n/a	n/a	n/a	304.049	n/a
274.7	10.014	ITI	Fixation+	70.349	n/a	3	n/a	n/a	n/a	n/a	n/a	n/a	n/a	n/a	n/a	n/a	304.579	n/a
284.73	0.497	neutral	Picture	69.835	n/a	3	8	1	n/a	21	33	1	n/a	n/a	n/a	n/a	314.61	AM21NES.jpg
285.227	0.514	Blank	Blank	69.321	n/a	3	8	1	n/a	21	n/a	1	n/a	n/a	n/a	n/a	315.107	n/a
285.757	0.497	neutral	Picture	68.807	n/a	3	8	2	n/a	22	39	1	n/a	n/a	n/a	n/a	315.637	AM28NES.jpg
286.255	0.514	Blank	Blank	68.293	n/a	3	8	2	n/a	22	n/a	1	n/a	n/a	n/a	n/a	316.135	n/a
286.785	0.497	neutral	Picture	67.779	n/a	3	8	3	n/a	23	25	1	n/a	n/a	n/a	n/a	316.665	BM06NES.jpg
287.283	0.514	Blank	Blank	67.265	n/a	3	8	3	n/a	23	n/a	1	n/a	n/a	n/a	n/a	317.163	n/a
287.813	0.497	neutral	Picture	66.751	n/a	3	8	4	n/a	24	5	1	n/a	n/a	n/a	n/a	317.693	BF07NES.jpg
288.311	0.514	Blank	Blank	66.238	n/a	3	8	4	n/a	24	n/a	1	n/a	n/a	n/a	n/a	318.19	n/a
288.841	0.497	neutral	Picture	65.724	n/a	3	8	5	n/a	25	10	1	n/a	n/a	n/a	n/a	318.721	AF18NES.jpg
289.338	0.514	Blank	Blank	65.21	n/a	3	8	5	n/a	25	n/a	1	n/a	n/a	n/a	n/a	319.218	n/a
289.869	0.497	neutral	Picture	64.696	n/a	3	8	6	n/a	26	34	1	n/a	n/a	n/a	n/a	319.749	AM22NES.jpg
290.366	0.514	Blank	Blank	64.182	n/a	3	8	6	n/a	26	n/a	1	n/a	n/a	n/a	n/a	320.246	n/a
290.897	0.497	neutral	Picture	63.668	n/a	3	8	7	n/a	27	36	1	n/a	n/a	n/a	n/a	320.777	BM24NES.jpg
291.394	0.514	Blank	Blank	63.154	n/a	3	8	7	n/a	27	n/a	1	n/a	n/a	n/a	n/a	321.274	n/a
291.925	0.497	neutral	Picture	62.64	n/a	3	8	8	n/a	28	14	1	n/a	n/a	n/a	n/a	321.805	AF23NES.jpg
292.422	0.514	Blank	Blank	62.126	n/a	3	8	8	n/a	28	n/a	1	n/a	n/a	n/a	n/a	322.302	n/a
292.953	0.497	neutral	Picture	61.612	n/a	3	8	9	n/a	29	9	1	n/a	n/a	n/a	n/a	322.833	AF17NES.jpg
293.45	0.514	Blank	Blank	61.098	n/a	3	8	9	n/a	29	n/a	1	n/a	n/a	n/a	n/a	323.33	n/a
293.981	0.497	neutral	Picture	60.584	n/a	3	8	10	n/a	30	19	1	n/a	n/a	n/a	n/a	323.86	AF31NES.jpg
294.478	0.514	Blank	Blank	60.07	n/a	3	8	10	n/a	30	n/a	1	n/a	n/a	n/a	n/a	324.358	n/a
295.008	0.497	neutral	Picture	59.556	n/a	3	8	11	n/a	31	15	1	n/a	n/a	n/a	n/a	324.888	AF25NES.jpg
295.506	0.514	Blank	Blank	59.042	n/a	3	8	11	n/a	31	n/a	1	n/a	n/a	n/a	n/a	325.386	n/a
296.036	0.497	neutral	Picture	58.528	n/a	3	8	12	n/a	32	22	1	n/a	n/a	n/a	n/a	325.916	BM03NES.jpg
296.534	0.514	Blank	Blank	58.015	n/a	3	8	12	n/a	32	n/a	1	n/a	n/a	n/a	n/a	326.414	n/a
297.064	0.497	neutral	Picture	57.501	n/a	3	8	13	n/a	33	11	1	n/a	n/a	n/a	n/a	326.944	AF20NES.jpg
297.561	0.514	Blank	Blank	56.987	n/a	3	8	13	n/a	33	n/a	1	n/a	n/a	n/a	n/a	327.441	n/a
298.092	0.497	neutral	Picture	56.473	n/a	3	8	14	n/a	34	4	1	n/a	n/a	n/a	n/a	327.972	AF05NES.jpg
298.589	0.514	Blank	Blank	55.959	n/a	3	8	14	n/a	34	n/a	1	n/a	n/a	n/a	n/a	328.469	n/a
299.12	0.497	neutral	Picture	55.445	n/a	3	8	15	n/a	35	17	1	n/a	n/a	n/a	n/a	329.0	BF28NES.jpg
299.617	0.514	Blank	Blank	54.931	n/a	3	8	15	n/a	35	n/a	1	n/a	n/a	n/a	n/a	329.497	n/a
300.148	0.497	neutral	Picture	54.417	n/a	3	8	16	n/a	36	13	1	n/a	n/a	n/a	n/a	330.028	BF22NES.jpg
300.645	0.514	Blank	Blank	53.903	n/a	3	8	16	n/a	36	n/a	1	n/a	n/a	n/a	n/a	330.525	n/a
301.176	0.497	neutral	Picture	53.389	n/a	3	8	17	n/a	37	12	1	n/a	n/a	n/a	n/a	331.056	AF21NES.jpg
301.673	0.514	Blank	Blank	52.875	n/a	3	8	17	n/a	37	n/a	1	n/a	n/a	n/a	n/a	331.553	n/a
302.204	0.497	neutral	Picture	52.361	n/a	3	8	18	n/a	38	24	1	n/a	n/a	n/a	n/a	332.084	BM05NES.jpg
302.701	0.514	Blank	Blank	51.847	n/a	3	8	18	n/a	38	n/a	1	n/a	n/a	n/a	n/a	332.581	n/a
303.231	0.497	neutral	Picture	51.333	n/a	3	8	19	n/a	39	29	1	n/a	n/a	n/a	n/a	333.111	AM10NES.jpg
303.729	0.514	Blank	Blank	50.819	n/a	3	8	19	n/a	39	n/a	1	n/a	n/a	n/a	n/a	333.609	n/a
304.259	0.497	neutral	Picture	50.305	n/a	3	8	20	n/a	40	23	1	n/a	n/a	n/a	n/a	334.139	AM04NES.jpg
304.757	0.514	Blank	Blank	49.791	n/a	3	8	20	n/a	40	n/a	1	n/a	n/a	n/a	n/a	334.637	n/a
305.287	10.014	ITI	Fixation+	39.761	n/a	3	n/a	n/a	n/a	n/a	n/a	n/a	n/a	n/a	n/a	n/a	335.167	n/a
315.317	0.497	happy	Picture	39.247	n/a	3	9	1	n/a	41	62	2	n/a	n/a	n/a	n/a	345.197	BM03HAS.jpg
315.815	0.514	Blank	Blank	38.733	n/a	3	9	1	n/a	41	n/a	2	n/a	n/a	n/a	n/a	345.695	n/a
316.345	0.497	happy	Picture	38.22	n/a	3	9	2	n/a	42	52	2	n/a	n/a	n/a	n/a	346.225	AF21HAS.jpg
316.843	0.514	Blank	Blank	37.705	n/a	3	9	2	n/a	42	n/a	2	n/a	n/a	n/a	n/a	346.723	n/a
317.373	0.497	happy	Picture	37.192	n/a	3	9	3	n/a	43	44	2	n/a	n/a	n/a	n/a	347.253	AF05HAS.jpg
317.87	0.514	Blank	Blank	36.678	n/a	3	9	3	n/a	43	n/a	2	n/a	n/a	n/a	n/a	347.75	n/a
318.401	0.497	happy	Picture	36.164	n/a	3	9	4	n/a	44	53	2	n/a	n/a	n/a	n/a	348.281	BF22HAS.jpg
318.898	0.514	Blank	Blank	35.65	n/a	3	9	4	n/a	44	n/a	2	n/a	n/a	n/a	n/a	348.778	n/a
319.429	0.497	happy	Picture	35.136	n/a	3	9	5	n/a	45	54	2	n/a	n/a	n/a	n/a	349.309	AF23HAS.jpg
319.926	0.514	Blank	Blank	34.622	n/a	3	9	5	n/a	45	n/a	2	n/a	n/a	n/a	n/a	349.806	n/a
320.457	0.497	happy	Picture	34.108	n/a	3	9	6	n/a	46	68	2	n/a	n/a	n/a	n/a	350.337	AM09HAS.jpg
320.954	0.514	Blank	Blank	33.594	n/a	3	9	6	n/a	46	n/a	2	n/a	n/a	n/a	n/a	350.834	n/a
321.485	0.497	happy	Picture	33.08	n/a	3	9	7	n/a	47	64	2	n/a	n/a	n/a	n/a	351.365	BM05HAS.jpg
321.982	0.514	Blank	Blank	32.566	n/a	3	9	7	n/a	47	n/a	2	n/a	n/a	n/a	n/a	351.862	n/a
322.513	0.497	happy	Picture	32.052	n/a	3	9	8	n/a	48	59	2	n/a	n/a	n/a	n/a	352.392	AF31HAS.jpg
323.01	0.514	Blank	Blank	31.538	n/a	3	9	8	n/a	48	n/a	2	n/a	n/a	n/a	n/a	352.89	n/a
323.54	0.497	happy	Picture	31.024	n/a	3	9	9	n/a	49	41	2	n/a	n/a	n/a	n/a	353.42	AF01HAS.jpg
324.038	0.514	Blank	Blank	30.51	n/a	3	9	9	n/a	49	n/a	2	n/a	n/a	n/a	n/a	353.918	n/a
324.568	0.497	happy	Picture	29.996	n/a	3	9	10	n/a	50	73	2	n/a	n/a	n/a	n/a	354.448	AM21HAS.jpg
325.066	0.514	Blank	Blank	29.483	n/a	3	9	10	n/a	50	n/a	2	n/a	n/a	n/a	n/a	354.946	n/a
325.596	0.497	happy	Picture	28.969	n/a	3	9	11	n/a	51	65	2	n/a	n/a	n/a	n/a	355.476	BM06HAS.jpg
326.094	0.514	Blank	Blank	28.455	n/a	3	9	11	n/a	51	n/a	2	n/a	n/a	n/a	n/a	355.974	n/a
326.624	0.497	happy	Picture	27.941	n/a	3	9	12	n/a	52	56	2	n/a	n/a	n/a	n/a	356.504	AF26HAS.jpg
327.121	0.514	Blank	Blank	27.427	n/a	3	9	12	n/a	52	n/a	2	n/a	n/a	n/a	n/a	357.001	n/a
327.652	0.497	happy	Picture	26.913	n/a	3	9	13	n/a	53	45	2	n/a	n/a	n/a	n/a	357.532	BF07HAS.jpg
328.149	0.514	Blank	Blank	26.399	n/a	3	9	13	n/a	53	n/a	2	n/a	n/a	n/a	n/a	358.029	n/a
328.68	0.497	happy	Picture	25.885	n/a	3	9	14	n/a	54	78	2	n/a	n/a	n/a	n/a	358.56	BM26HAS.jpg
329.177	0.514	Blank	Blank	25.371	n/a	3	9	14	n/a	54	n/a	2	n/a	n/a	n/a	n/a	359.057	n/a
329.708	0.497	happy	Picture	24.857	n/a	3	9	15	n/a	55	50	2	n/a	n/a	n/a	n/a	359.588	AF18HAS.jpg
330.205	0.514	Blank	Blank	24.343	n/a	3	9	15	n/a	55	n/a	2	n/a	n/a	n/a	n/a	360.085	n/a
330.736	0.497	happy	Picture	23.829	n/a	3	9	16	n/a	56	47	2	n/a	n/a	n/a	n/a	360.615	BF11HAS.jpg
331.233	0.514	Blank	Blank	23.315	n/a	3	9	16	n/a	56	n/a	2	n/a	n/a	n/a	n/a	361.113	n/a
331.763	0.497	happy	Picture	22.801	n/a	3	9	17	n/a	57	77	2	n/a	n/a	n/a	n/a	361.643	BM25HAS.jpg
332.261	0.514	Blank	Blank	22.287	n/a	3	9	17	n/a	57	n/a	2	n/a	n/a	n/a	n/a	362.141	n/a
332.791	0.497	happy	Picture	21.773	n/a	3	9	18	n/a	58	57	2	n/a	n/a	n/a	n/a	362.671	BF28HAS.jpg
333.289	0.514	Blank	Blank	21.259	n/a	3	9	18	n/a	58	n/a	2	n/a	n/a	n/a	n/a	363.169	n/a
333.819	0.497	happy	Picture	20.745	n/a	3	9	19	n/a	59	61	2	n/a	n/a	n/a	n/a	363.699	AM01HAS.jpg
334.317	0.514	Blank	Blank	20.231	n/a	3	9	19	n/a	59	n/a	2	n/a	n/a	n/a	n/a	364.197	n/a
334.847	0.497	happy	Picture	19.718	n/a	3	9	20	n/a	60	79	2	n/a	n/a	n/a	n/a	364.727	BM28HAS.jpg
335.344	0.514	Blank	Blank	19.204	n/a	3	9	20	n/a	60	n/a	2	n/a	n/a	n/a	n/a	365.224	n/a
335.875	10.014	ITI	Fixation+	9.173	n/a	3	n/a	n/a	n/a	n/a	n/a	n/a	n/a	n/a	n/a	n/a	365.755	n/a
355.062	n/a	ConfirmRating	Rate	n/a	9.168	3	n/a	n/a	0	n/a	n/a	n/a	2	Happy	81	51	384.942	n/a
362.77	n/a	ConfirmRating	Rate	n/a	7.693	3	n/a	n/a	1	n/a	n/a	n/a	3	Happy	0	48	392.65	n/a
362.799	10.014	ITI	Fixation+	96.861	n/a	4	n/a	n/a	n/a	n/a	n/a	n/a	n/a	n/a	n/a	n/a	392.679	n/a
372.829	0.497	angry	Picture	96.348	n/a	4	10	1	n/a	61	119	3	n/a	n/a	n/a	n/a	402.709	BM28ANS.jpg
373.326	0.514	Blank	Blank	95.834	n/a	4	10	1	n/a	61	n/a	3	n/a	n/a	n/a	n/a	403.206	n/a
373.857	0.497	angry	Picture	95.32	n/a	4	10	2	n/a	62	100	3	n/a	n/a	n/a	n/a	403.737	AF32ANS.jpg
374.354	0.514	Blank	Blank	94.806	n/a	4	10	2	n/a	62	n/a	3	n/a	n/a	n/a	n/a	404.234	n/a
374.885	0.497	angry	Picture	94.292	n/a	4	10	3	n/a	63	118	3	n/a	n/a	n/a	n/a	404.765	BM26ANS.jpg
375.382	0.514	Blank	Blank	93.778	n/a	4	10	3	n/a	63	n/a	3	n/a	n/a	n/a	n/a	405.262	n/a
375.913	0.497	angry	Picture	93.264	n/a	4	10	4	n/a	64	89	3	n/a	n/a	n/a	n/a	405.793	AF17ANS.jpg
376.41	0.514	Blank	Blank	92.75	n/a	4	10	4	n/a	64	n/a	3	n/a	n/a	n/a	n/a	406.29	n/a
376.941	0.497	angry	Picture	92.236	n/a	4	10	5	n/a	65	116	3	n/a	n/a	n/a	n/a	406.82	BM24ANS.jpg
377.438	0.514	Blank	Blank	91.722	n/a	4	10	5	n/a	65	n/a	3	n/a	n/a	n/a	n/a	407.318	n/a
377.969	0.497	angry	Picture	91.208	n/a	4	10	6	n/a	66	105	3	n/a	n/a	n/a	n/a	407.848	BM06ANS.jpg
378.466	0.514	Blank	Blank	90.694	n/a	4	10	6	n/a	66	n/a	3	n/a	n/a	n/a	n/a	408.346	n/a
378.996	0.497	angry	Picture	90.18	n/a	4	10	7	n/a	67	106	3	n/a	n/a	n/a	n/a	408.876	AM07ANS.jpg
379.494	0.514	Blank	Blank	89.666	n/a	4	10	7	n/a	67	n/a	3	n/a	n/a	n/a	n/a	409.374	n/a
380.024	0.497	angry	Picture	89.152	n/a	4	10	8	n/a	68	94	3	n/a	n/a	n/a	n/a	409.904	AF23ANS.jpg
380.522	0.514	Blank	Blank	88.639	n/a	4	10	8	n/a	68	n/a	3	n/a	n/a	n/a	n/a	410.401	n/a
381.052	0.497	angry	Picture	88.124	n/a	4	10	9	n/a	69	117	3	n/a	n/a	n/a	n/a	410.932	BM25ANS.jpg
381.549	0.514	Blank	Blank	87.611	n/a	4	10	9	n/a	69	n/a	3	n/a	n/a	n/a	n/a	411.429	n/a
382.08	0.497	angry	Picture	87.097	n/a	4	10	10	n/a	70	90	3	n/a	n/a	n/a	n/a	411.96	AF18ANS.jpg
382.577	0.514	Blank	Blank	86.583	n/a	4	10	10	n/a	70	n/a	3	n/a	n/a	n/a	n/a	412.457	n/a
383.108	0.497	angry	Picture	86.069	n/a	4	10	11	n/a	71	83	3	n/a	n/a	n/a	n/a	412.988	BF04ANS.jpg
383.605	0.514	Blank	Blank	85.555	n/a	4	10	11	n/a	71	n/a	3	n/a	n/a	n/a	n/a	413.485	n/a
384.136	0.497	angry	Picture	85.041	n/a	4	10	12	n/a	72	112	3	n/a	n/a	n/a	n/a	414.016	AM14ANS.jpg
384.633	0.514	Blank	Blank	84.527	n/a	4	10	12	n/a	72	n/a	3	n/a	n/a	n/a	n/a	414.513	n/a
385.164	0.497	angry	Picture	84.013	n/a	4	10	13	n/a	73	102	3	n/a	n/a	n/a	n/a	415.043	BM03ANS.jpg
385.661	0.514	Blank	Blank	83.499	n/a	4	10	13	n/a	73	n/a	3	n/a	n/a	n/a	n/a	415.541	n/a
386.191	0.497	angry	Picture	82.985	n/a	4	10	14	n/a	74	95	3	n/a	n/a	n/a	n/a	416.071	AF25ANS.jpg
386.689	0.514	Blank	Blank	82.471	n/a	4	10	14	n/a	74	n/a	3	n/a	n/a	n/a	n/a	416.569	n/a
387.219	0.497	angry	Picture	81.957	n/a	4	10	15	n/a	75	113	3	n/a	n/a	n/a	n/a	417.099	AM21ANS.jpg
387.717	0.514	Blank	Blank	81.443	n/a	4	10	15	n/a	75	n/a	3	n/a	n/a	n/a	n/a	417.597	n/a
388.247	0.497	angry	Picture	80.929	n/a	4	10	16	n/a	76	88	3	n/a	n/a	n/a	n/a	418.127	AF14ANS.jpg
388.745	0.514	Blank	Blank	80.415	n/a	4	10	16	n/a	76	n/a	3	n/a	n/a	n/a	n/a	418.625	n/a
389.275	0.497	angry	Picture	79.901	n/a	4	10	17	n/a	77	93	3	n/a	n/a	n/a	n/a	419.155	BF22ANS.jpg
389.772	0.514	Blank	Blank	79.387	n/a	4	10	17	n/a	77	n/a	3	n/a	n/a	n/a	n/a	419.652	n/a
390.303	0.497	angry	Picture	78.874	n/a	4	10	18	n/a	78	86	3	n/a	n/a	n/a	n/a	420.183	AF09ANS.jpg
390.8	0.514	Blank	Blank	78.36	n/a	4	10	18	n/a	78	n/a	3	n/a	n/a	n/a	n/a	420.68	n/a
391.331	0.497	angry	Picture	77.846	n/a	4	10	19	n/a	79	92	3	n/a	n/a	n/a	n/a	421.211	AF21ANS.jpg
391.828	0.514	Blank	Blank	77.332	n/a	4	10	19	n/a	79	n/a	3	n/a	n/a	n/a	n/a	421.708	n/a
392.359	0.497	angry	Picture	76.818	n/a	4	10	20	n/a	80	84	3	n/a	n/a	n/a	n/a	422.239	AF05ANS.jpg
392.856	0.514	Blank	Blank	76.304	n/a	4	10	20	n/a	80	n/a	3	n/a	n/a	n/a	n/a	422.736	n/a
393.387	10.014	ITI	Fixation+	66.274	n/a	4	n/a	n/a	n/a	n/a	n/a	n/a	n/a	n/a	n/a	n/a	423.267	n/a
403.417	0.497	neutral	Picture	65.76	n/a	4	11	1	n/a	81	4	1	n/a	n/a	n/a	n/a	433.297	AF05NES.jpg
403.914	0.514	Blank	Blank	65.246	n/a	4	11	1	n/a	81	n/a	1	n/a	n/a	n/a	n/a	433.794	n/a
404.445	0.497	neutral	Picture	64.732	n/a	4	11	2	n/a	82	14	1	n/a	n/a	n/a	n/a	434.325	AF23NES.jpg
404.942	0.514	Blank	Blank	64.218	n/a	4	11	2	n/a	82	n/a	1	n/a	n/a	n/a	n/a	434.822	n/a
405.473	0.497	neutral	Picture	63.704	n/a	4	11	3	n/a	83	19	1	n/a	n/a	n/a	n/a	435.353	AF31NES.jpg
405.97	0.514	Blank	Blank	63.19	n/a	4	11	3	n/a	83	n/a	1	n/a	n/a	n/a	n/a	435.85	n/a
406.5	0.497	neutral	Picture	62.676	n/a	4	11	4	n/a	84	8	1	n/a	n/a	n/a	n/a	436.38	AF14NES.jpg
406.998	0.514	Blank	Blank	62.162	n/a	4	11	4	n/a	84	n/a	1	n/a	n/a	n/a	n/a	436.878	n/a
407.528	0.497	neutral	Picture	61.648	n/a	4	11	5	n/a	85	25	1	n/a	n/a	n/a	n/a	437.408	BM06NES.jpg
408.026	0.514	Blank	Blank	61.134	n/a	4	11	5	n/a	85	n/a	1	n/a	n/a	n/a	n/a	437.906	n/a
408.556	0.497	neutral	Picture	60.62	n/a	4	11	6	n/a	86	9	1	n/a	n/a	n/a	n/a	438.436	AF17NES.jpg
409.054	0.514	Blank	Blank	60.107	n/a	4	11	6	n/a	86	n/a	1	n/a	n/a	n/a	n/a	438.933	n/a
409.584	0.497	neutral	Picture	59.592	n/a	4	11	7	n/a	87	2	1	n/a	n/a	n/a	n/a	439.464	AF03NES.jpg
410.082	0.514	Blank	Blank	59.079	n/a	4	11	7	n/a	87	n/a	1	n/a	n/a	n/a	n/a	439.961	n/a
410.612	0.497	neutral	Picture	58.565	n/a	4	11	8	n/a	88	17	1	n/a	n/a	n/a	n/a	440.492	BF28NES.jpg
411.109	0.514	Blank	Blank	58.051	n/a	4	11	8	n/a	88	n/a	1	n/a	n/a	n/a	n/a	440.989	n/a
411.64	0.497	neutral	Picture	57.537	n/a	4	11	9	n/a	89	6	1	n/a	n/a	n/a	n/a	441.52	AF09NES.jpg
412.137	0.514	Blank	Blank	57.023	n/a	4	11	9	n/a	89	n/a	1	n/a	n/a	n/a	n/a	442.017	n/a
412.668	0.497	neutral	Picture	56.509	n/a	4	11	10	n/a	90	12	1	n/a	n/a	n/a	n/a	442.548	AF21NES.jpg
413.165	0.514	Blank	Blank	55.995	n/a	4	11	10	n/a	90	n/a	1	n/a	n/a	n/a	n/a	443.045	n/a
413.696	0.497	neutral	Picture	55.481	n/a	4	11	11	n/a	91	24	1	n/a	n/a	n/a	n/a	443.576	BM05NES.jpg
414.193	0.514	Blank	Blank	54.967	n/a	4	11	11	n/a	91	n/a	1	n/a	n/a	n/a	n/a	444.073	n/a
414.724	0.497	neutral	Picture	54.453	n/a	4	11	12	n/a	92	34	1	n/a	n/a	n/a	n/a	444.603	AM22NES.jpg
415.221	0.514	Blank	Blank	53.939	n/a	4	11	12	n/a	92	n/a	1	n/a	n/a	n/a	n/a	445.101	n/a
415.751	0.497	neutral	Picture	53.425	n/a	4	11	13	n/a	93	23	1	n/a	n/a	n/a	n/a	445.631	AM04NES.jpg
416.249	0.514	Blank	Blank	52.911	n/a	4	11	13	n/a	93	n/a	1	n/a	n/a	n/a	n/a	446.129	n/a
416.779	0.497	neutral	Picture	52.397	n/a	4	11	14	n/a	94	15	1	n/a	n/a	n/a	n/a	446.659	AF25NES.jpg
417.277	0.514	Blank	Blank	51.883	n/a	4	11	14	n/a	94	n/a	1	n/a	n/a	n/a	n/a	447.157	n/a
417.807	0.497	neutral	Picture	51.37	n/a	4	11	15	n/a	95	37	1	n/a	n/a	n/a	n/a	447.687	BM25NES.jpg
418.304	0.514	Blank	Blank	50.856	n/a	4	11	15	n/a	95	n/a	1	n/a	n/a	n/a	n/a	448.184	n/a
418.835	0.497	neutral	Picture	50.342	n/a	4	11	16	n/a	96	32	1	n/a	n/a	n/a	n/a	448.715	AM14NES.jpg
419.332	0.514	Blank	Blank	49.828	n/a	4	11	16	n/a	96	n/a	1	n/a	n/a	n/a	n/a	449.212	n/a
419.863	0.497	neutral	Picture	49.314	n/a	4	11	17	n/a	97	3	1	n/a	n/a	n/a	n/a	449.743	BF04NES.jpg
420.36	0.514	Blank	Blank	48.8	n/a	4	11	17	n/a	97	n/a	1	n/a	n/a	n/a	n/a	450.24	n/a
420.891	0.497	neutral	Picture	48.286	n/a	4	11	18	n/a	98	16	1	n/a	n/a	n/a	n/a	450.771	AF26NES.jpg
421.388	0.514	Blank	Blank	47.772	n/a	4	11	18	n/a	98	n/a	1	n/a	n/a	n/a	n/a	451.268	n/a
421.919	0.497	neutral	Picture	47.258	n/a	4	11	19	n/a	99	27	1	n/a	n/a	n/a	n/a	451.799	BM08NES.jpg
422.416	0.514	Blank	Blank	46.744	n/a	4	11	19	n/a	99	n/a	1	n/a	n/a	n/a	n/a	452.296	n/a
422.947	0.497	neutral	Picture	46.23	n/a	4	11	20	n/a	100	28	1	n/a	n/a	n/a	n/a	452.827	AM09NES.jpg
423.444	0.514	Blank	Blank	45.716	n/a	4	11	20	n/a	100	n/a	1	n/a	n/a	n/a	n/a	453.324	n/a
423.974	10.014	ITI	Fixation+	35.686	n/a	4	n/a	n/a	n/a	n/a	n/a	n/a	n/a	n/a	n/a	n/a	453.854	n/a
434.005	0.497	angry	Picture	35.172	n/a	4	12	1	n/a	101	81	3	n/a	n/a	n/a	n/a	463.885	AF01ANS.jpg
434.502	0.514	Blank	Blank	34.658	n/a	4	12	1	n/a	101	n/a	3	n/a	n/a	n/a	n/a	464.382	n/a
435.032	0.497	angry	Picture	34.144	n/a	4	12	2	n/a	102	120	3	n/a	n/a	n/a	n/a	464.912	AM35ANS.jpg
435.53	0.514	Blank	Blank	33.63	n/a	4	12	2	n/a	102	n/a	3	n/a	n/a	n/a	n/a	465.41	n/a
436.06	0.497	angry	Picture	33.116	n/a	4	12	3	n/a	103	114	3	n/a	n/a	n/a	n/a	465.94	AM22ANS.jpg
436.558	0.514	Blank	Blank	32.602	n/a	4	12	3	n/a	103	n/a	3	n/a	n/a	n/a	n/a	466.438	n/a
437.088	0.497	angry	Picture	32.088	n/a	4	12	4	n/a	104	109	3	n/a	n/a	n/a	n/a	466.968	AM10ANS.jpg
437.586	0.514	Blank	Blank	31.574	n/a	4	12	4	n/a	104	n/a	3	n/a	n/a	n/a	n/a	467.466	n/a
438.116	0.497	angry	Picture	31.06	n/a	4	12	5	n/a	105	96	3	n/a	n/a	n/a	n/a	467.996	AF26ANS.jpg
438.613	0.514	Blank	Blank	30.547	n/a	4	12	5	n/a	105	n/a	3	n/a	n/a	n/a	n/a	468.493	n/a
439.144	0.497	angry	Picture	30.033	n/a	4	12	6	n/a	106	82	3	n/a	n/a	n/a	n/a	469.024	AF03ANS.jpg
439.641	0.514	Blank	Blank	29.519	n/a	4	12	6	n/a	106	n/a	3	n/a	n/a	n/a	n/a	469.521	n/a
440.172	0.497	angry	Picture	29.005	n/a	4	12	7	n/a	107	97	3	n/a	n/a	n/a	n/a	470.052	BF28ANS.jpg
440.669	0.514	Blank	Blank	28.491	n/a	4	12	7	n/a	107	n/a	3	n/a	n/a	n/a	n/a	470.549	n/a
441.2	0.497	angry	Picture	27.977	n/a	4	12	8	n/a	108	115	3	n/a	n/a	n/a	n/a	471.08	AM23ANS.jpg
441.697	0.514	Blank	Blank	27.463	n/a	4	12	8	n/a	108	n/a	3	n/a	n/a	n/a	n/a	471.577	n/a
442.228	0.497	angry	Picture	26.949	n/a	4	12	9	n/a	109	91	3	n/a	n/a	n/a	n/a	472.108	AF20ANS.jpg
442.725	0.514	Blank	Blank	26.435	n/a	4	12	9	n/a	109	n/a	3	n/a	n/a	n/a	n/a	472.605	n/a
443.256	0.497	angry	Picture	25.921	n/a	4	12	10	n/a	110	87	3	n/a	n/a	n/a	n/a	473.135	BF11ANS.jpg
443.753	0.514	Blank	Blank	25.407	n/a	4	12	10	n/a	110	n/a	3	n/a	n/a	n/a	n/a	473.633	n/a
444.283	0.497	angry	Picture	24.893	n/a	4	12	11	n/a	111	85	3	n/a	n/a	n/a	n/a	474.163	BF07ANS.jpg
444.781	0.514	Blank	Blank	24.379	n/a	4	12	11	n/a	111	n/a	3	n/a	n/a	n/a	n/a	474.661	n/a
445.311	0.497	angry	Picture	23.865	n/a	4	12	12	n/a	112	110	3	n/a	n/a	n/a	n/a	475.191	AM11ANS.jpg
445.809	0.514	Blank	Blank	23.351	n/a	4	12	12	n/a	112	n/a	3	n/a	n/a	n/a	n/a	475.689	n/a
446.339	0.497	angry	Picture	22.837	n/a	4	12	13	n/a	113	111	3	n/a	n/a	n/a	n/a	476.219	BM12ANS.jpg
446.837	0.514	Blank	Blank	22.324	n/a	4	12	13	n/a	113	n/a	3	n/a	n/a	n/a	n/a	476.716	n/a
447.367	0.497	angry	Picture	21.81	n/a	4	12	14	n/a	114	103	3	n/a	n/a	n/a	n/a	477.247	AM04ANS.jpg
447.864	0.514	Blank	Blank	21.296	n/a	4	12	14	n/a	114	n/a	3	n/a	n/a	n/a	n/a	477.744	n/a
448.395	0.497	angry	Picture	20.782	n/a	4	12	15	n/a	115	101	3	n/a	n/a	n/a	n/a	478.275	AM01ANS.jpg
448.892	0.514	Blank	Blank	20.268	n/a	4	12	15	n/a	115	n/a	3	n/a	n/a	n/a	n/a	478.772	n/a
449.423	0.497	angry	Picture	19.754	n/a	4	12	16	n/a	116	104	3	n/a	n/a	n/a	n/a	479.303	BM05ANS.jpg
449.92	0.514	Blank	Blank	19.24	n/a	4	12	16	n/a	116	n/a	3	n/a	n/a	n/a	n/a	479.8	n/a
450.451	0.497	angry	Picture	18.726	n/a	4	12	17	n/a	117	107	3	n/a	n/a	n/a	n/a	480.331	BM08ANS.jpg
450.948	0.514	Blank	Blank	18.212	n/a	4	12	17	n/a	117	n/a	3	n/a	n/a	n/a	n/a	480.828	n/a
451.479	0.497	angry	Picture	17.698	n/a	4	12	18	n/a	118	98	3	n/a	n/a	n/a	n/a	481.358	BF29ANS.jpg
451.976	0.514	Blank	Blank	17.184	n/a	4	12	18	n/a	118	n/a	3	n/a	n/a	n/a	n/a	481.856	n/a
452.506	0.497	angry	Picture	16.67	n/a	4	12	19	n/a	119	99	3	n/a	n/a	n/a	n/a	482.386	AF31ANS.jpg
453.004	0.514	Blank	Blank	16.156	n/a	4	12	19	n/a	119	n/a	3	n/a	n/a	n/a	n/a	482.884	n/a
453.534	0.497	angry	Picture	15.642	n/a	4	12	20	n/a	120	108	3	n/a	n/a	n/a	n/a	483.414	AM09ANS.jpg
454.032	0.514	Blank	Blank	15.128	n/a	4	12	20	n/a	120	n/a	3	n/a	n/a	n/a	n/a	483.912	n/a
454.562	10.014	ITI	Fixation+	5.098	n/a	4	n/a	n/a	n/a	n/a	n/a	n/a	n/a	n/a	n/a	n/a	484.442	n/a
469.674	n/a	ConfirmRating	Rate	n/a	5.09	4	n/a	n/a	0	n/a	n/a	n/a	2	Angry	64	51	499.554	n/a
478.642	n/a	ConfirmRating	Rate	n/a	8.953	4	n/a	n/a	1	n/a	n/a	n/a	3	Angry	78	52	508.522	n/a
