onset	duration	trial_type	event_type	time_until_response	response_time	trial_number	block_num_within_trial	image_seq_num_within_block	question_seq_num_within_block	image_seq_num	picture_number	condition	question_type	block_type	rating	rating_computed	onset_uncorrected	KDEV_imagefile
0.016	10.014	ITI	Fixation+	96.944	n/a	1	n/a	n/a	n/a	n/a	n/a	n/a	n/a	n/a	n/a	n/a	82.938	n/a
10.046	0.497	happy	Picture	96.43	n/a	1	1	1	n/a	1	46	2	n/a	n/a	n/a	n/a	92.968	AF09HAS.jpg
10.543	0.514	Blank	Blank	95.916	n/a	1	1	1	n/a	1	n/a	2	n/a	n/a	n/a	n/a	93.466	n/a
11.074	0.497	happy	Picture	95.402	n/a	1	1	2	n/a	2	69	2	n/a	n/a	n/a	n/a	93.996	AM10HAS.jpg
11.571	0.514	Blank	Blank	94.888	n/a	1	1	2	n/a	2	n/a	2	n/a	n/a	n/a	n/a	94.493	n/a
12.102	0.497	happy	Picture	94.374	n/a	1	1	3	n/a	3	71	2	n/a	n/a	n/a	n/a	95.024	BM12HAS.jpg
12.599	0.514	Blank	Blank	93.86	n/a	1	1	3	n/a	3	n/a	2	n/a	n/a	n/a	n/a	95.521	n/a
13.13	0.497	happy	Picture	93.346	n/a	1	1	4	n/a	4	51	2	n/a	n/a	n/a	n/a	96.052	AF20HAS.jpg
13.627	0.514	Blank	Blank	92.832	n/a	1	1	4	n/a	4	n/a	2	n/a	n/a	n/a	n/a	96.549	n/a
14.157	0.497	happy	Picture	92.318	n/a	1	1	5	n/a	5	67	2	n/a	n/a	n/a	n/a	97.08	BM08HAS.jpg
14.655	0.514	Blank	Blank	91.804	n/a	1	1	5	n/a	5	n/a	2	n/a	n/a	n/a	n/a	97.577	n/a
15.185	0.497	happy	Picture	91.29	n/a	1	1	6	n/a	6	60	2	n/a	n/a	n/a	n/a	98.108	AF32HAS.jpg
15.683	0.514	Blank	Blank	90.776	n/a	1	1	6	n/a	6	n/a	2	n/a	n/a	n/a	n/a	98.605	n/a
16.213	0.497	happy	Picture	90.262	n/a	1	1	7	n/a	7	42	2	n/a	n/a	n/a	n/a	99.135	AF03HAS.jpg
16.711	0.514	Blank	Blank	89.748	n/a	1	1	7	n/a	7	n/a	2	n/a	n/a	n/a	n/a	99.633	n/a
17.241	0.497	happy	Picture	89.234	n/a	1	1	8	n/a	8	55	2	n/a	n/a	n/a	n/a	100.163	AF25HAS.jpg
17.738	0.514	Blank	Blank	88.72	n/a	1	1	8	n/a	8	n/a	2	n/a	n/a	n/a	n/a	100.661	n/a
18.269	0.497	happy	Picture	88.207	n/a	1	1	9	n/a	9	72	2	n/a	n/a	n/a	n/a	101.191	AM14HAS.jpg
18.766	0.514	Blank	Blank	87.693	n/a	1	1	9	n/a	9	n/a	2	n/a	n/a	n/a	n/a	101.689	n/a
19.297	0.497	happy	Picture	87.179	n/a	1	1	10	n/a	10	63	2	n/a	n/a	n/a	n/a	102.219	AM04HAS.jpg
19.794	0.514	Blank	Blank	86.665	n/a	1	1	10	n/a	10	n/a	2	n/a	n/a	n/a	n/a	102.716	n/a
20.325	0.497	happy	Picture	86.151	n/a	1	1	11	n/a	11	58	2	n/a	n/a	n/a	n/a	103.247	BF29HAS.jpg
20.822	0.514	Blank	Blank	85.637	n/a	1	1	11	n/a	11	n/a	2	n/a	n/a	n/a	n/a	103.744	n/a
21.353	0.497	happy	Picture	85.123	n/a	1	1	12	n/a	12	48	2	n/a	n/a	n/a	n/a	104.275	AF14HAS.jpg
21.85	0.514	Blank	Blank	84.609	n/a	1	1	12	n/a	12	n/a	2	n/a	n/a	n/a	n/a	104.772	n/a
22.38	0.497	happy	Picture	84.095	n/a	1	1	13	n/a	13	66	2	n/a	n/a	n/a	n/a	105.303	BM07HAS.jpg
22.878	0.514	Blank	Blank	83.581	n/a	1	1	13	n/a	13	n/a	2	n/a	n/a	n/a	n/a	105.8	n/a
23.408	0.497	happy	Picture	83.067	n/a	1	1	14	n/a	14	70	2	n/a	n/a	n/a	n/a	106.331	BM11HAS.jpg
23.906	0.514	Blank	Blank	82.553	n/a	1	1	14	n/a	14	n/a	2	n/a	n/a	n/a	n/a	106.828	n/a
24.436	0.497	happy	Picture	82.039	n/a	1	1	15	n/a	15	43	2	n/a	n/a	n/a	n/a	107.359	BF04HAS.jpg
24.934	0.514	Blank	Blank	81.525	n/a	1	1	15	n/a	15	n/a	2	n/a	n/a	n/a	n/a	107.856	n/a
25.464	0.497	happy	Picture	81.011	n/a	1	1	16	n/a	16	49	2	n/a	n/a	n/a	n/a	108.386	AF17HAS.jpg
25.961	0.514	Blank	Blank	80.497	n/a	1	1	16	n/a	16	n/a	2	n/a	n/a	n/a	n/a	108.884	n/a
26.492	0.497	happy	Picture	79.983	n/a	1	1	17	n/a	17	75	2	n/a	n/a	n/a	n/a	109.414	AM23HAS.jpg
26.989	0.514	Blank	Blank	79.47	n/a	1	1	17	n/a	17	n/a	2	n/a	n/a	n/a	n/a	109.912	n/a
27.52	0.497	happy	Picture	78.956	n/a	1	1	18	n/a	18	80	2	n/a	n/a	n/a	n/a	110.442	BM35HAS.jpg
28.017	0.514	Blank	Blank	78.442	n/a	1	1	18	n/a	18	n/a	2	n/a	n/a	n/a	n/a	110.94	n/a
28.548	0.497	happy	Picture	77.928	n/a	1	1	19	n/a	19	76	2	n/a	n/a	n/a	n/a	111.47	BM24HAS.jpg
29.045	0.514	Blank	Blank	77.414	n/a	1	1	19	n/a	19	n/a	2	n/a	n/a	n/a	n/a	111.968	n/a
29.576	0.497	happy	Picture	76.9	n/a	1	1	20	n/a	20	74	2	n/a	n/a	n/a	n/a	112.498	AM22HAS.jpg
30.073	0.514	Blank	Blank	76.386	n/a	1	1	20	n/a	20	n/a	2	n/a	n/a	n/a	n/a	112.995	n/a
30.604	10.014	ITI	Fixation+	66.356	n/a	1	n/a	n/a	n/a	n/a	n/a	n/a	n/a	n/a	n/a	n/a	113.526	n/a
40.634	0.497	neutral	Picture	65.842	n/a	1	2	1	n/a	21	33	1	n/a	n/a	n/a	n/a	123.556	AM21NES.jpg
41.131	0.514	Blank	Blank	65.328	n/a	1	2	1	n/a	21	n/a	1	n/a	n/a	n/a	n/a	124.053	n/a
41.662	0.497	neutral	Picture	64.814	n/a	1	2	2	n/a	22	39	1	n/a	n/a	n/a	n/a	124.584	AM28NES.jpg
42.159	0.514	Blank	Blank	64.3	n/a	1	2	2	n/a	22	n/a	1	n/a	n/a	n/a	n/a	125.081	n/a
42.689	0.497	neutral	Picture	63.786	n/a	1	2	3	n/a	23	25	1	n/a	n/a	n/a	n/a	125.612	BM06NES.jpg
43.187	0.514	Blank	Blank	63.272	n/a	1	2	3	n/a	23	n/a	1	n/a	n/a	n/a	n/a	126.109	n/a
43.717	0.497	neutral	Picture	62.758	n/a	1	2	4	n/a	24	5	1	n/a	n/a	n/a	n/a	126.64	BF07NES.jpg
44.215	0.514	Blank	Blank	62.244	n/a	1	2	4	n/a	24	n/a	1	n/a	n/a	n/a	n/a	127.137	n/a
44.745	0.497	neutral	Picture	61.73	n/a	1	2	5	n/a	25	10	1	n/a	n/a	n/a	n/a	127.668	AF18NES.jpg
45.243	0.514	Blank	Blank	61.216	n/a	1	2	5	n/a	25	n/a	1	n/a	n/a	n/a	n/a	128.165	n/a
45.773	0.497	neutral	Picture	60.702	n/a	1	2	6	n/a	26	34	1	n/a	n/a	n/a	n/a	128.695	AM22NES.jpg
46.27	0.514	Blank	Blank	60.188	n/a	1	2	6	n/a	26	n/a	1	n/a	n/a	n/a	n/a	129.193	n/a
46.801	0.497	neutral	Picture	59.674	n/a	1	2	7	n/a	27	36	1	n/a	n/a	n/a	n/a	129.723	BM24NES.jpg
47.298	0.514	Blank	Blank	59.161	n/a	1	2	7	n/a	27	n/a	1	n/a	n/a	n/a	n/a	130.221	n/a
47.829	0.497	neutral	Picture	58.647	n/a	1	2	8	n/a	28	14	1	n/a	n/a	n/a	n/a	130.751	AF23NES.jpg
48.326	0.514	Blank	Blank	58.133	n/a	1	2	8	n/a	28	n/a	1	n/a	n/a	n/a	n/a	131.249	n/a
48.857	0.497	neutral	Picture	57.619	n/a	1	2	9	n/a	29	9	1	n/a	n/a	n/a	n/a	131.779	AF17NES.jpg
49.354	0.514	Blank	Blank	57.105	n/a	1	2	9	n/a	29	n/a	1	n/a	n/a	n/a	n/a	132.276	n/a
49.885	0.497	neutral	Picture	56.591	n/a	1	2	10	n/a	30	19	1	n/a	n/a	n/a	n/a	132.807	AF31NES.jpg
50.382	0.514	Blank	Blank	56.077	n/a	1	2	10	n/a	30	n/a	1	n/a	n/a	n/a	n/a	133.304	n/a
50.912	0.497	neutral	Picture	55.563	n/a	1	2	11	n/a	31	15	1	n/a	n/a	n/a	n/a	133.835	AF25NES.jpg
51.41	0.514	Blank	Blank	55.049	n/a	1	2	11	n/a	31	n/a	1	n/a	n/a	n/a	n/a	134.332	n/a
51.94	0.497	neutral	Picture	54.535	n/a	1	2	12	n/a	32	22	1	n/a	n/a	n/a	n/a	134.863	BM03NES.jpg
52.438	0.514	Blank	Blank	54.021	n/a	1	2	12	n/a	32	n/a	1	n/a	n/a	n/a	n/a	135.36	n/a
52.968	0.497	neutral	Picture	53.507	n/a	1	2	13	n/a	33	11	1	n/a	n/a	n/a	n/a	135.891	AF20NES.jpg
53.466	0.514	Blank	Blank	52.993	n/a	1	2	13	n/a	33	n/a	1	n/a	n/a	n/a	n/a	136.388	n/a
53.996	0.497	neutral	Picture	52.479	n/a	1	2	14	n/a	34	4	1	n/a	n/a	n/a	n/a	136.918	AF05NES.jpg
54.493	0.514	Blank	Blank	51.965	n/a	1	2	14	n/a	34	n/a	1	n/a	n/a	n/a	n/a	137.416	n/a
55.024	0.497	neutral	Picture	51.451	n/a	1	2	15	n/a	35	17	1	n/a	n/a	n/a	n/a	137.946	BF28NES.jpg
55.521	0.514	Blank	Blank	50.937	n/a	1	2	15	n/a	35	n/a	1	n/a	n/a	n/a	n/a	138.444	n/a
56.052	0.497	neutral	Picture	50.424	n/a	1	2	16	n/a	36	13	1	n/a	n/a	n/a	n/a	138.974	BF22NES.jpg
56.549	0.514	Blank	Blank	49.91	n/a	1	2	16	n/a	36	n/a	1	n/a	n/a	n/a	n/a	139.472	n/a
57.08	0.497	neutral	Picture	49.396	n/a	1	2	17	n/a	37	12	1	n/a	n/a	n/a	n/a	140.002	AF21NES.jpg
57.577	0.514	Blank	Blank	48.882	n/a	1	2	17	n/a	37	n/a	1	n/a	n/a	n/a	n/a	140.5	n/a
58.108	0.497	neutral	Picture	48.368	n/a	1	2	18	n/a	38	24	1	n/a	n/a	n/a	n/a	141.03	BM05NES.jpg
58.605	0.514	Blank	Blank	47.854	n/a	1	2	18	n/a	38	n/a	1	n/a	n/a	n/a	n/a	141.527	n/a
59.136	0.497	neutral	Picture	47.34	n/a	1	2	19	n/a	39	29	1	n/a	n/a	n/a	n/a	142.058	AM10NES.jpg
59.633	0.514	Blank	Blank	46.826	n/a	1	2	19	n/a	39	n/a	1	n/a	n/a	n/a	n/a	142.555	n/a
60.163	0.497	neutral	Picture	46.312	n/a	1	2	20	n/a	40	23	1	n/a	n/a	n/a	n/a	143.086	AM04NES.jpg
60.661	0.514	Blank	Blank	45.798	n/a	1	2	20	n/a	40	n/a	1	n/a	n/a	n/a	n/a	143.583	n/a
61.191	10.014	ITI	Fixation+	35.768	n/a	1	n/a	n/a	n/a	n/a	n/a	n/a	n/a	n/a	n/a	n/a	144.114	n/a
71.221	0.497	happy	Picture	35.254	n/a	1	3	1	n/a	41	62	2	n/a	n/a	n/a	n/a	154.144	BM03HAS.jpg
71.719	0.514	Blank	Blank	34.74	n/a	1	3	1	n/a	41	n/a	2	n/a	n/a	n/a	n/a	154.641	n/a
72.249	0.497	happy	Picture	34.226	n/a	1	3	2	n/a	42	52	2	n/a	n/a	n/a	n/a	155.172	AF21HAS.jpg
72.747	0.514	Blank	Blank	33.712	n/a	1	3	2	n/a	42	n/a	2	n/a	n/a	n/a	n/a	155.669	n/a
73.277	0.497	happy	Picture	33.198	n/a	1	3	3	n/a	43	44	2	n/a	n/a	n/a	n/a	156.2	AF05HAS.jpg
73.775	0.514	Blank	Blank	32.684	n/a	1	3	3	n/a	43	n/a	2	n/a	n/a	n/a	n/a	156.697	n/a
74.305	0.497	happy	Picture	32.17	n/a	1	3	4	n/a	44	53	2	n/a	n/a	n/a	n/a	157.227	BF22HAS.jpg
74.802	0.514	Blank	Blank	31.656	n/a	1	3	4	n/a	44	n/a	2	n/a	n/a	n/a	n/a	157.725	n/a
75.333	0.497	happy	Picture	31.142	n/a	1	3	5	n/a	45	54	2	n/a	n/a	n/a	n/a	158.255	AF23HAS.jpg
75.83	0.514	Blank	Blank	30.629	n/a	1	3	5	n/a	45	n/a	2	n/a	n/a	n/a	n/a	158.753	n/a
76.361	0.497	happy	Picture	30.115	n/a	1	3	6	n/a	46	68	2	n/a	n/a	n/a	n/a	159.283	AM09HAS.jpg
76.858	0.514	Blank	Blank	29.601	n/a	1	3	6	n/a	46	n/a	2	n/a	n/a	n/a	n/a	159.78	n/a
77.389	0.497	happy	Picture	29.087	n/a	1	3	7	n/a	47	64	2	n/a	n/a	n/a	n/a	160.311	BM05HAS.jpg
77.886	0.514	Blank	Blank	28.573	n/a	1	3	7	n/a	47	n/a	2	n/a	n/a	n/a	n/a	160.808	n/a
78.417	0.497	happy	Picture	28.059	n/a	1	3	8	n/a	48	59	2	n/a	n/a	n/a	n/a	161.339	AF31HAS.jpg
78.914	0.514	Blank	Blank	27.545	n/a	1	3	8	n/a	48	n/a	2	n/a	n/a	n/a	n/a	161.836	n/a
79.445	0.497	happy	Picture	27.031	n/a	1	3	9	n/a	49	41	2	n/a	n/a	n/a	n/a	162.367	AF01HAS.jpg
79.942	0.514	Blank	Blank	26.517	n/a	1	3	9	n/a	49	n/a	2	n/a	n/a	n/a	n/a	162.864	n/a
80.472	0.497	happy	Picture	26.003	n/a	1	3	10	n/a	50	73	2	n/a	n/a	n/a	n/a	163.395	AM21HAS.jpg
80.97	0.514	Blank	Blank	25.489	n/a	1	3	10	n/a	50	n/a	2	n/a	n/a	n/a	n/a	163.892	n/a
81.5	0.497	happy	Picture	24.975	n/a	1	3	11	n/a	51	65	2	n/a	n/a	n/a	n/a	164.423	BM06HAS.jpg
81.998	0.514	Blank	Blank	24.461	n/a	1	3	11	n/a	51	n/a	2	n/a	n/a	n/a	n/a	164.92	n/a
82.528	0.497	happy	Picture	23.947	n/a	1	3	12	n/a	52	56	2	n/a	n/a	n/a	n/a	165.451	AF26HAS.jpg
83.025	0.514	Blank	Blank	23.433	n/a	1	3	12	n/a	52	n/a	2	n/a	n/a	n/a	n/a	165.948	n/a
83.556	0.497	happy	Picture	22.919	n/a	1	3	13	n/a	53	45	2	n/a	n/a	n/a	n/a	166.478	BF07HAS.jpg
84.053	0.514	Blank	Blank	22.405	n/a	1	3	13	n/a	53	n/a	2	n/a	n/a	n/a	n/a	166.976	n/a
84.584	0.497	happy	Picture	21.892	n/a	1	3	14	n/a	54	78	2	n/a	n/a	n/a	n/a	167.506	BM26HAS.jpg
85.081	0.514	Blank	Blank	21.378	n/a	1	3	14	n/a	54	n/a	2	n/a	n/a	n/a	n/a	168.004	n/a
85.612	0.497	happy	Picture	20.864	n/a	1	3	15	n/a	55	50	2	n/a	n/a	n/a	n/a	168.534	AF18HAS.jpg
86.109	0.514	Blank	Blank	20.35	n/a	1	3	15	n/a	55	n/a	2	n/a	n/a	n/a	n/a	169.031	n/a
86.64	0.497	happy	Picture	19.836	n/a	1	3	16	n/a	56	47	2	n/a	n/a	n/a	n/a	169.562	BF11HAS.jpg
87.137	0.514	Blank	Blank	19.322	n/a	1	3	16	n/a	56	n/a	2	n/a	n/a	n/a	n/a	170.059	n/a
87.668	0.497	happy	Picture	18.808	n/a	1	3	17	n/a	57	77	2	n/a	n/a	n/a	n/a	170.59	BM25HAS.jpg
88.165	0.514	Blank	Blank	18.294	n/a	1	3	17	n/a	57	n/a	2	n/a	n/a	n/a	n/a	171.087	n/a
88.695	0.497	happy	Picture	17.78	n/a	1	3	18	n/a	58	57	2	n/a	n/a	n/a	n/a	171.618	BF28HAS.jpg
89.193	0.514	Blank	Blank	17.266	n/a	1	3	18	n/a	58	n/a	2	n/a	n/a	n/a	n/a	172.115	n/a
89.723	0.497	happy	Picture	16.752	n/a	1	3	19	n/a	59	61	2	n/a	n/a	n/a	n/a	172.646	AM01HAS.jpg
90.221	0.514	Blank	Blank	16.238	n/a	1	3	19	n/a	59	n/a	2	n/a	n/a	n/a	n/a	173.143	n/a
90.751	0.497	happy	Picture	15.724	n/a	1	3	20	n/a	60	79	2	n/a	n/a	n/a	n/a	173.673	BM28HAS.jpg
91.249	0.514	Blank	Blank	15.21	n/a	1	3	20	n/a	60	n/a	2	n/a	n/a	n/a	n/a	174.171	n/a
91.779	10.014	ITI	Fixation+	5.18	n/a	1	n/a	n/a	n/a	n/a	n/a	n/a	n/a	n/a	n/a	n/a	174.701	n/a
106.973	n/a	ConfirmRating	Rate	n/a	5.14	1	n/a	n/a	0	n/a	n/a	n/a	2	Happy	100	55	189.895	n/a
112.803	n/a	ConfirmRating	Rate	n/a	5.819	1	n/a	n/a	1	n/a	n/a	n/a	3	Happy	0	45	195.725	n/a
112.834	10.014	ITI	Fixation+	99.666	n/a	2	n/a	n/a	n/a	n/a	n/a	n/a	n/a	n/a	n/a	n/a	195.756	n/a
122.864	0.497	angry	Picture	99.152	n/a	2	4	1	n/a	61	119	3	n/a	n/a	n/a	n/a	205.787	BM28ANS.jpg
123.362	0.514	Blank	Blank	98.638	n/a	2	4	1	n/a	61	n/a	3	n/a	n/a	n/a	n/a	206.284	n/a
123.892	0.497	angry	Picture	98.124	n/a	2	4	2	n/a	62	100	3	n/a	n/a	n/a	n/a	206.814	AF32ANS.jpg
124.389	0.514	Blank	Blank	97.61	n/a	2	4	2	n/a	62	n/a	3	n/a	n/a	n/a	n/a	207.312	n/a
124.92	0.497	angry	Picture	97.096	n/a	2	4	3	n/a	63	118	3	n/a	n/a	n/a	n/a	207.842	BM26ANS.jpg
125.417	0.514	Blank	Blank	96.582	n/a	2	4	3	n/a	63	n/a	3	n/a	n/a	n/a	n/a	208.34	n/a
125.948	0.497	angry	Picture	96.068	n/a	2	4	4	n/a	64	89	3	n/a	n/a	n/a	n/a	208.87	AF17ANS.jpg
126.445	0.514	Blank	Blank	95.554	n/a	2	4	4	n/a	64	n/a	3	n/a	n/a	n/a	n/a	209.368	n/a
126.976	0.497	angry	Picture	95.041	n/a	2	4	5	n/a	65	116	3	n/a	n/a	n/a	n/a	209.898	BM24ANS.jpg
127.473	0.514	Blank	Blank	94.527	n/a	2	4	5	n/a	65	n/a	3	n/a	n/a	n/a	n/a	210.395	n/a
128.004	0.497	angry	Picture	94.013	n/a	2	4	6	n/a	66	105	3	n/a	n/a	n/a	n/a	210.926	BM06ANS.jpg
128.501	0.514	Blank	Blank	93.499	n/a	2	4	6	n/a	66	n/a	3	n/a	n/a	n/a	n/a	211.423	n/a
129.031	0.497	angry	Picture	92.985	n/a	2	4	7	n/a	67	106	3	n/a	n/a	n/a	n/a	211.954	AM07ANS.jpg
129.529	0.514	Blank	Blank	92.471	n/a	2	4	7	n/a	67	n/a	3	n/a	n/a	n/a	n/a	212.451	n/a
130.059	0.497	angry	Picture	91.957	n/a	2	4	8	n/a	68	94	3	n/a	n/a	n/a	n/a	212.982	AF23ANS.jpg
130.557	0.514	Blank	Blank	91.443	n/a	2	4	8	n/a	68	n/a	3	n/a	n/a	n/a	n/a	213.479	n/a
131.087	0.497	angry	Picture	90.929	n/a	2	4	9	n/a	69	117	3	n/a	n/a	n/a	n/a	214.01	BM25ANS.jpg
131.585	0.514	Blank	Blank	90.415	n/a	2	4	9	n/a	69	n/a	3	n/a	n/a	n/a	n/a	214.507	n/a
132.115	0.497	angry	Picture	89.901	n/a	2	4	10	n/a	70	90	3	n/a	n/a	n/a	n/a	215.037	AF18ANS.jpg
132.613	0.514	Blank	Blank	89.387	n/a	2	4	10	n/a	70	n/a	3	n/a	n/a	n/a	n/a	215.535	n/a
133.143	0.497	angry	Picture	88.873	n/a	2	4	11	n/a	71	83	3	n/a	n/a	n/a	n/a	216.065	BF04ANS.jpg
133.64	0.514	Blank	Blank	88.359	n/a	2	4	11	n/a	71	n/a	3	n/a	n/a	n/a	n/a	216.563	n/a
134.171	0.497	angry	Picture	87.845	n/a	2	4	12	n/a	72	112	3	n/a	n/a	n/a	n/a	217.093	AM14ANS.jpg
134.668	0.514	Blank	Blank	87.331	n/a	2	4	12	n/a	72	n/a	3	n/a	n/a	n/a	n/a	217.591	n/a
135.199	0.497	angry	Picture	86.817	n/a	2	4	13	n/a	73	102	3	n/a	n/a	n/a	n/a	218.121	BM03ANS.jpg
135.696	0.514	Blank	Blank	86.304	n/a	2	4	13	n/a	73	n/a	3	n/a	n/a	n/a	n/a	218.619	n/a
136.227	0.497	angry	Picture	85.79	n/a	2	4	14	n/a	74	95	3	n/a	n/a	n/a	n/a	219.149	AF25ANS.jpg
136.724	0.514	Blank	Blank	85.276	n/a	2	4	14	n/a	74	n/a	3	n/a	n/a	n/a	n/a	219.646	n/a
137.255	0.497	angry	Picture	84.762	n/a	2	4	15	n/a	75	113	3	n/a	n/a	n/a	n/a	220.177	AM21ANS.jpg
137.752	0.514	Blank	Blank	84.248	n/a	2	4	15	n/a	75	n/a	3	n/a	n/a	n/a	n/a	220.674	n/a
138.282	0.497	angry	Picture	83.734	n/a	2	4	16	n/a	76	88	3	n/a	n/a	n/a	n/a	221.205	AF14ANS.jpg
138.78	0.514	Blank	Blank	83.22	n/a	2	4	16	n/a	76	n/a	3	n/a	n/a	n/a	n/a	221.702	n/a
139.31	0.497	angry	Picture	82.706	n/a	2	4	17	n/a	77	93	3	n/a	n/a	n/a	n/a	222.233	BF22ANS.jpg
139.808	0.514	Blank	Blank	82.192	n/a	2	4	17	n/a	77	n/a	3	n/a	n/a	n/a	n/a	222.73	n/a
140.338	0.497	angry	Picture	81.678	n/a	2	4	18	n/a	78	86	3	n/a	n/a	n/a	n/a	223.261	AF09ANS.jpg
140.836	0.514	Blank	Blank	81.164	n/a	2	4	18	n/a	78	n/a	3	n/a	n/a	n/a	n/a	223.758	n/a
141.366	0.497	angry	Picture	80.65	n/a	2	4	19	n/a	79	92	3	n/a	n/a	n/a	n/a	224.288	AF21ANS.jpg
141.863	0.514	Blank	Blank	80.136	n/a	2	4	19	n/a	79	n/a	3	n/a	n/a	n/a	n/a	224.786	n/a
142.394	0.497	angry	Picture	79.622	n/a	2	4	20	n/a	80	84	3	n/a	n/a	n/a	n/a	225.316	AF05ANS.jpg
142.891	0.514	Blank	Blank	79.108	n/a	2	4	20	n/a	80	n/a	3	n/a	n/a	n/a	n/a	225.814	n/a
143.422	10.014	ITI	Fixation+	69.078	n/a	2	n/a	n/a	n/a	n/a	n/a	n/a	n/a	n/a	n/a	n/a	226.344	n/a
153.452	0.497	neutral	Picture	68.564	n/a	2	5	1	n/a	81	4	1	n/a	n/a	n/a	n/a	236.374	AF05NES.jpg
153.949	0.514	Blank	Blank	68.05	n/a	2	5	1	n/a	81	n/a	1	n/a	n/a	n/a	n/a	236.872	n/a
154.48	0.497	neutral	Picture	67.536	n/a	2	5	2	n/a	82	14	1	n/a	n/a	n/a	n/a	237.402	AF23NES.jpg
154.977	0.514	Blank	Blank	67.022	n/a	2	5	2	n/a	82	n/a	1	n/a	n/a	n/a	n/a	237.9	n/a
155.508	0.497	neutral	Picture	66.508	n/a	2	5	3	n/a	83	19	1	n/a	n/a	n/a	n/a	238.43	AF31NES.jpg
156.005	0.514	Blank	Blank	65.995	n/a	2	5	3	n/a	83	n/a	1	n/a	n/a	n/a	n/a	238.928	n/a
156.536	0.497	neutral	Picture	65.481	n/a	2	5	4	n/a	84	8	1	n/a	n/a	n/a	n/a	239.458	AF14NES.jpg
157.033	0.514	Blank	Blank	64.967	n/a	2	5	4	n/a	84	n/a	1	n/a	n/a	n/a	n/a	239.955	n/a
157.564	0.497	neutral	Picture	64.453	n/a	2	5	5	n/a	85	25	1	n/a	n/a	n/a	n/a	240.486	BM06NES.jpg
158.061	0.514	Blank	Blank	63.939	n/a	2	5	5	n/a	85	n/a	1	n/a	n/a	n/a	n/a	240.983	n/a
158.591	0.497	neutral	Picture	63.425	n/a	2	5	6	n/a	86	9	1	n/a	n/a	n/a	n/a	241.514	AF17NES.jpg
159.089	0.514	Blank	Blank	62.911	n/a	2	5	6	n/a	86	n/a	1	n/a	n/a	n/a	n/a	242.011	n/a
159.619	0.497	neutral	Picture	62.397	n/a	2	5	7	n/a	87	2	1	n/a	n/a	n/a	n/a	242.542	AF03NES.jpg
160.117	0.514	Blank	Blank	61.883	n/a	2	5	7	n/a	87	n/a	1	n/a	n/a	n/a	n/a	243.039	n/a
160.647	0.497	neutral	Picture	61.369	n/a	2	5	8	n/a	88	17	1	n/a	n/a	n/a	n/a	243.57	BF28NES.jpg
161.145	0.514	Blank	Blank	60.855	n/a	2	5	8	n/a	88	n/a	1	n/a	n/a	n/a	n/a	244.067	n/a
161.675	0.497	neutral	Picture	60.341	n/a	2	5	9	n/a	89	6	1	n/a	n/a	n/a	n/a	244.597	AF09NES.jpg
162.172	0.514	Blank	Blank	59.827	n/a	2	5	9	n/a	89	n/a	1	n/a	n/a	n/a	n/a	245.095	n/a
162.703	0.497	neutral	Picture	59.313	n/a	2	5	10	n/a	90	12	1	n/a	n/a	n/a	n/a	245.625	AF21NES.jpg
163.2	0.514	Blank	Blank	58.799	n/a	2	5	10	n/a	90	n/a	1	n/a	n/a	n/a	n/a	246.123	n/a
163.731	0.497	neutral	Picture	58.285	n/a	2	5	11	n/a	91	24	1	n/a	n/a	n/a	n/a	246.653	BM05NES.jpg
164.228	0.514	Blank	Blank	57.771	n/a	2	5	11	n/a	91	n/a	1	n/a	n/a	n/a	n/a	247.15	n/a
164.759	0.497	neutral	Picture	57.258	n/a	2	5	12	n/a	92	34	1	n/a	n/a	n/a	n/a	247.681	AM22NES.jpg
165.256	0.514	Blank	Blank	56.744	n/a	2	5	12	n/a	92	n/a	1	n/a	n/a	n/a	n/a	248.178	n/a
165.787	0.497	neutral	Picture	56.23	n/a	2	5	13	n/a	93	23	1	n/a	n/a	n/a	n/a	248.709	AM04NES.jpg
166.284	0.514	Blank	Blank	55.716	n/a	2	5	13	n/a	93	n/a	1	n/a	n/a	n/a	n/a	249.206	n/a
166.814	0.497	neutral	Picture	55.202	n/a	2	5	14	n/a	94	15	1	n/a	n/a	n/a	n/a	249.737	AF25NES.jpg
167.312	0.514	Blank	Blank	54.688	n/a	2	5	14	n/a	94	n/a	1	n/a	n/a	n/a	n/a	250.234	n/a
167.842	0.497	neutral	Picture	54.174	n/a	2	5	15	n/a	95	37	1	n/a	n/a	n/a	n/a	250.765	BM25NES.jpg
168.34	0.514	Blank	Blank	53.66	n/a	2	5	15	n/a	95	n/a	1	n/a	n/a	n/a	n/a	251.262	n/a
168.87	0.497	neutral	Picture	53.146	n/a	2	5	16	n/a	96	32	1	n/a	n/a	n/a	n/a	251.793	AM14NES.jpg
169.368	0.514	Blank	Blank	52.632	n/a	2	5	16	n/a	96	n/a	1	n/a	n/a	n/a	n/a	252.29	n/a
169.898	0.497	neutral	Picture	52.118	n/a	2	5	17	n/a	97	3	1	n/a	n/a	n/a	n/a	252.82	BF04NES.jpg
170.395	0.514	Blank	Blank	51.604	n/a	2	5	17	n/a	97	n/a	1	n/a	n/a	n/a	n/a	253.318	n/a
170.926	0.497	neutral	Picture	51.09	n/a	2	5	18	n/a	98	16	1	n/a	n/a	n/a	n/a	253.848	AF26NES.jpg
171.423	0.514	Blank	Blank	50.576	n/a	2	5	18	n/a	98	n/a	1	n/a	n/a	n/a	n/a	254.346	n/a
171.954	0.497	neutral	Picture	50.062	n/a	2	5	19	n/a	99	27	1	n/a	n/a	n/a	n/a	254.876	BM08NES.jpg
172.451	0.514	Blank	Blank	49.548	n/a	2	5	19	n/a	99	n/a	1	n/a	n/a	n/a	n/a	255.374	n/a
172.982	0.497	neutral	Picture	49.035	n/a	2	5	20	n/a	100	28	1	n/a	n/a	n/a	n/a	255.904	AM09NES.jpg
173.479	0.514	Blank	Blank	48.521	n/a	2	5	20	n/a	100	n/a	1	n/a	n/a	n/a	n/a	256.401	n/a
174.01	10.014	ITI	Fixation+	38.49	n/a	2	n/a	n/a	n/a	n/a	n/a	n/a	n/a	n/a	n/a	n/a	256.932	n/a
184.04	0.497	angry	Picture	37.976	n/a	2	6	1	n/a	101	81	3	n/a	n/a	n/a	n/a	266.962	AF01ANS.jpg
184.537	0.514	Blank	Blank	37.463	n/a	2	6	1	n/a	101	n/a	3	n/a	n/a	n/a	n/a	267.459	n/a
185.068	0.497	angry	Picture	36.949	n/a	2	6	2	n/a	102	120	3	n/a	n/a	n/a	n/a	267.99	AM35ANS.jpg
185.565	0.514	Blank	Blank	36.435	n/a	2	6	2	n/a	102	n/a	3	n/a	n/a	n/a	n/a	268.487	n/a
186.096	0.497	angry	Picture	35.921	n/a	2	6	3	n/a	103	114	3	n/a	n/a	n/a	n/a	269.018	AM22ANS.jpg
186.593	0.514	Blank	Blank	35.407	n/a	2	6	3	n/a	103	n/a	3	n/a	n/a	n/a	n/a	269.515	n/a
187.123	0.497	angry	Picture	34.893	n/a	2	6	4	n/a	104	109	3	n/a	n/a	n/a	n/a	270.046	AM10ANS.jpg
187.621	0.514	Blank	Blank	34.379	n/a	2	6	4	n/a	104	n/a	3	n/a	n/a	n/a	n/a	270.543	n/a
188.151	0.497	angry	Picture	33.865	n/a	2	6	5	n/a	105	96	3	n/a	n/a	n/a	n/a	271.074	AF26ANS.jpg
188.649	0.514	Blank	Blank	33.351	n/a	2	6	5	n/a	105	n/a	3	n/a	n/a	n/a	n/a	271.571	n/a
189.179	0.497	angry	Picture	32.837	n/a	2	6	6	n/a	106	82	3	n/a	n/a	n/a	n/a	272.101	AF03ANS.jpg
189.677	0.514	Blank	Blank	32.323	n/a	2	6	6	n/a	106	n/a	3	n/a	n/a	n/a	n/a	272.599	n/a
190.207	0.497	angry	Picture	31.809	n/a	2	6	7	n/a	107	97	3	n/a	n/a	n/a	n/a	273.129	BF28ANS.jpg
190.704	0.514	Blank	Blank	31.295	n/a	2	6	7	n/a	107	n/a	3	n/a	n/a	n/a	n/a	273.627	n/a
191.235	0.497	angry	Picture	30.781	n/a	2	6	8	n/a	108	115	3	n/a	n/a	n/a	n/a	274.157	AM23ANS.jpg
191.732	0.514	Blank	Blank	30.267	n/a	2	6	8	n/a	108	n/a	3	n/a	n/a	n/a	n/a	274.655	n/a
192.263	0.497	angry	Picture	29.753	n/a	2	6	9	n/a	109	91	3	n/a	n/a	n/a	n/a	275.185	AF20ANS.jpg
192.76	0.514	Blank	Blank	29.239	n/a	2	6	9	n/a	109	n/a	3	n/a	n/a	n/a	n/a	275.683	n/a
193.291	0.497	angry	Picture	28.726	n/a	2	6	10	n/a	110	87	3	n/a	n/a	n/a	n/a	276.213	BF11ANS.jpg
193.788	0.514	Blank	Blank	28.212	n/a	2	6	10	n/a	110	n/a	3	n/a	n/a	n/a	n/a	276.71	n/a
194.319	0.497	angry	Picture	27.698	n/a	2	6	11	n/a	111	85	3	n/a	n/a	n/a	n/a	277.241	BF07ANS.jpg
194.816	0.514	Blank	Blank	27.184	n/a	2	6	11	n/a	111	n/a	3	n/a	n/a	n/a	n/a	277.738	n/a
195.346	0.497	angry	Picture	26.67	n/a	2	6	12	n/a	112	110	3	n/a	n/a	n/a	n/a	278.269	AM11ANS.jpg
195.844	0.514	Blank	Blank	26.156	n/a	2	6	12	n/a	112	n/a	3	n/a	n/a	n/a	n/a	278.766	n/a
196.374	0.497	angry	Picture	25.642	n/a	2	6	13	n/a	113	111	3	n/a	n/a	n/a	n/a	279.297	BM12ANS.jpg
196.872	0.514	Blank	Blank	25.128	n/a	2	6	13	n/a	113	n/a	3	n/a	n/a	n/a	n/a	279.794	n/a
197.402	0.497	angry	Picture	24.614	n/a	2	6	14	n/a	114	103	3	n/a	n/a	n/a	n/a	280.325	AM04ANS.jpg
197.9	0.514	Blank	Blank	24.1	n/a	2	6	14	n/a	114	n/a	3	n/a	n/a	n/a	n/a	280.822	n/a
198.43	0.497	angry	Picture	23.586	n/a	2	6	15	n/a	115	101	3	n/a	n/a	n/a	n/a	281.352	AM01ANS.jpg
198.928	0.514	Blank	Blank	23.072	n/a	2	6	15	n/a	115	n/a	3	n/a	n/a	n/a	n/a	281.85	n/a
199.458	0.497	angry	Picture	22.558	n/a	2	6	16	n/a	116	104	3	n/a	n/a	n/a	n/a	282.38	BM05ANS.jpg
199.955	0.514	Blank	Blank	22.044	n/a	2	6	16	n/a	116	n/a	3	n/a	n/a	n/a	n/a	282.878	n/a
200.486	0.497	angry	Picture	21.53	n/a	2	6	17	n/a	117	107	3	n/a	n/a	n/a	n/a	283.408	BM08ANS.jpg
200.983	0.514	Blank	Blank	21.016	n/a	2	6	17	n/a	117	n/a	3	n/a	n/a	n/a	n/a	283.906	n/a
201.514	0.497	angry	Picture	20.502	n/a	2	6	18	n/a	118	98	3	n/a	n/a	n/a	n/a	284.436	BF29ANS.jpg
202.011	0.514	Blank	Blank	19.989	n/a	2	6	18	n/a	118	n/a	3	n/a	n/a	n/a	n/a	284.933	n/a
202.542	0.497	angry	Picture	19.475	n/a	2	6	19	n/a	119	99	3	n/a	n/a	n/a	n/a	285.464	AF31ANS.jpg
203.039	0.514	Blank	Blank	18.961	n/a	2	6	19	n/a	119	n/a	3	n/a	n/a	n/a	n/a	285.961	n/a
203.57	0.497	angry	Picture	18.447	n/a	2	6	20	n/a	120	108	3	n/a	n/a	n/a	n/a	286.492	AM09ANS.jpg
204.067	0.514	Blank	Blank	17.933	n/a	2	6	20	n/a	120	n/a	3	n/a	n/a	n/a	n/a	286.989	n/a
204.597	10.014	ITI	Fixation+	7.903	n/a	2	n/a	n/a	n/a	n/a	n/a	n/a	n/a	n/a	n/a	n/a	287.52	n/a
222.514	n/a	ConfirmRating	Rate	n/a	7.891	2	n/a	n/a	0	n/a	n/a	n/a	2	Angry	0	45	305.436	n/a
226.781	n/a	ConfirmRating	Rate	n/a	4.26	2	n/a	n/a	1	n/a	n/a	n/a	3	Angry	100	55	309.703	n/a
226.813	15.004	Rest	Picture	n/a	n/a	n/a	n/a	n/a	n/a	n/a	n/a	n/a	0	n/a	0	0	309.735	n/a
241.833	10.014	ITI	Fixation+	94.803	n/a	3	n/a	n/a	n/a	n/a	n/a	n/a	n/a	n/a	n/a	n/a	324.756	n/a
251.863	0.497	happy	Picture	94.289	n/a	3	7	1	n/a	1	46	2	n/a	n/a	n/a	n/a	334.786	AF09HAS.jpg
252.361	0.514	Blank	Blank	93.775	n/a	3	7	1	n/a	1	n/a	2	n/a	n/a	n/a	n/a	335.283	n/a
252.891	0.497	happy	Picture	93.261	n/a	3	7	2	n/a	2	69	2	n/a	n/a	n/a	n/a	335.814	AM10HAS.jpg
253.389	0.514	Blank	Blank	92.747	n/a	3	7	2	n/a	2	n/a	2	n/a	n/a	n/a	n/a	336.311	n/a
253.919	0.497	happy	Picture	92.233	n/a	3	7	3	n/a	3	71	2	n/a	n/a	n/a	n/a	336.841	BM12HAS.jpg
254.417	0.514	Blank	Blank	91.719	n/a	3	7	3	n/a	3	n/a	2	n/a	n/a	n/a	n/a	337.339	n/a
254.947	0.497	happy	Picture	91.205	n/a	3	7	4	n/a	4	51	2	n/a	n/a	n/a	n/a	337.869	AF20HAS.jpg
255.444	0.514	Blank	Blank	90.691	n/a	3	7	4	n/a	4	n/a	2	n/a	n/a	n/a	n/a	338.367	n/a
255.975	0.497	happy	Picture	90.177	n/a	3	7	5	n/a	5	67	2	n/a	n/a	n/a	n/a	338.897	BM08HAS.jpg
256.472	0.514	Blank	Blank	89.663	n/a	3	7	5	n/a	5	n/a	2	n/a	n/a	n/a	n/a	339.395	n/a
257.003	0.497	happy	Picture	89.149	n/a	3	7	6	n/a	6	60	2	n/a	n/a	n/a	n/a	339.925	AF32HAS.jpg
257.5	0.514	Blank	Blank	88.635	n/a	3	7	6	n/a	6	n/a	2	n/a	n/a	n/a	n/a	340.423	n/a
258.031	0.497	happy	Picture	88.121	n/a	3	7	7	n/a	7	42	2	n/a	n/a	n/a	n/a	340.953	AF03HAS.jpg
258.528	0.514	Blank	Blank	87.607	n/a	3	7	7	n/a	7	n/a	2	n/a	n/a	n/a	n/a	341.45	n/a
259.059	0.497	happy	Picture	87.093	n/a	3	7	8	n/a	8	55	2	n/a	n/a	n/a	n/a	341.981	AF25HAS.jpg
259.556	0.514	Blank	Blank	86.58	n/a	3	7	8	n/a	8	n/a	2	n/a	n/a	n/a	n/a	342.478	n/a
260.087	0.497	happy	Picture	86.066	n/a	3	7	9	n/a	9	72	2	n/a	n/a	n/a	n/a	343.009	AM14HAS.jpg
260.584	0.514	Blank	Blank	85.552	n/a	3	7	9	n/a	9	n/a	2	n/a	n/a	n/a	n/a	343.506	n/a
261.114	0.497	happy	Picture	85.038	n/a	3	7	10	n/a	10	63	2	n/a	n/a	n/a	n/a	344.037	AM04HAS.jpg
261.612	0.514	Blank	Blank	84.524	n/a	3	7	10	n/a	10	n/a	2	n/a	n/a	n/a	n/a	344.534	n/a
262.142	0.497	happy	Picture	84.01	n/a	3	7	11	n/a	11	58	2	n/a	n/a	n/a	n/a	345.065	BF29HAS.jpg
262.64	0.514	Blank	Blank	83.496	n/a	3	7	11	n/a	11	n/a	2	n/a	n/a	n/a	n/a	345.562	n/a
263.17	0.497	happy	Picture	82.982	n/a	3	7	12	n/a	12	48	2	n/a	n/a	n/a	n/a	346.092	AF14HAS.jpg
263.668	0.514	Blank	Blank	82.468	n/a	3	7	12	n/a	12	n/a	2	n/a	n/a	n/a	n/a	346.59	n/a
264.198	0.497	happy	Picture	81.954	n/a	3	7	13	n/a	13	66	2	n/a	n/a	n/a	n/a	347.12	BM07HAS.jpg
264.695	0.514	Blank	Blank	81.44	n/a	3	7	13	n/a	13	n/a	2	n/a	n/a	n/a	n/a	347.618	n/a
265.226	0.497	happy	Picture	80.926	n/a	3	7	14	n/a	14	70	2	n/a	n/a	n/a	n/a	348.148	BM11HAS.jpg
265.723	0.514	Blank	Blank	80.412	n/a	3	7	14	n/a	14	n/a	2	n/a	n/a	n/a	n/a	348.646	n/a
266.254	0.497	happy	Picture	79.898	n/a	3	7	15	n/a	15	43	2	n/a	n/a	n/a	n/a	349.176	BF04HAS.jpg
266.751	0.514	Blank	Blank	79.384	n/a	3	7	15	n/a	15	n/a	2	n/a	n/a	n/a	n/a	349.673	n/a
267.282	0.497	happy	Picture	78.87	n/a	3	7	16	n/a	16	49	2	n/a	n/a	n/a	n/a	350.204	AF17HAS.jpg
267.779	0.514	Blank	Blank	78.356	n/a	3	7	16	n/a	16	n/a	2	n/a	n/a	n/a	n/a	350.701	n/a
268.31	0.497	happy	Picture	77.842	n/a	3	7	17	n/a	17	75	2	n/a	n/a	n/a	n/a	351.232	AM23HAS.jpg
268.807	0.514	Blank	Blank	77.329	n/a	3	7	17	n/a	17	n/a	2	n/a	n/a	n/a	n/a	351.729	n/a
269.337	0.497	happy	Picture	76.815	n/a	3	7	18	n/a	18	80	2	n/a	n/a	n/a	n/a	352.26	BM35HAS.jpg
269.835	0.514	Blank	Blank	76.301	n/a	3	7	18	n/a	18	n/a	2	n/a	n/a	n/a	n/a	352.757	n/a
270.365	0.497	happy	Picture	75.787	n/a	3	7	19	n/a	19	76	2	n/a	n/a	n/a	n/a	353.288	BM24HAS.jpg
270.863	0.514	Blank	Blank	75.273	n/a	3	7	19	n/a	19	n/a	2	n/a	n/a	n/a	n/a	353.785	n/a
271.393	0.497	happy	Picture	74.759	n/a	3	7	20	n/a	20	74	2	n/a	n/a	n/a	n/a	354.315	AM22HAS.jpg
271.89	0.514	Blank	Blank	74.245	n/a	3	7	20	n/a	20	n/a	2	n/a	n/a	n/a	n/a	354.813	n/a
272.421	10.014	ITI	Fixation+	64.215	n/a	3	n/a	n/a	n/a	n/a	n/a	n/a	n/a	n/a	n/a	n/a	355.343	n/a
282.451	0.497	neutral	Picture	63.701	n/a	3	8	1	n/a	21	33	1	n/a	n/a	n/a	n/a	365.373	AM21NES.jpg
282.948	0.514	Blank	Blank	63.187	n/a	3	8	1	n/a	21	n/a	1	n/a	n/a	n/a	n/a	365.871	n/a
283.479	0.497	neutral	Picture	62.673	n/a	3	8	2	n/a	22	39	1	n/a	n/a	n/a	n/a	366.401	AM28NES.jpg
283.976	0.514	Blank	Blank	62.159	n/a	3	8	2	n/a	22	n/a	1	n/a	n/a	n/a	n/a	366.899	n/a
284.507	0.497	neutral	Picture	61.645	n/a	3	8	3	n/a	23	25	1	n/a	n/a	n/a	n/a	367.429	BM06NES.jpg
285.004	0.514	Blank	Blank	61.131	n/a	3	8	3	n/a	23	n/a	1	n/a	n/a	n/a	n/a	367.927	n/a
285.535	0.497	neutral	Picture	60.617	n/a	3	8	4	n/a	24	5	1	n/a	n/a	n/a	n/a	368.457	BF07NES.jpg
286.032	0.514	Blank	Blank	60.103	n/a	3	8	4	n/a	24	n/a	1	n/a	n/a	n/a	n/a	368.954	n/a
286.563	0.497	neutral	Picture	59.589	n/a	3	8	5	n/a	25	10	1	n/a	n/a	n/a	n/a	369.485	AF18NES.jpg
287.06	0.514	Blank	Blank	59.075	n/a	3	8	5	n/a	25	n/a	1	n/a	n/a	n/a	n/a	369.982	n/a
287.591	0.497	neutral	Picture	58.561	n/a	3	8	6	n/a	26	34	1	n/a	n/a	n/a	n/a	370.513	AM22NES.jpg
288.088	0.514	Blank	Blank	58.048	n/a	3	8	6	n/a	26	n/a	1	n/a	n/a	n/a	n/a	371.01	n/a
288.618	0.497	neutral	Picture	57.534	n/a	3	8	7	n/a	27	36	1	n/a	n/a	n/a	n/a	371.541	BM24NES.jpg
289.116	0.514	Blank	Blank	57.02	n/a	3	8	7	n/a	27	n/a	1	n/a	n/a	n/a	n/a	372.038	n/a
289.646	0.497	neutral	Picture	56.506	n/a	3	8	8	n/a	28	14	1	n/a	n/a	n/a	n/a	372.569	AF23NES.jpg
290.144	0.514	Blank	Blank	55.992	n/a	3	8	8	n/a	28	n/a	1	n/a	n/a	n/a	n/a	373.066	n/a
290.674	0.497	neutral	Picture	55.478	n/a	3	8	9	n/a	29	9	1	n/a	n/a	n/a	n/a	373.597	AF17NES.jpg
291.172	0.514	Blank	Blank	54.964	n/a	3	8	9	n/a	29	n/a	1	n/a	n/a	n/a	n/a	374.094	n/a
291.702	0.497	neutral	Picture	54.45	n/a	3	8	10	n/a	30	19	1	n/a	n/a	n/a	n/a	374.624	AF31NES.jpg
292.2	0.514	Blank	Blank	53.936	n/a	3	8	10	n/a	30	n/a	1	n/a	n/a	n/a	n/a	375.122	n/a
292.73	0.497	neutral	Picture	53.422	n/a	3	8	11	n/a	31	15	1	n/a	n/a	n/a	n/a	375.652	AF25NES.jpg
293.227	0.514	Blank	Blank	52.908	n/a	3	8	11	n/a	31	n/a	1	n/a	n/a	n/a	n/a	376.15	n/a
293.758	0.497	neutral	Picture	52.394	n/a	3	8	12	n/a	32	22	1	n/a	n/a	n/a	n/a	376.68	BM03NES.jpg
294.255	0.514	Blank	Blank	51.88	n/a	3	8	12	n/a	32	n/a	1	n/a	n/a	n/a	n/a	377.178	n/a
294.786	0.497	neutral	Picture	51.366	n/a	3	8	13	n/a	33	11	1	n/a	n/a	n/a	n/a	377.708	AF20NES.jpg
295.283	0.514	Blank	Blank	50.852	n/a	3	8	13	n/a	33	n/a	1	n/a	n/a	n/a	n/a	378.205	n/a
295.814	0.497	neutral	Picture	50.338	n/a	3	8	14	n/a	34	4	1	n/a	n/a	n/a	n/a	378.736	AF05NES.jpg
296.311	0.514	Blank	Blank	49.824	n/a	3	8	14	n/a	34	n/a	1	n/a	n/a	n/a	n/a	379.233	n/a
296.842	0.497	neutral	Picture	49.311	n/a	3	8	15	n/a	35	17	1	n/a	n/a	n/a	n/a	379.764	BF28NES.jpg
297.339	0.514	Blank	Blank	48.797	n/a	3	8	15	n/a	35	n/a	1	n/a	n/a	n/a	n/a	380.261	n/a
297.869	0.497	neutral	Picture	48.283	n/a	3	8	16	n/a	36	13	1	n/a	n/a	n/a	n/a	380.792	BF22NES.jpg
298.367	0.514	Blank	Blank	47.769	n/a	3	8	16	n/a	36	n/a	1	n/a	n/a	n/a	n/a	381.289	n/a
298.897	0.497	neutral	Picture	47.255	n/a	3	8	17	n/a	37	12	1	n/a	n/a	n/a	n/a	381.82	AF21NES.jpg
299.395	0.514	Blank	Blank	46.741	n/a	3	8	17	n/a	37	n/a	1	n/a	n/a	n/a	n/a	382.317	n/a
299.925	0.497	neutral	Picture	46.227	n/a	3	8	18	n/a	38	24	1	n/a	n/a	n/a	n/a	382.848	BM05NES.jpg
300.423	0.514	Blank	Blank	45.713	n/a	3	8	18	n/a	38	n/a	1	n/a	n/a	n/a	n/a	383.345	n/a
300.953	0.497	neutral	Picture	45.199	n/a	3	8	19	n/a	39	29	1	n/a	n/a	n/a	n/a	383.875	AM10NES.jpg
301.45	0.514	Blank	Blank	44.685	n/a	3	8	19	n/a	39	n/a	1	n/a	n/a	n/a	n/a	384.373	n/a
301.981	0.497	neutral	Picture	44.171	n/a	3	8	20	n/a	40	23	1	n/a	n/a	n/a	n/a	384.903	AM04NES.jpg
302.478	0.514	Blank	Blank	43.657	n/a	3	8	20	n/a	40	n/a	1	n/a	n/a	n/a	n/a	385.401	n/a
303.009	10.014	ITI	Fixation+	33.627	n/a	3	n/a	n/a	n/a	n/a	n/a	n/a	n/a	n/a	n/a	n/a	385.931	n/a
313.039	0.497	happy	Picture	33.113	n/a	3	9	1	n/a	41	62	2	n/a	n/a	n/a	n/a	395.961	BM03HAS.jpg
313.536	0.514	Blank	Blank	32.599	n/a	3	9	1	n/a	41	n/a	2	n/a	n/a	n/a	n/a	396.459	n/a
314.067	0.497	happy	Picture	32.085	n/a	3	9	2	n/a	42	52	2	n/a	n/a	n/a	n/a	396.989	AF21HAS.jpg
314.564	0.514	Blank	Blank	31.571	n/a	3	9	2	n/a	42	n/a	2	n/a	n/a	n/a	n/a	397.486	n/a
315.095	0.497	happy	Picture	31.057	n/a	3	9	3	n/a	43	44	2	n/a	n/a	n/a	n/a	398.017	AF05HAS.jpg
315.592	0.514	Blank	Blank	30.543	n/a	3	9	3	n/a	43	n/a	2	n/a	n/a	n/a	n/a	398.514	n/a
316.123	0.497	happy	Picture	30.029	n/a	3	9	4	n/a	44	53	2	n/a	n/a	n/a	n/a	399.045	BF22HAS.jpg
316.62	0.514	Blank	Blank	29.516	n/a	3	9	4	n/a	44	n/a	2	n/a	n/a	n/a	n/a	399.542	n/a
317.15	0.497	happy	Picture	29.002	n/a	3	9	5	n/a	45	54	2	n/a	n/a	n/a	n/a	400.073	AF23HAS.jpg
317.648	0.514	Blank	Blank	28.488	n/a	3	9	5	n/a	45	n/a	2	n/a	n/a	n/a	n/a	400.57	n/a
318.178	0.497	happy	Picture	27.974	n/a	3	9	6	n/a	46	68	2	n/a	n/a	n/a	n/a	401.101	AM09HAS.jpg
318.676	0.514	Blank	Blank	27.46	n/a	3	9	6	n/a	46	n/a	2	n/a	n/a	n/a	n/a	401.598	n/a
319.206	0.497	happy	Picture	26.946	n/a	3	9	7	n/a	47	64	2	n/a	n/a	n/a	n/a	402.129	BM05HAS.jpg
319.704	0.514	Blank	Blank	26.432	n/a	3	9	7	n/a	47	n/a	2	n/a	n/a	n/a	n/a	402.626	n/a
320.234	0.497	happy	Picture	25.918	n/a	3	9	8	n/a	48	59	2	n/a	n/a	n/a	n/a	403.156	AF31HAS.jpg
320.731	0.514	Blank	Blank	25.404	n/a	3	9	8	n/a	48	n/a	2	n/a	n/a	n/a	n/a	403.654	n/a
321.262	0.497	happy	Picture	24.89	n/a	3	9	9	n/a	49	41	2	n/a	n/a	n/a	n/a	404.184	AF01HAS.jpg
321.759	0.514	Blank	Blank	24.376	n/a	3	9	9	n/a	49	n/a	2	n/a	n/a	n/a	n/a	404.682	n/a
322.29	0.497	happy	Picture	23.862	n/a	3	9	10	n/a	50	73	2	n/a	n/a	n/a	n/a	405.212	AM21HAS.jpg
322.787	0.514	Blank	Blank	23.348	n/a	3	9	10	n/a	50	n/a	2	n/a	n/a	n/a	n/a	405.71	n/a
323.318	0.497	happy	Picture	22.834	n/a	3	9	11	n/a	51	65	2	n/a	n/a	n/a	n/a	406.24	BM06HAS.jpg
323.815	0.514	Blank	Blank	22.32	n/a	3	9	11	n/a	51	n/a	2	n/a	n/a	n/a	n/a	406.738	n/a
324.346	0.497	happy	Picture	21.806	n/a	3	9	12	n/a	52	56	2	n/a	n/a	n/a	n/a	407.268	AF26HAS.jpg
324.843	0.514	Blank	Blank	21.292	n/a	3	9	12	n/a	52	n/a	2	n/a	n/a	n/a	n/a	407.765	n/a
325.374	0.497	happy	Picture	20.779	n/a	3	9	13	n/a	53	45	2	n/a	n/a	n/a	n/a	408.296	BF07HAS.jpg
325.871	0.514	Blank	Blank	20.264	n/a	3	9	13	n/a	53	n/a	2	n/a	n/a	n/a	n/a	408.793	n/a
326.401	0.497	happy	Picture	19.751	n/a	3	9	14	n/a	54	78	2	n/a	n/a	n/a	n/a	409.324	BM26HAS.jpg
326.899	0.514	Blank	Blank	19.237	n/a	3	9	14	n/a	54	n/a	2	n/a	n/a	n/a	n/a	409.821	n/a
327.429	0.497	happy	Picture	18.723	n/a	3	9	15	n/a	55	50	2	n/a	n/a	n/a	n/a	410.352	AF18HAS.jpg
327.927	0.514	Blank	Blank	18.209	n/a	3	9	15	n/a	55	n/a	2	n/a	n/a	n/a	n/a	410.849	n/a
328.457	0.497	happy	Picture	17.695	n/a	3	9	16	n/a	56	47	2	n/a	n/a	n/a	n/a	411.38	BF11HAS.jpg
328.955	0.514	Blank	Blank	17.181	n/a	3	9	16	n/a	56	n/a	2	n/a	n/a	n/a	n/a	411.877	n/a
329.485	0.497	happy	Picture	16.667	n/a	3	9	17	n/a	57	77	2	n/a	n/a	n/a	n/a	412.407	BM25HAS.jpg
329.982	0.514	Blank	Blank	16.153	n/a	3	9	17	n/a	57	n/a	2	n/a	n/a	n/a	n/a	412.905	n/a
330.513	0.497	happy	Picture	15.639	n/a	3	9	18	n/a	58	57	2	n/a	n/a	n/a	n/a	413.435	BF28HAS.jpg
331.01	0.514	Blank	Blank	15.125	n/a	3	9	18	n/a	58	n/a	2	n/a	n/a	n/a	n/a	413.933	n/a
331.541	0.497	happy	Picture	14.611	n/a	3	9	19	n/a	59	61	2	n/a	n/a	n/a	n/a	414.463	AM01HAS.jpg
332.038	0.514	Blank	Blank	14.097	n/a	3	9	19	n/a	59	n/a	2	n/a	n/a	n/a	n/a	414.961	n/a
332.569	0.497	happy	Picture	13.583	n/a	3	9	20	n/a	60	79	2	n/a	n/a	n/a	n/a	415.491	BM28HAS.jpg
333.066	0.514	Blank	Blank	13.069	n/a	3	9	20	n/a	60	n/a	2	n/a	n/a	n/a	n/a	415.988	n/a
333.597	10.014	ITI	Fixation+	3.039	n/a	3	n/a	n/a	n/a	n/a	n/a	n/a	n/a	n/a	n/a	n/a	416.519	n/a
346.649	n/a	ConfirmRating	Rate	n/a	3.034	3	n/a	n/a	0	n/a	n/a	n/a	2	Happy	99	53	429.572	n/a
349.5	n/a	ConfirmRating	Rate	n/a	2.835	3	n/a	n/a	1	n/a	n/a	n/a	3	Happy	0	49	432.423	n/a
349.529	10.014	ITI	Fixation+	95.18	n/a	4	n/a	n/a	n/a	n/a	n/a	n/a	n/a	n/a	n/a	n/a	432.451	n/a
359.559	0.497	angry	Picture	94.666	n/a	4	10	1	n/a	61	119	3	n/a	n/a	n/a	n/a	442.481	BM28ANS.jpg
360.056	0.514	Blank	Blank	94.152	n/a	4	10	1	n/a	61	n/a	3	n/a	n/a	n/a	n/a	442.979	n/a
360.587	0.497	angry	Picture	93.638	n/a	4	10	2	n/a	62	100	3	n/a	n/a	n/a	n/a	443.509	AF32ANS.jpg
361.084	0.514	Blank	Blank	93.124	n/a	4	10	2	n/a	62	n/a	3	n/a	n/a	n/a	n/a	444.007	n/a
361.615	0.497	angry	Picture	92.61	n/a	4	10	3	n/a	63	118	3	n/a	n/a	n/a	n/a	444.537	BM26ANS.jpg
362.112	0.514	Blank	Blank	92.096	n/a	4	10	3	n/a	63	n/a	3	n/a	n/a	n/a	n/a	445.034	n/a
362.643	0.497	angry	Picture	91.582	n/a	4	10	4	n/a	64	89	3	n/a	n/a	n/a	n/a	445.565	AF17ANS.jpg
363.14	0.514	Blank	Blank	91.068	n/a	4	10	4	n/a	64	n/a	3	n/a	n/a	n/a	n/a	446.062	n/a
363.671	0.497	angry	Picture	90.555	n/a	4	10	5	n/a	65	116	3	n/a	n/a	n/a	n/a	446.593	BM24ANS.jpg
364.168	0.514	Blank	Blank	90.041	n/a	4	10	5	n/a	65	n/a	3	n/a	n/a	n/a	n/a	447.09	n/a
364.698	0.497	angry	Picture	89.527	n/a	4	10	6	n/a	66	105	3	n/a	n/a	n/a	n/a	447.621	BM06ANS.jpg
365.196	0.514	Blank	Blank	89.013	n/a	4	10	6	n/a	66	n/a	3	n/a	n/a	n/a	n/a	448.118	n/a
365.726	0.497	angry	Picture	88.499	n/a	4	10	7	n/a	67	106	3	n/a	n/a	n/a	n/a	448.649	AM07ANS.jpg
366.224	0.514	Blank	Blank	87.985	n/a	4	10	7	n/a	67	n/a	3	n/a	n/a	n/a	n/a	449.146	n/a
366.754	0.497	angry	Picture	87.471	n/a	4	10	8	n/a	68	94	3	n/a	n/a	n/a	n/a	449.676	AF23ANS.jpg
367.252	0.514	Blank	Blank	86.957	n/a	4	10	8	n/a	68	n/a	3	n/a	n/a	n/a	n/a	450.174	n/a
367.782	0.497	angry	Picture	86.443	n/a	4	10	9	n/a	69	117	3	n/a	n/a	n/a	n/a	450.704	BM25ANS.jpg
368.279	0.514	Blank	Blank	85.929	n/a	4	10	9	n/a	69	n/a	3	n/a	n/a	n/a	n/a	451.202	n/a
368.81	0.497	angry	Picture	85.415	n/a	4	10	10	n/a	70	90	3	n/a	n/a	n/a	n/a	451.732	AF18ANS.jpg
369.307	0.514	Blank	Blank	84.901	n/a	4	10	10	n/a	70	n/a	3	n/a	n/a	n/a	n/a	452.229	n/a
369.838	0.497	angry	Picture	84.387	n/a	4	10	11	n/a	71	83	3	n/a	n/a	n/a	n/a	452.76	BF04ANS.jpg
370.335	0.514	Blank	Blank	83.873	n/a	4	10	11	n/a	71	n/a	3	n/a	n/a	n/a	n/a	453.257	n/a
370.866	0.497	angry	Picture	83.359	n/a	4	10	12	n/a	72	112	3	n/a	n/a	n/a	n/a	453.788	AM14ANS.jpg
371.363	0.514	Blank	Blank	82.845	n/a	4	10	12	n/a	72	n/a	3	n/a	n/a	n/a	n/a	454.285	n/a
371.894	0.497	angry	Picture	82.331	n/a	4	10	13	n/a	73	102	3	n/a	n/a	n/a	n/a	454.816	BM03ANS.jpg
372.391	0.514	Blank	Blank	81.818	n/a	4	10	13	n/a	73	n/a	3	n/a	n/a	n/a	n/a	455.313	n/a
372.921	0.497	angry	Picture	81.304	n/a	4	10	14	n/a	74	95	3	n/a	n/a	n/a	n/a	455.844	AF25ANS.jpg
373.419	0.514	Blank	Blank	80.79	n/a	4	10	14	n/a	74	n/a	3	n/a	n/a	n/a	n/a	456.341	n/a
373.949	0.497	angry	Picture	80.276	n/a	4	10	15	n/a	75	113	3	n/a	n/a	n/a	n/a	456.872	AM21ANS.jpg
374.447	0.514	Blank	Blank	79.762	n/a	4	10	15	n/a	75	n/a	3	n/a	n/a	n/a	n/a	457.369	n/a
374.977	0.497	angry	Picture	79.248	n/a	4	10	16	n/a	76	88	3	n/a	n/a	n/a	n/a	457.899	AF14ANS.jpg
375.474	0.514	Blank	Blank	78.734	n/a	4	10	16	n/a	76	n/a	3	n/a	n/a	n/a	n/a	458.397	n/a
376.005	0.497	angry	Picture	78.22	n/a	4	10	17	n/a	77	93	3	n/a	n/a	n/a	n/a	458.927	BF22ANS.jpg
376.502	0.514	Blank	Blank	77.706	n/a	4	10	17	n/a	77	n/a	3	n/a	n/a	n/a	n/a	459.425	n/a
377.033	0.497	angry	Picture	77.192	n/a	4	10	18	n/a	78	86	3	n/a	n/a	n/a	n/a	459.955	AF09ANS.jpg
377.53	0.514	Blank	Blank	76.678	n/a	4	10	18	n/a	78	n/a	3	n/a	n/a	n/a	n/a	460.453	n/a
378.061	0.497	angry	Picture	76.164	n/a	4	10	19	n/a	79	92	3	n/a	n/a	n/a	n/a	460.983	AF21ANS.jpg
378.558	0.514	Blank	Blank	75.65	n/a	4	10	19	n/a	79	n/a	3	n/a	n/a	n/a	n/a	461.481	n/a
379.089	0.497	angry	Picture	75.136	n/a	4	10	20	n/a	80	84	3	n/a	n/a	n/a	n/a	462.011	AF05ANS.jpg
379.586	0.514	Blank	Blank	74.622	n/a	4	10	20	n/a	80	n/a	3	n/a	n/a	n/a	n/a	462.508	n/a
380.117	10.014	ITI	Fixation+	64.592	n/a	4	n/a	n/a	n/a	n/a	n/a	n/a	n/a	n/a	n/a	n/a	463.039	n/a
390.147	0.497	neutral	Picture	64.078	n/a	4	11	1	n/a	81	4	1	n/a	n/a	n/a	n/a	473.069	AF05NES.jpg
390.644	0.514	Blank	Blank	63.564	n/a	4	11	1	n/a	81	n/a	1	n/a	n/a	n/a	n/a	473.566	n/a
391.174	0.497	neutral	Picture	63.05	n/a	4	11	2	n/a	82	14	1	n/a	n/a	n/a	n/a	474.097	AF23NES.jpg
391.672	0.514	Blank	Blank	62.536	n/a	4	11	2	n/a	82	n/a	1	n/a	n/a	n/a	n/a	474.594	n/a
392.202	0.497	neutral	Picture	62.023	n/a	4	11	3	n/a	83	19	1	n/a	n/a	n/a	n/a	475.125	AF31NES.jpg
392.7	0.514	Blank	Blank	61.509	n/a	4	11	3	n/a	83	n/a	1	n/a	n/a	n/a	n/a	475.622	n/a
393.23	0.497	neutral	Picture	60.995	n/a	4	11	4	n/a	84	8	1	n/a	n/a	n/a	n/a	476.153	AF14NES.jpg
393.728	0.514	Blank	Blank	60.481	n/a	4	11	4	n/a	84	n/a	1	n/a	n/a	n/a	n/a	476.65	n/a
394.258	0.497	neutral	Picture	59.967	n/a	4	11	5	n/a	85	25	1	n/a	n/a	n/a	n/a	477.18	BM06NES.jpg
394.756	0.514	Blank	Blank	59.453	n/a	4	11	5	n/a	85	n/a	1	n/a	n/a	n/a	n/a	477.678	n/a
395.286	0.497	neutral	Picture	58.939	n/a	4	11	6	n/a	86	9	1	n/a	n/a	n/a	n/a	478.208	AF17NES.jpg
395.784	0.514	Blank	Blank	58.425	n/a	4	11	6	n/a	86	n/a	1	n/a	n/a	n/a	n/a	478.706	n/a
396.314	0.497	neutral	Picture	57.911	n/a	4	11	7	n/a	87	2	1	n/a	n/a	n/a	n/a	479.236	AF03NES.jpg
396.811	0.514	Blank	Blank	57.397	n/a	4	11	7	n/a	87	n/a	1	n/a	n/a	n/a	n/a	479.734	n/a
397.342	0.497	neutral	Picture	56.883	n/a	4	11	8	n/a	88	17	1	n/a	n/a	n/a	n/a	480.264	BF28NES.jpg
397.839	0.514	Blank	Blank	56.369	n/a	4	11	8	n/a	88	n/a	1	n/a	n/a	n/a	n/a	480.762	n/a
398.37	0.497	neutral	Picture	55.855	n/a	4	11	9	n/a	89	6	1	n/a	n/a	n/a	n/a	481.292	AF09NES.jpg
398.867	0.514	Blank	Blank	55.341	n/a	4	11	9	n/a	89	n/a	1	n/a	n/a	n/a	n/a	481.789	n/a
399.398	0.497	neutral	Picture	54.827	n/a	4	11	10	n/a	90	12	1	n/a	n/a	n/a	n/a	482.32	AF21NES.jpg
399.895	0.514	Blank	Blank	54.313	n/a	4	11	10	n/a	90	n/a	1	n/a	n/a	n/a	n/a	482.817	n/a
400.425	0.497	neutral	Picture	53.799	n/a	4	11	11	n/a	91	24	1	n/a	n/a	n/a	n/a	483.348	BM05NES.jpg
400.923	0.514	Blank	Blank	53.286	n/a	4	11	11	n/a	91	n/a	1	n/a	n/a	n/a	n/a	483.845	n/a
401.453	0.497	neutral	Picture	52.772	n/a	4	11	12	n/a	92	34	1	n/a	n/a	n/a	n/a	484.376	AM22NES.jpg
401.951	0.514	Blank	Blank	52.258	n/a	4	11	12	n/a	92	n/a	1	n/a	n/a	n/a	n/a	484.873	n/a
402.481	0.497	neutral	Picture	51.744	n/a	4	11	13	n/a	93	23	1	n/a	n/a	n/a	n/a	485.404	AM04NES.jpg
402.979	0.514	Blank	Blank	51.23	n/a	4	11	13	n/a	93	n/a	1	n/a	n/a	n/a	n/a	485.901	n/a
403.509	0.497	neutral	Picture	50.716	n/a	4	11	14	n/a	94	15	1	n/a	n/a	n/a	n/a	486.432	AF25NES.jpg
404.007	0.514	Blank	Blank	50.202	n/a	4	11	14	n/a	94	n/a	1	n/a	n/a	n/a	n/a	486.929	n/a
404.537	0.497	neutral	Picture	49.688	n/a	4	11	15	n/a	95	37	1	n/a	n/a	n/a	n/a	487.459	BM25NES.jpg
405.034	0.514	Blank	Blank	49.174	n/a	4	11	15	n/a	95	n/a	1	n/a	n/a	n/a	n/a	487.957	n/a
405.565	0.497	neutral	Picture	48.66	n/a	4	11	16	n/a	96	32	1	n/a	n/a	n/a	n/a	488.487	AM14NES.jpg
406.062	0.514	Blank	Blank	48.146	n/a	4	11	16	n/a	96	n/a	1	n/a	n/a	n/a	n/a	488.985	n/a
406.593	0.497	neutral	Picture	47.632	n/a	4	11	17	n/a	97	3	1	n/a	n/a	n/a	n/a	489.515	BF04NES.jpg
407.09	0.514	Blank	Blank	47.118	n/a	4	11	17	n/a	97	n/a	1	n/a	n/a	n/a	n/a	490.012	n/a
407.621	0.497	neutral	Picture	46.604	n/a	4	11	18	n/a	98	16	1	n/a	n/a	n/a	n/a	490.543	AF26NES.jpg
408.118	0.514	Blank	Blank	46.09	n/a	4	11	18	n/a	98	n/a	1	n/a	n/a	n/a	n/a	491.04	n/a
408.649	0.497	neutral	Picture	45.576	n/a	4	11	19	n/a	99	27	1	n/a	n/a	n/a	n/a	491.571	BM08NES.jpg
409.146	0.514	Blank	Blank	45.062	n/a	4	11	19	n/a	99	n/a	1	n/a	n/a	n/a	n/a	492.068	n/a
409.676	0.497	neutral	Picture	44.549	n/a	4	11	20	n/a	100	28	1	n/a	n/a	n/a	n/a	492.599	AM09NES.jpg
410.174	0.514	Blank	Blank	44.035	n/a	4	11	20	n/a	100	n/a	1	n/a	n/a	n/a	n/a	493.096	n/a
410.704	10.014	ITI	Fixation+	34.004	n/a	4	n/a	n/a	n/a	n/a	n/a	n/a	n/a	n/a	n/a	n/a	493.627	n/a
420.734	0.497	angry	Picture	33.491	n/a	4	12	1	n/a	101	81	3	n/a	n/a	n/a	n/a	503.657	AF01ANS.jpg
421.232	0.514	Blank	Blank	32.977	n/a	4	12	1	n/a	101	n/a	3	n/a	n/a	n/a	n/a	504.154	n/a
421.762	0.497	angry	Picture	32.463	n/a	4	12	2	n/a	102	120	3	n/a	n/a	n/a	n/a	504.685	AM35ANS.jpg
422.26	0.514	Blank	Blank	31.949	n/a	4	12	2	n/a	102	n/a	3	n/a	n/a	n/a	n/a	505.182	n/a
422.79	0.497	angry	Picture	31.435	n/a	4	12	3	n/a	103	114	3	n/a	n/a	n/a	n/a	505.712	AM22ANS.jpg
423.288	0.514	Blank	Blank	30.921	n/a	4	12	3	n/a	103	n/a	3	n/a	n/a	n/a	n/a	506.21	n/a
423.818	0.497	angry	Picture	30.407	n/a	4	12	4	n/a	104	109	3	n/a	n/a	n/a	n/a	506.74	AM10ANS.jpg
424.315	0.514	Blank	Blank	29.893	n/a	4	12	4	n/a	104	n/a	3	n/a	n/a	n/a	n/a	507.238	n/a
424.846	0.497	angry	Picture	29.379	n/a	4	12	5	n/a	105	96	3	n/a	n/a	n/a	n/a	507.768	AF26ANS.jpg
425.343	0.514	Blank	Blank	28.865	n/a	4	12	5	n/a	105	n/a	3	n/a	n/a	n/a	n/a	508.266	n/a
425.874	0.497	angry	Picture	28.351	n/a	4	12	6	n/a	106	82	3	n/a	n/a	n/a	n/a	508.796	AF03ANS.jpg
426.371	0.514	Blank	Blank	27.837	n/a	4	12	6	n/a	106	n/a	3	n/a	n/a	n/a	n/a	509.293	n/a
426.902	0.497	angry	Picture	27.323	n/a	4	12	7	n/a	107	97	3	n/a	n/a	n/a	n/a	509.824	BF28ANS.jpg
427.399	0.514	Blank	Blank	26.809	n/a	4	12	7	n/a	107	n/a	3	n/a	n/a	n/a	n/a	510.321	n/a
427.93	0.497	angry	Picture	26.295	n/a	4	12	8	n/a	108	115	3	n/a	n/a	n/a	n/a	510.852	AM23ANS.jpg
428.427	0.514	Blank	Blank	25.781	n/a	4	12	8	n/a	108	n/a	3	n/a	n/a	n/a	n/a	511.349	n/a
428.957	0.497	angry	Picture	25.267	n/a	4	12	9	n/a	109	91	3	n/a	n/a	n/a	n/a	511.88	AF20ANS.jpg
429.455	0.514	Blank	Blank	24.754	n/a	4	12	9	n/a	109	n/a	3	n/a	n/a	n/a	n/a	512.377	n/a
429.985	0.497	angry	Picture	24.24	n/a	4	12	10	n/a	110	87	3	n/a	n/a	n/a	n/a	512.908	BF11ANS.jpg
430.483	0.514	Blank	Blank	23.726	n/a	4	12	10	n/a	110	n/a	3	n/a	n/a	n/a	n/a	513.405	n/a
431.013	0.497	angry	Picture	23.212	n/a	4	12	11	n/a	111	85	3	n/a	n/a	n/a	n/a	513.936	BF07ANS.jpg
431.511	0.514	Blank	Blank	22.698	n/a	4	12	11	n/a	111	n/a	3	n/a	n/a	n/a	n/a	514.433	n/a
432.041	0.497	angry	Picture	22.184	n/a	4	12	12	n/a	112	110	3	n/a	n/a	n/a	n/a	514.963	AM11ANS.jpg
432.538	0.514	Blank	Blank	21.67	n/a	4	12	12	n/a	112	n/a	3	n/a	n/a	n/a	n/a	515.461	n/a
433.069	0.497	angry	Picture	21.156	n/a	4	12	13	n/a	113	111	3	n/a	n/a	n/a	n/a	515.991	BM12ANS.jpg
433.566	0.514	Blank	Blank	20.642	n/a	4	12	13	n/a	113	n/a	3	n/a	n/a	n/a	n/a	516.489	n/a
434.097	0.497	angry	Picture	20.128	n/a	4	12	14	n/a	114	103	3	n/a	n/a	n/a	n/a	517.019	AM04ANS.jpg
434.594	0.514	Blank	Blank	19.614	n/a	4	12	14	n/a	114	n/a	3	n/a	n/a	n/a	n/a	517.517	n/a
435.125	0.497	angry	Picture	19.1	n/a	4	12	15	n/a	115	101	3	n/a	n/a	n/a	n/a	518.047	AM01ANS.jpg
435.622	0.514	Blank	Blank	18.586	n/a	4	12	15	n/a	115	n/a	3	n/a	n/a	n/a	n/a	518.544	n/a
436.153	0.497	angry	Picture	18.072	n/a	4	12	16	n/a	116	104	3	n/a	n/a	n/a	n/a	519.075	BM05ANS.jpg
436.65	0.514	Blank	Blank	17.558	n/a	4	12	16	n/a	116	n/a	3	n/a	n/a	n/a	n/a	519.572	n/a
437.181	0.497	angry	Picture	17.044	n/a	4	12	17	n/a	117	107	3	n/a	n/a	n/a	n/a	520.103	BM08ANS.jpg
437.678	0.514	Blank	Blank	16.53	n/a	4	12	17	n/a	117	n/a	3	n/a	n/a	n/a	n/a	520.6	n/a
438.209	0.497	angry	Picture	16.017	n/a	4	12	18	n/a	118	98	3	n/a	n/a	n/a	n/a	521.131	BF29ANS.jpg
438.706	0.514	Blank	Blank	15.503	n/a	4	12	18	n/a	118	n/a	3	n/a	n/a	n/a	n/a	521.628	n/a
439.236	0.497	angry	Picture	14.989	n/a	4	12	19	n/a	119	99	3	n/a	n/a	n/a	n/a	522.159	AF31ANS.jpg
439.734	0.514	Blank	Blank	14.475	n/a	4	12	19	n/a	119	n/a	3	n/a	n/a	n/a	n/a	522.656	n/a
440.264	0.497	angry	Picture	13.961	n/a	4	12	20	n/a	120	108	3	n/a	n/a	n/a	n/a	523.187	AM09ANS.jpg
440.762	0.514	Blank	Blank	13.447	n/a	4	12	20	n/a	120	n/a	3	n/a	n/a	n/a	n/a	523.684	n/a
441.292	10.014	ITI	Fixation+	3.417	n/a	4	n/a	n/a	n/a	n/a	n/a	n/a	n/a	n/a	n/a	n/a	524.214	n/a
454.722	n/a	ConfirmRating	Rate	n/a	3.415	4	n/a	n/a	0	n/a	n/a	n/a	2	Angry	0	49	537.645	n/a
458.248	n/a	ConfirmRating	Rate	n/a	3.498	4	n/a	n/a	1	n/a	n/a	n/a	3	Angry	100	51	541.171	n/a
