onset	duration	trial_type	event_type	time_until_response	response_time	trial_number	block_num_within_trial	image_seq_num_within_block	question_seq_num_within_block	image_seq_num	picture_number	condition	question_type	block_type	rating	rating_computed	onset_uncorrected	KDEV_imagefile
0.008	10.014	ITI	Fixation+	103.259	n/a	1	n/a	n/a	n/a	n/a	n/a	n/a	n/a	n/a	n/a	n/a	30.98	n/a
10.038	0.497	happy	Picture	102.745	n/a	1	1	1	n/a	1	108	3	n/a	n/a	n/a	n/a	41.011	AM09ANS.jpg
10.535	0.514	Blank	Blank	102.231	n/a	1	1	1	n/a	1	n/a	3	n/a	n/a	n/a	n/a	41.508	n/a
11.066	0.497	happy	Picture	101.717	n/a	1	1	2	n/a	2	99	3	n/a	n/a	n/a	n/a	42.038	AF31ANS.jpg
11.563	0.514	Blank	Blank	101.203	n/a	1	1	2	n/a	2	n/a	3	n/a	n/a	n/a	n/a	42.536	n/a
12.094	0.497	happy	Picture	100.689	n/a	1	1	3	n/a	3	98	3	n/a	n/a	n/a	n/a	43.066	BF29ANS.jpg
12.591	0.514	Blank	Blank	100.176	n/a	1	1	3	n/a	3	n/a	3	n/a	n/a	n/a	n/a	43.564	n/a
13.122	0.497	happy	Picture	99.662	n/a	1	1	4	n/a	4	107	3	n/a	n/a	n/a	n/a	44.094	BM08ANS.jpg
13.619	0.514	Blank	Blank	99.148	n/a	1	1	4	n/a	4	n/a	3	n/a	n/a	n/a	n/a	44.592	n/a
14.15	0.497	happy	Picture	98.634	n/a	1	1	5	n/a	5	104	3	n/a	n/a	n/a	n/a	45.122	BM05ANS.jpg
14.647	0.514	Blank	Blank	98.12	n/a	1	1	5	n/a	5	n/a	3	n/a	n/a	n/a	n/a	45.619	n/a
15.178	0.497	happy	Picture	97.606	n/a	1	1	6	n/a	6	101	3	n/a	n/a	n/a	n/a	46.15	AM01ANS.jpg
15.675	0.514	Blank	Blank	97.092	n/a	1	1	6	n/a	6	n/a	3	n/a	n/a	n/a	n/a	46.647	n/a
16.205	0.497	happy	Picture	96.578	n/a	1	1	7	n/a	7	103	3	n/a	n/a	n/a	n/a	47.178	AM04ANS.jpg
16.703	0.514	Blank	Blank	96.064	n/a	1	1	7	n/a	7	n/a	3	n/a	n/a	n/a	n/a	47.675	n/a
17.233	0.497	happy	Picture	95.55	n/a	1	1	8	n/a	8	111	3	n/a	n/a	n/a	n/a	48.206	BM12ANS.jpg
17.731	0.514	Blank	Blank	95.036	n/a	1	1	8	n/a	8	n/a	3	n/a	n/a	n/a	n/a	48.703	n/a
18.261	0.497	happy	Picture	94.522	n/a	1	1	9	n/a	9	110	3	n/a	n/a	n/a	n/a	49.233	AM11ANS.jpg
18.758	0.514	Blank	Blank	94.008	n/a	1	1	9	n/a	9	n/a	3	n/a	n/a	n/a	n/a	49.731	n/a
19.289	0.497	happy	Picture	93.494	n/a	1	1	10	n/a	10	85	3	n/a	n/a	n/a	n/a	50.261	BF07ANS.jpg
19.786	0.514	Blank	Blank	92.98	n/a	1	1	10	n/a	10	n/a	3	n/a	n/a	n/a	n/a	50.759	n/a
20.317	0.497	happy	Picture	92.466	n/a	1	1	11	n/a	11	87	3	n/a	n/a	n/a	n/a	51.289	BF11ANS.jpg
20.814	0.514	Blank	Blank	91.952	n/a	1	1	11	n/a	11	n/a	3	n/a	n/a	n/a	n/a	51.787	n/a
21.345	0.497	happy	Picture	91.439	n/a	1	1	12	n/a	12	91	3	n/a	n/a	n/a	n/a	52.317	AF20ANS.jpg
21.842	0.514	Blank	Blank	90.925	n/a	1	1	12	n/a	12	n/a	3	n/a	n/a	n/a	n/a	52.815	n/a
22.373	0.497	happy	Picture	90.411	n/a	1	1	13	n/a	13	115	3	n/a	n/a	n/a	n/a	53.345	AM23ANS.jpg
22.87	0.514	Blank	Blank	89.897	n/a	1	1	13	n/a	13	n/a	3	n/a	n/a	n/a	n/a	53.842	n/a
23.401	0.497	happy	Picture	89.383	n/a	1	1	14	n/a	14	97	3	n/a	n/a	n/a	n/a	54.373	BF28ANS.jpg
23.898	0.514	Blank	Blank	88.869	n/a	1	1	14	n/a	14	n/a	3	n/a	n/a	n/a	n/a	54.87	n/a
24.428	0.497	happy	Picture	88.355	n/a	1	1	15	n/a	15	82	3	n/a	n/a	n/a	n/a	55.401	AF03ANS.jpg
24.926	0.514	Blank	Blank	87.841	n/a	1	1	15	n/a	15	n/a	3	n/a	n/a	n/a	n/a	55.898	n/a
25.456	0.497	happy	Picture	87.327	n/a	1	1	16	n/a	16	96	3	n/a	n/a	n/a	n/a	56.429	AF26ANS.jpg
25.954	0.514	Blank	Blank	86.813	n/a	1	1	16	n/a	16	n/a	3	n/a	n/a	n/a	n/a	56.926	n/a
26.484	0.497	happy	Picture	86.299	n/a	1	1	17	n/a	17	109	3	n/a	n/a	n/a	n/a	57.457	AM10ANS.jpg
26.982	0.514	Blank	Blank	85.785	n/a	1	1	17	n/a	17	n/a	3	n/a	n/a	n/a	n/a	57.954	n/a
27.512	0.497	happy	Picture	85.271	n/a	1	1	18	n/a	18	114	3	n/a	n/a	n/a	n/a	58.484	AM22ANS.jpg
28.009	0.514	Blank	Blank	84.757	n/a	1	1	18	n/a	18	n/a	3	n/a	n/a	n/a	n/a	58.982	n/a
28.54	0.497	happy	Picture	84.243	n/a	1	1	19	n/a	19	120	3	n/a	n/a	n/a	n/a	59.512	AM35ANS.jpg
29.037	0.514	Blank	Blank	83.729	n/a	1	1	19	n/a	19	n/a	3	n/a	n/a	n/a	n/a	60.01	n/a
29.568	0.497	happy	Picture	83.215	n/a	1	1	20	n/a	20	81	3	n/a	n/a	n/a	n/a	60.54	AF01ANS.jpg
30.065	0.514	Blank	Blank	82.702	n/a	1	1	20	n/a	20	n/a	3	n/a	n/a	n/a	n/a	61.038	n/a
30.596	10.014	ITI	Fixation+	72.671	n/a	1	n/a	n/a	n/a	n/a	n/a	n/a	n/a	n/a	n/a	n/a	61.568	n/a
40.626	0.497	neutral	Picture	72.157	n/a	1	2	1	n/a	21	28	1	n/a	n/a	n/a	n/a	71.598	AM09NES.jpg
41.123	0.514	Blank	Blank	71.643	n/a	1	2	1	n/a	21	n/a	1	n/a	n/a	n/a	n/a	72.096	n/a
41.654	0.497	neutral	Picture	71.13	n/a	1	2	2	n/a	22	27	1	n/a	n/a	n/a	n/a	72.626	BM08NES.jpg
42.151	0.514	Blank	Blank	70.616	n/a	1	2	2	n/a	22	n/a	1	n/a	n/a	n/a	n/a	73.124	n/a
42.682	0.497	neutral	Picture	70.102	n/a	1	2	3	n/a	23	16	1	n/a	n/a	n/a	n/a	73.654	AF26NES.jpg
43.179	0.514	Blank	Blank	69.588	n/a	1	2	3	n/a	23	n/a	1	n/a	n/a	n/a	n/a	74.151	n/a
43.709	0.497	neutral	Picture	69.074	n/a	1	2	4	n/a	24	3	1	n/a	n/a	n/a	n/a	74.682	BF04NES.jpg
44.207	0.514	Blank	Blank	68.56	n/a	1	2	4	n/a	24	n/a	1	n/a	n/a	n/a	n/a	75.179	n/a
44.737	0.497	neutral	Picture	68.046	n/a	1	2	5	n/a	25	32	1	n/a	n/a	n/a	n/a	75.71	AM14NES.jpg
45.235	0.514	Blank	Blank	67.532	n/a	1	2	5	n/a	25	n/a	1	n/a	n/a	n/a	n/a	76.207	n/a
45.765	0.497	neutral	Picture	67.018	n/a	1	2	6	n/a	26	37	1	n/a	n/a	n/a	n/a	76.738	BM25NES.jpg
46.263	0.514	Blank	Blank	66.504	n/a	1	2	6	n/a	26	n/a	1	n/a	n/a	n/a	n/a	77.235	n/a
46.793	0.497	neutral	Picture	65.99	n/a	1	2	7	n/a	27	15	1	n/a	n/a	n/a	n/a	77.766	AF25NES.jpg
47.291	0.514	Blank	Blank	65.476	n/a	1	2	7	n/a	27	n/a	1	n/a	n/a	n/a	n/a	78.263	n/a
47.821	0.497	neutral	Picture	64.962	n/a	1	2	8	n/a	28	23	1	n/a	n/a	n/a	n/a	78.793	AM04NES.jpg
48.318	0.514	Blank	Blank	64.448	n/a	1	2	8	n/a	28	n/a	1	n/a	n/a	n/a	n/a	79.291	n/a
48.849	0.497	neutral	Picture	63.934	n/a	1	2	9	n/a	29	34	1	n/a	n/a	n/a	n/a	79.821	AM22NES.jpg
49.346	0.514	Blank	Blank	63.42	n/a	1	2	9	n/a	29	n/a	1	n/a	n/a	n/a	n/a	80.319	n/a
49.877	0.497	neutral	Picture	62.907	n/a	1	2	10	n/a	30	24	1	n/a	n/a	n/a	n/a	80.849	BM05NES.jpg
50.374	0.514	Blank	Blank	62.393	n/a	1	2	10	n/a	30	n/a	1	n/a	n/a	n/a	n/a	81.347	n/a
50.905	0.497	neutral	Picture	61.879	n/a	1	2	11	n/a	31	12	1	n/a	n/a	n/a	n/a	81.877	AF21NES.jpg
51.402	0.514	Blank	Blank	61.365	n/a	1	2	11	n/a	31	n/a	1	n/a	n/a	n/a	n/a	82.374	n/a
51.933	0.497	neutral	Picture	60.851	n/a	1	2	12	n/a	32	6	1	n/a	n/a	n/a	n/a	82.905	AF09NES.jpg
52.43	0.514	Blank	Blank	60.337	n/a	1	2	12	n/a	32	n/a	1	n/a	n/a	n/a	n/a	83.402	n/a
52.961	0.497	neutral	Picture	59.823	n/a	1	2	13	n/a	33	17	1	n/a	n/a	n/a	n/a	83.933	BF28NES.jpg
53.458	0.514	Blank	Blank	59.309	n/a	1	2	13	n/a	33	n/a	1	n/a	n/a	n/a	n/a	84.43	n/a
53.988	0.497	neutral	Picture	58.795	n/a	1	2	14	n/a	34	2	1	n/a	n/a	n/a	n/a	84.961	AF03NES.jpg
54.486	0.514	Blank	Blank	58.281	n/a	1	2	14	n/a	34	n/a	1	n/a	n/a	n/a	n/a	85.458	n/a
55.016	0.497	neutral	Picture	57.767	n/a	1	2	15	n/a	35	9	1	n/a	n/a	n/a	n/a	85.989	AF17NES.jpg
55.514	0.514	Blank	Blank	57.253	n/a	1	2	15	n/a	35	n/a	1	n/a	n/a	n/a	n/a	86.486	n/a
56.044	0.497	neutral	Picture	56.739	n/a	1	2	16	n/a	36	25	1	n/a	n/a	n/a	n/a	87.016	BM06NES.jpg
56.542	0.514	Blank	Blank	56.225	n/a	1	2	16	n/a	36	n/a	1	n/a	n/a	n/a	n/a	87.514	n/a
57.072	0.497	neutral	Picture	55.711	n/a	1	2	17	n/a	37	8	1	n/a	n/a	n/a	n/a	88.044	AF14NES.jpg
57.569	0.514	Blank	Blank	55.197	n/a	1	2	17	n/a	37	n/a	1	n/a	n/a	n/a	n/a	88.542	n/a
58.1	0.497	neutral	Picture	54.683	n/a	1	2	18	n/a	38	19	1	n/a	n/a	n/a	n/a	89.072	AF31NES.jpg
58.597	0.514	Blank	Blank	54.169	n/a	1	2	18	n/a	38	n/a	1	n/a	n/a	n/a	n/a	89.57	n/a
59.128	0.497	neutral	Picture	53.656	n/a	1	2	19	n/a	39	14	1	n/a	n/a	n/a	n/a	90.1	AF23NES.jpg
59.625	0.514	Blank	Blank	53.142	n/a	1	2	19	n/a	39	n/a	1	n/a	n/a	n/a	n/a	90.597	n/a
60.156	0.497	neutral	Picture	52.628	n/a	1	2	20	n/a	40	4	1	n/a	n/a	n/a	n/a	91.128	AF05NES.jpg
60.653	0.514	Blank	Blank	52.114	n/a	1	2	20	n/a	40	n/a	1	n/a	n/a	n/a	n/a	91.625	n/a
61.184	10.014	ITI	Fixation+	42.084	n/a	1	n/a	n/a	n/a	n/a	n/a	n/a	n/a	n/a	n/a	n/a	92.156	n/a
71.214	0.497	happy	Picture	41.57	n/a	1	3	1	n/a	41	84	3	n/a	n/a	n/a	n/a	102.186	AF05ANS.jpg
71.711	0.514	Blank	Blank	41.056	n/a	1	3	1	n/a	41	n/a	3	n/a	n/a	n/a	n/a	102.683	n/a
72.242	0.497	happy	Picture	40.542	n/a	1	3	2	n/a	42	92	3	n/a	n/a	n/a	n/a	103.214	AF21ANS.jpg
72.739	0.514	Blank	Blank	40.028	n/a	1	3	2	n/a	42	n/a	3	n/a	n/a	n/a	n/a	103.711	n/a
73.269	0.497	happy	Picture	39.514	n/a	1	3	3	n/a	43	86	3	n/a	n/a	n/a	n/a	104.242	AF09ANS.jpg
73.767	0.514	Blank	Blank	39.0	n/a	1	3	3	n/a	43	n/a	3	n/a	n/a	n/a	n/a	104.739	n/a
74.297	0.497	happy	Picture	38.486	n/a	1	3	4	n/a	44	93	3	n/a	n/a	n/a	n/a	105.27	BF22ANS.jpg
74.795	0.514	Blank	Blank	37.972	n/a	1	3	4	n/a	44	n/a	3	n/a	n/a	n/a	n/a	105.767	n/a
75.325	0.497	happy	Picture	37.458	n/a	1	3	5	n/a	45	88	3	n/a	n/a	n/a	n/a	106.298	AF14ANS.jpg
75.822	0.514	Blank	Blank	36.944	n/a	1	3	5	n/a	45	n/a	3	n/a	n/a	n/a	n/a	106.795	n/a
76.353	0.497	happy	Picture	36.43	n/a	1	3	6	n/a	46	113	3	n/a	n/a	n/a	n/a	107.326	AM21ANS.jpg
76.85	0.514	Blank	Blank	35.916	n/a	1	3	6	n/a	46	n/a	3	n/a	n/a	n/a	n/a	107.823	n/a
77.381	0.497	happy	Picture	35.402	n/a	1	3	7	n/a	47	95	3	n/a	n/a	n/a	n/a	108.353	AF25ANS.jpg
77.878	0.514	Blank	Blank	34.888	n/a	1	3	7	n/a	47	n/a	3	n/a	n/a	n/a	n/a	108.851	n/a
78.409	0.497	happy	Picture	34.374	n/a	1	3	8	n/a	48	102	3	n/a	n/a	n/a	n/a	109.381	BM03ANS.jpg
78.906	0.514	Blank	Blank	33.861	n/a	1	3	8	n/a	48	n/a	3	n/a	n/a	n/a	n/a	109.879	n/a
79.437	0.497	happy	Picture	33.347	n/a	1	3	9	n/a	49	112	3	n/a	n/a	n/a	n/a	110.409	AM14ANS.jpg
79.934	0.514	Blank	Blank	32.833	n/a	1	3	9	n/a	49	n/a	3	n/a	n/a	n/a	n/a	110.906	n/a
80.465	0.497	happy	Picture	32.319	n/a	1	3	10	n/a	50	83	3	n/a	n/a	n/a	n/a	111.437	BF04ANS.jpg
80.962	0.514	Blank	Blank	31.805	n/a	1	3	10	n/a	50	n/a	3	n/a	n/a	n/a	n/a	111.934	n/a
81.493	0.497	happy	Picture	31.291	n/a	1	3	11	n/a	51	90	3	n/a	n/a	n/a	n/a	112.465	AF18ANS.jpg
81.99	0.514	Blank	Blank	30.777	n/a	1	3	11	n/a	51	n/a	3	n/a	n/a	n/a	n/a	112.962	n/a
82.52	0.497	happy	Picture	30.263	n/a	1	3	12	n/a	52	117	3	n/a	n/a	n/a	n/a	113.493	BM25ANS.jpg
83.018	0.514	Blank	Blank	29.749	n/a	1	3	12	n/a	52	n/a	3	n/a	n/a	n/a	n/a	113.99	n/a
83.548	0.497	happy	Picture	29.235	n/a	1	3	13	n/a	53	94	3	n/a	n/a	n/a	n/a	114.521	AF23ANS.jpg
84.046	0.514	Blank	Blank	28.721	n/a	1	3	13	n/a	53	n/a	3	n/a	n/a	n/a	n/a	115.018	n/a
84.576	0.497	happy	Picture	28.207	n/a	1	3	14	n/a	54	106	3	n/a	n/a	n/a	n/a	115.549	AM07ANS.jpg
85.073	0.514	Blank	Blank	27.693	n/a	1	3	14	n/a	54	n/a	3	n/a	n/a	n/a	n/a	116.046	n/a
85.604	0.497	happy	Picture	27.179	n/a	1	3	15	n/a	55	105	3	n/a	n/a	n/a	n/a	116.576	BM06ANS.jpg
86.101	0.514	Blank	Blank	26.665	n/a	1	3	15	n/a	55	n/a	3	n/a	n/a	n/a	n/a	117.074	n/a
86.632	0.497	happy	Picture	26.151	n/a	1	3	16	n/a	56	116	3	n/a	n/a	n/a	n/a	117.604	BM24ANS.jpg
87.129	0.514	Blank	Blank	25.638	n/a	1	3	16	n/a	56	n/a	3	n/a	n/a	n/a	n/a	118.102	n/a
87.66	0.497	happy	Picture	25.124	n/a	1	3	17	n/a	57	89	3	n/a	n/a	n/a	n/a	118.632	AF17ANS.jpg
88.157	0.514	Blank	Blank	24.61	n/a	1	3	17	n/a	57	n/a	3	n/a	n/a	n/a	n/a	119.129	n/a
88.688	0.497	happy	Picture	24.096	n/a	1	3	18	n/a	58	118	3	n/a	n/a	n/a	n/a	119.66	BM26ANS.jpg
89.185	0.514	Blank	Blank	23.582	n/a	1	3	18	n/a	58	n/a	3	n/a	n/a	n/a	n/a	120.157	n/a
89.715	0.497	happy	Picture	23.068	n/a	1	3	19	n/a	59	100	3	n/a	n/a	n/a	n/a	120.688	AF32ANS.jpg
90.213	0.514	Blank	Blank	22.554	n/a	1	3	19	n/a	59	n/a	3	n/a	n/a	n/a	n/a	121.185	n/a
90.743	0.497	happy	Picture	22.04	n/a	1	3	20	n/a	60	119	3	n/a	n/a	n/a	n/a	121.716	BM28ANS.jpg
91.241	0.514	Blank	Blank	21.526	n/a	1	3	20	n/a	60	n/a	3	n/a	n/a	n/a	n/a	122.213	n/a
91.771	10.014	ITI	Fixation+	11.496	n/a	1	n/a	n/a	n/a	n/a	n/a	n/a	n/a	n/a	n/a	n/a	122.744	n/a
113.281	n/a	ConfirmRating	Rate	n/a	11.472	1	n/a	n/a	0	n/a	n/a	n/a	2	Happy	28	49	144.253	n/a
121.564	n/a	ConfirmRating	Rate	n/a	8.273	1	n/a	n/a	1	n/a	n/a	n/a	3	Happy	0	49	152.536	n/a
121.597	10.014	ITI	Fixation+	98.846	n/a	2	n/a	n/a	n/a	n/a	n/a	n/a	n/a	n/a	n/a	n/a	152.569	n/a
131.627	0.497	angry	Picture	98.333	n/a	2	4	1	n/a	61	79	2	n/a	n/a	n/a	n/a	162.599	BM28HAS.jpg
132.124	0.514	Blank	Blank	97.819	n/a	2	4	1	n/a	61	n/a	2	n/a	n/a	n/a	n/a	163.096	n/a
132.655	0.497	angry	Picture	97.305	n/a	2	4	2	n/a	62	61	2	n/a	n/a	n/a	n/a	163.627	AM01HAS.jpg
133.152	0.514	Blank	Blank	96.791	n/a	2	4	2	n/a	62	n/a	2	n/a	n/a	n/a	n/a	164.124	n/a
133.682	0.497	angry	Picture	96.277	n/a	2	4	3	n/a	63	57	2	n/a	n/a	n/a	n/a	164.655	BF28HAS.jpg
134.18	0.514	Blank	Blank	95.763	n/a	2	4	3	n/a	63	n/a	2	n/a	n/a	n/a	n/a	165.152	n/a
134.71	0.497	angry	Picture	95.249	n/a	2	4	4	n/a	64	77	2	n/a	n/a	n/a	n/a	165.683	BM25HAS.jpg
135.208	0.514	Blank	Blank	94.735	n/a	2	4	4	n/a	64	n/a	2	n/a	n/a	n/a	n/a	166.18	n/a
135.738	0.497	angry	Picture	94.221	n/a	2	4	5	n/a	65	47	2	n/a	n/a	n/a	n/a	166.71	BF11HAS.jpg
136.236	0.514	Blank	Blank	93.707	n/a	2	4	5	n/a	65	n/a	2	n/a	n/a	n/a	n/a	167.208	n/a
136.766	0.497	angry	Picture	93.193	n/a	2	4	6	n/a	66	50	2	n/a	n/a	n/a	n/a	167.738	AF18HAS.jpg
137.263	0.514	Blank	Blank	92.679	n/a	2	4	6	n/a	66	n/a	2	n/a	n/a	n/a	n/a	168.236	n/a
137.794	0.497	angry	Picture	92.165	n/a	2	4	7	n/a	67	78	2	n/a	n/a	n/a	n/a	168.766	BM26HAS.jpg
138.291	0.514	Blank	Blank	91.651	n/a	2	4	7	n/a	67	n/a	2	n/a	n/a	n/a	n/a	169.264	n/a
138.822	0.497	angry	Picture	91.137	n/a	2	4	8	n/a	68	45	2	n/a	n/a	n/a	n/a	169.794	BF07HAS.jpg
139.319	0.514	Blank	Blank	90.623	n/a	2	4	8	n/a	68	n/a	2	n/a	n/a	n/a	n/a	170.292	n/a
139.85	0.497	angry	Picture	90.109	n/a	2	4	9	n/a	69	56	2	n/a	n/a	n/a	n/a	170.822	AF26HAS.jpg
140.347	0.514	Blank	Blank	89.595	n/a	2	4	9	n/a	69	n/a	2	n/a	n/a	n/a	n/a	171.319	n/a
140.877	0.497	angry	Picture	89.082	n/a	2	4	10	n/a	70	65	2	n/a	n/a	n/a	n/a	171.85	BM06HAS.jpg
141.375	0.514	Blank	Blank	88.568	n/a	2	4	10	n/a	70	n/a	2	n/a	n/a	n/a	n/a	172.347	n/a
141.905	0.497	angry	Picture	88.054	n/a	2	4	11	n/a	71	73	2	n/a	n/a	n/a	n/a	172.878	AM21HAS.jpg
142.403	0.514	Blank	Blank	87.54	n/a	2	4	11	n/a	71	n/a	2	n/a	n/a	n/a	n/a	173.375	n/a
142.933	0.497	angry	Picture	87.026	n/a	2	4	12	n/a	72	41	2	n/a	n/a	n/a	n/a	173.906	AF01HAS.jpg
143.431	0.514	Blank	Blank	86.512	n/a	2	4	12	n/a	72	n/a	2	n/a	n/a	n/a	n/a	174.403	n/a
143.961	0.497	angry	Picture	85.998	n/a	2	4	13	n/a	73	59	2	n/a	n/a	n/a	n/a	174.934	AF31HAS.jpg
144.459	0.514	Blank	Blank	85.484	n/a	2	4	13	n/a	73	n/a	2	n/a	n/a	n/a	n/a	175.431	n/a
144.989	0.497	angry	Picture	84.97	n/a	2	4	14	n/a	74	64	2	n/a	n/a	n/a	n/a	175.962	BM05HAS.jpg
145.486	0.514	Blank	Blank	84.456	n/a	2	4	14	n/a	74	n/a	2	n/a	n/a	n/a	n/a	176.459	n/a
146.017	0.497	angry	Picture	83.942	n/a	2	4	15	n/a	75	68	2	n/a	n/a	n/a	n/a	176.989	AM09HAS.jpg
146.514	0.514	Blank	Blank	83.428	n/a	2	4	15	n/a	75	n/a	2	n/a	n/a	n/a	n/a	177.487	n/a
147.045	0.497	angry	Picture	82.914	n/a	2	4	16	n/a	76	54	2	n/a	n/a	n/a	n/a	178.017	AF23HAS.jpg
147.542	0.514	Blank	Blank	82.4	n/a	2	4	16	n/a	76	n/a	2	n/a	n/a	n/a	n/a	178.515	n/a
148.073	0.497	angry	Picture	81.886	n/a	2	4	17	n/a	77	53	2	n/a	n/a	n/a	n/a	179.045	BF22HAS.jpg
148.57	0.514	Blank	Blank	81.373	n/a	2	4	17	n/a	77	n/a	2	n/a	n/a	n/a	n/a	179.542	n/a
149.101	0.497	angry	Picture	80.858	n/a	2	4	18	n/a	78	44	2	n/a	n/a	n/a	n/a	180.073	AF05HAS.jpg
149.598	0.514	Blank	Blank	80.345	n/a	2	4	18	n/a	78	n/a	2	n/a	n/a	n/a	n/a	180.57	n/a
150.129	0.497	angry	Picture	79.831	n/a	2	4	19	n/a	79	52	2	n/a	n/a	n/a	n/a	181.101	AF21HAS.jpg
150.626	0.514	Blank	Blank	79.317	n/a	2	4	19	n/a	79	n/a	2	n/a	n/a	n/a	n/a	181.598	n/a
151.156	0.497	angry	Picture	78.803	n/a	2	4	20	n/a	80	62	2	n/a	n/a	n/a	n/a	182.129	BM03HAS.jpg
151.654	0.514	Blank	Blank	78.289	n/a	2	4	20	n/a	80	n/a	2	n/a	n/a	n/a	n/a	182.626	n/a
152.184	10.014	ITI	Fixation+	68.259	n/a	2	n/a	n/a	n/a	n/a	n/a	n/a	n/a	n/a	n/a	n/a	183.157	n/a
162.214	0.497	neutral	Picture	67.745	n/a	2	5	1	n/a	81	23	1	n/a	n/a	n/a	n/a	193.187	AM04NES.jpg
162.712	0.514	Blank	Blank	67.231	n/a	2	5	1	n/a	81	n/a	1	n/a	n/a	n/a	n/a	193.684	n/a
163.242	0.497	neutral	Picture	66.717	n/a	2	5	2	n/a	82	29	1	n/a	n/a	n/a	n/a	194.215	AM10NES.jpg
163.74	0.514	Blank	Blank	66.203	n/a	2	5	2	n/a	82	n/a	1	n/a	n/a	n/a	n/a	194.712	n/a
164.27	0.497	neutral	Picture	65.689	n/a	2	5	3	n/a	83	24	1	n/a	n/a	n/a	n/a	195.243	BM05NES.jpg
164.768	0.514	Blank	Blank	65.175	n/a	2	5	3	n/a	83	n/a	1	n/a	n/a	n/a	n/a	195.74	n/a
165.298	0.497	neutral	Picture	64.661	n/a	2	5	4	n/a	84	12	1	n/a	n/a	n/a	n/a	196.27	AF21NES.jpg
165.795	0.514	Blank	Blank	64.147	n/a	2	5	4	n/a	84	n/a	1	n/a	n/a	n/a	n/a	196.768	n/a
166.326	0.497	neutral	Picture	63.633	n/a	2	5	5	n/a	85	13	1	n/a	n/a	n/a	n/a	197.298	BF22NES.jpg
166.823	0.514	Blank	Blank	63.119	n/a	2	5	5	n/a	85	n/a	1	n/a	n/a	n/a	n/a	197.796	n/a
167.354	0.497	neutral	Picture	62.605	n/a	2	5	6	n/a	86	17	1	n/a	n/a	n/a	n/a	198.326	BF28NES.jpg
167.851	0.514	Blank	Blank	62.091	n/a	2	5	6	n/a	86	n/a	1	n/a	n/a	n/a	n/a	198.824	n/a
168.382	0.497	neutral	Picture	61.577	n/a	2	5	7	n/a	87	4	1	n/a	n/a	n/a	n/a	199.354	AF05NES.jpg
168.879	0.514	Blank	Blank	61.064	n/a	2	5	7	n/a	87	n/a	1	n/a	n/a	n/a	n/a	199.851	n/a
169.41	0.497	neutral	Picture	60.55	n/a	2	5	8	n/a	88	11	1	n/a	n/a	n/a	n/a	200.382	AF20NES.jpg
169.907	0.514	Blank	Blank	60.036	n/a	2	5	8	n/a	88	n/a	1	n/a	n/a	n/a	n/a	200.879	n/a
170.437	0.497	neutral	Picture	59.522	n/a	2	5	9	n/a	89	22	1	n/a	n/a	n/a	n/a	201.41	BM03NES.jpg
170.935	0.514	Blank	Blank	59.008	n/a	2	5	9	n/a	89	n/a	1	n/a	n/a	n/a	n/a	201.907	n/a
171.465	0.497	neutral	Picture	58.494	n/a	2	5	10	n/a	90	15	1	n/a	n/a	n/a	n/a	202.438	AF25NES.jpg
171.963	0.514	Blank	Blank	57.98	n/a	2	5	10	n/a	90	n/a	1	n/a	n/a	n/a	n/a	202.935	n/a
172.493	0.497	neutral	Picture	57.466	n/a	2	5	11	n/a	91	19	1	n/a	n/a	n/a	n/a	203.466	AF31NES.jpg
172.991	0.514	Blank	Blank	56.952	n/a	2	5	11	n/a	91	n/a	1	n/a	n/a	n/a	n/a	203.963	n/a
173.521	0.497	neutral	Picture	56.438	n/a	2	5	12	n/a	92	9	1	n/a	n/a	n/a	n/a	204.494	AF17NES.jpg
174.019	0.514	Blank	Blank	55.924	n/a	2	5	12	n/a	92	n/a	1	n/a	n/a	n/a	n/a	204.991	n/a
174.549	0.497	neutral	Picture	55.41	n/a	2	5	13	n/a	93	14	1	n/a	n/a	n/a	n/a	205.521	AF23NES.jpg
175.046	0.514	Blank	Blank	54.896	n/a	2	5	13	n/a	93	n/a	1	n/a	n/a	n/a	n/a	206.019	n/a
175.577	0.497	neutral	Picture	54.382	n/a	2	5	14	n/a	94	36	1	n/a	n/a	n/a	n/a	206.549	BM24NES.jpg
176.074	0.514	Blank	Blank	53.868	n/a	2	5	14	n/a	94	n/a	1	n/a	n/a	n/a	n/a	207.047	n/a
176.605	0.497	neutral	Picture	53.354	n/a	2	5	15	n/a	95	34	1	n/a	n/a	n/a	n/a	207.577	AM22NES.jpg
177.102	0.514	Blank	Blank	52.84	n/a	2	5	15	n/a	95	n/a	1	n/a	n/a	n/a	n/a	208.075	n/a
177.633	0.497	neutral	Picture	52.327	n/a	2	5	16	n/a	96	10	1	n/a	n/a	n/a	n/a	208.605	AF18NES.jpg
178.13	0.514	Blank	Blank	51.813	n/a	2	5	16	n/a	96	n/a	1	n/a	n/a	n/a	n/a	209.102	n/a
178.661	0.497	neutral	Picture	51.299	n/a	2	5	17	n/a	97	5	1	n/a	n/a	n/a	n/a	209.633	BF07NES.jpg
179.158	0.514	Blank	Blank	50.785	n/a	2	5	17	n/a	97	n/a	1	n/a	n/a	n/a	n/a	210.13	n/a
179.688	0.497	neutral	Picture	50.271	n/a	2	5	18	n/a	98	25	1	n/a	n/a	n/a	n/a	210.661	BM06NES.jpg
180.186	0.514	Blank	Blank	49.757	n/a	2	5	18	n/a	98	n/a	1	n/a	n/a	n/a	n/a	211.158	n/a
180.716	0.497	neutral	Picture	49.243	n/a	2	5	19	n/a	99	39	1	n/a	n/a	n/a	n/a	211.689	AM28NES.jpg
181.214	0.514	Blank	Blank	48.729	n/a	2	5	19	n/a	99	n/a	1	n/a	n/a	n/a	n/a	212.186	n/a
181.744	0.497	neutral	Picture	48.215	n/a	2	5	20	n/a	100	33	1	n/a	n/a	n/a	n/a	212.717	AM21NES.jpg
182.242	0.514	Blank	Blank	47.701	n/a	2	5	20	n/a	100	n/a	1	n/a	n/a	n/a	n/a	213.214	n/a
182.772	10.014	ITI	Fixation+	37.671	n/a	2	n/a	n/a	n/a	n/a	n/a	n/a	n/a	n/a	n/a	n/a	213.744	n/a
192.802	0.497	angry	Picture	37.157	n/a	2	6	1	n/a	101	74	2	n/a	n/a	n/a	n/a	223.775	AM22HAS.jpg
193.299	0.514	Blank	Blank	36.643	n/a	2	6	1	n/a	101	n/a	2	n/a	n/a	n/a	n/a	224.272	n/a
193.83	0.497	angry	Picture	36.129	n/a	2	6	2	n/a	102	76	2	n/a	n/a	n/a	n/a	224.803	BM24HAS.jpg
194.327	0.514	Blank	Blank	35.615	n/a	2	6	2	n/a	102	n/a	2	n/a	n/a	n/a	n/a	225.3	n/a
194.858	0.497	angry	Picture	35.101	n/a	2	6	3	n/a	103	80	2	n/a	n/a	n/a	n/a	225.83	BM35HAS.jpg
195.355	0.514	Blank	Blank	34.587	n/a	2	6	3	n/a	103	n/a	2	n/a	n/a	n/a	n/a	226.328	n/a
195.886	0.497	angry	Picture	34.073	n/a	2	6	4	n/a	104	75	2	n/a	n/a	n/a	n/a	226.858	AM23HAS.jpg
196.383	0.514	Blank	Blank	33.559	n/a	2	6	4	n/a	104	n/a	2	n/a	n/a	n/a	n/a	227.356	n/a
196.914	0.497	angry	Picture	33.045	n/a	2	6	5	n/a	105	49	2	n/a	n/a	n/a	n/a	227.886	AF17HAS.jpg
197.411	0.514	Blank	Blank	32.531	n/a	2	6	5	n/a	105	n/a	2	n/a	n/a	n/a	n/a	228.383	n/a
197.942	0.497	angry	Picture	32.018	n/a	2	6	6	n/a	106	43	2	n/a	n/a	n/a	n/a	228.914	BF04HAS.jpg
198.439	0.514	Blank	Blank	31.504	n/a	2	6	6	n/a	106	n/a	2	n/a	n/a	n/a	n/a	229.411	n/a
198.97	0.497	angry	Picture	30.99	n/a	2	6	7	n/a	107	70	2	n/a	n/a	n/a	n/a	229.942	BM11HAS.jpg
199.467	0.514	Blank	Blank	30.476	n/a	2	6	7	n/a	107	n/a	2	n/a	n/a	n/a	n/a	230.439	n/a
199.997	0.497	angry	Picture	29.962	n/a	2	6	8	n/a	108	66	2	n/a	n/a	n/a	n/a	230.97	BM07HAS.jpg
200.495	0.514	Blank	Blank	29.448	n/a	2	6	8	n/a	108	n/a	2	n/a	n/a	n/a	n/a	231.467	n/a
201.025	0.497	angry	Picture	28.934	n/a	2	6	9	n/a	109	48	2	n/a	n/a	n/a	n/a	231.998	AF14HAS.jpg
201.523	0.514	Blank	Blank	28.42	n/a	2	6	9	n/a	109	n/a	2	n/a	n/a	n/a	n/a	232.495	n/a
202.053	0.497	angry	Picture	27.906	n/a	2	6	10	n/a	110	58	2	n/a	n/a	n/a	n/a	233.025	BF29HAS.jpg
202.55	0.514	Blank	Blank	27.392	n/a	2	6	10	n/a	110	n/a	2	n/a	n/a	n/a	n/a	233.523	n/a
203.081	0.497	angry	Picture	26.878	n/a	2	6	11	n/a	111	63	2	n/a	n/a	n/a	n/a	234.053	AM04HAS.jpg
203.578	0.514	Blank	Blank	26.364	n/a	2	6	11	n/a	111	n/a	2	n/a	n/a	n/a	n/a	234.551	n/a
204.109	0.497	angry	Picture	25.85	n/a	2	6	12	n/a	112	72	2	n/a	n/a	n/a	n/a	235.081	AM14HAS.jpg
204.606	0.514	Blank	Blank	25.336	n/a	2	6	12	n/a	112	n/a	2	n/a	n/a	n/a	n/a	235.579	n/a
205.137	0.497	angry	Picture	24.822	n/a	2	6	13	n/a	113	55	2	n/a	n/a	n/a	n/a	236.109	AF25HAS.jpg
205.634	0.514	Blank	Blank	24.308	n/a	2	6	13	n/a	113	n/a	2	n/a	n/a	n/a	n/a	236.607	n/a
206.165	0.497	angry	Picture	23.794	n/a	2	6	14	n/a	114	42	2	n/a	n/a	n/a	n/a	237.137	AF03HAS.jpg
206.662	0.514	Blank	Blank	23.28	n/a	2	6	14	n/a	114	n/a	2	n/a	n/a	n/a	n/a	237.634	n/a
207.192	0.497	angry	Picture	22.767	n/a	2	6	15	n/a	115	60	2	n/a	n/a	n/a	n/a	238.165	AF32HAS.jpg
207.69	0.514	Blank	Blank	22.253	n/a	2	6	15	n/a	115	n/a	2	n/a	n/a	n/a	n/a	238.662	n/a
208.22	0.497	angry	Picture	21.739	n/a	2	6	16	n/a	116	67	2	n/a	n/a	n/a	n/a	239.193	BM08HAS.jpg
208.718	0.514	Blank	Blank	21.225	n/a	2	6	16	n/a	116	n/a	2	n/a	n/a	n/a	n/a	239.69	n/a
209.248	0.497	angry	Picture	20.711	n/a	2	6	17	n/a	117	51	2	n/a	n/a	n/a	n/a	240.221	AF20HAS.jpg
209.746	0.514	Blank	Blank	20.197	n/a	2	6	17	n/a	117	n/a	2	n/a	n/a	n/a	n/a	240.718	n/a
210.276	0.497	angry	Picture	19.683	n/a	2	6	18	n/a	118	71	2	n/a	n/a	n/a	n/a	241.249	BM12HAS.jpg
210.774	0.514	Blank	Blank	19.169	n/a	2	6	18	n/a	118	n/a	2	n/a	n/a	n/a	n/a	241.746	n/a
211.304	0.497	angry	Picture	18.655	n/a	2	6	19	n/a	119	69	2	n/a	n/a	n/a	n/a	242.276	AM10HAS.jpg
211.801	0.514	Blank	Blank	18.141	n/a	2	6	19	n/a	119	n/a	2	n/a	n/a	n/a	n/a	242.774	n/a
212.332	0.497	angry	Picture	17.627	n/a	2	6	20	n/a	120	46	2	n/a	n/a	n/a	n/a	243.304	AF09HAS.jpg
212.829	0.514	Blank	Blank	17.113	n/a	2	6	20	n/a	120	n/a	2	n/a	n/a	n/a	n/a	243.802	n/a
213.36	10.014	ITI	Fixation+	7.083	n/a	2	n/a	n/a	n/a	n/a	n/a	n/a	n/a	n/a	n/a	n/a	244.332	n/a
230.457	n/a	ConfirmRating	Rate	n/a	7.079	2	n/a	n/a	0	n/a	n/a	n/a	2	Angry	38	50	261.429	n/a
239.532	n/a	ConfirmRating	Rate	n/a	9.052	2	n/a	n/a	1	n/a	n/a	n/a	3	Angry	17	48	270.505	n/a
239.554	15.004	Rest	Picture	n/a	n/a	n/a	n/a	n/a	n/a	n/a	n/a	n/a	0	n/a	0	0	270.527	n/a
254.575	10.014	ITI	Fixation+	98.524	n/a	3	n/a	n/a	n/a	n/a	n/a	n/a	n/a	n/a	n/a	n/a	285.547	n/a
264.605	0.497	happy	Picture	98.01	n/a	3	7	1	n/a	1	108	3	n/a	n/a	n/a	n/a	295.577	AM09ANS.jpg
265.102	0.514	Blank	Blank	97.496	n/a	3	7	1	n/a	1	n/a	3	n/a	n/a	n/a	n/a	296.075	n/a
265.633	0.497	happy	Picture	96.982	n/a	3	7	2	n/a	2	99	3	n/a	n/a	n/a	n/a	296.605	AF31ANS.jpg
266.13	0.514	Blank	Blank	96.468	n/a	3	7	2	n/a	2	n/a	3	n/a	n/a	n/a	n/a	297.102	n/a
266.661	0.497	happy	Picture	95.954	n/a	3	7	3	n/a	3	98	3	n/a	n/a	n/a	n/a	297.633	BF29ANS.jpg
267.158	0.514	Blank	Blank	95.44	n/a	3	7	3	n/a	3	n/a	3	n/a	n/a	n/a	n/a	298.13	n/a
267.688	0.497	happy	Picture	94.927	n/a	3	7	4	n/a	4	107	3	n/a	n/a	n/a	n/a	298.661	BM08ANS.jpg
268.186	0.514	Blank	Blank	94.413	n/a	3	7	4	n/a	4	n/a	3	n/a	n/a	n/a	n/a	299.158	n/a
268.716	0.497	happy	Picture	93.899	n/a	3	7	5	n/a	5	104	3	n/a	n/a	n/a	n/a	299.689	BM05ANS.jpg
269.214	0.514	Blank	Blank	93.385	n/a	3	7	5	n/a	5	n/a	3	n/a	n/a	n/a	n/a	300.186	n/a
269.744	0.497	happy	Picture	92.871	n/a	3	7	6	n/a	6	101	3	n/a	n/a	n/a	n/a	300.716	AM01ANS.jpg
270.242	0.514	Blank	Blank	92.357	n/a	3	7	6	n/a	6	n/a	3	n/a	n/a	n/a	n/a	301.214	n/a
270.772	0.497	happy	Picture	91.843	n/a	3	7	7	n/a	7	103	3	n/a	n/a	n/a	n/a	301.744	AM04ANS.jpg
271.269	0.514	Blank	Blank	91.329	n/a	3	7	7	n/a	7	n/a	3	n/a	n/a	n/a	n/a	302.242	n/a
271.8	0.497	happy	Picture	90.815	n/a	3	7	8	n/a	8	111	3	n/a	n/a	n/a	n/a	302.772	BM12ANS.jpg
272.297	0.514	Blank	Blank	90.301	n/a	3	7	8	n/a	8	n/a	3	n/a	n/a	n/a	n/a	303.27	n/a
272.828	0.497	happy	Picture	89.787	n/a	3	7	9	n/a	9	110	3	n/a	n/a	n/a	n/a	303.8	AM11ANS.jpg
273.325	0.514	Blank	Blank	89.273	n/a	3	7	9	n/a	9	n/a	3	n/a	n/a	n/a	n/a	304.298	n/a
273.856	0.497	happy	Picture	88.759	n/a	3	7	10	n/a	10	85	3	n/a	n/a	n/a	n/a	304.828	BF07ANS.jpg
274.353	0.514	Blank	Blank	88.245	n/a	3	7	10	n/a	10	n/a	3	n/a	n/a	n/a	n/a	305.325	n/a
274.884	0.497	happy	Picture	87.731	n/a	3	7	11	n/a	11	87	3	n/a	n/a	n/a	n/a	305.856	BF11ANS.jpg
275.381	0.514	Blank	Blank	87.217	n/a	3	7	11	n/a	11	n/a	3	n/a	n/a	n/a	n/a	306.353	n/a
275.911	0.497	happy	Picture	86.703	n/a	3	7	12	n/a	12	91	3	n/a	n/a	n/a	n/a	306.884	AF20ANS.jpg
276.409	0.514	Blank	Blank	86.19	n/a	3	7	12	n/a	12	n/a	3	n/a	n/a	n/a	n/a	307.381	n/a
276.939	0.497	happy	Picture	85.675	n/a	3	7	13	n/a	13	115	3	n/a	n/a	n/a	n/a	307.912	AM23ANS.jpg
277.437	0.514	Blank	Blank	85.162	n/a	3	7	13	n/a	13	n/a	3	n/a	n/a	n/a	n/a	308.409	n/a
277.967	0.497	happy	Picture	84.648	n/a	3	7	14	n/a	14	97	3	n/a	n/a	n/a	n/a	308.94	BF28ANS.jpg
278.465	0.514	Blank	Blank	84.134	n/a	3	7	14	n/a	14	n/a	3	n/a	n/a	n/a	n/a	309.437	n/a
278.995	0.497	happy	Picture	83.62	n/a	3	7	15	n/a	15	82	3	n/a	n/a	n/a	n/a	309.967	AF03ANS.jpg
279.492	0.514	Blank	Blank	83.106	n/a	3	7	15	n/a	15	n/a	3	n/a	n/a	n/a	n/a	310.465	n/a
280.023	0.497	happy	Picture	82.592	n/a	3	7	16	n/a	16	96	3	n/a	n/a	n/a	n/a	310.995	AF26ANS.jpg
280.52	0.514	Blank	Blank	82.078	n/a	3	7	16	n/a	16	n/a	3	n/a	n/a	n/a	n/a	311.493	n/a
281.051	0.497	happy	Picture	81.564	n/a	3	7	17	n/a	17	109	3	n/a	n/a	n/a	n/a	312.023	AM10ANS.jpg
281.548	0.514	Blank	Blank	81.05	n/a	3	7	17	n/a	17	n/a	3	n/a	n/a	n/a	n/a	312.521	n/a
282.079	0.497	happy	Picture	80.536	n/a	3	7	18	n/a	18	114	3	n/a	n/a	n/a	n/a	313.051	AM22ANS.jpg
282.576	0.514	Blank	Blank	80.022	n/a	3	7	18	n/a	18	n/a	3	n/a	n/a	n/a	n/a	313.548	n/a
283.107	0.497	happy	Picture	79.508	n/a	3	7	19	n/a	19	120	3	n/a	n/a	n/a	n/a	314.079	AM35ANS.jpg
283.604	0.514	Blank	Blank	78.994	n/a	3	7	19	n/a	19	n/a	3	n/a	n/a	n/a	n/a	314.576	n/a
284.135	0.497	happy	Picture	78.48	n/a	3	7	20	n/a	20	81	3	n/a	n/a	n/a	n/a	315.107	AF01ANS.jpg
284.632	0.514	Blank	Blank	77.966	n/a	3	7	20	n/a	20	n/a	3	n/a	n/a	n/a	n/a	315.604	n/a
285.162	10.014	ITI	Fixation+	67.936	n/a	3	n/a	n/a	n/a	n/a	n/a	n/a	n/a	n/a	n/a	n/a	316.135	n/a
295.192	0.497	neutral	Picture	67.422	n/a	3	8	1	n/a	21	28	1	n/a	n/a	n/a	n/a	326.165	AM09NES.jpg
295.69	0.514	Blank	Blank	66.908	n/a	3	8	1	n/a	21	n/a	1	n/a	n/a	n/a	n/a	326.662	n/a
296.22	0.497	neutral	Picture	66.394	n/a	3	8	2	n/a	22	27	1	n/a	n/a	n/a	n/a	327.193	BM08NES.jpg
296.718	0.514	Blank	Blank	65.881	n/a	3	8	2	n/a	22	n/a	1	n/a	n/a	n/a	n/a	327.69	n/a
297.248	0.497	neutral	Picture	65.366	n/a	3	8	3	n/a	23	16	1	n/a	n/a	n/a	n/a	328.221	AF26NES.jpg
297.746	0.514	Blank	Blank	64.853	n/a	3	8	3	n/a	23	n/a	1	n/a	n/a	n/a	n/a	328.718	n/a
298.276	0.497	neutral	Picture	64.339	n/a	3	8	4	n/a	24	3	1	n/a	n/a	n/a	n/a	329.249	BF04NES.jpg
298.774	0.514	Blank	Blank	63.825	n/a	3	8	4	n/a	24	n/a	1	n/a	n/a	n/a	n/a	329.746	n/a
299.304	0.497	neutral	Picture	63.311	n/a	3	8	5	n/a	25	32	1	n/a	n/a	n/a	n/a	330.276	AM14NES.jpg
299.801	0.514	Blank	Blank	62.797	n/a	3	8	5	n/a	25	n/a	1	n/a	n/a	n/a	n/a	330.774	n/a
300.332	0.497	neutral	Picture	62.283	n/a	3	8	6	n/a	26	37	1	n/a	n/a	n/a	n/a	331.304	BM25NES.jpg
300.829	0.514	Blank	Blank	61.769	n/a	3	8	6	n/a	26	n/a	1	n/a	n/a	n/a	n/a	331.802	n/a
301.36	0.497	neutral	Picture	61.255	n/a	3	8	7	n/a	27	15	1	n/a	n/a	n/a	n/a	332.332	AF25NES.jpg
301.857	0.514	Blank	Blank	60.741	n/a	3	8	7	n/a	27	n/a	1	n/a	n/a	n/a	n/a	332.83	n/a
302.388	0.497	neutral	Picture	60.227	n/a	3	8	8	n/a	28	23	1	n/a	n/a	n/a	n/a	333.36	AM04NES.jpg
302.885	0.514	Blank	Blank	59.713	n/a	3	8	8	n/a	28	n/a	1	n/a	n/a	n/a	n/a	333.858	n/a
303.416	0.497	neutral	Picture	59.199	n/a	3	8	9	n/a	29	34	1	n/a	n/a	n/a	n/a	334.388	AM22NES.jpg
303.913	0.514	Blank	Blank	58.685	n/a	3	8	9	n/a	29	n/a	1	n/a	n/a	n/a	n/a	334.885	n/a
304.444	0.497	neutral	Picture	58.171	n/a	3	8	10	n/a	30	24	1	n/a	n/a	n/a	n/a	335.416	BM05NES.jpg
304.941	0.514	Blank	Blank	57.657	n/a	3	8	10	n/a	30	n/a	1	n/a	n/a	n/a	n/a	335.913	n/a
305.471	0.497	neutral	Picture	57.144	n/a	3	8	11	n/a	31	12	1	n/a	n/a	n/a	n/a	336.444	AF21NES.jpg
305.969	0.514	Blank	Blank	56.63	n/a	3	8	11	n/a	31	n/a	1	n/a	n/a	n/a	n/a	336.941	n/a
306.499	0.497	neutral	Picture	56.116	n/a	3	8	12	n/a	32	6	1	n/a	n/a	n/a	n/a	337.472	AF09NES.jpg
306.997	0.514	Blank	Blank	55.602	n/a	3	8	12	n/a	32	n/a	1	n/a	n/a	n/a	n/a	337.969	n/a
307.527	0.497	neutral	Picture	55.088	n/a	3	8	13	n/a	33	17	1	n/a	n/a	n/a	n/a	338.5	BF28NES.jpg
308.024	0.514	Blank	Blank	54.574	n/a	3	8	13	n/a	33	n/a	1	n/a	n/a	n/a	n/a	338.997	n/a
308.555	0.497	neutral	Picture	54.06	n/a	3	8	14	n/a	34	2	1	n/a	n/a	n/a	n/a	339.527	AF03NES.jpg
309.052	0.514	Blank	Blank	53.546	n/a	3	8	14	n/a	34	n/a	1	n/a	n/a	n/a	n/a	340.025	n/a
309.583	0.497	neutral	Picture	53.032	n/a	3	8	15	n/a	35	9	1	n/a	n/a	n/a	n/a	340.555	AF17NES.jpg
310.08	0.514	Blank	Blank	52.518	n/a	3	8	15	n/a	35	n/a	1	n/a	n/a	n/a	n/a	341.053	n/a
310.611	0.497	neutral	Picture	52.004	n/a	3	8	16	n/a	36	25	1	n/a	n/a	n/a	n/a	341.583	BM06NES.jpg
311.108	0.514	Blank	Blank	51.49	n/a	3	8	16	n/a	36	n/a	1	n/a	n/a	n/a	n/a	342.08	n/a
311.639	0.497	neutral	Picture	50.976	n/a	3	8	17	n/a	37	8	1	n/a	n/a	n/a	n/a	342.611	AF14NES.jpg
312.136	0.514	Blank	Blank	50.462	n/a	3	8	17	n/a	37	n/a	1	n/a	n/a	n/a	n/a	343.108	n/a
312.666	0.497	neutral	Picture	49.948	n/a	3	8	18	n/a	38	19	1	n/a	n/a	n/a	n/a	343.639	AF31NES.jpg
313.164	0.514	Blank	Blank	49.434	n/a	3	8	18	n/a	38	n/a	1	n/a	n/a	n/a	n/a	344.136	n/a
313.694	0.497	neutral	Picture	48.92	n/a	3	8	19	n/a	39	14	1	n/a	n/a	n/a	n/a	344.667	AF23NES.jpg
314.192	0.514	Blank	Blank	48.407	n/a	3	8	19	n/a	39	n/a	1	n/a	n/a	n/a	n/a	345.164	n/a
314.722	0.497	neutral	Picture	47.893	n/a	3	8	20	n/a	40	4	1	n/a	n/a	n/a	n/a	345.695	AF05NES.jpg
315.22	0.514	Blank	Blank	47.379	n/a	3	8	20	n/a	40	n/a	1	n/a	n/a	n/a	n/a	346.192	n/a
315.75	10.014	ITI	Fixation+	37.349	n/a	3	n/a	n/a	n/a	n/a	n/a	n/a	n/a	n/a	n/a	n/a	346.723	n/a
325.78	0.497	happy	Picture	36.834	n/a	3	9	1	n/a	41	84	3	n/a	n/a	n/a	n/a	356.753	AF05ANS.jpg
326.278	0.514	Blank	Blank	36.321	n/a	3	9	1	n/a	41	n/a	3	n/a	n/a	n/a	n/a	357.25	n/a
326.808	0.497	happy	Picture	35.807	n/a	3	9	2	n/a	42	92	3	n/a	n/a	n/a	n/a	357.781	AF21ANS.jpg
327.306	0.514	Blank	Blank	35.293	n/a	3	9	2	n/a	42	n/a	3	n/a	n/a	n/a	n/a	358.278	n/a
327.836	0.497	happy	Picture	34.779	n/a	3	9	3	n/a	43	86	3	n/a	n/a	n/a	n/a	358.808	AF09ANS.jpg
328.333	0.514	Blank	Blank	34.265	n/a	3	9	3	n/a	43	n/a	3	n/a	n/a	n/a	n/a	359.306	n/a
328.864	0.497	happy	Picture	33.751	n/a	3	9	4	n/a	44	93	3	n/a	n/a	n/a	n/a	359.836	BF22ANS.jpg
329.361	0.514	Blank	Blank	33.237	n/a	3	9	4	n/a	44	n/a	3	n/a	n/a	n/a	n/a	360.334	n/a
329.892	0.497	happy	Picture	32.723	n/a	3	9	5	n/a	45	88	3	n/a	n/a	n/a	n/a	360.864	AF14ANS.jpg
330.389	0.514	Blank	Blank	32.209	n/a	3	9	5	n/a	45	n/a	3	n/a	n/a	n/a	n/a	361.362	n/a
330.92	0.497	happy	Picture	31.695	n/a	3	9	6	n/a	46	113	3	n/a	n/a	n/a	n/a	361.892	AM21ANS.jpg
331.417	0.514	Blank	Blank	31.181	n/a	3	9	6	n/a	46	n/a	3	n/a	n/a	n/a	n/a	362.389	n/a
331.948	0.497	happy	Picture	30.667	n/a	3	9	7	n/a	47	95	3	n/a	n/a	n/a	n/a	362.92	AF25ANS.jpg
332.445	0.514	Blank	Blank	30.153	n/a	3	9	7	n/a	47	n/a	3	n/a	n/a	n/a	n/a	363.417	n/a
332.976	0.497	happy	Picture	29.639	n/a	3	9	8	n/a	48	102	3	n/a	n/a	n/a	n/a	363.948	BM03ANS.jpg
333.473	0.514	Blank	Blank	29.125	n/a	3	9	8	n/a	48	n/a	3	n/a	n/a	n/a	n/a	364.445	n/a
334.003	0.497	happy	Picture	28.612	n/a	3	9	9	n/a	49	112	3	n/a	n/a	n/a	n/a	364.976	AM14ANS.jpg
334.501	0.514	Blank	Blank	28.098	n/a	3	9	9	n/a	49	n/a	3	n/a	n/a	n/a	n/a	365.473	n/a
335.031	0.497	happy	Picture	27.584	n/a	3	9	10	n/a	50	83	3	n/a	n/a	n/a	n/a	366.004	BF04ANS.jpg
335.529	0.514	Blank	Blank	27.07	n/a	3	9	10	n/a	50	n/a	3	n/a	n/a	n/a	n/a	366.501	n/a
336.059	0.497	happy	Picture	26.556	n/a	3	9	11	n/a	51	90	3	n/a	n/a	n/a	n/a	367.031	AF18ANS.jpg
336.557	0.514	Blank	Blank	26.042	n/a	3	9	11	n/a	51	n/a	3	n/a	n/a	n/a	n/a	367.529	n/a
337.087	0.497	happy	Picture	25.528	n/a	3	9	12	n/a	52	117	3	n/a	n/a	n/a	n/a	368.059	BM25ANS.jpg
337.584	0.514	Blank	Blank	25.014	n/a	3	9	12	n/a	52	n/a	3	n/a	n/a	n/a	n/a	368.557	n/a
338.115	0.497	happy	Picture	24.5	n/a	3	9	13	n/a	53	94	3	n/a	n/a	n/a	n/a	369.087	AF23ANS.jpg
338.612	0.514	Blank	Blank	23.986	n/a	3	9	13	n/a	53	n/a	3	n/a	n/a	n/a	n/a	369.585	n/a
339.143	0.497	happy	Picture	23.472	n/a	3	9	14	n/a	54	106	3	n/a	n/a	n/a	n/a	370.115	AM07ANS.jpg
339.64	0.514	Blank	Blank	22.958	n/a	3	9	14	n/a	54	n/a	3	n/a	n/a	n/a	n/a	370.613	n/a
340.171	0.497	happy	Picture	22.444	n/a	3	9	15	n/a	55	105	3	n/a	n/a	n/a	n/a	371.143	BM06ANS.jpg
340.668	0.514	Blank	Blank	21.93	n/a	3	9	15	n/a	55	n/a	3	n/a	n/a	n/a	n/a	371.64	n/a
341.199	0.497	happy	Picture	21.416	n/a	3	9	16	n/a	56	116	3	n/a	n/a	n/a	n/a	372.171	BM24ANS.jpg
341.696	0.514	Blank	Blank	20.902	n/a	3	9	16	n/a	56	n/a	3	n/a	n/a	n/a	n/a	372.668	n/a
342.226	0.497	happy	Picture	20.388	n/a	3	9	17	n/a	57	89	3	n/a	n/a	n/a	n/a	373.199	AF17ANS.jpg
342.724	0.514	Blank	Blank	19.875	n/a	3	9	17	n/a	57	n/a	3	n/a	n/a	n/a	n/a	373.696	n/a
343.254	0.497	happy	Picture	19.361	n/a	3	9	18	n/a	58	118	3	n/a	n/a	n/a	n/a	374.227	BM26ANS.jpg
343.752	0.514	Blank	Blank	18.847	n/a	3	9	18	n/a	58	n/a	3	n/a	n/a	n/a	n/a	374.724	n/a
344.282	0.497	happy	Picture	18.333	n/a	3	9	19	n/a	59	100	3	n/a	n/a	n/a	n/a	375.255	AF32ANS.jpg
344.78	0.514	Blank	Blank	17.819	n/a	3	9	19	n/a	59	n/a	3	n/a	n/a	n/a	n/a	375.752	n/a
345.31	0.497	happy	Picture	17.305	n/a	3	9	20	n/a	60	119	3	n/a	n/a	n/a	n/a	376.283	BM28ANS.jpg
345.807	0.514	Blank	Blank	16.791	n/a	3	9	20	n/a	60	n/a	3	n/a	n/a	n/a	n/a	376.78	n/a
346.338	10.014	ITI	Fixation+	6.761	n/a	3	n/a	n/a	n/a	n/a	n/a	n/a	n/a	n/a	n/a	n/a	377.31	n/a
363.112	n/a	ConfirmRating	Rate	n/a	6.748	3	n/a	n/a	0	n/a	n/a	n/a	2	Happy	68	51	394.085	n/a
369.121	n/a	ConfirmRating	Rate	n/a	6.002	3	n/a	n/a	1	n/a	n/a	n/a	3	Happy	4	48	400.093	n/a
369.15	10.014	ITI	Fixation+	93.739	n/a	4	n/a	n/a	n/a	n/a	n/a	n/a	n/a	n/a	n/a	n/a	400.123	n/a
379.18	0.497	angry	Picture	93.225	n/a	4	10	1	n/a	61	79	2	n/a	n/a	n/a	n/a	410.153	BM28HAS.jpg
379.678	0.514	Blank	Blank	92.711	n/a	4	10	1	n/a	61	n/a	2	n/a	n/a	n/a	n/a	410.65	n/a
380.208	0.497	angry	Picture	92.197	n/a	4	10	2	n/a	62	61	2	n/a	n/a	n/a	n/a	411.181	AM01HAS.jpg
380.706	0.514	Blank	Blank	91.684	n/a	4	10	2	n/a	62	n/a	2	n/a	n/a	n/a	n/a	411.678	n/a
381.236	0.497	angry	Picture	91.169	n/a	4	10	3	n/a	63	57	2	n/a	n/a	n/a	n/a	412.209	BF28HAS.jpg
381.734	0.514	Blank	Blank	90.656	n/a	4	10	3	n/a	63	n/a	2	n/a	n/a	n/a	n/a	412.706	n/a
382.264	0.497	angry	Picture	90.142	n/a	4	10	4	n/a	64	77	2	n/a	n/a	n/a	n/a	413.236	BM25HAS.jpg
382.762	0.514	Blank	Blank	89.628	n/a	4	10	4	n/a	64	n/a	2	n/a	n/a	n/a	n/a	413.734	n/a
383.292	0.497	angry	Picture	89.114	n/a	4	10	5	n/a	65	47	2	n/a	n/a	n/a	n/a	414.264	BF11HAS.jpg
383.789	0.514	Blank	Blank	88.6	n/a	4	10	5	n/a	65	n/a	2	n/a	n/a	n/a	n/a	414.762	n/a
384.32	0.497	angry	Picture	88.086	n/a	4	10	6	n/a	66	50	2	n/a	n/a	n/a	n/a	415.292	AF18HAS.jpg
384.817	0.514	Blank	Blank	87.572	n/a	4	10	6	n/a	66	n/a	2	n/a	n/a	n/a	n/a	415.79	n/a
385.348	0.497	angry	Picture	87.058	n/a	4	10	7	n/a	67	78	2	n/a	n/a	n/a	n/a	416.32	BM26HAS.jpg
385.845	0.514	Blank	Blank	86.544	n/a	4	10	7	n/a	67	n/a	2	n/a	n/a	n/a	n/a	416.817	n/a
386.376	0.497	angry	Picture	86.03	n/a	4	10	8	n/a	68	45	2	n/a	n/a	n/a	n/a	417.348	BF07HAS.jpg
386.873	0.514	Blank	Blank	85.516	n/a	4	10	8	n/a	68	n/a	2	n/a	n/a	n/a	n/a	417.845	n/a
387.404	0.497	angry	Picture	85.002	n/a	4	10	9	n/a	69	56	2	n/a	n/a	n/a	n/a	418.376	AF26HAS.jpg
387.901	0.514	Blank	Blank	84.488	n/a	4	10	9	n/a	69	n/a	2	n/a	n/a	n/a	n/a	418.873	n/a
388.431	0.497	angry	Picture	83.974	n/a	4	10	10	n/a	70	65	2	n/a	n/a	n/a	n/a	419.404	BM06HAS.jpg
388.929	0.514	Blank	Blank	83.46	n/a	4	10	10	n/a	70	n/a	2	n/a	n/a	n/a	n/a	419.901	n/a
389.459	0.497	angry	Picture	82.947	n/a	4	10	11	n/a	71	73	2	n/a	n/a	n/a	n/a	420.432	AM21HAS.jpg
389.957	0.514	Blank	Blank	82.433	n/a	4	10	11	n/a	71	n/a	2	n/a	n/a	n/a	n/a	420.929	n/a
390.487	0.497	angry	Picture	81.919	n/a	4	10	12	n/a	72	41	2	n/a	n/a	n/a	n/a	421.46	AF01HAS.jpg
390.985	0.514	Blank	Blank	81.405	n/a	4	10	12	n/a	72	n/a	2	n/a	n/a	n/a	n/a	421.957	n/a
391.515	0.497	angry	Picture	80.891	n/a	4	10	13	n/a	73	59	2	n/a	n/a	n/a	n/a	422.487	AF31HAS.jpg
392.012	0.514	Blank	Blank	80.377	n/a	4	10	13	n/a	73	n/a	2	n/a	n/a	n/a	n/a	422.985	n/a
392.543	0.497	angry	Picture	79.863	n/a	4	10	14	n/a	74	64	2	n/a	n/a	n/a	n/a	423.515	BM05HAS.jpg
393.04	0.514	Blank	Blank	79.349	n/a	4	10	14	n/a	74	n/a	2	n/a	n/a	n/a	n/a	424.013	n/a
393.571	0.497	angry	Picture	78.835	n/a	4	10	15	n/a	75	68	2	n/a	n/a	n/a	n/a	424.543	AM09HAS.jpg
394.068	0.514	Blank	Blank	78.321	n/a	4	10	15	n/a	75	n/a	2	n/a	n/a	n/a	n/a	425.041	n/a
394.599	0.497	angry	Picture	77.807	n/a	4	10	16	n/a	76	54	2	n/a	n/a	n/a	n/a	425.571	AF23HAS.jpg
395.096	0.514	Blank	Blank	77.293	n/a	4	10	16	n/a	76	n/a	2	n/a	n/a	n/a	n/a	426.068	n/a
395.627	0.497	angry	Picture	76.779	n/a	4	10	17	n/a	77	53	2	n/a	n/a	n/a	n/a	426.599	BF22HAS.jpg
396.124	0.514	Blank	Blank	76.265	n/a	4	10	17	n/a	77	n/a	2	n/a	n/a	n/a	n/a	427.096	n/a
396.654	0.497	angry	Picture	75.751	n/a	4	10	18	n/a	78	44	2	n/a	n/a	n/a	n/a	427.627	AF05HAS.jpg
397.152	0.514	Blank	Blank	75.237	n/a	4	10	18	n/a	78	n/a	2	n/a	n/a	n/a	n/a	428.124	n/a
397.682	0.497	angry	Picture	74.723	n/a	4	10	19	n/a	79	52	2	n/a	n/a	n/a	n/a	428.655	AF21HAS.jpg
398.18	0.514	Blank	Blank	74.209	n/a	4	10	19	n/a	79	n/a	2	n/a	n/a	n/a	n/a	429.152	n/a
398.71	0.497	angry	Picture	73.695	n/a	4	10	20	n/a	80	62	2	n/a	n/a	n/a	n/a	429.683	BM03HAS.jpg
399.208	0.514	Blank	Blank	73.182	n/a	4	10	20	n/a	80	n/a	2	n/a	n/a	n/a	n/a	430.18	n/a
399.738	10.014	ITI	Fixation+	63.151	n/a	4	n/a	n/a	n/a	n/a	n/a	n/a	n/a	n/a	n/a	n/a	430.711	n/a
409.768	0.497	neutral	Picture	62.637	n/a	4	11	1	n/a	81	23	1	n/a	n/a	n/a	n/a	440.741	AM04NES.jpg
410.266	0.514	Blank	Blank	62.124	n/a	4	11	1	n/a	81	n/a	1	n/a	n/a	n/a	n/a	441.238	n/a
410.796	0.497	neutral	Picture	61.61	n/a	4	11	2	n/a	82	29	1	n/a	n/a	n/a	n/a	441.769	AM10NES.jpg
411.293	0.514	Blank	Blank	61.096	n/a	4	11	2	n/a	82	n/a	1	n/a	n/a	n/a	n/a	442.266	n/a
411.824	0.497	neutral	Picture	60.582	n/a	4	11	3	n/a	83	24	1	n/a	n/a	n/a	n/a	442.796	BM05NES.jpg
412.321	0.514	Blank	Blank	60.068	n/a	4	11	3	n/a	83	n/a	1	n/a	n/a	n/a	n/a	443.294	n/a
412.852	0.497	neutral	Picture	59.554	n/a	4	11	4	n/a	84	12	1	n/a	n/a	n/a	n/a	443.824	AF21NES.jpg
413.349	0.514	Blank	Blank	59.04	n/a	4	11	4	n/a	84	n/a	1	n/a	n/a	n/a	n/a	444.322	n/a
413.88	0.497	neutral	Picture	58.526	n/a	4	11	5	n/a	85	13	1	n/a	n/a	n/a	n/a	444.852	BF22NES.jpg
414.377	0.514	Blank	Blank	58.012	n/a	4	11	5	n/a	85	n/a	1	n/a	n/a	n/a	n/a	445.349	n/a
414.908	0.497	neutral	Picture	57.498	n/a	4	11	6	n/a	86	17	1	n/a	n/a	n/a	n/a	445.88	BF28NES.jpg
415.405	0.514	Blank	Blank	56.984	n/a	4	11	6	n/a	86	n/a	1	n/a	n/a	n/a	n/a	446.377	n/a
415.935	0.497	neutral	Picture	56.47	n/a	4	11	7	n/a	87	4	1	n/a	n/a	n/a	n/a	446.908	AF05NES.jpg
416.433	0.514	Blank	Blank	55.956	n/a	4	11	7	n/a	87	n/a	1	n/a	n/a	n/a	n/a	447.405	n/a
416.963	0.497	neutral	Picture	55.442	n/a	4	11	8	n/a	88	11	1	n/a	n/a	n/a	n/a	447.936	AF20NES.jpg
417.461	0.514	Blank	Blank	54.928	n/a	4	11	8	n/a	88	n/a	1	n/a	n/a	n/a	n/a	448.433	n/a
417.991	0.497	neutral	Picture	54.414	n/a	4	11	9	n/a	89	22	1	n/a	n/a	n/a	n/a	448.964	BM03NES.jpg
418.489	0.514	Blank	Blank	53.901	n/a	4	11	9	n/a	89	n/a	1	n/a	n/a	n/a	n/a	449.461	n/a
419.019	0.497	neutral	Picture	53.387	n/a	4	11	10	n/a	90	15	1	n/a	n/a	n/a	n/a	449.992	AF25NES.jpg
419.517	0.514	Blank	Blank	52.873	n/a	4	11	10	n/a	90	n/a	1	n/a	n/a	n/a	n/a	450.489	n/a
420.047	0.497	neutral	Picture	52.359	n/a	4	11	11	n/a	91	19	1	n/a	n/a	n/a	n/a	451.019	AF31NES.jpg
420.544	0.514	Blank	Blank	51.845	n/a	4	11	11	n/a	91	n/a	1	n/a	n/a	n/a	n/a	451.517	n/a
421.075	0.497	neutral	Picture	51.331	n/a	4	11	12	n/a	92	9	1	n/a	n/a	n/a	n/a	452.047	AF17NES.jpg
421.572	0.514	Blank	Blank	50.817	n/a	4	11	12	n/a	92	n/a	1	n/a	n/a	n/a	n/a	452.545	n/a
422.103	0.497	neutral	Picture	50.303	n/a	4	11	13	n/a	93	14	1	n/a	n/a	n/a	n/a	453.075	AF23NES.jpg
422.6	0.514	Blank	Blank	49.789	n/a	4	11	13	n/a	93	n/a	1	n/a	n/a	n/a	n/a	453.573	n/a
423.131	0.497	neutral	Picture	49.275	n/a	4	11	14	n/a	94	36	1	n/a	n/a	n/a	n/a	454.103	BM24NES.jpg
423.628	0.514	Blank	Blank	48.761	n/a	4	11	14	n/a	94	n/a	1	n/a	n/a	n/a	n/a	454.601	n/a
424.159	0.497	neutral	Picture	48.247	n/a	4	11	15	n/a	95	34	1	n/a	n/a	n/a	n/a	455.131	AM22NES.jpg
424.656	0.514	Blank	Blank	47.733	n/a	4	11	15	n/a	95	n/a	1	n/a	n/a	n/a	n/a	455.628	n/a
425.187	0.497	neutral	Picture	47.219	n/a	4	11	16	n/a	96	10	1	n/a	n/a	n/a	n/a	456.159	AF18NES.jpg
425.684	0.514	Blank	Blank	46.705	n/a	4	11	16	n/a	96	n/a	1	n/a	n/a	n/a	n/a	456.656	n/a
426.214	0.497	neutral	Picture	46.191	n/a	4	11	17	n/a	97	5	1	n/a	n/a	n/a	n/a	457.187	BF07NES.jpg
426.712	0.514	Blank	Blank	45.677	n/a	4	11	17	n/a	97	n/a	1	n/a	n/a	n/a	n/a	457.684	n/a
427.242	0.497	neutral	Picture	45.163	n/a	4	11	18	n/a	98	25	1	n/a	n/a	n/a	n/a	458.215	BM06NES.jpg
427.74	0.514	Blank	Blank	44.65	n/a	4	11	18	n/a	98	n/a	1	n/a	n/a	n/a	n/a	458.712	n/a
428.27	0.497	neutral	Picture	44.136	n/a	4	11	19	n/a	99	39	1	n/a	n/a	n/a	n/a	459.243	AM28NES.jpg
428.767	0.514	Blank	Blank	43.622	n/a	4	11	19	n/a	99	n/a	1	n/a	n/a	n/a	n/a	459.74	n/a
429.298	0.497	neutral	Picture	43.108	n/a	4	11	20	n/a	100	33	1	n/a	n/a	n/a	n/a	460.27	AM21NES.jpg
429.795	0.514	Blank	Blank	42.594	n/a	4	11	20	n/a	100	n/a	1	n/a	n/a	n/a	n/a	460.768	n/a
430.326	10.014	ITI	Fixation+	32.564	n/a	4	n/a	n/a	n/a	n/a	n/a	n/a	n/a	n/a	n/a	n/a	461.298	n/a
440.356	0.497	angry	Picture	32.05	n/a	4	12	1	n/a	101	74	2	n/a	n/a	n/a	n/a	471.328	AM22HAS.jpg
440.853	0.514	Blank	Blank	31.536	n/a	4	12	1	n/a	101	n/a	2	n/a	n/a	n/a	n/a	471.826	n/a
441.384	0.497	angry	Picture	31.022	n/a	4	12	2	n/a	102	76	2	n/a	n/a	n/a	n/a	472.356	BM24HAS.jpg
441.881	0.514	Blank	Blank	30.508	n/a	4	12	2	n/a	102	n/a	2	n/a	n/a	n/a	n/a	472.854	n/a
442.412	0.497	angry	Picture	29.994	n/a	4	12	3	n/a	103	80	2	n/a	n/a	n/a	n/a	473.384	BM35HAS.jpg
442.909	0.514	Blank	Blank	29.48	n/a	4	12	3	n/a	103	n/a	2	n/a	n/a	n/a	n/a	473.882	n/a
443.44	0.497	angry	Picture	28.966	n/a	4	12	4	n/a	104	75	2	n/a	n/a	n/a	n/a	474.412	AM23HAS.jpg
443.937	0.514	Blank	Blank	28.452	n/a	4	12	4	n/a	104	n/a	2	n/a	n/a	n/a	n/a	474.909	n/a
444.468	0.497	angry	Picture	27.938	n/a	4	12	5	n/a	105	49	2	n/a	n/a	n/a	n/a	475.44	AF17HAS.jpg
444.965	0.514	Blank	Blank	27.424	n/a	4	12	5	n/a	105	n/a	2	n/a	n/a	n/a	n/a	475.937	n/a
445.495	0.497	angry	Picture	26.91	n/a	4	12	6	n/a	106	43	2	n/a	n/a	n/a	n/a	476.468	BF04HAS.jpg
445.993	0.514	Blank	Blank	26.396	n/a	4	12	6	n/a	106	n/a	2	n/a	n/a	n/a	n/a	476.965	n/a
446.523	0.497	angry	Picture	25.882	n/a	4	12	7	n/a	107	70	2	n/a	n/a	n/a	n/a	477.496	BM11HAS.jpg
447.021	0.514	Blank	Blank	25.368	n/a	4	12	7	n/a	107	n/a	2	n/a	n/a	n/a	n/a	477.993	n/a
447.551	0.497	angry	Picture	24.854	n/a	4	12	8	n/a	108	66	2	n/a	n/a	n/a	n/a	478.524	BM07HAS.jpg
448.049	0.514	Blank	Blank	24.341	n/a	4	12	8	n/a	108	n/a	2	n/a	n/a	n/a	n/a	479.021	n/a
448.579	0.497	angry	Picture	23.827	n/a	4	12	9	n/a	109	48	2	n/a	n/a	n/a	n/a	479.551	AF14HAS.jpg
449.077	0.514	Blank	Blank	23.313	n/a	4	12	9	n/a	109	n/a	2	n/a	n/a	n/a	n/a	480.049	n/a
449.607	0.497	angry	Picture	22.799	n/a	4	12	10	n/a	110	58	2	n/a	n/a	n/a	n/a	480.579	BF29HAS.jpg
450.104	0.514	Blank	Blank	22.285	n/a	4	12	10	n/a	110	n/a	2	n/a	n/a	n/a	n/a	481.077	n/a
450.635	0.497	angry	Picture	21.771	n/a	4	12	11	n/a	111	63	2	n/a	n/a	n/a	n/a	481.607	AM04HAS.jpg
451.132	0.514	Blank	Blank	21.257	n/a	4	12	11	n/a	111	n/a	2	n/a	n/a	n/a	n/a	482.105	n/a
451.663	0.497	angry	Picture	20.743	n/a	4	12	12	n/a	112	72	2	n/a	n/a	n/a	n/a	482.635	AM14HAS.jpg
452.16	0.514	Blank	Blank	20.229	n/a	4	12	12	n/a	112	n/a	2	n/a	n/a	n/a	n/a	483.132	n/a
452.691	0.497	angry	Picture	19.715	n/a	4	12	13	n/a	113	55	2	n/a	n/a	n/a	n/a	483.663	AF25HAS.jpg
453.188	0.514	Blank	Blank	19.201	n/a	4	12	13	n/a	113	n/a	2	n/a	n/a	n/a	n/a	484.16	n/a
453.719	0.497	angry	Picture	18.687	n/a	4	12	14	n/a	114	42	2	n/a	n/a	n/a	n/a	484.691	AF03HAS.jpg
454.216	0.514	Blank	Blank	18.173	n/a	4	12	14	n/a	114	n/a	2	n/a	n/a	n/a	n/a	485.188	n/a
454.746	0.497	angry	Picture	17.659	n/a	4	12	15	n/a	115	60	2	n/a	n/a	n/a	n/a	485.719	AF32HAS.jpg
455.244	0.514	Blank	Blank	17.145	n/a	4	12	15	n/a	115	n/a	2	n/a	n/a	n/a	n/a	486.216	n/a
455.774	0.497	angry	Picture	16.632	n/a	4	12	16	n/a	116	67	2	n/a	n/a	n/a	n/a	486.747	BM08HAS.jpg
456.272	0.514	Blank	Blank	16.117	n/a	4	12	16	n/a	116	n/a	2	n/a	n/a	n/a	n/a	487.244	n/a
456.802	0.497	angry	Picture	15.604	n/a	4	12	17	n/a	117	51	2	n/a	n/a	n/a	n/a	487.774	AF20HAS.jpg
457.3	0.514	Blank	Blank	15.09	n/a	4	12	17	n/a	117	n/a	2	n/a	n/a	n/a	n/a	488.272	n/a
457.83	0.497	angry	Picture	14.576	n/a	4	12	18	n/a	118	71	2	n/a	n/a	n/a	n/a	488.802	BM12HAS.jpg
458.327	0.514	Blank	Blank	14.062	n/a	4	12	18	n/a	118	n/a	2	n/a	n/a	n/a	n/a	489.3	n/a
458.858	0.497	angry	Picture	13.548	n/a	4	12	19	n/a	119	69	2	n/a	n/a	n/a	n/a	489.83	AM10HAS.jpg
459.355	0.514	Blank	Blank	13.034	n/a	4	12	19	n/a	119	n/a	2	n/a	n/a	n/a	n/a	490.328	n/a
459.886	0.497	angry	Picture	12.52	n/a	4	12	20	n/a	120	46	2	n/a	n/a	n/a	n/a	490.858	AF09HAS.jpg
460.383	0.514	Blank	Blank	12.006	n/a	4	12	20	n/a	120	n/a	2	n/a	n/a	n/a	n/a	491.356	n/a
460.914	10.014	ITI	Fixation+	1.976	n/a	4	n/a	n/a	n/a	n/a	n/a	n/a	n/a	n/a	n/a	n/a	491.886	n/a
472.903	n/a	ConfirmRating	Rate	n/a	1.973	4	n/a	n/a	0	n/a	n/a	n/a	2	Angry	50	50	503.875	n/a
483.182	n/a	ConfirmRating	Rate	n/a	10.262	4	n/a	n/a	1	n/a	n/a	n/a	3	Angry	0	48	514.154	n/a
