onset	duration	trial_type	event_type	time_until_response	response_time	trial_number	block_num_within_trial	image_seq_num_within_block	question_seq_num_within_block	image_seq_num	picture_number	condition	question_type	block_type	rating	rating_computed	onset_uncorrected	KDEV_imagefile
0.009	10.014	ITI	Fixation+	105.706	n/a	1	n/a	n/a	n/a	n/a	n/a	n/a	n/a	n/a	n/a	n/a	30.019	n/a
10.039	0.497	angry	Picture	105.192	n/a	1	1	1	n/a	1	46	2	n/a	n/a	n/a	n/a	40.049	AF09HAS.jpg
10.537	0.514	Blank	Blank	104.678	n/a	1	1	1	n/a	1	n/a	2	n/a	n/a	n/a	n/a	40.546	n/a
11.067	0.497	angry	Picture	104.164	n/a	1	1	2	n/a	2	69	2	n/a	n/a	n/a	n/a	41.077	AM10HAS.jpg
11.564	0.514	Blank	Blank	103.65	n/a	1	1	2	n/a	2	n/a	2	n/a	n/a	n/a	n/a	41.574	n/a
12.095	0.497	angry	Picture	103.136	n/a	1	1	3	n/a	3	71	2	n/a	n/a	n/a	n/a	42.105	BM12HAS.jpg
12.592	0.514	Blank	Blank	102.622	n/a	1	1	3	n/a	3	n/a	2	n/a	n/a	n/a	n/a	42.602	n/a
13.123	0.497	angry	Picture	102.108	n/a	1	1	4	n/a	4	51	2	n/a	n/a	n/a	n/a	43.133	AF20HAS.jpg
13.62	0.514	Blank	Blank	101.594	n/a	1	1	4	n/a	4	n/a	2	n/a	n/a	n/a	n/a	43.63	n/a
14.151	0.497	angry	Picture	101.08	n/a	1	1	5	n/a	5	67	2	n/a	n/a	n/a	n/a	44.161	BM08HAS.jpg
14.648	0.514	Blank	Blank	100.566	n/a	1	1	5	n/a	5	n/a	2	n/a	n/a	n/a	n/a	44.658	n/a
15.179	0.497	angry	Picture	100.052	n/a	1	1	6	n/a	6	60	2	n/a	n/a	n/a	n/a	45.188	AF32HAS.jpg
15.676	0.514	Blank	Blank	99.538	n/a	1	1	6	n/a	6	n/a	2	n/a	n/a	n/a	n/a	45.686	n/a
16.207	0.497	angry	Picture	99.025	n/a	1	1	7	n/a	7	42	2	n/a	n/a	n/a	n/a	46.216	AF03HAS.jpg
16.704	0.514	Blank	Blank	98.511	n/a	1	1	7	n/a	7	n/a	2	n/a	n/a	n/a	n/a	46.714	n/a
17.234	0.497	angry	Picture	97.997	n/a	1	1	8	n/a	8	55	2	n/a	n/a	n/a	n/a	47.244	AF25HAS.jpg
17.732	0.514	Blank	Blank	97.483	n/a	1	1	8	n/a	8	n/a	2	n/a	n/a	n/a	n/a	47.742	n/a
18.262	0.497	angry	Picture	96.969	n/a	1	1	9	n/a	9	72	2	n/a	n/a	n/a	n/a	48.272	AM14HAS.jpg
18.76	0.514	Blank	Blank	96.455	n/a	1	1	9	n/a	9	n/a	2	n/a	n/a	n/a	n/a	48.77	n/a
19.29	0.497	angry	Picture	95.941	n/a	1	1	10	n/a	10	63	2	n/a	n/a	n/a	n/a	49.3	AM04HAS.jpg
19.788	0.514	Blank	Blank	95.427	n/a	1	1	10	n/a	10	n/a	2	n/a	n/a	n/a	n/a	49.797	n/a
20.318	0.497	angry	Picture	94.913	n/a	1	1	11	n/a	11	58	2	n/a	n/a	n/a	n/a	50.328	BF29HAS.jpg
20.815	0.514	Blank	Blank	94.399	n/a	1	1	11	n/a	11	n/a	2	n/a	n/a	n/a	n/a	50.825	n/a
21.346	0.497	angry	Picture	93.885	n/a	1	1	12	n/a	12	48	2	n/a	n/a	n/a	n/a	51.356	AF14HAS.jpg
21.843	0.514	Blank	Blank	93.371	n/a	1	1	12	n/a	12	n/a	2	n/a	n/a	n/a	n/a	51.853	n/a
22.374	0.497	angry	Picture	92.857	n/a	1	1	13	n/a	13	66	2	n/a	n/a	n/a	n/a	52.384	BM07HAS.jpg
22.871	0.514	Blank	Blank	92.343	n/a	1	1	13	n/a	13	n/a	2	n/a	n/a	n/a	n/a	52.881	n/a
23.402	0.497	angry	Picture	91.829	n/a	1	1	14	n/a	14	70	2	n/a	n/a	n/a	n/a	53.412	BM11HAS.jpg
23.899	0.514	Blank	Blank	91.315	n/a	1	1	14	n/a	14	n/a	2	n/a	n/a	n/a	n/a	53.909	n/a
24.43	0.497	angry	Picture	90.801	n/a	1	1	15	n/a	15	43	2	n/a	n/a	n/a	n/a	54.44	BF04HAS.jpg
24.927	0.514	Blank	Blank	90.287	n/a	1	1	15	n/a	15	n/a	2	n/a	n/a	n/a	n/a	54.937	n/a
25.457	0.497	angry	Picture	89.773	n/a	1	1	16	n/a	16	49	2	n/a	n/a	n/a	n/a	55.467	AF17HAS.jpg
25.955	0.514	Blank	Blank	89.26	n/a	1	1	16	n/a	16	n/a	2	n/a	n/a	n/a	n/a	55.965	n/a
26.485	0.497	angry	Picture	88.746	n/a	1	1	17	n/a	17	75	2	n/a	n/a	n/a	n/a	56.495	AM23HAS.jpg
26.983	0.514	Blank	Blank	88.232	n/a	1	1	17	n/a	17	n/a	2	n/a	n/a	n/a	n/a	56.993	n/a
27.513	0.497	angry	Picture	87.718	n/a	1	1	18	n/a	18	80	2	n/a	n/a	n/a	n/a	57.523	BM35HAS.jpg
28.011	0.514	Blank	Blank	87.204	n/a	1	1	18	n/a	18	n/a	2	n/a	n/a	n/a	n/a	58.02	n/a
28.541	0.497	angry	Picture	86.69	n/a	1	1	19	n/a	19	76	2	n/a	n/a	n/a	n/a	58.551	BM24HAS.jpg
29.039	0.514	Blank	Blank	86.176	n/a	1	1	19	n/a	19	n/a	2	n/a	n/a	n/a	n/a	59.048	n/a
29.569	0.497	angry	Picture	85.662	n/a	1	1	20	n/a	20	74	2	n/a	n/a	n/a	n/a	59.579	AM22HAS.jpg
30.066	0.514	Blank	Blank	85.148	n/a	1	1	20	n/a	20	n/a	2	n/a	n/a	n/a	n/a	60.076	n/a
30.597	10.014	ITI	Fixation+	75.118	n/a	1	n/a	n/a	n/a	n/a	n/a	n/a	n/a	n/a	n/a	n/a	60.607	n/a
40.627	0.497	neutral	Picture	74.604	n/a	1	2	1	n/a	21	33	1	n/a	n/a	n/a	n/a	70.637	AM21NES.jpg
41.124	0.514	Blank	Blank	74.09	n/a	1	2	1	n/a	21	n/a	1	n/a	n/a	n/a	n/a	71.134	n/a
41.655	0.497	neutral	Picture	73.576	n/a	1	2	2	n/a	22	39	1	n/a	n/a	n/a	n/a	71.665	AM28NES.jpg
42.152	0.514	Blank	Blank	73.062	n/a	1	2	2	n/a	22	n/a	1	n/a	n/a	n/a	n/a	72.162	n/a
42.683	0.497	neutral	Picture	72.548	n/a	1	2	3	n/a	23	25	1	n/a	n/a	n/a	n/a	72.693	BM06NES.jpg
43.18	0.514	Blank	Blank	72.034	n/a	1	2	3	n/a	23	n/a	1	n/a	n/a	n/a	n/a	73.19	n/a
43.711	0.497	neutral	Picture	71.52	n/a	1	2	4	n/a	24	5	1	n/a	n/a	n/a	n/a	73.721	BF07NES.jpg
44.208	0.514	Blank	Blank	71.006	n/a	1	2	4	n/a	24	n/a	1	n/a	n/a	n/a	n/a	74.218	n/a
44.739	0.497	neutral	Picture	70.492	n/a	1	2	5	n/a	25	10	1	n/a	n/a	n/a	n/a	74.749	AF18NES.jpg
45.236	0.514	Blank	Blank	69.978	n/a	1	2	5	n/a	25	n/a	1	n/a	n/a	n/a	n/a	75.246	n/a
45.766	0.497	neutral	Picture	69.464	n/a	1	2	6	n/a	26	34	1	n/a	n/a	n/a	n/a	75.776	AM22NES.jpg
46.264	0.514	Blank	Blank	68.951	n/a	1	2	6	n/a	26	n/a	1	n/a	n/a	n/a	n/a	76.274	n/a
46.794	0.497	neutral	Picture	68.437	n/a	1	2	7	n/a	27	36	1	n/a	n/a	n/a	n/a	76.804	BM24NES.jpg
47.292	0.514	Blank	Blank	67.923	n/a	1	2	7	n/a	27	n/a	1	n/a	n/a	n/a	n/a	77.302	n/a
47.822	0.497	neutral	Picture	67.409	n/a	1	2	8	n/a	28	14	1	n/a	n/a	n/a	n/a	77.832	AF23NES.jpg
48.32	0.514	Blank	Blank	66.895	n/a	1	2	8	n/a	28	n/a	1	n/a	n/a	n/a	n/a	78.329	n/a
48.85	0.497	neutral	Picture	66.381	n/a	1	2	9	n/a	29	9	1	n/a	n/a	n/a	n/a	78.86	AF17NES.jpg
49.347	0.514	Blank	Blank	65.867	n/a	1	2	9	n/a	29	n/a	1	n/a	n/a	n/a	n/a	79.357	n/a
49.878	0.497	neutral	Picture	65.353	n/a	1	2	10	n/a	30	19	1	n/a	n/a	n/a	n/a	79.888	AF31NES.jpg
50.375	0.514	Blank	Blank	64.839	n/a	1	2	10	n/a	30	n/a	1	n/a	n/a	n/a	n/a	80.385	n/a
50.906	0.497	neutral	Picture	64.325	n/a	1	2	11	n/a	31	15	1	n/a	n/a	n/a	n/a	80.916	AF25NES.jpg
51.403	0.514	Blank	Blank	63.811	n/a	1	2	11	n/a	31	n/a	1	n/a	n/a	n/a	n/a	81.413	n/a
51.934	0.497	neutral	Picture	63.297	n/a	1	2	12	n/a	32	22	1	n/a	n/a	n/a	n/a	81.944	BM03NES.jpg
52.431	0.514	Blank	Blank	62.783	n/a	1	2	12	n/a	32	n/a	1	n/a	n/a	n/a	n/a	82.441	n/a
52.962	0.497	neutral	Picture	62.269	n/a	1	2	13	n/a	33	11	1	n/a	n/a	n/a	n/a	82.972	AF20NES.jpg
53.459	0.514	Blank	Blank	61.755	n/a	1	2	13	n/a	33	n/a	1	n/a	n/a	n/a	n/a	83.469	n/a
53.99	0.497	neutral	Picture	61.241	n/a	1	2	14	n/a	34	4	1	n/a	n/a	n/a	n/a	83.999	AF05NES.jpg
54.487	0.514	Blank	Blank	60.727	n/a	1	2	14	n/a	34	n/a	1	n/a	n/a	n/a	n/a	84.497	n/a
55.017	0.497	neutral	Picture	60.214	n/a	1	2	15	n/a	35	17	1	n/a	n/a	n/a	n/a	85.027	BF28NES.jpg
55.515	0.514	Blank	Blank	59.7	n/a	1	2	15	n/a	35	n/a	1	n/a	n/a	n/a	n/a	85.525	n/a
56.045	0.497	neutral	Picture	59.186	n/a	1	2	16	n/a	36	13	1	n/a	n/a	n/a	n/a	86.055	BF22NES.jpg
56.543	0.514	Blank	Blank	58.672	n/a	1	2	16	n/a	36	n/a	1	n/a	n/a	n/a	n/a	86.553	n/a
57.073	0.497	neutral	Picture	58.158	n/a	1	2	17	n/a	37	12	1	n/a	n/a	n/a	n/a	87.083	AF21NES.jpg
57.571	0.514	Blank	Blank	57.644	n/a	1	2	17	n/a	37	n/a	1	n/a	n/a	n/a	n/a	87.581	n/a
58.101	0.497	neutral	Picture	57.13	n/a	1	2	18	n/a	38	24	1	n/a	n/a	n/a	n/a	88.111	BM05NES.jpg
58.599	0.514	Blank	Blank	56.616	n/a	1	2	18	n/a	38	n/a	1	n/a	n/a	n/a	n/a	88.608	n/a
59.129	0.497	neutral	Picture	56.102	n/a	1	2	19	n/a	39	29	1	n/a	n/a	n/a	n/a	89.139	AM10NES.jpg
59.626	0.514	Blank	Blank	55.588	n/a	1	2	19	n/a	39	n/a	1	n/a	n/a	n/a	n/a	89.636	n/a
60.157	0.497	neutral	Picture	55.074	n/a	1	2	20	n/a	40	23	1	n/a	n/a	n/a	n/a	90.167	AM04NES.jpg
60.654	0.514	Blank	Blank	54.56	n/a	1	2	20	n/a	40	n/a	1	n/a	n/a	n/a	n/a	90.664	n/a
61.185	10.014	ITI	Fixation+	44.53	n/a	1	n/a	n/a	n/a	n/a	n/a	n/a	n/a	n/a	n/a	n/a	91.195	n/a
71.215	0.497	angry	Picture	44.016	n/a	1	3	1	n/a	41	62	2	n/a	n/a	n/a	n/a	101.225	BM03HAS.jpg
71.712	0.514	Blank	Blank	43.502	n/a	1	3	1	n/a	41	n/a	2	n/a	n/a	n/a	n/a	101.722	n/a
72.243	0.497	angry	Picture	42.988	n/a	1	3	2	n/a	42	52	2	n/a	n/a	n/a	n/a	102.253	AF21HAS.jpg
72.74	0.514	Blank	Blank	42.474	n/a	1	3	2	n/a	42	n/a	2	n/a	n/a	n/a	n/a	102.75	n/a
73.271	0.497	angry	Picture	41.96	n/a	1	3	3	n/a	43	44	2	n/a	n/a	n/a	n/a	103.281	AF05HAS.jpg
73.768	0.514	Blank	Blank	41.446	n/a	1	3	3	n/a	43	n/a	2	n/a	n/a	n/a	n/a	103.778	n/a
74.299	0.497	angry	Picture	40.932	n/a	1	3	4	n/a	44	53	2	n/a	n/a	n/a	n/a	104.308	BF22HAS.jpg
74.796	0.514	Blank	Blank	40.418	n/a	1	3	4	n/a	44	n/a	2	n/a	n/a	n/a	n/a	104.806	n/a
75.326	0.497	angry	Picture	39.904	n/a	1	3	5	n/a	45	54	2	n/a	n/a	n/a	n/a	105.336	AF23HAS.jpg
75.824	0.514	Blank	Blank	39.391	n/a	1	3	5	n/a	45	n/a	2	n/a	n/a	n/a	n/a	105.834	n/a
76.354	0.497	angry	Picture	38.877	n/a	1	3	6	n/a	46	68	2	n/a	n/a	n/a	n/a	106.364	AM09HAS.jpg
76.852	0.514	Blank	Blank	38.363	n/a	1	3	6	n/a	46	n/a	2	n/a	n/a	n/a	n/a	106.862	n/a
77.382	0.497	angry	Picture	37.849	n/a	1	3	7	n/a	47	64	2	n/a	n/a	n/a	n/a	107.392	BM05HAS.jpg
77.88	0.514	Blank	Blank	37.335	n/a	1	3	7	n/a	47	n/a	2	n/a	n/a	n/a	n/a	107.889	n/a
78.41	0.497	angry	Picture	36.821	n/a	1	3	8	n/a	48	59	2	n/a	n/a	n/a	n/a	108.42	AF31HAS.jpg
78.907	0.514	Blank	Blank	36.307	n/a	1	3	8	n/a	48	n/a	2	n/a	n/a	n/a	n/a	108.917	n/a
79.438	0.497	angry	Picture	35.793	n/a	1	3	9	n/a	49	41	2	n/a	n/a	n/a	n/a	109.448	AF01HAS.jpg
79.935	0.514	Blank	Blank	35.279	n/a	1	3	9	n/a	49	n/a	2	n/a	n/a	n/a	n/a	109.945	n/a
80.466	0.497	angry	Picture	34.765	n/a	1	3	10	n/a	50	73	2	n/a	n/a	n/a	n/a	110.476	AM21HAS.jpg
80.963	0.514	Blank	Blank	34.251	n/a	1	3	10	n/a	50	n/a	2	n/a	n/a	n/a	n/a	110.973	n/a
81.494	0.497	angry	Picture	33.737	n/a	1	3	11	n/a	51	65	2	n/a	n/a	n/a	n/a	111.504	BM06HAS.jpg
81.991	0.514	Blank	Blank	33.223	n/a	1	3	11	n/a	51	n/a	2	n/a	n/a	n/a	n/a	112.001	n/a
82.522	0.497	angry	Picture	32.709	n/a	1	3	12	n/a	52	56	2	n/a	n/a	n/a	n/a	112.532	AF26HAS.jpg
83.019	0.514	Blank	Blank	32.195	n/a	1	3	12	n/a	52	n/a	2	n/a	n/a	n/a	n/a	113.029	n/a
83.55	0.497	angry	Picture	31.681	n/a	1	3	13	n/a	53	45	2	n/a	n/a	n/a	n/a	113.559	BF07HAS.jpg
84.047	0.514	Blank	Blank	31.167	n/a	1	3	13	n/a	53	n/a	2	n/a	n/a	n/a	n/a	114.057	n/a
84.578	0.497	angry	Picture	30.654	n/a	1	3	14	n/a	54	78	2	n/a	n/a	n/a	n/a	114.587	BM26HAS.jpg
85.075	0.514	Blank	Blank	30.14	n/a	1	3	14	n/a	54	n/a	2	n/a	n/a	n/a	n/a	115.085	n/a
85.605	0.497	angry	Picture	29.626	n/a	1	3	15	n/a	55	50	2	n/a	n/a	n/a	n/a	115.615	AF18HAS.jpg
86.103	0.514	Blank	Blank	29.112	n/a	1	3	15	n/a	55	n/a	2	n/a	n/a	n/a	n/a	116.113	n/a
86.633	0.497	angry	Picture	28.598	n/a	1	3	16	n/a	56	47	2	n/a	n/a	n/a	n/a	116.643	BF11HAS.jpg
87.131	0.514	Blank	Blank	28.084	n/a	1	3	16	n/a	56	n/a	2	n/a	n/a	n/a	n/a	117.141	n/a
87.661	0.497	angry	Picture	27.57	n/a	1	3	17	n/a	57	77	2	n/a	n/a	n/a	n/a	117.671	BM25HAS.jpg
88.159	0.514	Blank	Blank	27.056	n/a	1	3	17	n/a	57	n/a	2	n/a	n/a	n/a	n/a	118.168	n/a
88.689	0.497	angry	Picture	26.542	n/a	1	3	18	n/a	58	57	2	n/a	n/a	n/a	n/a	118.699	BF28HAS.jpg
89.186	0.514	Blank	Blank	26.028	n/a	1	3	18	n/a	58	n/a	2	n/a	n/a	n/a	n/a	119.196	n/a
89.717	0.497	angry	Picture	25.514	n/a	1	3	19	n/a	59	61	2	n/a	n/a	n/a	n/a	119.727	AM01HAS.jpg
90.214	0.514	Blank	Blank	25.0	n/a	1	3	19	n/a	59	n/a	2	n/a	n/a	n/a	n/a	120.224	n/a
90.745	0.497	angry	Picture	24.486	n/a	1	3	20	n/a	60	79	2	n/a	n/a	n/a	n/a	120.755	BM28HAS.jpg
91.242	0.514	Blank	Blank	23.972	n/a	1	3	20	n/a	60	n/a	2	n/a	n/a	n/a	n/a	121.252	n/a
91.773	10.014	ITI	Fixation+	13.942	n/a	1	n/a	n/a	n/a	n/a	n/a	n/a	n/a	n/a	n/a	n/a	121.783	n/a
115.728	n/a	ConfirmRating	Rate	n/a	13.927	1	n/a	n/a	0	n/a	n/a	n/a	2	Angry	40	49	145.738	n/a
133.95	n/a	ConfirmRating	Rate	n/a	18.22	1	n/a	n/a	1	n/a	n/a	n/a	3	Angry	51	49	163.96	n/a
133.982	10.014	ITI	Fixation+	106.149	n/a	2	n/a	n/a	n/a	n/a	n/a	n/a	n/a	n/a	n/a	n/a	163.992	n/a
144.013	0.497	happy	Picture	105.635	n/a	2	4	1	n/a	61	119	3	n/a	n/a	n/a	n/a	174.022	BM28ANS.jpg
144.51	0.514	Blank	Blank	105.121	n/a	2	4	1	n/a	61	n/a	3	n/a	n/a	n/a	n/a	174.52	n/a
145.04	0.497	happy	Picture	104.607	n/a	2	4	2	n/a	62	100	3	n/a	n/a	n/a	n/a	175.05	AF32ANS.jpg
145.538	0.514	Blank	Blank	104.094	n/a	2	4	2	n/a	62	n/a	3	n/a	n/a	n/a	n/a	175.548	n/a
146.068	0.497	happy	Picture	103.58	n/a	2	4	3	n/a	63	118	3	n/a	n/a	n/a	n/a	176.078	BM26ANS.jpg
146.566	0.514	Blank	Blank	103.066	n/a	2	4	3	n/a	63	n/a	3	n/a	n/a	n/a	n/a	176.576	n/a
147.096	0.497	happy	Picture	102.552	n/a	2	4	4	n/a	64	89	3	n/a	n/a	n/a	n/a	177.106	AF17ANS.jpg
147.594	0.514	Blank	Blank	102.038	n/a	2	4	4	n/a	64	n/a	3	n/a	n/a	n/a	n/a	177.603	n/a
148.124	0.497	happy	Picture	101.524	n/a	2	4	5	n/a	65	116	3	n/a	n/a	n/a	n/a	178.134	BM24ANS.jpg
148.621	0.514	Blank	Blank	101.01	n/a	2	4	5	n/a	65	n/a	3	n/a	n/a	n/a	n/a	178.631	n/a
149.152	0.497	happy	Picture	100.496	n/a	2	4	6	n/a	66	105	3	n/a	n/a	n/a	n/a	179.162	BM06ANS.jpg
149.649	0.514	Blank	Blank	99.982	n/a	2	4	6	n/a	66	n/a	3	n/a	n/a	n/a	n/a	179.659	n/a
150.18	0.497	happy	Picture	99.468	n/a	2	4	7	n/a	67	106	3	n/a	n/a	n/a	n/a	180.19	AM07ANS.jpg
150.677	0.514	Blank	Blank	98.954	n/a	2	4	7	n/a	67	n/a	3	n/a	n/a	n/a	n/a	180.687	n/a
151.208	0.497	happy	Picture	98.44	n/a	2	4	8	n/a	68	94	3	n/a	n/a	n/a	n/a	181.218	AF23ANS.jpg
151.705	0.514	Blank	Blank	97.926	n/a	2	4	8	n/a	68	n/a	3	n/a	n/a	n/a	n/a	181.715	n/a
152.236	0.497	happy	Picture	97.412	n/a	2	4	9	n/a	69	117	3	n/a	n/a	n/a	n/a	182.245	BM25ANS.jpg
152.733	0.514	Blank	Blank	96.898	n/a	2	4	9	n/a	69	n/a	3	n/a	n/a	n/a	n/a	182.743	n/a
153.264	0.497	happy	Picture	96.384	n/a	2	4	10	n/a	70	90	3	n/a	n/a	n/a	n/a	183.273	AF18ANS.jpg
153.761	0.514	Blank	Blank	95.87	n/a	2	4	10	n/a	70	n/a	3	n/a	n/a	n/a	n/a	183.771	n/a
154.291	0.497	happy	Picture	95.357	n/a	2	4	11	n/a	71	83	3	n/a	n/a	n/a	n/a	184.301	BF04ANS.jpg
154.789	0.514	Blank	Blank	94.843	n/a	2	4	11	n/a	71	n/a	3	n/a	n/a	n/a	n/a	184.799	n/a
155.319	0.497	happy	Picture	94.329	n/a	2	4	12	n/a	72	112	3	n/a	n/a	n/a	n/a	185.329	AM14ANS.jpg
155.817	0.514	Blank	Blank	93.815	n/a	2	4	12	n/a	72	n/a	3	n/a	n/a	n/a	n/a	185.827	n/a
156.347	0.497	happy	Picture	93.301	n/a	2	4	13	n/a	73	102	3	n/a	n/a	n/a	n/a	186.357	BM03ANS.jpg
156.845	0.514	Blank	Blank	92.787	n/a	2	4	13	n/a	73	n/a	3	n/a	n/a	n/a	n/a	186.854	n/a
157.375	0.497	happy	Picture	92.273	n/a	2	4	14	n/a	74	95	3	n/a	n/a	n/a	n/a	187.385	AF25ANS.jpg
157.872	0.514	Blank	Blank	91.759	n/a	2	4	14	n/a	74	n/a	3	n/a	n/a	n/a	n/a	187.882	n/a
158.403	0.497	happy	Picture	91.245	n/a	2	4	15	n/a	75	113	3	n/a	n/a	n/a	n/a	188.413	AM21ANS.jpg
158.9	0.514	Blank	Blank	90.731	n/a	2	4	15	n/a	75	n/a	3	n/a	n/a	n/a	n/a	188.91	n/a
159.431	0.497	happy	Picture	90.217	n/a	2	4	16	n/a	76	88	3	n/a	n/a	n/a	n/a	189.441	AF14ANS.jpg
159.928	0.514	Blank	Blank	89.703	n/a	2	4	16	n/a	76	n/a	3	n/a	n/a	n/a	n/a	189.938	n/a
160.459	0.497	happy	Picture	89.189	n/a	2	4	17	n/a	77	93	3	n/a	n/a	n/a	n/a	190.469	BF22ANS.jpg
160.956	0.514	Blank	Blank	88.675	n/a	2	4	17	n/a	77	n/a	3	n/a	n/a	n/a	n/a	190.966	n/a
161.487	0.497	happy	Picture	88.161	n/a	2	4	18	n/a	78	86	3	n/a	n/a	n/a	n/a	191.496	AF09ANS.jpg
161.984	0.514	Blank	Blank	87.647	n/a	2	4	18	n/a	78	n/a	3	n/a	n/a	n/a	n/a	191.994	n/a
162.515	0.497	happy	Picture	87.133	n/a	2	4	19	n/a	79	92	3	n/a	n/a	n/a	n/a	192.524	AF21ANS.jpg
163.012	0.514	Blank	Blank	86.619	n/a	2	4	19	n/a	79	n/a	3	n/a	n/a	n/a	n/a	193.022	n/a
163.542	0.497	happy	Picture	86.106	n/a	2	4	20	n/a	80	84	3	n/a	n/a	n/a	n/a	193.552	AF05ANS.jpg
164.04	0.514	Blank	Blank	85.592	n/a	2	4	20	n/a	80	n/a	3	n/a	n/a	n/a	n/a	194.05	n/a
164.57	10.014	ITI	Fixation+	75.561	n/a	2	n/a	n/a	n/a	n/a	n/a	n/a	n/a	n/a	n/a	n/a	194.58	n/a
174.6	0.497	neutral	Picture	75.047	n/a	2	5	1	n/a	81	4	1	n/a	n/a	n/a	n/a	204.61	AF05NES.jpg
175.098	0.514	Blank	Blank	74.534	n/a	2	5	1	n/a	81	n/a	1	n/a	n/a	n/a	n/a	205.108	n/a
175.628	0.497	neutral	Picture	74.02	n/a	2	5	2	n/a	82	14	1	n/a	n/a	n/a	n/a	205.638	AF23NES.jpg
176.126	0.514	Blank	Blank	73.506	n/a	2	5	2	n/a	82	n/a	1	n/a	n/a	n/a	n/a	206.136	n/a
176.656	0.497	neutral	Picture	72.992	n/a	2	5	3	n/a	83	19	1	n/a	n/a	n/a	n/a	206.666	AF31NES.jpg
177.154	0.514	Blank	Blank	72.478	n/a	2	5	3	n/a	83	n/a	1	n/a	n/a	n/a	n/a	207.163	n/a
177.684	0.497	neutral	Picture	71.964	n/a	2	5	4	n/a	84	8	1	n/a	n/a	n/a	n/a	207.694	AF14NES.jpg
178.181	0.514	Blank	Blank	71.45	n/a	2	5	4	n/a	84	n/a	1	n/a	n/a	n/a	n/a	208.191	n/a
178.712	0.497	neutral	Picture	70.936	n/a	2	5	5	n/a	85	25	1	n/a	n/a	n/a	n/a	208.722	BM06NES.jpg
179.209	0.514	Blank	Blank	70.422	n/a	2	5	5	n/a	85	n/a	1	n/a	n/a	n/a	n/a	209.219	n/a
179.74	0.497	neutral	Picture	69.908	n/a	2	5	6	n/a	86	9	1	n/a	n/a	n/a	n/a	209.75	AF17NES.jpg
180.237	0.514	Blank	Blank	69.394	n/a	2	5	6	n/a	86	n/a	1	n/a	n/a	n/a	n/a	210.247	n/a
180.768	0.497	neutral	Picture	68.88	n/a	2	5	7	n/a	87	2	1	n/a	n/a	n/a	n/a	210.778	AF03NES.jpg
181.265	0.514	Blank	Blank	68.366	n/a	2	5	7	n/a	87	n/a	1	n/a	n/a	n/a	n/a	211.275	n/a
181.796	0.497	neutral	Picture	67.852	n/a	2	5	8	n/a	88	17	1	n/a	n/a	n/a	n/a	211.805	BF28NES.jpg
182.293	0.514	Blank	Blank	67.338	n/a	2	5	8	n/a	88	n/a	1	n/a	n/a	n/a	n/a	212.303	n/a
182.824	0.497	neutral	Picture	66.824	n/a	2	5	9	n/a	89	6	1	n/a	n/a	n/a	n/a	212.833	AF09NES.jpg
183.321	0.514	Blank	Blank	66.31	n/a	2	5	9	n/a	89	n/a	1	n/a	n/a	n/a	n/a	213.331	n/a
183.851	0.497	neutral	Picture	65.797	n/a	2	5	10	n/a	90	12	1	n/a	n/a	n/a	n/a	213.861	AF21NES.jpg
184.349	0.514	Blank	Blank	65.283	n/a	2	5	10	n/a	90	n/a	1	n/a	n/a	n/a	n/a	214.359	n/a
184.879	0.497	neutral	Picture	64.769	n/a	2	5	11	n/a	91	24	1	n/a	n/a	n/a	n/a	214.889	BM05NES.jpg
185.377	0.514	Blank	Blank	64.255	n/a	2	5	11	n/a	91	n/a	1	n/a	n/a	n/a	n/a	215.387	n/a
185.907	0.497	neutral	Picture	63.741	n/a	2	5	12	n/a	92	34	1	n/a	n/a	n/a	n/a	215.917	AM22NES.jpg
186.405	0.514	Blank	Blank	63.227	n/a	2	5	12	n/a	92	n/a	1	n/a	n/a	n/a	n/a	216.414	n/a
186.935	0.497	neutral	Picture	62.713	n/a	2	5	13	n/a	93	23	1	n/a	n/a	n/a	n/a	216.945	AM04NES.jpg
187.432	0.514	Blank	Blank	62.199	n/a	2	5	13	n/a	93	n/a	1	n/a	n/a	n/a	n/a	217.442	n/a
187.963	0.497	neutral	Picture	61.685	n/a	2	5	14	n/a	94	15	1	n/a	n/a	n/a	n/a	217.973	AF25NES.jpg
188.46	0.514	Blank	Blank	61.171	n/a	2	5	14	n/a	94	n/a	1	n/a	n/a	n/a	n/a	218.47	n/a
188.991	0.497	neutral	Picture	60.657	n/a	2	5	15	n/a	95	37	1	n/a	n/a	n/a	n/a	219.001	BM25NES.jpg
189.488	0.514	Blank	Blank	60.143	n/a	2	5	15	n/a	95	n/a	1	n/a	n/a	n/a	n/a	219.498	n/a
190.019	0.497	neutral	Picture	59.629	n/a	2	5	16	n/a	96	32	1	n/a	n/a	n/a	n/a	220.029	AM14NES.jpg
190.516	0.514	Blank	Blank	59.115	n/a	2	5	16	n/a	96	n/a	1	n/a	n/a	n/a	n/a	220.526	n/a
191.047	0.497	neutral	Picture	58.601	n/a	2	5	17	n/a	97	3	1	n/a	n/a	n/a	n/a	221.056	BF04NES.jpg
191.544	0.514	Blank	Blank	58.087	n/a	2	5	17	n/a	97	n/a	1	n/a	n/a	n/a	n/a	221.554	n/a
192.075	0.497	neutral	Picture	57.573	n/a	2	5	18	n/a	98	16	1	n/a	n/a	n/a	n/a	222.084	AF26NES.jpg
192.572	0.514	Blank	Blank	57.059	n/a	2	5	18	n/a	98	n/a	1	n/a	n/a	n/a	n/a	222.582	n/a
193.102	0.497	neutral	Picture	56.546	n/a	2	5	19	n/a	99	27	1	n/a	n/a	n/a	n/a	223.112	BM08NES.jpg
193.6	0.514	Blank	Blank	56.032	n/a	2	5	19	n/a	99	n/a	1	n/a	n/a	n/a	n/a	223.61	n/a
194.13	0.497	neutral	Picture	55.518	n/a	2	5	20	n/a	100	28	1	n/a	n/a	n/a	n/a	224.14	AM09NES.jpg
194.628	0.514	Blank	Blank	55.004	n/a	2	5	20	n/a	100	n/a	1	n/a	n/a	n/a	n/a	224.637	n/a
195.158	10.014	ITI	Fixation+	44.974	n/a	2	n/a	n/a	n/a	n/a	n/a	n/a	n/a	n/a	n/a	n/a	225.168	n/a
205.188	0.497	happy	Picture	44.46	n/a	2	6	1	n/a	101	81	3	n/a	n/a	n/a	n/a	235.198	AF01ANS.jpg
205.686	0.514	Blank	Blank	43.946	n/a	2	6	1	n/a	101	n/a	3	n/a	n/a	n/a	n/a	235.696	n/a
206.216	0.497	happy	Picture	43.432	n/a	2	6	2	n/a	102	120	3	n/a	n/a	n/a	n/a	236.226	AM35ANS.jpg
206.714	0.514	Blank	Blank	42.918	n/a	2	6	2	n/a	102	n/a	3	n/a	n/a	n/a	n/a	236.724	n/a
207.244	0.497	happy	Picture	42.404	n/a	2	6	3	n/a	103	114	3	n/a	n/a	n/a	n/a	237.254	AM22ANS.jpg
207.741	0.514	Blank	Blank	41.89	n/a	2	6	3	n/a	103	n/a	3	n/a	n/a	n/a	n/a	237.751	n/a
208.272	0.497	happy	Picture	41.376	n/a	2	6	4	n/a	104	109	3	n/a	n/a	n/a	n/a	238.282	AM10ANS.jpg
208.769	0.514	Blank	Blank	40.862	n/a	2	6	4	n/a	104	n/a	3	n/a	n/a	n/a	n/a	238.779	n/a
209.3	0.497	happy	Picture	40.348	n/a	2	6	5	n/a	105	96	3	n/a	n/a	n/a	n/a	239.31	AF26ANS.jpg
209.797	0.514	Blank	Blank	39.834	n/a	2	6	5	n/a	105	n/a	3	n/a	n/a	n/a	n/a	239.807	n/a
210.328	0.497	happy	Picture	39.32	n/a	2	6	6	n/a	106	82	3	n/a	n/a	n/a	n/a	240.338	AF03ANS.jpg
210.825	0.514	Blank	Blank	38.806	n/a	2	6	6	n/a	106	n/a	3	n/a	n/a	n/a	n/a	240.835	n/a
211.356	0.497	happy	Picture	38.292	n/a	2	6	7	n/a	107	97	3	n/a	n/a	n/a	n/a	241.365	BF28ANS.jpg
211.853	0.514	Blank	Blank	37.778	n/a	2	6	7	n/a	107	n/a	3	n/a	n/a	n/a	n/a	241.863	n/a
212.384	0.497	happy	Picture	37.264	n/a	2	6	8	n/a	108	115	3	n/a	n/a	n/a	n/a	242.393	AM23ANS.jpg
212.881	0.514	Blank	Blank	36.75	n/a	2	6	8	n/a	108	n/a	3	n/a	n/a	n/a	n/a	242.891	n/a
213.411	0.497	happy	Picture	36.236	n/a	2	6	9	n/a	109	91	3	n/a	n/a	n/a	n/a	243.421	AF20ANS.jpg
213.909	0.514	Blank	Blank	35.723	n/a	2	6	9	n/a	109	n/a	3	n/a	n/a	n/a	n/a	243.919	n/a
214.439	0.497	happy	Picture	35.209	n/a	2	6	10	n/a	110	87	3	n/a	n/a	n/a	n/a	244.449	BF11ANS.jpg
214.937	0.514	Blank	Blank	34.695	n/a	2	6	10	n/a	110	n/a	3	n/a	n/a	n/a	n/a	244.946	n/a
215.467	0.497	happy	Picture	34.181	n/a	2	6	11	n/a	111	85	3	n/a	n/a	n/a	n/a	245.477	BF07ANS.jpg
215.965	0.514	Blank	Blank	33.667	n/a	2	6	11	n/a	111	n/a	3	n/a	n/a	n/a	n/a	245.974	n/a
216.495	0.497	happy	Picture	33.153	n/a	2	6	12	n/a	112	110	3	n/a	n/a	n/a	n/a	246.505	AM11ANS.jpg
216.992	0.514	Blank	Blank	32.639	n/a	2	6	12	n/a	112	n/a	3	n/a	n/a	n/a	n/a	247.002	n/a
217.523	0.497	happy	Picture	32.125	n/a	2	6	13	n/a	113	111	3	n/a	n/a	n/a	n/a	247.533	BM12ANS.jpg
218.02	0.514	Blank	Blank	31.611	n/a	2	6	13	n/a	113	n/a	3	n/a	n/a	n/a	n/a	248.03	n/a
218.551	0.497	happy	Picture	31.097	n/a	2	6	14	n/a	114	103	3	n/a	n/a	n/a	n/a	248.561	AM04ANS.jpg
219.048	0.514	Blank	Blank	30.583	n/a	2	6	14	n/a	114	n/a	3	n/a	n/a	n/a	n/a	249.058	n/a
219.579	0.497	happy	Picture	30.069	n/a	2	6	15	n/a	115	101	3	n/a	n/a	n/a	n/a	249.589	AM01ANS.jpg
220.076	0.514	Blank	Blank	29.555	n/a	2	6	15	n/a	115	n/a	3	n/a	n/a	n/a	n/a	250.086	n/a
220.607	0.497	happy	Picture	29.041	n/a	2	6	16	n/a	116	104	3	n/a	n/a	n/a	n/a	250.617	BM05ANS.jpg
221.104	0.514	Blank	Blank	28.527	n/a	2	6	16	n/a	116	n/a	3	n/a	n/a	n/a	n/a	251.114	n/a
221.635	0.497	happy	Picture	28.013	n/a	2	6	17	n/a	117	107	3	n/a	n/a	n/a	n/a	251.644	BM08ANS.jpg
222.132	0.514	Blank	Blank	27.499	n/a	2	6	17	n/a	117	n/a	3	n/a	n/a	n/a	n/a	252.142	n/a
222.662	0.497	happy	Picture	26.986	n/a	2	6	18	n/a	118	98	3	n/a	n/a	n/a	n/a	252.672	BF29ANS.jpg
223.16	0.514	Blank	Blank	26.472	n/a	2	6	18	n/a	118	n/a	3	n/a	n/a	n/a	n/a	253.17	n/a
223.69	0.497	happy	Picture	25.958	n/a	2	6	19	n/a	119	99	3	n/a	n/a	n/a	n/a	253.7	AF31ANS.jpg
224.188	0.514	Blank	Blank	25.444	n/a	2	6	19	n/a	119	n/a	3	n/a	n/a	n/a	n/a	254.197	n/a
224.718	0.497	happy	Picture	24.93	n/a	2	6	20	n/a	120	108	3	n/a	n/a	n/a	n/a	254.728	AM09ANS.jpg
225.216	0.514	Blank	Blank	24.416	n/a	2	6	20	n/a	120	n/a	3	n/a	n/a	n/a	n/a	255.225	n/a
225.746	10.014	ITI	Fixation+	14.386	n/a	2	n/a	n/a	n/a	n/a	n/a	n/a	n/a	n/a	n/a	n/a	255.756	n/a
250.145	n/a	ConfirmRating	Rate	n/a	14.373	2	n/a	n/a	0	n/a	n/a	n/a	2	Happy	67	53	280.155	n/a
255.69	n/a	ConfirmRating	Rate	n/a	5.537	2	n/a	n/a	1	n/a	n/a	n/a	3	Happy	19	47	285.7	n/a
255.72	15.004	Rest	Picture	n/a	n/a	n/a	n/a	n/a	n/a	n/a	n/a	n/a	0	n/a	0	0	285.73	n/a
270.741	10.014	ITI	Fixation+	103.82	n/a	3	n/a	n/a	n/a	n/a	n/a	n/a	n/a	n/a	n/a	n/a	300.751	n/a
280.771	0.497	angry	Picture	103.306	n/a	3	7	1	n/a	1	46	2	n/a	n/a	n/a	n/a	310.781	AF09HAS.jpg
281.268	0.514	Blank	Blank	102.792	n/a	3	7	1	n/a	1	n/a	2	n/a	n/a	n/a	n/a	311.278	n/a
281.799	0.497	angry	Picture	102.278	n/a	3	7	2	n/a	2	69	2	n/a	n/a	n/a	n/a	311.809	AM10HAS.jpg
282.296	0.514	Blank	Blank	101.764	n/a	3	7	2	n/a	2	n/a	2	n/a	n/a	n/a	n/a	312.306	n/a
282.827	0.497	angry	Picture	101.25	n/a	3	7	3	n/a	3	71	2	n/a	n/a	n/a	n/a	312.837	BM12HAS.jpg
283.324	0.514	Blank	Blank	100.736	n/a	3	7	3	n/a	3	n/a	2	n/a	n/a	n/a	n/a	313.334	n/a
283.855	0.497	angry	Picture	100.222	n/a	3	7	4	n/a	4	51	2	n/a	n/a	n/a	n/a	313.865	AF20HAS.jpg
284.352	0.514	Blank	Blank	99.708	n/a	3	7	4	n/a	4	n/a	2	n/a	n/a	n/a	n/a	314.362	n/a
284.883	0.497	angry	Picture	99.194	n/a	3	7	5	n/a	5	67	2	n/a	n/a	n/a	n/a	314.892	BM08HAS.jpg
285.38	0.514	Blank	Blank	98.68	n/a	3	7	5	n/a	5	n/a	2	n/a	n/a	n/a	n/a	315.39	n/a
285.91	0.497	angry	Picture	98.166	n/a	3	7	6	n/a	6	60	2	n/a	n/a	n/a	n/a	315.92	AF32HAS.jpg
286.408	0.514	Blank	Blank	97.653	n/a	3	7	6	n/a	6	n/a	2	n/a	n/a	n/a	n/a	316.418	n/a
286.938	0.497	angry	Picture	97.139	n/a	3	7	7	n/a	7	42	2	n/a	n/a	n/a	n/a	316.948	AF03HAS.jpg
287.436	0.514	Blank	Blank	96.625	n/a	3	7	7	n/a	7	n/a	2	n/a	n/a	n/a	n/a	317.446	n/a
287.966	0.497	angry	Picture	96.111	n/a	3	7	8	n/a	8	55	2	n/a	n/a	n/a	n/a	317.976	AF25HAS.jpg
288.464	0.514	Blank	Blank	95.597	n/a	3	7	8	n/a	8	n/a	2	n/a	n/a	n/a	n/a	318.474	n/a
288.994	0.497	angry	Picture	95.083	n/a	3	7	9	n/a	9	72	2	n/a	n/a	n/a	n/a	319.004	AM14HAS.jpg
289.491	0.514	Blank	Blank	94.569	n/a	3	7	9	n/a	9	n/a	2	n/a	n/a	n/a	n/a	319.501	n/a
290.022	0.497	angry	Picture	94.055	n/a	3	7	10	n/a	10	63	2	n/a	n/a	n/a	n/a	320.032	AM04HAS.jpg
290.519	0.514	Blank	Blank	93.541	n/a	3	7	10	n/a	10	n/a	2	n/a	n/a	n/a	n/a	320.529	n/a
291.05	0.497	angry	Picture	93.027	n/a	3	7	11	n/a	11	58	2	n/a	n/a	n/a	n/a	321.06	BF29HAS.jpg
291.547	0.514	Blank	Blank	92.513	n/a	3	7	11	n/a	11	n/a	2	n/a	n/a	n/a	n/a	321.557	n/a
292.078	0.497	angry	Picture	91.999	n/a	3	7	12	n/a	12	48	2	n/a	n/a	n/a	n/a	322.088	AF14HAS.jpg
292.575	0.514	Blank	Blank	91.485	n/a	3	7	12	n/a	12	n/a	2	n/a	n/a	n/a	n/a	322.585	n/a
293.106	0.497	angry	Picture	90.971	n/a	3	7	13	n/a	13	66	2	n/a	n/a	n/a	n/a	323.116	BM07HAS.jpg
293.603	0.514	Blank	Blank	90.457	n/a	3	7	13	n/a	13	n/a	2	n/a	n/a	n/a	n/a	323.613	n/a
294.134	0.497	angry	Picture	89.943	n/a	3	7	14	n/a	14	70	2	n/a	n/a	n/a	n/a	324.144	BM11HAS.jpg
294.631	0.514	Blank	Blank	89.43	n/a	3	7	14	n/a	14	n/a	2	n/a	n/a	n/a	n/a	324.641	n/a
295.161	0.497	angry	Picture	88.915	n/a	3	7	15	n/a	15	43	2	n/a	n/a	n/a	n/a	325.171	BF04HAS.jpg
295.659	0.514	Blank	Blank	88.402	n/a	3	7	15	n/a	15	n/a	2	n/a	n/a	n/a	n/a	325.669	n/a
296.189	0.497	angry	Picture	87.888	n/a	3	7	16	n/a	16	49	2	n/a	n/a	n/a	n/a	326.199	AF17HAS.jpg
296.687	0.514	Blank	Blank	87.374	n/a	3	7	16	n/a	16	n/a	2	n/a	n/a	n/a	n/a	326.697	n/a
297.217	0.497	angry	Picture	86.86	n/a	3	7	17	n/a	17	75	2	n/a	n/a	n/a	n/a	327.227	AM23HAS.jpg
297.715	0.514	Blank	Blank	86.346	n/a	3	7	17	n/a	17	n/a	2	n/a	n/a	n/a	n/a	327.724	n/a
298.245	0.497	angry	Picture	85.832	n/a	3	7	18	n/a	18	80	2	n/a	n/a	n/a	n/a	328.255	BM35HAS.jpg
298.743	0.514	Blank	Blank	85.318	n/a	3	7	18	n/a	18	n/a	2	n/a	n/a	n/a	n/a	328.752	n/a
299.273	0.497	angry	Picture	84.804	n/a	3	7	19	n/a	19	76	2	n/a	n/a	n/a	n/a	329.283	BM24HAS.jpg
299.77	0.514	Blank	Blank	84.29	n/a	3	7	19	n/a	19	n/a	2	n/a	n/a	n/a	n/a	329.78	n/a
300.301	0.497	angry	Picture	83.776	n/a	3	7	20	n/a	20	74	2	n/a	n/a	n/a	n/a	330.311	AM22HAS.jpg
300.798	0.514	Blank	Blank	83.262	n/a	3	7	20	n/a	20	n/a	2	n/a	n/a	n/a	n/a	330.808	n/a
301.329	10.014	ITI	Fixation+	73.232	n/a	3	n/a	n/a	n/a	n/a	n/a	n/a	n/a	n/a	n/a	n/a	331.339	n/a
311.359	0.497	neutral	Picture	72.718	n/a	3	8	1	n/a	21	33	1	n/a	n/a	n/a	n/a	341.369	AM21NES.jpg
311.856	0.514	Blank	Blank	72.204	n/a	3	8	1	n/a	21	n/a	1	n/a	n/a	n/a	n/a	341.866	n/a
312.387	0.497	neutral	Picture	71.69	n/a	3	8	2	n/a	22	39	1	n/a	n/a	n/a	n/a	342.397	AM28NES.jpg
312.884	0.514	Blank	Blank	71.176	n/a	3	8	2	n/a	22	n/a	1	n/a	n/a	n/a	n/a	342.894	n/a
313.415	0.497	neutral	Picture	70.662	n/a	3	8	3	n/a	23	25	1	n/a	n/a	n/a	n/a	343.425	BM06NES.jpg
313.912	0.514	Blank	Blank	70.148	n/a	3	8	3	n/a	23	n/a	1	n/a	n/a	n/a	n/a	343.922	n/a
314.443	0.497	neutral	Picture	69.634	n/a	3	8	4	n/a	24	5	1	n/a	n/a	n/a	n/a	344.453	BF07NES.jpg
314.94	0.514	Blank	Blank	69.12	n/a	3	8	4	n/a	24	n/a	1	n/a	n/a	n/a	n/a	344.95	n/a
315.47	0.497	neutral	Picture	68.606	n/a	3	8	5	n/a	25	10	1	n/a	n/a	n/a	n/a	345.48	AF18NES.jpg
315.968	0.514	Blank	Blank	68.093	n/a	3	8	5	n/a	25	n/a	1	n/a	n/a	n/a	n/a	345.978	n/a
316.498	0.497	neutral	Picture	67.579	n/a	3	8	6	n/a	26	34	1	n/a	n/a	n/a	n/a	346.508	AM22NES.jpg
316.996	0.514	Blank	Blank	67.065	n/a	3	8	6	n/a	26	n/a	1	n/a	n/a	n/a	n/a	347.006	n/a
317.526	0.497	neutral	Picture	66.551	n/a	3	8	7	n/a	27	36	1	n/a	n/a	n/a	n/a	347.536	BM24NES.jpg
318.024	0.514	Blank	Blank	66.037	n/a	3	8	7	n/a	27	n/a	1	n/a	n/a	n/a	n/a	348.034	n/a
318.554	0.497	neutral	Picture	65.523	n/a	3	8	8	n/a	28	14	1	n/a	n/a	n/a	n/a	348.564	AF23NES.jpg
319.052	0.514	Blank	Blank	65.009	n/a	3	8	8	n/a	28	n/a	1	n/a	n/a	n/a	n/a	349.062	n/a
319.582	0.497	neutral	Picture	64.495	n/a	3	8	9	n/a	29	9	1	n/a	n/a	n/a	n/a	349.592	AF17NES.jpg
320.079	0.514	Blank	Blank	63.981	n/a	3	8	9	n/a	29	n/a	1	n/a	n/a	n/a	n/a	350.089	n/a
320.61	0.497	neutral	Picture	63.467	n/a	3	8	10	n/a	30	19	1	n/a	n/a	n/a	n/a	350.62	AF31NES.jpg
321.107	0.514	Blank	Blank	62.953	n/a	3	8	10	n/a	30	n/a	1	n/a	n/a	n/a	n/a	351.117	n/a
321.638	0.497	neutral	Picture	62.439	n/a	3	8	11	n/a	31	15	1	n/a	n/a	n/a	n/a	351.648	AF25NES.jpg
322.135	0.514	Blank	Blank	61.925	n/a	3	8	11	n/a	31	n/a	1	n/a	n/a	n/a	n/a	352.145	n/a
322.666	0.497	neutral	Picture	61.411	n/a	3	8	12	n/a	32	22	1	n/a	n/a	n/a	n/a	352.676	BM03NES.jpg
323.163	0.514	Blank	Blank	60.897	n/a	3	8	12	n/a	32	n/a	1	n/a	n/a	n/a	n/a	353.173	n/a
323.694	0.497	neutral	Picture	60.383	n/a	3	8	13	n/a	33	11	1	n/a	n/a	n/a	n/a	353.704	AF20NES.jpg
324.191	0.514	Blank	Blank	59.87	n/a	3	8	13	n/a	33	n/a	1	n/a	n/a	n/a	n/a	354.201	n/a
324.721	0.497	neutral	Picture	59.355	n/a	3	8	14	n/a	34	4	1	n/a	n/a	n/a	n/a	354.731	AF05NES.jpg
325.219	0.514	Blank	Blank	58.842	n/a	3	8	14	n/a	34	n/a	1	n/a	n/a	n/a	n/a	355.229	n/a
325.749	0.497	neutral	Picture	58.328	n/a	3	8	15	n/a	35	17	1	n/a	n/a	n/a	n/a	355.759	BF28NES.jpg
326.247	0.514	Blank	Blank	57.814	n/a	3	8	15	n/a	35	n/a	1	n/a	n/a	n/a	n/a	356.257	n/a
326.777	0.497	neutral	Picture	57.3	n/a	3	8	16	n/a	36	13	1	n/a	n/a	n/a	n/a	356.787	BF22NES.jpg
327.275	0.514	Blank	Blank	56.786	n/a	3	8	16	n/a	36	n/a	1	n/a	n/a	n/a	n/a	357.284	n/a
327.805	0.497	neutral	Picture	56.272	n/a	3	8	17	n/a	37	12	1	n/a	n/a	n/a	n/a	357.815	AF21NES.jpg
328.303	0.514	Blank	Blank	55.758	n/a	3	8	17	n/a	37	n/a	1	n/a	n/a	n/a	n/a	358.312	n/a
328.833	0.497	neutral	Picture	55.244	n/a	3	8	18	n/a	38	24	1	n/a	n/a	n/a	n/a	358.843	BM05NES.jpg
329.33	0.514	Blank	Blank	54.73	n/a	3	8	18	n/a	38	n/a	1	n/a	n/a	n/a	n/a	359.34	n/a
329.861	0.497	neutral	Picture	54.216	n/a	3	8	19	n/a	39	29	1	n/a	n/a	n/a	n/a	359.871	AM10NES.jpg
330.358	0.514	Blank	Blank	53.702	n/a	3	8	19	n/a	39	n/a	1	n/a	n/a	n/a	n/a	360.368	n/a
330.889	0.497	neutral	Picture	53.188	n/a	3	8	20	n/a	40	23	1	n/a	n/a	n/a	n/a	360.899	AM04NES.jpg
331.386	0.514	Blank	Blank	52.674	n/a	3	8	20	n/a	40	n/a	1	n/a	n/a	n/a	n/a	361.396	n/a
331.917	10.014	ITI	Fixation+	42.644	n/a	3	n/a	n/a	n/a	n/a	n/a	n/a	n/a	n/a	n/a	n/a	361.927	n/a
341.947	0.497	angry	Picture	42.13	n/a	3	9	1	n/a	41	62	2	n/a	n/a	n/a	n/a	371.957	BM03HAS.jpg
342.444	0.514	Blank	Blank	41.616	n/a	3	9	1	n/a	41	n/a	2	n/a	n/a	n/a	n/a	372.454	n/a
342.975	0.497	angry	Picture	41.102	n/a	3	9	2	n/a	42	52	2	n/a	n/a	n/a	n/a	372.985	AF21HAS.jpg
343.472	0.514	Blank	Blank	40.588	n/a	3	9	2	n/a	42	n/a	2	n/a	n/a	n/a	n/a	373.482	n/a
344.003	0.497	angry	Picture	40.074	n/a	3	9	3	n/a	43	44	2	n/a	n/a	n/a	n/a	374.013	AF05HAS.jpg
344.5	0.514	Blank	Blank	39.56	n/a	3	9	3	n/a	43	n/a	2	n/a	n/a	n/a	n/a	374.51	n/a
345.031	0.497	angry	Picture	39.046	n/a	3	9	4	n/a	44	53	2	n/a	n/a	n/a	n/a	375.041	BF22HAS.jpg
345.528	0.514	Blank	Blank	38.532	n/a	3	9	4	n/a	44	n/a	2	n/a	n/a	n/a	n/a	375.538	n/a
346.058	0.497	angry	Picture	38.019	n/a	3	9	5	n/a	45	54	2	n/a	n/a	n/a	n/a	376.068	AF23HAS.jpg
346.556	0.514	Blank	Blank	37.505	n/a	3	9	5	n/a	45	n/a	2	n/a	n/a	n/a	n/a	376.566	n/a
347.086	0.497	angry	Picture	36.991	n/a	3	9	6	n/a	46	68	2	n/a	n/a	n/a	n/a	377.096	AM09HAS.jpg
347.584	0.514	Blank	Blank	36.477	n/a	3	9	6	n/a	46	n/a	2	n/a	n/a	n/a	n/a	377.594	n/a
348.114	0.497	angry	Picture	35.963	n/a	3	9	7	n/a	47	64	2	n/a	n/a	n/a	n/a	378.124	BM05HAS.jpg
348.612	0.514	Blank	Blank	35.449	n/a	3	9	7	n/a	47	n/a	2	n/a	n/a	n/a	n/a	378.622	n/a
349.142	0.497	angry	Picture	34.935	n/a	3	9	8	n/a	48	59	2	n/a	n/a	n/a	n/a	379.152	AF31HAS.jpg
349.639	0.514	Blank	Blank	34.421	n/a	3	9	8	n/a	48	n/a	2	n/a	n/a	n/a	n/a	379.649	n/a
350.17	0.497	angry	Picture	33.907	n/a	3	9	9	n/a	49	41	2	n/a	n/a	n/a	n/a	380.18	AF01HAS.jpg
350.667	0.514	Blank	Blank	33.393	n/a	3	9	9	n/a	49	n/a	2	n/a	n/a	n/a	n/a	380.677	n/a
351.198	0.497	angry	Picture	32.879	n/a	3	9	10	n/a	50	73	2	n/a	n/a	n/a	n/a	381.208	AM21HAS.jpg
351.695	0.514	Blank	Blank	32.365	n/a	3	9	10	n/a	50	n/a	2	n/a	n/a	n/a	n/a	381.705	n/a
352.226	0.497	angry	Picture	31.851	n/a	3	9	11	n/a	51	65	2	n/a	n/a	n/a	n/a	382.236	BM06HAS.jpg
352.723	0.514	Blank	Blank	31.337	n/a	3	9	11	n/a	51	n/a	2	n/a	n/a	n/a	n/a	382.733	n/a
353.254	0.497	angry	Picture	30.823	n/a	3	9	12	n/a	52	56	2	n/a	n/a	n/a	n/a	383.264	AF26HAS.jpg
353.751	0.514	Blank	Blank	30.31	n/a	3	9	12	n/a	52	n/a	2	n/a	n/a	n/a	n/a	383.761	n/a
354.281	0.497	angry	Picture	29.795	n/a	3	9	13	n/a	53	45	2	n/a	n/a	n/a	n/a	384.291	BF07HAS.jpg
354.779	0.514	Blank	Blank	29.282	n/a	3	9	13	n/a	53	n/a	2	n/a	n/a	n/a	n/a	384.789	n/a
355.309	0.497	angry	Picture	28.768	n/a	3	9	14	n/a	54	78	2	n/a	n/a	n/a	n/a	385.319	BM26HAS.jpg
355.807	0.514	Blank	Blank	28.254	n/a	3	9	14	n/a	54	n/a	2	n/a	n/a	n/a	n/a	385.817	n/a
356.337	0.497	angry	Picture	27.74	n/a	3	9	15	n/a	55	50	2	n/a	n/a	n/a	n/a	386.347	AF18HAS.jpg
356.835	0.514	Blank	Blank	27.226	n/a	3	9	15	n/a	55	n/a	2	n/a	n/a	n/a	n/a	386.845	n/a
357.365	0.497	angry	Picture	26.712	n/a	3	9	16	n/a	56	47	2	n/a	n/a	n/a	n/a	387.375	BF11HAS.jpg
357.863	0.514	Blank	Blank	26.198	n/a	3	9	16	n/a	56	n/a	2	n/a	n/a	n/a	n/a	387.872	n/a
358.393	0.497	angry	Picture	25.684	n/a	3	9	17	n/a	57	77	2	n/a	n/a	n/a	n/a	388.403	BM25HAS.jpg
358.89	0.514	Blank	Blank	25.17	n/a	3	9	17	n/a	57	n/a	2	n/a	n/a	n/a	n/a	388.9	n/a
359.421	0.497	angry	Picture	24.656	n/a	3	9	18	n/a	58	57	2	n/a	n/a	n/a	n/a	389.431	BF28HAS.jpg
359.918	0.514	Blank	Blank	24.142	n/a	3	9	18	n/a	58	n/a	2	n/a	n/a	n/a	n/a	389.928	n/a
360.449	0.497	angry	Picture	23.628	n/a	3	9	19	n/a	59	61	2	n/a	n/a	n/a	n/a	390.459	AM01HAS.jpg
360.946	0.514	Blank	Blank	23.114	n/a	3	9	19	n/a	59	n/a	2	n/a	n/a	n/a	n/a	390.956	n/a
361.477	0.497	angry	Picture	22.6	n/a	3	9	20	n/a	60	79	2	n/a	n/a	n/a	n/a	391.487	BM28HAS.jpg
361.974	0.514	Blank	Blank	22.086	n/a	3	9	20	n/a	60	n/a	2	n/a	n/a	n/a	n/a	391.984	n/a
362.505	10.014	ITI	Fixation+	12.056	n/a	3	n/a	n/a	n/a	n/a	n/a	n/a	n/a	n/a	n/a	n/a	392.514	n/a
384.574	n/a	ConfirmRating	Rate	n/a	12.053	3	n/a	n/a	0	n/a	n/a	n/a	2	Angry	54	50	414.584	n/a
391.84	n/a	ConfirmRating	Rate	n/a	7.245	3	n/a	n/a	1	n/a	n/a	n/a	3	Angry	32	48	421.85	n/a
391.866	10.014	ITI	Fixation+	98.074	n/a	4	n/a	n/a	n/a	n/a	n/a	n/a	n/a	n/a	n/a	n/a	421.876	n/a
401.896	0.497	happy	Picture	97.561	n/a	4	10	1	n/a	61	119	3	n/a	n/a	n/a	n/a	431.906	BM28ANS.jpg
402.393	0.514	Blank	Blank	97.047	n/a	4	10	1	n/a	61	n/a	3	n/a	n/a	n/a	n/a	432.403	n/a
402.924	0.497	happy	Picture	96.533	n/a	4	10	2	n/a	62	100	3	n/a	n/a	n/a	n/a	432.934	AF32ANS.jpg
403.421	0.514	Blank	Blank	96.019	n/a	4	10	2	n/a	62	n/a	3	n/a	n/a	n/a	n/a	433.431	n/a
403.952	0.497	happy	Picture	95.505	n/a	4	10	3	n/a	63	118	3	n/a	n/a	n/a	n/a	433.962	BM26ANS.jpg
404.449	0.514	Blank	Blank	94.991	n/a	4	10	3	n/a	63	n/a	3	n/a	n/a	n/a	n/a	434.459	n/a
404.979	0.497	happy	Picture	94.477	n/a	4	10	4	n/a	64	89	3	n/a	n/a	n/a	n/a	434.989	AF17ANS.jpg
405.477	0.514	Blank	Blank	93.963	n/a	4	10	4	n/a	64	n/a	3	n/a	n/a	n/a	n/a	435.487	n/a
406.007	0.497	happy	Picture	93.449	n/a	4	10	5	n/a	65	116	3	n/a	n/a	n/a	n/a	436.017	BM24ANS.jpg
406.505	0.514	Blank	Blank	92.935	n/a	4	10	5	n/a	65	n/a	3	n/a	n/a	n/a	n/a	436.515	n/a
407.035	0.497	happy	Picture	92.421	n/a	4	10	6	n/a	66	105	3	n/a	n/a	n/a	n/a	437.045	BM06ANS.jpg
407.533	0.514	Blank	Blank	91.907	n/a	4	10	6	n/a	66	n/a	3	n/a	n/a	n/a	n/a	437.543	n/a
408.063	0.497	happy	Picture	91.393	n/a	4	10	7	n/a	67	106	3	n/a	n/a	n/a	n/a	438.073	AM07ANS.jpg
408.56	0.514	Blank	Blank	90.879	n/a	4	10	7	n/a	67	n/a	3	n/a	n/a	n/a	n/a	438.57	n/a
409.091	0.497	happy	Picture	90.365	n/a	4	10	8	n/a	68	94	3	n/a	n/a	n/a	n/a	439.101	AF23ANS.jpg
409.588	0.514	Blank	Blank	89.851	n/a	4	10	8	n/a	68	n/a	3	n/a	n/a	n/a	n/a	439.598	n/a
410.119	0.497	happy	Picture	89.337	n/a	4	10	9	n/a	69	117	3	n/a	n/a	n/a	n/a	440.129	BM25ANS.jpg
410.616	0.514	Blank	Blank	88.824	n/a	4	10	9	n/a	69	n/a	3	n/a	n/a	n/a	n/a	440.626	n/a
411.147	0.497	happy	Picture	88.31	n/a	4	10	10	n/a	70	90	3	n/a	n/a	n/a	n/a	441.157	AF18ANS.jpg
411.644	0.514	Blank	Blank	87.796	n/a	4	10	10	n/a	70	n/a	3	n/a	n/a	n/a	n/a	441.654	n/a
412.175	0.497	happy	Picture	87.282	n/a	4	10	11	n/a	71	83	3	n/a	n/a	n/a	n/a	442.185	BF04ANS.jpg
412.672	0.514	Blank	Blank	86.768	n/a	4	10	11	n/a	71	n/a	3	n/a	n/a	n/a	n/a	442.682	n/a
413.203	0.497	happy	Picture	86.254	n/a	4	10	12	n/a	72	112	3	n/a	n/a	n/a	n/a	443.212	AM14ANS.jpg
413.7	0.514	Blank	Blank	85.74	n/a	4	10	12	n/a	72	n/a	3	n/a	n/a	n/a	n/a	443.71	n/a
414.231	0.497	happy	Picture	85.226	n/a	4	10	13	n/a	73	102	3	n/a	n/a	n/a	n/a	444.24	BM03ANS.jpg
414.728	0.514	Blank	Blank	84.712	n/a	4	10	13	n/a	73	n/a	3	n/a	n/a	n/a	n/a	444.738	n/a
415.258	0.497	happy	Picture	84.198	n/a	4	10	14	n/a	74	95	3	n/a	n/a	n/a	n/a	445.268	AF25ANS.jpg
415.756	0.514	Blank	Blank	83.684	n/a	4	10	14	n/a	74	n/a	3	n/a	n/a	n/a	n/a	445.766	n/a
416.286	0.497	happy	Picture	83.17	n/a	4	10	15	n/a	75	113	3	n/a	n/a	n/a	n/a	446.296	AM21ANS.jpg
416.784	0.514	Blank	Blank	82.656	n/a	4	10	15	n/a	75	n/a	3	n/a	n/a	n/a	n/a	446.793	n/a
417.314	0.497	happy	Picture	82.142	n/a	4	10	16	n/a	76	88	3	n/a	n/a	n/a	n/a	447.324	AF14ANS.jpg
417.811	0.514	Blank	Blank	81.628	n/a	4	10	16	n/a	76	n/a	3	n/a	n/a	n/a	n/a	447.821	n/a
418.342	0.497	happy	Picture	81.114	n/a	4	10	17	n/a	77	93	3	n/a	n/a	n/a	n/a	448.352	BF22ANS.jpg
418.839	0.514	Blank	Blank	80.6	n/a	4	10	17	n/a	77	n/a	3	n/a	n/a	n/a	n/a	448.849	n/a
419.37	0.497	happy	Picture	80.086	n/a	4	10	18	n/a	78	86	3	n/a	n/a	n/a	n/a	449.38	AF09ANS.jpg
419.867	0.514	Blank	Blank	79.573	n/a	4	10	18	n/a	78	n/a	3	n/a	n/a	n/a	n/a	449.877	n/a
420.398	0.497	happy	Picture	79.059	n/a	4	10	19	n/a	79	92	3	n/a	n/a	n/a	n/a	450.408	AF21ANS.jpg
420.895	0.514	Blank	Blank	78.545	n/a	4	10	19	n/a	79	n/a	3	n/a	n/a	n/a	n/a	450.905	n/a
421.426	0.497	happy	Picture	78.031	n/a	4	10	20	n/a	80	84	3	n/a	n/a	n/a	n/a	451.436	AF05ANS.jpg
421.923	0.514	Blank	Blank	77.517	n/a	4	10	20	n/a	80	n/a	3	n/a	n/a	n/a	n/a	451.933	n/a
422.454	10.014	ITI	Fixation+	67.487	n/a	4	n/a	n/a	n/a	n/a	n/a	n/a	n/a	n/a	n/a	n/a	452.464	n/a
432.484	0.497	neutral	Picture	66.973	n/a	4	11	1	n/a	81	4	1	n/a	n/a	n/a	n/a	462.494	AF05NES.jpg
432.981	0.514	Blank	Blank	66.459	n/a	4	11	1	n/a	81	n/a	1	n/a	n/a	n/a	n/a	462.991	n/a
433.512	0.497	neutral	Picture	65.945	n/a	4	11	2	n/a	82	14	1	n/a	n/a	n/a	n/a	463.522	AF23NES.jpg
434.009	0.514	Blank	Blank	65.431	n/a	4	11	2	n/a	82	n/a	1	n/a	n/a	n/a	n/a	464.019	n/a
434.539	0.497	neutral	Picture	64.917	n/a	4	11	3	n/a	83	19	1	n/a	n/a	n/a	n/a	464.549	AF31NES.jpg
435.037	0.514	Blank	Blank	64.403	n/a	4	11	3	n/a	83	n/a	1	n/a	n/a	n/a	n/a	465.047	n/a
435.567	0.497	neutral	Picture	63.889	n/a	4	11	4	n/a	84	8	1	n/a	n/a	n/a	n/a	465.577	AF14NES.jpg
436.065	0.514	Blank	Blank	63.375	n/a	4	11	4	n/a	84	n/a	1	n/a	n/a	n/a	n/a	466.075	n/a
436.595	0.497	neutral	Picture	62.861	n/a	4	11	5	n/a	85	25	1	n/a	n/a	n/a	n/a	466.605	BM06NES.jpg
437.093	0.514	Blank	Blank	62.347	n/a	4	11	5	n/a	85	n/a	1	n/a	n/a	n/a	n/a	467.103	n/a
437.623	0.497	neutral	Picture	61.833	n/a	4	11	6	n/a	86	9	1	n/a	n/a	n/a	n/a	467.633	AF17NES.jpg
438.12	0.514	Blank	Blank	61.319	n/a	4	11	6	n/a	86	n/a	1	n/a	n/a	n/a	n/a	468.13	n/a
438.651	0.497	neutral	Picture	60.805	n/a	4	11	7	n/a	87	2	1	n/a	n/a	n/a	n/a	468.661	AF03NES.jpg
439.148	0.514	Blank	Blank	60.291	n/a	4	11	7	n/a	87	n/a	1	n/a	n/a	n/a	n/a	469.158	n/a
439.679	0.497	neutral	Picture	59.777	n/a	4	11	8	n/a	88	17	1	n/a	n/a	n/a	n/a	469.689	BF28NES.jpg
440.176	0.514	Blank	Blank	59.263	n/a	4	11	8	n/a	88	n/a	1	n/a	n/a	n/a	n/a	470.186	n/a
440.707	0.497	neutral	Picture	58.75	n/a	4	11	9	n/a	89	6	1	n/a	n/a	n/a	n/a	470.717	AF09NES.jpg
441.204	0.514	Blank	Blank	58.236	n/a	4	11	9	n/a	89	n/a	1	n/a	n/a	n/a	n/a	471.214	n/a
441.735	0.497	neutral	Picture	57.722	n/a	4	11	10	n/a	90	12	1	n/a	n/a	n/a	n/a	471.745	AF21NES.jpg
442.232	0.514	Blank	Blank	57.208	n/a	4	11	10	n/a	90	n/a	1	n/a	n/a	n/a	n/a	472.242	n/a
442.763	0.497	neutral	Picture	56.694	n/a	4	11	11	n/a	91	24	1	n/a	n/a	n/a	n/a	472.772	BM05NES.jpg
443.26	0.514	Blank	Blank	56.18	n/a	4	11	11	n/a	91	n/a	1	n/a	n/a	n/a	n/a	473.27	n/a
443.791	0.497	neutral	Picture	55.666	n/a	4	11	12	n/a	92	34	1	n/a	n/a	n/a	n/a	473.8	AM22NES.jpg
444.288	0.514	Blank	Blank	55.152	n/a	4	11	12	n/a	92	n/a	1	n/a	n/a	n/a	n/a	474.298	n/a
444.818	0.497	neutral	Picture	54.638	n/a	4	11	13	n/a	93	23	1	n/a	n/a	n/a	n/a	474.828	AM04NES.jpg
445.316	0.514	Blank	Blank	54.124	n/a	4	11	13	n/a	93	n/a	1	n/a	n/a	n/a	n/a	475.326	n/a
445.846	0.497	neutral	Picture	53.61	n/a	4	11	14	n/a	94	15	1	n/a	n/a	n/a	n/a	475.856	AF25NES.jpg
446.344	0.514	Blank	Blank	53.096	n/a	4	11	14	n/a	94	n/a	1	n/a	n/a	n/a	n/a	476.353	n/a
446.874	0.497	neutral	Picture	52.582	n/a	4	11	15	n/a	95	37	1	n/a	n/a	n/a	n/a	476.884	BM25NES.jpg
447.371	0.514	Blank	Blank	52.068	n/a	4	11	15	n/a	95	n/a	1	n/a	n/a	n/a	n/a	477.381	n/a
447.902	0.497	neutral	Picture	51.554	n/a	4	11	16	n/a	96	32	1	n/a	n/a	n/a	n/a	477.912	AM14NES.jpg
448.399	0.514	Blank	Blank	51.04	n/a	4	11	16	n/a	96	n/a	1	n/a	n/a	n/a	n/a	478.409	n/a
448.93	0.497	neutral	Picture	50.526	n/a	4	11	17	n/a	97	3	1	n/a	n/a	n/a	n/a	478.94	BF04NES.jpg
449.427	0.514	Blank	Blank	50.013	n/a	4	11	17	n/a	97	n/a	1	n/a	n/a	n/a	n/a	479.437	n/a
449.958	0.497	neutral	Picture	49.499	n/a	4	11	18	n/a	98	16	1	n/a	n/a	n/a	n/a	479.968	AF26NES.jpg
450.455	0.514	Blank	Blank	48.985	n/a	4	11	18	n/a	98	n/a	1	n/a	n/a	n/a	n/a	480.465	n/a
450.986	0.497	neutral	Picture	48.471	n/a	4	11	19	n/a	99	27	1	n/a	n/a	n/a	n/a	480.996	BM08NES.jpg
451.483	0.514	Blank	Blank	47.957	n/a	4	11	19	n/a	99	n/a	1	n/a	n/a	n/a	n/a	481.493	n/a
452.014	0.497	neutral	Picture	47.443	n/a	4	11	20	n/a	100	28	1	n/a	n/a	n/a	n/a	482.024	AM09NES.jpg
452.511	0.514	Blank	Blank	46.929	n/a	4	11	20	n/a	100	n/a	1	n/a	n/a	n/a	n/a	482.521	n/a
453.041	10.014	ITI	Fixation+	36.899	n/a	4	n/a	n/a	n/a	n/a	n/a	n/a	n/a	n/a	n/a	n/a	483.051	n/a
463.072	0.497	happy	Picture	36.385	n/a	4	12	1	n/a	101	81	3	n/a	n/a	n/a	n/a	493.082	AF01ANS.jpg
463.569	0.514	Blank	Blank	35.871	n/a	4	12	1	n/a	101	n/a	3	n/a	n/a	n/a	n/a	493.579	n/a
464.099	0.497	happy	Picture	35.357	n/a	4	12	2	n/a	102	120	3	n/a	n/a	n/a	n/a	494.109	AM35ANS.jpg
464.597	0.514	Blank	Blank	34.843	n/a	4	12	2	n/a	102	n/a	3	n/a	n/a	n/a	n/a	494.607	n/a
465.127	0.497	happy	Picture	34.329	n/a	4	12	3	n/a	103	114	3	n/a	n/a	n/a	n/a	495.137	AM22ANS.jpg
465.625	0.514	Blank	Blank	33.815	n/a	4	12	3	n/a	103	n/a	3	n/a	n/a	n/a	n/a	495.635	n/a
466.155	0.497	happy	Picture	33.301	n/a	4	12	4	n/a	104	109	3	n/a	n/a	n/a	n/a	496.165	AM10ANS.jpg
466.653	0.514	Blank	Blank	32.787	n/a	4	12	4	n/a	104	n/a	3	n/a	n/a	n/a	n/a	496.663	n/a
467.183	0.497	happy	Picture	32.273	n/a	4	12	5	n/a	105	96	3	n/a	n/a	n/a	n/a	497.193	AF26ANS.jpg
467.681	0.514	Blank	Blank	31.759	n/a	4	12	5	n/a	105	n/a	3	n/a	n/a	n/a	n/a	497.69	n/a
468.211	0.497	happy	Picture	31.245	n/a	4	12	6	n/a	106	82	3	n/a	n/a	n/a	n/a	498.221	AF03ANS.jpg
468.708	0.514	Blank	Blank	30.731	n/a	4	12	6	n/a	106	n/a	3	n/a	n/a	n/a	n/a	498.718	n/a
469.239	0.497	happy	Picture	30.217	n/a	4	12	7	n/a	107	97	3	n/a	n/a	n/a	n/a	499.249	BF28ANS.jpg
469.736	0.514	Blank	Blank	29.703	n/a	4	12	7	n/a	107	n/a	3	n/a	n/a	n/a	n/a	499.746	n/a
470.267	0.497	happy	Picture	29.19	n/a	4	12	8	n/a	108	115	3	n/a	n/a	n/a	n/a	500.277	AM23ANS.jpg
470.764	0.514	Blank	Blank	28.676	n/a	4	12	8	n/a	108	n/a	3	n/a	n/a	n/a	n/a	500.774	n/a
471.295	0.497	happy	Picture	28.162	n/a	4	12	9	n/a	109	91	3	n/a	n/a	n/a	n/a	501.305	AF20ANS.jpg
471.792	0.514	Blank	Blank	27.648	n/a	4	12	9	n/a	109	n/a	3	n/a	n/a	n/a	n/a	501.802	n/a
472.323	0.497	happy	Picture	27.134	n/a	4	12	10	n/a	110	87	3	n/a	n/a	n/a	n/a	502.332	BF11ANS.jpg
472.82	0.514	Blank	Blank	26.62	n/a	4	12	10	n/a	110	n/a	3	n/a	n/a	n/a	n/a	502.83	n/a
473.351	0.497	happy	Picture	26.106	n/a	4	12	11	n/a	111	85	3	n/a	n/a	n/a	n/a	503.36	BF07ANS.jpg
473.848	0.514	Blank	Blank	25.592	n/a	4	12	11	n/a	111	n/a	3	n/a	n/a	n/a	n/a	503.858	n/a
474.378	0.497	happy	Picture	25.078	n/a	4	12	12	n/a	112	110	3	n/a	n/a	n/a	n/a	504.388	AM11ANS.jpg
474.876	0.514	Blank	Blank	24.564	n/a	4	12	12	n/a	112	n/a	3	n/a	n/a	n/a	n/a	504.886	n/a
475.406	0.497	happy	Picture	24.05	n/a	4	12	13	n/a	113	111	3	n/a	n/a	n/a	n/a	505.416	BM12ANS.jpg
475.904	0.514	Blank	Blank	23.536	n/a	4	12	13	n/a	113	n/a	3	n/a	n/a	n/a	n/a	505.914	n/a
476.434	0.497	happy	Picture	23.022	n/a	4	12	14	n/a	114	103	3	n/a	n/a	n/a	n/a	506.444	AM04ANS.jpg
476.931	0.514	Blank	Blank	22.508	n/a	4	12	14	n/a	114	n/a	3	n/a	n/a	n/a	n/a	506.941	n/a
477.462	0.497	happy	Picture	21.994	n/a	4	12	15	n/a	115	101	3	n/a	n/a	n/a	n/a	507.472	AM01ANS.jpg
477.959	0.514	Blank	Blank	21.48	n/a	4	12	15	n/a	115	n/a	3	n/a	n/a	n/a	n/a	507.969	n/a
478.49	0.497	happy	Picture	20.966	n/a	4	12	16	n/a	116	104	3	n/a	n/a	n/a	n/a	508.5	BM05ANS.jpg
478.987	0.514	Blank	Blank	20.452	n/a	4	12	16	n/a	116	n/a	3	n/a	n/a	n/a	n/a	508.997	n/a
479.518	0.497	happy	Picture	19.939	n/a	4	12	17	n/a	117	107	3	n/a	n/a	n/a	n/a	509.528	BM08ANS.jpg
480.015	0.514	Blank	Blank	19.425	n/a	4	12	17	n/a	117	n/a	3	n/a	n/a	n/a	n/a	510.025	n/a
480.546	0.497	happy	Picture	18.911	n/a	4	12	18	n/a	118	98	3	n/a	n/a	n/a	n/a	510.556	BF29ANS.jpg
481.043	0.514	Blank	Blank	18.397	n/a	4	12	18	n/a	118	n/a	3	n/a	n/a	n/a	n/a	511.053	n/a
481.574	0.497	happy	Picture	17.883	n/a	4	12	19	n/a	119	99	3	n/a	n/a	n/a	n/a	511.584	AF31ANS.jpg
482.071	0.514	Blank	Blank	17.369	n/a	4	12	19	n/a	119	n/a	3	n/a	n/a	n/a	n/a	512.081	n/a
482.601	0.497	happy	Picture	16.855	n/a	4	12	20	n/a	120	108	3	n/a	n/a	n/a	n/a	512.611	AM09ANS.jpg
483.099	0.514	Blank	Blank	16.341	n/a	4	12	20	n/a	120	n/a	3	n/a	n/a	n/a	n/a	513.109	n/a
483.629	10.014	ITI	Fixation+	6.311	n/a	4	n/a	n/a	n/a	n/a	n/a	n/a	n/a	n/a	n/a	n/a	513.639	n/a
499.954	n/a	ConfirmRating	Rate	n/a	6.3	4	n/a	n/a	0	n/a	n/a	n/a	2	Happy	62	51	529.964	n/a
503.215	n/a	ConfirmRating	Rate	n/a	3.249	4	n/a	n/a	1	n/a	n/a	n/a	3	Happy	22	47	533.225	n/a
