onset	duration	trial_type	event_type	time_until_response	response_time	trial_number	block_num_within_trial	image_seq_num_within_block	question_seq_num_within_block	image_seq_num	picture_number	condition	question_type	block_type	rating	rating_computed	onset_uncorrected	KDEV_imagefile
0.006	10.014	ITI	Fixation+	94.672	n/a	1	n/a	n/a	n/a	n/a	n/a	n/a	n/a	n/a	n/a	n/a	30.516	n/a
10.036	0.497	happy	Picture	94.158	n/a	1	1	1	n/a	1	46	2	n/a	n/a	n/a	n/a	40.546	AF09HAS.jpg
10.534	0.514	Blank	Blank	93.644	n/a	1	1	1	n/a	1	n/a	2	n/a	n/a	n/a	n/a	41.044	n/a
11.064	0.497	happy	Picture	93.13	n/a	1	1	2	n/a	2	69	2	n/a	n/a	n/a	n/a	41.574	AM10HAS.jpg
11.562	0.514	Blank	Blank	92.616	n/a	1	1	2	n/a	2	n/a	2	n/a	n/a	n/a	n/a	42.071	n/a
12.092	0.497	happy	Picture	92.102	n/a	1	1	3	n/a	3	71	2	n/a	n/a	n/a	n/a	42.602	BM12HAS.jpg
12.59	0.514	Blank	Blank	91.588	n/a	1	1	3	n/a	3	n/a	2	n/a	n/a	n/a	n/a	43.099	n/a
13.12	0.497	happy	Picture	91.075	n/a	1	1	4	n/a	4	51	2	n/a	n/a	n/a	n/a	43.63	AF20HAS.jpg
13.617	0.514	Blank	Blank	90.561	n/a	1	1	4	n/a	4	n/a	2	n/a	n/a	n/a	n/a	44.127	n/a
14.148	0.497	happy	Picture	90.047	n/a	1	1	5	n/a	5	67	2	n/a	n/a	n/a	n/a	44.658	BM08HAS.jpg
14.645	0.514	Blank	Blank	89.533	n/a	1	1	5	n/a	5	n/a	2	n/a	n/a	n/a	n/a	45.155	n/a
15.176	0.497	happy	Picture	89.019	n/a	1	1	6	n/a	6	60	2	n/a	n/a	n/a	n/a	45.685	AF32HAS.jpg
15.673	0.514	Blank	Blank	88.505	n/a	1	1	6	n/a	6	n/a	2	n/a	n/a	n/a	n/a	46.183	n/a
16.204	0.497	happy	Picture	87.991	n/a	1	1	7	n/a	7	42	2	n/a	n/a	n/a	n/a	46.713	AF03HAS.jpg
16.701	0.514	Blank	Blank	87.477	n/a	1	1	7	n/a	7	n/a	2	n/a	n/a	n/a	n/a	47.211	n/a
17.232	0.497	happy	Picture	86.963	n/a	1	1	8	n/a	8	55	2	n/a	n/a	n/a	n/a	47.741	AF25HAS.jpg
17.729	0.514	Blank	Blank	86.449	n/a	1	1	8	n/a	8	n/a	2	n/a	n/a	n/a	n/a	48.239	n/a
18.259	0.497	happy	Picture	85.935	n/a	1	1	9	n/a	9	72	2	n/a	n/a	n/a	n/a	48.769	AM14HAS.jpg
18.757	0.514	Blank	Blank	85.421	n/a	1	1	9	n/a	9	n/a	2	n/a	n/a	n/a	n/a	49.267	n/a
19.287	0.497	happy	Picture	84.907	n/a	1	1	10	n/a	10	63	2	n/a	n/a	n/a	n/a	49.797	AM04HAS.jpg
19.785	0.514	Blank	Blank	84.393	n/a	1	1	10	n/a	10	n/a	2	n/a	n/a	n/a	n/a	50.294	n/a
20.315	0.497	happy	Picture	83.879	n/a	1	1	11	n/a	11	58	2	n/a	n/a	n/a	n/a	50.825	BF29HAS.jpg
20.813	0.514	Blank	Blank	83.365	n/a	1	1	11	n/a	11	n/a	2	n/a	n/a	n/a	n/a	51.322	n/a
21.343	0.497	happy	Picture	82.852	n/a	1	1	12	n/a	12	48	2	n/a	n/a	n/a	n/a	51.853	AF14HAS.jpg
21.84	0.514	Blank	Blank	82.338	n/a	1	1	12	n/a	12	n/a	2	n/a	n/a	n/a	n/a	52.35	n/a
22.371	0.497	happy	Picture	81.824	n/a	1	1	13	n/a	13	66	2	n/a	n/a	n/a	n/a	52.881	BM07HAS.jpg
22.868	0.514	Blank	Blank	81.31	n/a	1	1	13	n/a	13	n/a	2	n/a	n/a	n/a	n/a	53.378	n/a
23.399	0.497	happy	Picture	80.796	n/a	1	1	14	n/a	14	70	2	n/a	n/a	n/a	n/a	53.908	BM11HAS.jpg
23.896	0.514	Blank	Blank	80.282	n/a	1	1	14	n/a	14	n/a	2	n/a	n/a	n/a	n/a	54.406	n/a
24.427	0.497	happy	Picture	79.768	n/a	1	1	15	n/a	15	43	2	n/a	n/a	n/a	n/a	54.936	BF04HAS.jpg
24.924	0.514	Blank	Blank	79.254	n/a	1	1	15	n/a	15	n/a	2	n/a	n/a	n/a	n/a	55.434	n/a
25.455	0.497	happy	Picture	78.74	n/a	1	1	16	n/a	16	49	2	n/a	n/a	n/a	n/a	55.964	AF17HAS.jpg
25.952	0.514	Blank	Blank	78.226	n/a	1	1	16	n/a	16	n/a	2	n/a	n/a	n/a	n/a	56.462	n/a
26.482	0.497	happy	Picture	77.712	n/a	1	1	17	n/a	17	75	2	n/a	n/a	n/a	n/a	56.992	AM23HAS.jpg
26.98	0.514	Blank	Blank	77.198	n/a	1	1	17	n/a	17	n/a	2	n/a	n/a	n/a	n/a	57.489	n/a
27.51	0.497	happy	Picture	76.684	n/a	1	1	18	n/a	18	80	2	n/a	n/a	n/a	n/a	58.02	BM35HAS.jpg
28.008	0.514	Blank	Blank	76.17	n/a	1	1	18	n/a	18	n/a	2	n/a	n/a	n/a	n/a	58.517	n/a
28.538	0.497	happy	Picture	75.656	n/a	1	1	19	n/a	19	76	2	n/a	n/a	n/a	n/a	59.048	BM24HAS.jpg
29.036	0.514	Blank	Blank	75.142	n/a	1	1	19	n/a	19	n/a	2	n/a	n/a	n/a	n/a	59.545	n/a
29.566	0.497	happy	Picture	74.629	n/a	1	1	20	n/a	20	74	2	n/a	n/a	n/a	n/a	60.076	AM22HAS.jpg
30.063	0.514	Blank	Blank	74.115	n/a	1	1	20	n/a	20	n/a	2	n/a	n/a	n/a	n/a	60.573	n/a
30.594	10.014	ITI	Fixation+	64.084	n/a	1	n/a	n/a	n/a	n/a	n/a	n/a	n/a	n/a	n/a	n/a	61.104	n/a
40.624	0.497	neutral	Picture	63.571	n/a	1	2	1	n/a	21	33	1	n/a	n/a	n/a	n/a	71.134	AM21NES.jpg
41.121	0.514	Blank	Blank	63.057	n/a	1	2	1	n/a	21	n/a	1	n/a	n/a	n/a	n/a	71.631	n/a
41.652	0.497	neutral	Picture	62.543	n/a	1	2	2	n/a	22	39	1	n/a	n/a	n/a	n/a	72.162	AM28NES.jpg
42.149	0.514	Blank	Blank	62.029	n/a	1	2	2	n/a	22	n/a	1	n/a	n/a	n/a	n/a	72.659	n/a
42.68	0.497	neutral	Picture	61.515	n/a	1	2	3	n/a	23	25	1	n/a	n/a	n/a	n/a	73.189	BM06NES.jpg
43.177	0.514	Blank	Blank	61.001	n/a	1	2	3	n/a	23	n/a	1	n/a	n/a	n/a	n/a	73.687	n/a
43.708	0.497	neutral	Picture	60.487	n/a	1	2	4	n/a	24	5	1	n/a	n/a	n/a	n/a	74.217	BF07NES.jpg
44.205	0.514	Blank	Blank	59.973	n/a	1	2	4	n/a	24	n/a	1	n/a	n/a	n/a	n/a	74.715	n/a
44.736	0.497	neutral	Picture	59.459	n/a	1	2	5	n/a	25	10	1	n/a	n/a	n/a	n/a	75.245	AF18NES.jpg
45.233	0.514	Blank	Blank	58.945	n/a	1	2	5	n/a	25	n/a	1	n/a	n/a	n/a	n/a	75.743	n/a
45.763	0.497	neutral	Picture	58.431	n/a	1	2	6	n/a	26	34	1	n/a	n/a	n/a	n/a	76.273	AM22NES.jpg
46.261	0.514	Blank	Blank	57.917	n/a	1	2	6	n/a	26	n/a	1	n/a	n/a	n/a	n/a	76.77	n/a
46.791	0.497	neutral	Picture	57.403	n/a	1	2	7	n/a	27	36	1	n/a	n/a	n/a	n/a	77.301	BM24NES.jpg
47.289	0.514	Blank	Blank	56.889	n/a	1	2	7	n/a	27	n/a	1	n/a	n/a	n/a	n/a	77.798	n/a
47.819	0.497	neutral	Picture	56.375	n/a	1	2	8	n/a	28	14	1	n/a	n/a	n/a	n/a	78.329	AF23NES.jpg
48.317	0.514	Blank	Blank	55.861	n/a	1	2	8	n/a	28	n/a	1	n/a	n/a	n/a	n/a	78.826	n/a
48.847	0.497	neutral	Picture	55.348	n/a	1	2	9	n/a	29	9	1	n/a	n/a	n/a	n/a	79.357	AF17NES.jpg
49.344	0.514	Blank	Blank	54.834	n/a	1	2	9	n/a	29	n/a	1	n/a	n/a	n/a	n/a	79.854	n/a
49.875	0.497	neutral	Picture	54.32	n/a	1	2	10	n/a	30	19	1	n/a	n/a	n/a	n/a	80.385	AF31NES.jpg
50.372	0.514	Blank	Blank	53.806	n/a	1	2	10	n/a	30	n/a	1	n/a	n/a	n/a	n/a	80.882	n/a
50.903	0.497	neutral	Picture	53.292	n/a	1	2	11	n/a	31	15	1	n/a	n/a	n/a	n/a	81.412	AF25NES.jpg
51.4	0.514	Blank	Blank	52.778	n/a	1	2	11	n/a	31	n/a	1	n/a	n/a	n/a	n/a	81.91	n/a
51.931	0.497	neutral	Picture	52.264	n/a	1	2	12	n/a	32	22	1	n/a	n/a	n/a	n/a	82.44	BM03NES.jpg
52.428	0.514	Blank	Blank	51.75	n/a	1	2	12	n/a	32	n/a	1	n/a	n/a	n/a	n/a	82.938	n/a
52.959	0.497	neutral	Picture	51.236	n/a	1	2	13	n/a	33	11	1	n/a	n/a	n/a	n/a	83.468	AF20NES.jpg
53.456	0.514	Blank	Blank	50.722	n/a	1	2	13	n/a	33	n/a	1	n/a	n/a	n/a	n/a	83.966	n/a
53.987	0.497	neutral	Picture	50.208	n/a	1	2	14	n/a	34	4	1	n/a	n/a	n/a	n/a	84.496	AF05NES.jpg
54.484	0.514	Blank	Blank	49.694	n/a	1	2	14	n/a	34	n/a	1	n/a	n/a	n/a	n/a	84.993	n/a
55.014	0.497	neutral	Picture	49.18	n/a	1	2	15	n/a	35	17	1	n/a	n/a	n/a	n/a	85.524	BF28NES.jpg
55.512	0.514	Blank	Blank	48.666	n/a	1	2	15	n/a	35	n/a	1	n/a	n/a	n/a	n/a	86.021	n/a
56.042	0.497	neutral	Picture	48.152	n/a	1	2	16	n/a	36	13	1	n/a	n/a	n/a	n/a	86.552	BF22NES.jpg
56.54	0.514	Blank	Blank	47.638	n/a	1	2	16	n/a	36	n/a	1	n/a	n/a	n/a	n/a	87.049	n/a
57.07	0.497	neutral	Picture	47.124	n/a	1	2	17	n/a	37	12	1	n/a	n/a	n/a	n/a	87.58	AF21NES.jpg
57.568	0.514	Blank	Blank	46.611	n/a	1	2	17	n/a	37	n/a	1	n/a	n/a	n/a	n/a	88.077	n/a
58.098	0.497	neutral	Picture	46.097	n/a	1	2	18	n/a	38	24	1	n/a	n/a	n/a	n/a	88.608	BM05NES.jpg
58.595	0.514	Blank	Blank	45.583	n/a	1	2	18	n/a	38	n/a	1	n/a	n/a	n/a	n/a	89.105	n/a
59.126	0.497	neutral	Picture	45.069	n/a	1	2	19	n/a	39	29	1	n/a	n/a	n/a	n/a	89.636	AM10NES.jpg
59.623	0.514	Blank	Blank	44.555	n/a	1	2	19	n/a	39	n/a	1	n/a	n/a	n/a	n/a	90.133	n/a
60.154	0.497	neutral	Picture	44.041	n/a	1	2	20	n/a	40	23	1	n/a	n/a	n/a	n/a	90.663	AM04NES.jpg
60.651	0.514	Blank	Blank	43.527	n/a	1	2	20	n/a	40	n/a	1	n/a	n/a	n/a	n/a	91.161	n/a
61.182	10.014	ITI	Fixation+	33.497	n/a	1	n/a	n/a	n/a	n/a	n/a	n/a	n/a	n/a	n/a	n/a	91.691	n/a
71.212	0.497	happy	Picture	32.983	n/a	1	3	1	n/a	41	62	2	n/a	n/a	n/a	n/a	101.721	BM03HAS.jpg
71.709	0.514	Blank	Blank	32.469	n/a	1	3	1	n/a	41	n/a	2	n/a	n/a	n/a	n/a	102.219	n/a
72.24	0.497	happy	Picture	31.955	n/a	1	3	2	n/a	42	52	2	n/a	n/a	n/a	n/a	102.749	AF21HAS.jpg
72.737	0.514	Blank	Blank	31.441	n/a	1	3	2	n/a	42	n/a	2	n/a	n/a	n/a	n/a	103.247	n/a
73.267	0.497	happy	Picture	30.927	n/a	1	3	3	n/a	43	44	2	n/a	n/a	n/a	n/a	103.777	AF05HAS.jpg
73.765	0.514	Blank	Blank	30.413	n/a	1	3	3	n/a	43	n/a	2	n/a	n/a	n/a	n/a	104.275	n/a
74.295	0.497	happy	Picture	29.899	n/a	1	3	4	n/a	44	53	2	n/a	n/a	n/a	n/a	104.805	BF22HAS.jpg
74.793	0.514	Blank	Blank	29.385	n/a	1	3	4	n/a	44	n/a	2	n/a	n/a	n/a	n/a	105.302	n/a
75.323	0.497	happy	Picture	28.871	n/a	1	3	5	n/a	45	54	2	n/a	n/a	n/a	n/a	105.833	AF23HAS.jpg
75.821	0.514	Blank	Blank	28.357	n/a	1	3	5	n/a	45	n/a	2	n/a	n/a	n/a	n/a	106.33	n/a
76.351	0.497	happy	Picture	27.843	n/a	1	3	6	n/a	46	68	2	n/a	n/a	n/a	n/a	106.861	AM09HAS.jpg
76.849	0.514	Blank	Blank	27.33	n/a	1	3	6	n/a	46	n/a	2	n/a	n/a	n/a	n/a	107.358	n/a
77.379	0.497	happy	Picture	26.816	n/a	1	3	7	n/a	47	64	2	n/a	n/a	n/a	n/a	107.889	BM05HAS.jpg
77.876	0.514	Blank	Blank	26.302	n/a	1	3	7	n/a	47	n/a	2	n/a	n/a	n/a	n/a	108.386	n/a
78.407	0.497	happy	Picture	25.788	n/a	1	3	8	n/a	48	59	2	n/a	n/a	n/a	n/a	108.917	AF31HAS.jpg
78.904	0.514	Blank	Blank	25.274	n/a	1	3	8	n/a	48	n/a	2	n/a	n/a	n/a	n/a	109.414	n/a
79.435	0.497	happy	Picture	24.76	n/a	1	3	9	n/a	49	41	2	n/a	n/a	n/a	n/a	109.944	AF01HAS.jpg
79.932	0.514	Blank	Blank	24.246	n/a	1	3	9	n/a	49	n/a	2	n/a	n/a	n/a	n/a	110.442	n/a
80.463	0.497	happy	Picture	23.732	n/a	1	3	10	n/a	50	73	2	n/a	n/a	n/a	n/a	110.972	AM21HAS.jpg
80.96	0.514	Blank	Blank	23.218	n/a	1	3	10	n/a	50	n/a	2	n/a	n/a	n/a	n/a	111.47	n/a
81.491	0.497	happy	Picture	22.704	n/a	1	3	11	n/a	51	65	2	n/a	n/a	n/a	n/a	112.0	BM06HAS.jpg
81.988	0.514	Blank	Blank	22.19	n/a	1	3	11	n/a	51	n/a	2	n/a	n/a	n/a	n/a	112.498	n/a
82.518	0.497	happy	Picture	21.676	n/a	1	3	12	n/a	52	56	2	n/a	n/a	n/a	n/a	113.028	AF26HAS.jpg
83.016	0.514	Blank	Blank	21.162	n/a	1	3	12	n/a	52	n/a	2	n/a	n/a	n/a	n/a	113.525	n/a
83.546	0.497	happy	Picture	20.648	n/a	1	3	13	n/a	53	45	2	n/a	n/a	n/a	n/a	114.056	BF07HAS.jpg
84.044	0.514	Blank	Blank	20.134	n/a	1	3	13	n/a	53	n/a	2	n/a	n/a	n/a	n/a	114.553	n/a
84.574	0.497	happy	Picture	19.62	n/a	1	3	14	n/a	54	78	2	n/a	n/a	n/a	n/a	115.084	BM26HAS.jpg
85.072	0.514	Blank	Blank	19.107	n/a	1	3	14	n/a	54	n/a	2	n/a	n/a	n/a	n/a	115.581	n/a
85.602	0.497	happy	Picture	18.593	n/a	1	3	15	n/a	55	50	2	n/a	n/a	n/a	n/a	116.112	AF18HAS.jpg
86.099	0.514	Blank	Blank	18.079	n/a	1	3	15	n/a	55	n/a	2	n/a	n/a	n/a	n/a	116.609	n/a
86.63	0.497	happy	Picture	17.565	n/a	1	3	16	n/a	56	47	2	n/a	n/a	n/a	n/a	117.14	BF11HAS.jpg
87.127	0.514	Blank	Blank	17.051	n/a	1	3	16	n/a	56	n/a	2	n/a	n/a	n/a	n/a	117.637	n/a
87.658	0.497	happy	Picture	16.537	n/a	1	3	17	n/a	57	77	2	n/a	n/a	n/a	n/a	118.168	BM25HAS.jpg
88.155	0.514	Blank	Blank	16.023	n/a	1	3	17	n/a	57	n/a	2	n/a	n/a	n/a	n/a	118.665	n/a
88.686	0.497	happy	Picture	15.509	n/a	1	3	18	n/a	58	57	2	n/a	n/a	n/a	n/a	119.195	BF28HAS.jpg
89.183	0.514	Blank	Blank	14.995	n/a	1	3	18	n/a	58	n/a	2	n/a	n/a	n/a	n/a	119.693	n/a
89.714	0.497	happy	Picture	14.481	n/a	1	3	19	n/a	59	61	2	n/a	n/a	n/a	n/a	120.223	AM01HAS.jpg
90.211	0.514	Blank	Blank	13.967	n/a	1	3	19	n/a	59	n/a	2	n/a	n/a	n/a	n/a	120.721	n/a
90.741	0.497	happy	Picture	13.453	n/a	1	3	20	n/a	60	79	2	n/a	n/a	n/a	n/a	121.251	BM28HAS.jpg
91.239	0.514	Blank	Blank	12.939	n/a	1	3	20	n/a	60	n/a	2	n/a	n/a	n/a	n/a	121.749	n/a
91.769	10.014	ITI	Fixation+	2.909	n/a	1	n/a	n/a	n/a	n/a	n/a	n/a	n/a	n/a	n/a	n/a	122.279	n/a
104.692	n/a	ConfirmRating	Rate	n/a	2.901	1	n/a	n/a	0	n/a	n/a	n/a	2	Happy	50	50	135.202	n/a
109.934	n/a	ConfirmRating	Rate	n/a	5.222	1	n/a	n/a	1	n/a	n/a	n/a	3	Happy	50	50	140.444	n/a
109.956	10.014	ITI	Fixation+	92.899	n/a	2	n/a	n/a	n/a	n/a	n/a	n/a	n/a	n/a	n/a	n/a	140.466	n/a
119.986	0.497	angry	Picture	92.385	n/a	2	4	1	n/a	61	119	3	n/a	n/a	n/a	n/a	150.496	BM28ANS.jpg
120.484	0.514	Blank	Blank	91.871	n/a	2	4	1	n/a	61	n/a	3	n/a	n/a	n/a	n/a	150.993	n/a
121.014	0.497	angry	Picture	91.357	n/a	2	4	2	n/a	62	100	3	n/a	n/a	n/a	n/a	151.524	AF32ANS.jpg
121.511	0.514	Blank	Blank	90.843	n/a	2	4	2	n/a	62	n/a	3	n/a	n/a	n/a	n/a	152.021	n/a
122.042	0.497	angry	Picture	90.329	n/a	2	4	3	n/a	63	118	3	n/a	n/a	n/a	n/a	152.552	BM26ANS.jpg
122.539	0.514	Blank	Blank	89.815	n/a	2	4	3	n/a	63	n/a	3	n/a	n/a	n/a	n/a	153.049	n/a
123.07	0.497	angry	Picture	89.301	n/a	2	4	4	n/a	64	89	3	n/a	n/a	n/a	n/a	153.579	AF17ANS.jpg
123.567	0.514	Blank	Blank	88.787	n/a	2	4	4	n/a	64	n/a	3	n/a	n/a	n/a	n/a	154.077	n/a
124.098	0.497	angry	Picture	88.273	n/a	2	4	5	n/a	65	116	3	n/a	n/a	n/a	n/a	154.607	BM24ANS.jpg
124.595	0.514	Blank	Blank	87.76	n/a	2	4	5	n/a	65	n/a	3	n/a	n/a	n/a	n/a	155.105	n/a
125.126	0.497	angry	Picture	87.246	n/a	2	4	6	n/a	66	105	3	n/a	n/a	n/a	n/a	155.635	BM06ANS.jpg
125.623	0.514	Blank	Blank	86.732	n/a	2	4	6	n/a	66	n/a	3	n/a	n/a	n/a	n/a	156.133	n/a
126.153	0.497	angry	Picture	86.218	n/a	2	4	7	n/a	67	106	3	n/a	n/a	n/a	n/a	156.663	AM07ANS.jpg
126.651	0.514	Blank	Blank	85.704	n/a	2	4	7	n/a	67	n/a	3	n/a	n/a	n/a	n/a	157.161	n/a
127.181	0.497	angry	Picture	85.19	n/a	2	4	8	n/a	68	94	3	n/a	n/a	n/a	n/a	157.691	AF23ANS.jpg
127.679	0.514	Blank	Blank	84.676	n/a	2	4	8	n/a	68	n/a	3	n/a	n/a	n/a	n/a	158.188	n/a
128.209	0.497	angry	Picture	84.162	n/a	2	4	9	n/a	69	117	3	n/a	n/a	n/a	n/a	158.719	BM25ANS.jpg
128.707	0.514	Blank	Blank	83.648	n/a	2	4	9	n/a	69	n/a	3	n/a	n/a	n/a	n/a	159.216	n/a
129.237	0.497	angry	Picture	83.134	n/a	2	4	10	n/a	70	90	3	n/a	n/a	n/a	n/a	159.747	AF18ANS.jpg
129.734	0.514	Blank	Blank	82.62	n/a	2	4	10	n/a	70	n/a	3	n/a	n/a	n/a	n/a	160.244	n/a
130.265	0.497	angry	Picture	82.106	n/a	2	4	11	n/a	71	83	3	n/a	n/a	n/a	n/a	160.775	BF04ANS.jpg
130.762	0.514	Blank	Blank	81.592	n/a	2	4	11	n/a	71	n/a	3	n/a	n/a	n/a	n/a	161.272	n/a
131.293	0.497	angry	Picture	81.078	n/a	2	4	12	n/a	72	112	3	n/a	n/a	n/a	n/a	161.803	AM14ANS.jpg
131.79	0.514	Blank	Blank	80.564	n/a	2	4	12	n/a	72	n/a	3	n/a	n/a	n/a	n/a	162.3	n/a
132.321	0.497	angry	Picture	80.05	n/a	2	4	13	n/a	73	102	3	n/a	n/a	n/a	n/a	162.83	BM03ANS.jpg
132.818	0.514	Blank	Blank	79.537	n/a	2	4	13	n/a	73	n/a	3	n/a	n/a	n/a	n/a	163.328	n/a
133.349	0.497	angry	Picture	79.023	n/a	2	4	14	n/a	74	95	3	n/a	n/a	n/a	n/a	163.858	AF25ANS.jpg
133.846	0.514	Blank	Blank	78.509	n/a	2	4	14	n/a	74	n/a	3	n/a	n/a	n/a	n/a	164.356	n/a
134.376	0.497	angry	Picture	77.995	n/a	2	4	15	n/a	75	113	3	n/a	n/a	n/a	n/a	164.886	AM21ANS.jpg
134.874	0.514	Blank	Blank	77.481	n/a	2	4	15	n/a	75	n/a	3	n/a	n/a	n/a	n/a	165.383	n/a
135.404	0.497	angry	Picture	76.967	n/a	2	4	16	n/a	76	88	3	n/a	n/a	n/a	n/a	165.914	AF14ANS.jpg
135.902	0.514	Blank	Blank	76.453	n/a	2	4	16	n/a	76	n/a	3	n/a	n/a	n/a	n/a	166.411	n/a
136.432	0.497	angry	Picture	75.939	n/a	2	4	17	n/a	77	93	3	n/a	n/a	n/a	n/a	166.942	BF22ANS.jpg
136.93	0.514	Blank	Blank	75.425	n/a	2	4	17	n/a	77	n/a	3	n/a	n/a	n/a	n/a	167.439	n/a
137.46	0.497	angry	Picture	74.911	n/a	2	4	18	n/a	78	86	3	n/a	n/a	n/a	n/a	167.97	AF09ANS.jpg
137.957	0.514	Blank	Blank	74.397	n/a	2	4	18	n/a	78	n/a	3	n/a	n/a	n/a	n/a	168.467	n/a
138.488	0.497	angry	Picture	73.883	n/a	2	4	19	n/a	79	92	3	n/a	n/a	n/a	n/a	168.998	AF21ANS.jpg
138.985	0.514	Blank	Blank	73.369	n/a	2	4	19	n/a	79	n/a	3	n/a	n/a	n/a	n/a	169.495	n/a
139.516	0.497	angry	Picture	72.855	n/a	2	4	20	n/a	80	84	3	n/a	n/a	n/a	n/a	170.026	AF05ANS.jpg
140.013	0.514	Blank	Blank	72.341	n/a	2	4	20	n/a	80	n/a	3	n/a	n/a	n/a	n/a	170.523	n/a
140.544	10.014	ITI	Fixation+	62.311	n/a	2	n/a	n/a	n/a	n/a	n/a	n/a	n/a	n/a	n/a	n/a	171.053	n/a
150.574	0.497	neutral	Picture	61.797	n/a	2	5	1	n/a	81	4	1	n/a	n/a	n/a	n/a	181.083	AF05NES.jpg
151.071	0.514	Blank	Blank	61.283	n/a	2	5	1	n/a	81	n/a	1	n/a	n/a	n/a	n/a	181.581	n/a
151.602	0.497	neutral	Picture	60.769	n/a	2	5	2	n/a	82	14	1	n/a	n/a	n/a	n/a	182.111	AF23NES.jpg
152.099	0.514	Blank	Blank	60.256	n/a	2	5	2	n/a	82	n/a	1	n/a	n/a	n/a	n/a	182.609	n/a
152.63	0.497	neutral	Picture	59.742	n/a	2	5	3	n/a	83	19	1	n/a	n/a	n/a	n/a	183.139	AF31NES.jpg
153.127	0.514	Blank	Blank	59.228	n/a	2	5	3	n/a	83	n/a	1	n/a	n/a	n/a	n/a	183.637	n/a
153.657	0.497	neutral	Picture	58.714	n/a	2	5	4	n/a	84	8	1	n/a	n/a	n/a	n/a	184.167	AF14NES.jpg
154.155	0.514	Blank	Blank	58.2	n/a	2	5	4	n/a	84	n/a	1	n/a	n/a	n/a	n/a	184.665	n/a
154.685	0.497	neutral	Picture	57.686	n/a	2	5	5	n/a	85	25	1	n/a	n/a	n/a	n/a	185.195	BM06NES.jpg
155.183	0.514	Blank	Blank	57.172	n/a	2	5	5	n/a	85	n/a	1	n/a	n/a	n/a	n/a	185.692	n/a
155.713	0.497	neutral	Picture	56.658	n/a	2	5	6	n/a	86	9	1	n/a	n/a	n/a	n/a	186.223	AF17NES.jpg
156.211	0.514	Blank	Blank	56.144	n/a	2	5	6	n/a	86	n/a	1	n/a	n/a	n/a	n/a	186.72	n/a
156.741	0.497	neutral	Picture	55.63	n/a	2	5	7	n/a	87	2	1	n/a	n/a	n/a	n/a	187.251	AF03NES.jpg
157.238	0.514	Blank	Blank	55.116	n/a	2	5	7	n/a	87	n/a	1	n/a	n/a	n/a	n/a	187.748	n/a
157.769	0.497	neutral	Picture	54.602	n/a	2	5	8	n/a	88	17	1	n/a	n/a	n/a	n/a	188.279	BF28NES.jpg
158.266	0.514	Blank	Blank	54.088	n/a	2	5	8	n/a	88	n/a	1	n/a	n/a	n/a	n/a	188.776	n/a
158.797	0.497	neutral	Picture	53.574	n/a	2	5	9	n/a	89	6	1	n/a	n/a	n/a	n/a	189.307	AF09NES.jpg
159.294	0.514	Blank	Blank	53.06	n/a	2	5	9	n/a	89	n/a	1	n/a	n/a	n/a	n/a	189.804	n/a
159.825	0.497	neutral	Picture	52.547	n/a	2	5	10	n/a	90	12	1	n/a	n/a	n/a	n/a	190.334	AF21NES.jpg
160.322	0.514	Blank	Blank	52.033	n/a	2	5	10	n/a	90	n/a	1	n/a	n/a	n/a	n/a	190.832	n/a
160.853	0.497	neutral	Picture	51.519	n/a	2	5	11	n/a	91	24	1	n/a	n/a	n/a	n/a	191.362	BM05NES.jpg
161.35	0.514	Blank	Blank	51.005	n/a	2	5	11	n/a	91	n/a	1	n/a	n/a	n/a	n/a	191.86	n/a
161.88	0.497	neutral	Picture	50.491	n/a	2	5	12	n/a	92	34	1	n/a	n/a	n/a	n/a	192.39	AM22NES.jpg
162.378	0.514	Blank	Blank	49.977	n/a	2	5	12	n/a	92	n/a	1	n/a	n/a	n/a	n/a	192.888	n/a
162.908	0.497	neutral	Picture	49.463	n/a	2	5	13	n/a	93	23	1	n/a	n/a	n/a	n/a	193.418	AM04NES.jpg
163.406	0.514	Blank	Blank	48.949	n/a	2	5	13	n/a	93	n/a	1	n/a	n/a	n/a	n/a	193.915	n/a
163.936	0.497	neutral	Picture	48.435	n/a	2	5	14	n/a	94	15	1	n/a	n/a	n/a	n/a	194.446	AF25NES.jpg
164.434	0.514	Blank	Blank	47.921	n/a	2	5	14	n/a	94	n/a	1	n/a	n/a	n/a	n/a	194.943	n/a
164.964	0.497	neutral	Picture	47.407	n/a	2	5	15	n/a	95	37	1	n/a	n/a	n/a	n/a	195.474	BM25NES.jpg
165.462	0.514	Blank	Blank	46.893	n/a	2	5	15	n/a	95	n/a	1	n/a	n/a	n/a	n/a	195.971	n/a
165.992	0.497	neutral	Picture	46.379	n/a	2	5	16	n/a	96	32	1	n/a	n/a	n/a	n/a	196.502	AM14NES.jpg
166.489	0.514	Blank	Blank	45.865	n/a	2	5	16	n/a	96	n/a	1	n/a	n/a	n/a	n/a	196.999	n/a
167.02	0.497	neutral	Picture	45.351	n/a	2	5	17	n/a	97	3	1	n/a	n/a	n/a	n/a	197.53	BF04NES.jpg
167.517	0.514	Blank	Blank	44.837	n/a	2	5	17	n/a	97	n/a	1	n/a	n/a	n/a	n/a	198.027	n/a
168.048	0.497	neutral	Picture	44.323	n/a	2	5	18	n/a	98	16	1	n/a	n/a	n/a	n/a	198.558	AF26NES.jpg
168.545	0.514	Blank	Blank	43.809	n/a	2	5	18	n/a	98	n/a	1	n/a	n/a	n/a	n/a	199.055	n/a
169.076	0.497	neutral	Picture	43.296	n/a	2	5	19	n/a	99	27	1	n/a	n/a	n/a	n/a	199.585	BM08NES.jpg
169.573	0.514	Blank	Blank	42.782	n/a	2	5	19	n/a	99	n/a	1	n/a	n/a	n/a	n/a	200.083	n/a
170.103	0.497	neutral	Picture	42.268	n/a	2	5	20	n/a	100	28	1	n/a	n/a	n/a	n/a	200.613	AM09NES.jpg
170.601	0.514	Blank	Blank	41.754	n/a	2	5	20	n/a	100	n/a	1	n/a	n/a	n/a	n/a	201.111	n/a
171.131	10.014	ITI	Fixation+	31.724	n/a	2	n/a	n/a	n/a	n/a	n/a	n/a	n/a	n/a	n/a	n/a	201.641	n/a
181.161	0.497	angry	Picture	31.21	n/a	2	6	1	n/a	101	81	3	n/a	n/a	n/a	n/a	211.671	AF01ANS.jpg
181.659	0.514	Blank	Blank	30.696	n/a	2	6	1	n/a	101	n/a	3	n/a	n/a	n/a	n/a	212.169	n/a
182.189	0.497	angry	Picture	30.182	n/a	2	6	2	n/a	102	120	3	n/a	n/a	n/a	n/a	212.699	AM35ANS.jpg
182.687	0.514	Blank	Blank	29.668	n/a	2	6	2	n/a	102	n/a	3	n/a	n/a	n/a	n/a	213.196	n/a
183.217	0.497	angry	Picture	29.154	n/a	2	6	3	n/a	103	114	3	n/a	n/a	n/a	n/a	213.727	AM22ANS.jpg
183.715	0.514	Blank	Blank	28.64	n/a	2	6	3	n/a	103	n/a	3	n/a	n/a	n/a	n/a	214.224	n/a
184.245	0.497	angry	Picture	28.126	n/a	2	6	4	n/a	104	109	3	n/a	n/a	n/a	n/a	214.755	AM10ANS.jpg
184.742	0.514	Blank	Blank	27.612	n/a	2	6	4	n/a	104	n/a	3	n/a	n/a	n/a	n/a	215.252	n/a
185.273	0.497	angry	Picture	27.098	n/a	2	6	5	n/a	105	96	3	n/a	n/a	n/a	n/a	215.783	AF26ANS.jpg
185.77	0.514	Blank	Blank	26.584	n/a	2	6	5	n/a	105	n/a	3	n/a	n/a	n/a	n/a	216.28	n/a
186.301	0.497	angry	Picture	26.07	n/a	2	6	6	n/a	106	82	3	n/a	n/a	n/a	n/a	216.811	AF03ANS.jpg
186.798	0.514	Blank	Blank	25.556	n/a	2	6	6	n/a	106	n/a	3	n/a	n/a	n/a	n/a	217.308	n/a
187.329	0.497	angry	Picture	25.042	n/a	2	6	7	n/a	107	97	3	n/a	n/a	n/a	n/a	217.839	BF28ANS.jpg
187.826	0.514	Blank	Blank	24.528	n/a	2	6	7	n/a	107	n/a	3	n/a	n/a	n/a	n/a	218.336	n/a
188.357	0.497	angry	Picture	24.015	n/a	2	6	8	n/a	108	115	3	n/a	n/a	n/a	n/a	218.866	AM23ANS.jpg
188.854	0.514	Blank	Blank	23.501	n/a	2	6	8	n/a	108	n/a	3	n/a	n/a	n/a	n/a	219.364	n/a
189.385	0.497	angry	Picture	22.987	n/a	2	6	9	n/a	109	91	3	n/a	n/a	n/a	n/a	219.894	AF20ANS.jpg
189.882	0.514	Blank	Blank	22.473	n/a	2	6	9	n/a	109	n/a	3	n/a	n/a	n/a	n/a	220.392	n/a
190.412	0.497	angry	Picture	21.959	n/a	2	6	10	n/a	110	87	3	n/a	n/a	n/a	n/a	220.922	BF11ANS.jpg
190.91	0.514	Blank	Blank	21.445	n/a	2	6	10	n/a	110	n/a	3	n/a	n/a	n/a	n/a	221.419	n/a
191.44	0.497	angry	Picture	20.931	n/a	2	6	11	n/a	111	85	3	n/a	n/a	n/a	n/a	221.95	BF07ANS.jpg
191.938	0.514	Blank	Blank	20.417	n/a	2	6	11	n/a	111	n/a	3	n/a	n/a	n/a	n/a	222.447	n/a
192.468	0.497	angry	Picture	19.903	n/a	2	6	12	n/a	112	110	3	n/a	n/a	n/a	n/a	222.978	AM11ANS.jpg
192.965	0.514	Blank	Blank	19.389	n/a	2	6	12	n/a	112	n/a	3	n/a	n/a	n/a	n/a	223.475	n/a
193.496	0.497	angry	Picture	18.875	n/a	2	6	13	n/a	113	111	3	n/a	n/a	n/a	n/a	224.006	BM12ANS.jpg
193.993	0.514	Blank	Blank	18.361	n/a	2	6	13	n/a	113	n/a	3	n/a	n/a	n/a	n/a	224.503	n/a
194.524	0.497	angry	Picture	17.847	n/a	2	6	14	n/a	114	103	3	n/a	n/a	n/a	n/a	225.034	AM04ANS.jpg
195.021	0.514	Blank	Blank	17.333	n/a	2	6	14	n/a	114	n/a	3	n/a	n/a	n/a	n/a	225.531	n/a
195.552	0.497	angry	Picture	16.82	n/a	2	6	15	n/a	115	101	3	n/a	n/a	n/a	n/a	226.061	AM01ANS.jpg
196.049	0.514	Blank	Blank	16.305	n/a	2	6	15	n/a	115	n/a	3	n/a	n/a	n/a	n/a	226.559	n/a
196.58	0.497	angry	Picture	15.792	n/a	2	6	16	n/a	116	104	3	n/a	n/a	n/a	n/a	227.089	BM05ANS.jpg
197.077	0.514	Blank	Blank	15.278	n/a	2	6	16	n/a	116	n/a	3	n/a	n/a	n/a	n/a	227.587	n/a
197.607	0.497	angry	Picture	14.764	n/a	2	6	17	n/a	117	107	3	n/a	n/a	n/a	n/a	228.117	BM08ANS.jpg
198.105	0.514	Blank	Blank	14.25	n/a	2	6	17	n/a	117	n/a	3	n/a	n/a	n/a	n/a	228.615	n/a
198.635	0.497	angry	Picture	13.736	n/a	2	6	18	n/a	118	98	3	n/a	n/a	n/a	n/a	229.145	BF29ANS.jpg
199.133	0.514	Blank	Blank	13.222	n/a	2	6	18	n/a	118	n/a	3	n/a	n/a	n/a	n/a	229.643	n/a
199.663	0.497	angry	Picture	12.708	n/a	2	6	19	n/a	119	99	3	n/a	n/a	n/a	n/a	230.173	AF31ANS.jpg
200.161	0.514	Blank	Blank	12.194	n/a	2	6	19	n/a	119	n/a	3	n/a	n/a	n/a	n/a	230.67	n/a
200.691	0.497	angry	Picture	11.68	n/a	2	6	20	n/a	120	108	3	n/a	n/a	n/a	n/a	231.201	AM09ANS.jpg
201.189	0.514	Blank	Blank	11.166	n/a	2	6	20	n/a	120	n/a	3	n/a	n/a	n/a	n/a	231.698	n/a
201.719	10.014	ITI	Fixation+	1.136	n/a	2	n/a	n/a	n/a	n/a	n/a	n/a	n/a	n/a	n/a	n/a	232.229	n/a
212.869	n/a	ConfirmRating	Rate	n/a	1.128	2	n/a	n/a	0	n/a	n/a	n/a	2	Angry	50	50	243.378	n/a
214.28	n/a	ConfirmRating	Rate	n/a	1.393	2	n/a	n/a	1	n/a	n/a	n/a	3	Angry	50	50	244.79	n/a
214.302	15.004	Rest	Picture	n/a	n/a	n/a	n/a	n/a	n/a	n/a	n/a	n/a	0	n/a	0	0	244.812	n/a
229.323	10.014	ITI	Fixation+	92.68	n/a	3	n/a	n/a	n/a	n/a	n/a	n/a	n/a	n/a	n/a	n/a	259.832	n/a
239.353	0.497	happy	Picture	92.166	n/a	3	7	1	n/a	1	46	2	n/a	n/a	n/a	n/a	269.862	AF09HAS.jpg
239.85	0.514	Blank	Blank	91.652	n/a	3	7	1	n/a	1	n/a	2	n/a	n/a	n/a	n/a	270.36	n/a
240.38	0.497	happy	Picture	91.138	n/a	3	7	2	n/a	2	69	2	n/a	n/a	n/a	n/a	270.89	AM10HAS.jpg
240.878	0.514	Blank	Blank	90.624	n/a	3	7	2	n/a	2	n/a	2	n/a	n/a	n/a	n/a	271.388	n/a
241.408	0.497	happy	Picture	90.11	n/a	3	7	3	n/a	3	71	2	n/a	n/a	n/a	n/a	271.918	BM12HAS.jpg
241.906	0.514	Blank	Blank	89.596	n/a	3	7	3	n/a	3	n/a	2	n/a	n/a	n/a	n/a	272.416	n/a
242.436	0.497	happy	Picture	89.082	n/a	3	7	4	n/a	4	51	2	n/a	n/a	n/a	n/a	272.946	AF20HAS.jpg
242.934	0.514	Blank	Blank	88.568	n/a	3	7	4	n/a	4	n/a	2	n/a	n/a	n/a	n/a	273.443	n/a
243.464	0.497	happy	Picture	88.054	n/a	3	7	5	n/a	5	67	2	n/a	n/a	n/a	n/a	273.974	BM08HAS.jpg
243.962	0.514	Blank	Blank	87.54	n/a	3	7	5	n/a	5	n/a	2	n/a	n/a	n/a	n/a	274.471	n/a
244.492	0.497	happy	Picture	87.026	n/a	3	7	6	n/a	6	60	2	n/a	n/a	n/a	n/a	275.002	AF32HAS.jpg
244.989	0.514	Blank	Blank	86.513	n/a	3	7	6	n/a	6	n/a	2	n/a	n/a	n/a	n/a	275.499	n/a
245.52	0.497	happy	Picture	85.999	n/a	3	7	7	n/a	7	42	2	n/a	n/a	n/a	n/a	276.03	AF03HAS.jpg
246.017	0.514	Blank	Blank	85.485	n/a	3	7	7	n/a	7	n/a	2	n/a	n/a	n/a	n/a	276.527	n/a
246.548	0.497	happy	Picture	84.971	n/a	3	7	8	n/a	8	55	2	n/a	n/a	n/a	n/a	277.058	AF25HAS.jpg
247.045	0.514	Blank	Blank	84.457	n/a	3	7	8	n/a	8	n/a	2	n/a	n/a	n/a	n/a	277.555	n/a
247.576	0.497	happy	Picture	83.943	n/a	3	7	9	n/a	9	72	2	n/a	n/a	n/a	n/a	278.085	AM14HAS.jpg
248.073	0.514	Blank	Blank	83.429	n/a	3	7	9	n/a	9	n/a	2	n/a	n/a	n/a	n/a	278.583	n/a
248.604	0.497	happy	Picture	82.915	n/a	3	7	10	n/a	10	63	2	n/a	n/a	n/a	n/a	279.113	AM04HAS.jpg
249.101	0.514	Blank	Blank	82.401	n/a	3	7	10	n/a	10	n/a	2	n/a	n/a	n/a	n/a	279.611	n/a
249.631	0.497	happy	Picture	81.887	n/a	3	7	11	n/a	11	58	2	n/a	n/a	n/a	n/a	280.141	BF29HAS.jpg
250.129	0.514	Blank	Blank	81.373	n/a	3	7	11	n/a	11	n/a	2	n/a	n/a	n/a	n/a	280.639	n/a
250.659	0.497	happy	Picture	80.859	n/a	3	7	12	n/a	12	48	2	n/a	n/a	n/a	n/a	281.169	AF14HAS.jpg
251.157	0.514	Blank	Blank	80.345	n/a	3	7	12	n/a	12	n/a	2	n/a	n/a	n/a	n/a	281.666	n/a
251.687	0.497	happy	Picture	79.831	n/a	3	7	13	n/a	13	66	2	n/a	n/a	n/a	n/a	282.197	BM07HAS.jpg
252.185	0.514	Blank	Blank	79.317	n/a	3	7	13	n/a	13	n/a	2	n/a	n/a	n/a	n/a	282.694	n/a
252.715	0.497	happy	Picture	78.803	n/a	3	7	14	n/a	14	70	2	n/a	n/a	n/a	n/a	283.225	BM11HAS.jpg
253.212	0.514	Blank	Blank	78.289	n/a	3	7	14	n/a	14	n/a	2	n/a	n/a	n/a	n/a	283.722	n/a
253.743	0.497	happy	Picture	77.776	n/a	3	7	15	n/a	15	43	2	n/a	n/a	n/a	n/a	284.253	BF04HAS.jpg
254.24	0.514	Blank	Blank	77.262	n/a	3	7	15	n/a	15	n/a	2	n/a	n/a	n/a	n/a	284.75	n/a
254.771	0.497	happy	Picture	76.748	n/a	3	7	16	n/a	16	49	2	n/a	n/a	n/a	n/a	285.281	AF17HAS.jpg
255.268	0.514	Blank	Blank	76.234	n/a	3	7	16	n/a	16	n/a	2	n/a	n/a	n/a	n/a	285.778	n/a
255.799	0.497	happy	Picture	75.72	n/a	3	7	17	n/a	17	75	2	n/a	n/a	n/a	n/a	286.308	AM23HAS.jpg
256.296	0.514	Blank	Blank	75.206	n/a	3	7	17	n/a	17	n/a	2	n/a	n/a	n/a	n/a	286.806	n/a
256.827	0.497	happy	Picture	74.692	n/a	3	7	18	n/a	18	80	2	n/a	n/a	n/a	n/a	287.336	BM35HAS.jpg
257.324	0.514	Blank	Blank	74.178	n/a	3	7	18	n/a	18	n/a	2	n/a	n/a	n/a	n/a	287.834	n/a
257.854	0.497	happy	Picture	73.664	n/a	3	7	19	n/a	19	76	2	n/a	n/a	n/a	n/a	288.364	BM24HAS.jpg
258.352	0.514	Blank	Blank	73.15	n/a	3	7	19	n/a	19	n/a	2	n/a	n/a	n/a	n/a	288.861	n/a
258.882	0.497	happy	Picture	72.636	n/a	3	7	20	n/a	20	74	2	n/a	n/a	n/a	n/a	289.392	AM22HAS.jpg
259.38	0.514	Blank	Blank	72.122	n/a	3	7	20	n/a	20	n/a	2	n/a	n/a	n/a	n/a	289.889	n/a
259.91	10.014	ITI	Fixation+	62.092	n/a	3	n/a	n/a	n/a	n/a	n/a	n/a	n/a	n/a	n/a	n/a	290.42	n/a
269.94	0.497	neutral	Picture	61.578	n/a	3	8	1	n/a	21	33	1	n/a	n/a	n/a	n/a	300.45	AM21NES.jpg
270.438	0.514	Blank	Blank	61.064	n/a	3	8	1	n/a	21	n/a	1	n/a	n/a	n/a	n/a	300.947	n/a
270.968	0.497	neutral	Picture	60.55	n/a	3	8	2	n/a	22	39	1	n/a	n/a	n/a	n/a	301.478	AM28NES.jpg
271.465	0.514	Blank	Blank	60.036	n/a	3	8	2	n/a	22	n/a	1	n/a	n/a	n/a	n/a	301.975	n/a
271.996	0.497	neutral	Picture	59.522	n/a	3	8	3	n/a	23	25	1	n/a	n/a	n/a	n/a	302.506	BM06NES.jpg
272.493	0.514	Blank	Blank	59.008	n/a	3	8	3	n/a	23	n/a	1	n/a	n/a	n/a	n/a	303.003	n/a
273.024	0.497	neutral	Picture	58.495	n/a	3	8	4	n/a	24	5	1	n/a	n/a	n/a	n/a	303.534	BF07NES.jpg
273.521	0.514	Blank	Blank	57.981	n/a	3	8	4	n/a	24	n/a	1	n/a	n/a	n/a	n/a	304.031	n/a
274.052	0.497	neutral	Picture	57.467	n/a	3	8	5	n/a	25	10	1	n/a	n/a	n/a	n/a	304.562	AF18NES.jpg
274.549	0.514	Blank	Blank	56.953	n/a	3	8	5	n/a	25	n/a	1	n/a	n/a	n/a	n/a	305.059	n/a
275.08	0.497	neutral	Picture	56.439	n/a	3	8	6	n/a	26	34	1	n/a	n/a	n/a	n/a	305.589	AM22NES.jpg
275.577	0.514	Blank	Blank	55.925	n/a	3	8	6	n/a	26	n/a	1	n/a	n/a	n/a	n/a	306.087	n/a
276.108	0.497	neutral	Picture	55.411	n/a	3	8	7	n/a	27	36	1	n/a	n/a	n/a	n/a	306.617	BM24NES.jpg
276.605	0.514	Blank	Blank	54.897	n/a	3	8	7	n/a	27	n/a	1	n/a	n/a	n/a	n/a	307.115	n/a
277.135	0.497	neutral	Picture	54.383	n/a	3	8	8	n/a	28	14	1	n/a	n/a	n/a	n/a	307.645	AF23NES.jpg
277.633	0.514	Blank	Blank	53.869	n/a	3	8	8	n/a	28	n/a	1	n/a	n/a	n/a	n/a	308.142	n/a
278.163	0.497	neutral	Picture	53.355	n/a	3	8	9	n/a	29	9	1	n/a	n/a	n/a	n/a	308.673	AF17NES.jpg
278.661	0.514	Blank	Blank	52.841	n/a	3	8	9	n/a	29	n/a	1	n/a	n/a	n/a	n/a	309.17	n/a
279.191	0.497	neutral	Picture	52.327	n/a	3	8	10	n/a	30	19	1	n/a	n/a	n/a	n/a	309.701	AF31NES.jpg
279.689	0.514	Blank	Blank	51.813	n/a	3	8	10	n/a	30	n/a	1	n/a	n/a	n/a	n/a	310.198	n/a
280.219	0.497	neutral	Picture	51.3	n/a	3	8	11	n/a	31	15	1	n/a	n/a	n/a	n/a	310.729	AF25NES.jpg
280.716	0.514	Blank	Blank	50.786	n/a	3	8	11	n/a	31	n/a	1	n/a	n/a	n/a	n/a	311.226	n/a
281.247	0.497	neutral	Picture	50.272	n/a	3	8	12	n/a	32	22	1	n/a	n/a	n/a	n/a	311.757	BM03NES.jpg
281.744	0.514	Blank	Blank	49.758	n/a	3	8	12	n/a	32	n/a	1	n/a	n/a	n/a	n/a	312.254	n/a
282.275	0.497	neutral	Picture	49.244	n/a	3	8	13	n/a	33	11	1	n/a	n/a	n/a	n/a	312.784	AF20NES.jpg
282.772	0.514	Blank	Blank	48.73	n/a	3	8	13	n/a	33	n/a	1	n/a	n/a	n/a	n/a	313.282	n/a
283.303	0.497	neutral	Picture	48.216	n/a	3	8	14	n/a	34	4	1	n/a	n/a	n/a	n/a	313.812	AF05NES.jpg
283.8	0.514	Blank	Blank	47.702	n/a	3	8	14	n/a	34	n/a	1	n/a	n/a	n/a	n/a	314.31	n/a
284.331	0.497	neutral	Picture	47.188	n/a	3	8	15	n/a	35	17	1	n/a	n/a	n/a	n/a	314.84	BF28NES.jpg
284.828	0.514	Blank	Blank	46.674	n/a	3	8	15	n/a	35	n/a	1	n/a	n/a	n/a	n/a	315.338	n/a
285.358	0.497	neutral	Picture	46.16	n/a	3	8	16	n/a	36	13	1	n/a	n/a	n/a	n/a	315.868	BF22NES.jpg
285.856	0.514	Blank	Blank	45.646	n/a	3	8	16	n/a	36	n/a	1	n/a	n/a	n/a	n/a	316.365	n/a
286.386	0.497	neutral	Picture	45.132	n/a	3	8	17	n/a	37	12	1	n/a	n/a	n/a	n/a	316.896	AF21NES.jpg
286.884	0.514	Blank	Blank	44.618	n/a	3	8	17	n/a	37	n/a	1	n/a	n/a	n/a	n/a	317.393	n/a
287.414	0.497	neutral	Picture	44.104	n/a	3	8	18	n/a	38	24	1	n/a	n/a	n/a	n/a	317.924	BM05NES.jpg
287.912	0.514	Blank	Blank	43.59	n/a	3	8	18	n/a	38	n/a	1	n/a	n/a	n/a	n/a	318.421	n/a
288.442	0.497	neutral	Picture	43.076	n/a	3	8	19	n/a	39	29	1	n/a	n/a	n/a	n/a	318.952	AM10NES.jpg
288.94	0.514	Blank	Blank	42.563	n/a	3	8	19	n/a	39	n/a	1	n/a	n/a	n/a	n/a	319.449	n/a
289.47	0.497	neutral	Picture	42.048	n/a	3	8	20	n/a	40	23	1	n/a	n/a	n/a	n/a	319.98	AM04NES.jpg
289.967	0.514	Blank	Blank	41.535	n/a	3	8	20	n/a	40	n/a	1	n/a	n/a	n/a	n/a	320.477	n/a
290.498	10.014	ITI	Fixation+	31.504	n/a	3	n/a	n/a	n/a	n/a	n/a	n/a	n/a	n/a	n/a	n/a	321.008	n/a
300.528	0.497	happy	Picture	30.991	n/a	3	9	1	n/a	41	62	2	n/a	n/a	n/a	n/a	331.038	BM03HAS.jpg
301.025	0.514	Blank	Blank	30.477	n/a	3	9	1	n/a	41	n/a	2	n/a	n/a	n/a	n/a	331.535	n/a
301.556	0.497	happy	Picture	29.963	n/a	3	9	2	n/a	42	52	2	n/a	n/a	n/a	n/a	332.066	AF21HAS.jpg
302.053	0.514	Blank	Blank	29.449	n/a	3	9	2	n/a	42	n/a	2	n/a	n/a	n/a	n/a	332.563	n/a
302.584	0.497	happy	Picture	28.935	n/a	3	9	3	n/a	43	44	2	n/a	n/a	n/a	n/a	333.093	AF05HAS.jpg
303.081	0.514	Blank	Blank	28.421	n/a	3	9	3	n/a	43	n/a	2	n/a	n/a	n/a	n/a	333.591	n/a
303.612	0.497	happy	Picture	27.907	n/a	3	9	4	n/a	44	53	2	n/a	n/a	n/a	n/a	334.121	BF22HAS.jpg
304.109	0.514	Blank	Blank	27.393	n/a	3	9	4	n/a	44	n/a	2	n/a	n/a	n/a	n/a	334.619	n/a
304.639	0.497	happy	Picture	26.879	n/a	3	9	5	n/a	45	54	2	n/a	n/a	n/a	n/a	335.149	AF23HAS.jpg
305.137	0.514	Blank	Blank	26.365	n/a	3	9	5	n/a	45	n/a	2	n/a	n/a	n/a	n/a	335.647	n/a
305.667	0.497	happy	Picture	25.851	n/a	3	9	6	n/a	46	68	2	n/a	n/a	n/a	n/a	336.177	AM09HAS.jpg
306.165	0.514	Blank	Blank	25.337	n/a	3	9	6	n/a	46	n/a	2	n/a	n/a	n/a	n/a	336.674	n/a
306.695	0.497	happy	Picture	24.823	n/a	3	9	7	n/a	47	64	2	n/a	n/a	n/a	n/a	337.205	BM05HAS.jpg
307.193	0.514	Blank	Blank	24.309	n/a	3	9	7	n/a	47	n/a	2	n/a	n/a	n/a	n/a	337.702	n/a
307.723	0.497	happy	Picture	23.795	n/a	3	9	8	n/a	48	59	2	n/a	n/a	n/a	n/a	338.233	AF31HAS.jpg
308.221	0.514	Blank	Blank	23.281	n/a	3	9	8	n/a	48	n/a	2	n/a	n/a	n/a	n/a	338.73	n/a
308.751	0.497	happy	Picture	22.767	n/a	3	9	9	n/a	49	41	2	n/a	n/a	n/a	n/a	339.261	AF01HAS.jpg
309.248	0.514	Blank	Blank	22.254	n/a	3	9	9	n/a	49	n/a	2	n/a	n/a	n/a	n/a	339.758	n/a
309.779	0.497	happy	Picture	21.74	n/a	3	9	10	n/a	50	73	2	n/a	n/a	n/a	n/a	340.289	AM21HAS.jpg
310.276	0.514	Blank	Blank	21.226	n/a	3	9	10	n/a	50	n/a	2	n/a	n/a	n/a	n/a	340.786	n/a
310.807	0.497	happy	Picture	20.712	n/a	3	9	11	n/a	51	65	2	n/a	n/a	n/a	n/a	341.317	BM06HAS.jpg
311.304	0.514	Blank	Blank	20.198	n/a	3	9	11	n/a	51	n/a	2	n/a	n/a	n/a	n/a	341.814	n/a
311.835	0.497	happy	Picture	19.684	n/a	3	9	12	n/a	52	56	2	n/a	n/a	n/a	n/a	342.344	AF26HAS.jpg
312.332	0.514	Blank	Blank	19.17	n/a	3	9	12	n/a	52	n/a	2	n/a	n/a	n/a	n/a	342.842	n/a
312.863	0.497	happy	Picture	18.656	n/a	3	9	13	n/a	53	45	2	n/a	n/a	n/a	n/a	343.372	BF07HAS.jpg
313.36	0.514	Blank	Blank	18.142	n/a	3	9	13	n/a	53	n/a	2	n/a	n/a	n/a	n/a	343.87	n/a
313.89	0.497	happy	Picture	17.628	n/a	3	9	14	n/a	54	78	2	n/a	n/a	n/a	n/a	344.4	BM26HAS.jpg
314.388	0.514	Blank	Blank	17.114	n/a	3	9	14	n/a	54	n/a	2	n/a	n/a	n/a	n/a	344.897	n/a
314.918	0.497	happy	Picture	16.6	n/a	3	9	15	n/a	55	50	2	n/a	n/a	n/a	n/a	345.428	AF18HAS.jpg
315.416	0.514	Blank	Blank	16.086	n/a	3	9	15	n/a	55	n/a	2	n/a	n/a	n/a	n/a	345.925	n/a
315.946	0.497	happy	Picture	15.572	n/a	3	9	16	n/a	56	47	2	n/a	n/a	n/a	n/a	346.456	BF11HAS.jpg
316.443	0.514	Blank	Blank	15.059	n/a	3	9	16	n/a	56	n/a	2	n/a	n/a	n/a	n/a	346.953	n/a
316.974	0.497	happy	Picture	14.544	n/a	3	9	17	n/a	57	77	2	n/a	n/a	n/a	n/a	347.484	BM25HAS.jpg
317.471	0.514	Blank	Blank	14.031	n/a	3	9	17	n/a	57	n/a	2	n/a	n/a	n/a	n/a	347.981	n/a
318.002	0.497	happy	Picture	13.517	n/a	3	9	18	n/a	58	57	2	n/a	n/a	n/a	n/a	348.512	BF28HAS.jpg
318.499	0.514	Blank	Blank	13.003	n/a	3	9	18	n/a	58	n/a	2	n/a	n/a	n/a	n/a	349.009	n/a
319.03	0.497	happy	Picture	12.489	n/a	3	9	19	n/a	59	61	2	n/a	n/a	n/a	n/a	349.539	AM01HAS.jpg
319.527	0.514	Blank	Blank	11.975	n/a	3	9	19	n/a	59	n/a	2	n/a	n/a	n/a	n/a	350.037	n/a
320.058	0.497	happy	Picture	11.461	n/a	3	9	20	n/a	60	79	2	n/a	n/a	n/a	n/a	350.567	BM28HAS.jpg
320.555	0.514	Blank	Blank	10.947	n/a	3	9	20	n/a	60	n/a	2	n/a	n/a	n/a	n/a	351.065	n/a
321.085	10.014	ITI	Fixation+	0.917	n/a	3	n/a	n/a	n/a	n/a	n/a	n/a	n/a	n/a	n/a	n/a	351.595	n/a
332.016	n/a	ConfirmRating	Rate	n/a	0.912	3	n/a	n/a	0	n/a	n/a	n/a	2	Happy	50	50	362.526	n/a
332.774	n/a	ConfirmRating	Rate	n/a	0.746	3	n/a	n/a	1	n/a	n/a	n/a	3	Happy	50	50	363.284	n/a
332.807	10.014	ITI	Fixation+	92.549	n/a	4	n/a	n/a	n/a	n/a	n/a	n/a	n/a	n/a	n/a	n/a	363.316	n/a
342.837	0.497	angry	Picture	92.035	n/a	4	10	1	n/a	61	119	3	n/a	n/a	n/a	n/a	373.346	BM28ANS.jpg
343.334	0.514	Blank	Blank	91.521	n/a	4	10	1	n/a	61	n/a	3	n/a	n/a	n/a	n/a	373.844	n/a
343.865	0.497	angry	Picture	91.007	n/a	4	10	2	n/a	62	100	3	n/a	n/a	n/a	n/a	374.374	AF32ANS.jpg
344.362	0.514	Blank	Blank	90.494	n/a	4	10	2	n/a	62	n/a	3	n/a	n/a	n/a	n/a	374.872	n/a
344.892	0.497	angry	Picture	89.98	n/a	4	10	3	n/a	63	118	3	n/a	n/a	n/a	n/a	375.402	BM26ANS.jpg
345.39	0.514	Blank	Blank	89.466	n/a	4	10	3	n/a	63	n/a	3	n/a	n/a	n/a	n/a	375.9	n/a
345.92	0.497	angry	Picture	88.952	n/a	4	10	4	n/a	64	89	3	n/a	n/a	n/a	n/a	376.43	AF17ANS.jpg
346.418	0.514	Blank	Blank	88.438	n/a	4	10	4	n/a	64	n/a	3	n/a	n/a	n/a	n/a	376.927	n/a
346.948	0.497	angry	Picture	87.924	n/a	4	10	5	n/a	65	116	3	n/a	n/a	n/a	n/a	377.458	BM24ANS.jpg
347.446	0.514	Blank	Blank	87.41	n/a	4	10	5	n/a	65	n/a	3	n/a	n/a	n/a	n/a	377.955	n/a
347.976	0.497	angry	Picture	86.896	n/a	4	10	6	n/a	66	105	3	n/a	n/a	n/a	n/a	378.486	BM06ANS.jpg
348.474	0.514	Blank	Blank	86.382	n/a	4	10	6	n/a	66	n/a	3	n/a	n/a	n/a	n/a	378.983	n/a
349.004	0.497	angry	Picture	85.868	n/a	4	10	7	n/a	67	106	3	n/a	n/a	n/a	n/a	379.514	AM07ANS.jpg
349.501	0.514	Blank	Blank	85.354	n/a	4	10	7	n/a	67	n/a	3	n/a	n/a	n/a	n/a	380.011	n/a
350.032	0.497	angry	Picture	84.84	n/a	4	10	8	n/a	68	94	3	n/a	n/a	n/a	n/a	380.542	AF23ANS.jpg
350.529	0.514	Blank	Blank	84.326	n/a	4	10	8	n/a	68	n/a	3	n/a	n/a	n/a	n/a	381.039	n/a
351.06	0.497	angry	Picture	83.812	n/a	4	10	9	n/a	69	117	3	n/a	n/a	n/a	n/a	381.57	BM25ANS.jpg
351.557	0.514	Blank	Blank	83.298	n/a	4	10	9	n/a	69	n/a	3	n/a	n/a	n/a	n/a	382.067	n/a
352.088	0.497	angry	Picture	82.785	n/a	4	10	10	n/a	70	90	3	n/a	n/a	n/a	n/a	382.597	AF18ANS.jpg
352.585	0.514	Blank	Blank	82.271	n/a	4	10	10	n/a	70	n/a	3	n/a	n/a	n/a	n/a	383.095	n/a
353.115	0.497	angry	Picture	81.757	n/a	4	10	11	n/a	71	83	3	n/a	n/a	n/a	n/a	383.625	BF04ANS.jpg
353.613	0.514	Blank	Blank	81.243	n/a	4	10	11	n/a	71	n/a	3	n/a	n/a	n/a	n/a	384.123	n/a
354.143	0.497	angry	Picture	80.729	n/a	4	10	12	n/a	72	112	3	n/a	n/a	n/a	n/a	384.653	AM14ANS.jpg
354.641	0.514	Blank	Blank	80.215	n/a	4	10	12	n/a	72	n/a	3	n/a	n/a	n/a	n/a	385.151	n/a
355.171	0.497	angry	Picture	79.701	n/a	4	10	13	n/a	73	102	3	n/a	n/a	n/a	n/a	385.681	BM03ANS.jpg
355.669	0.514	Blank	Blank	79.187	n/a	4	10	13	n/a	73	n/a	3	n/a	n/a	n/a	n/a	386.178	n/a
356.199	0.497	angry	Picture	78.673	n/a	4	10	14	n/a	74	95	3	n/a	n/a	n/a	n/a	386.709	AF25ANS.jpg
356.697	0.514	Blank	Blank	78.159	n/a	4	10	14	n/a	74	n/a	3	n/a	n/a	n/a	n/a	387.206	n/a
357.227	0.497	angry	Picture	77.645	n/a	4	10	15	n/a	75	113	3	n/a	n/a	n/a	n/a	387.737	AM21ANS.jpg
357.724	0.514	Blank	Blank	77.131	n/a	4	10	15	n/a	75	n/a	3	n/a	n/a	n/a	n/a	388.234	n/a
358.255	0.497	angry	Picture	76.617	n/a	4	10	16	n/a	76	88	3	n/a	n/a	n/a	n/a	388.765	AF14ANS.jpg
358.752	0.514	Blank	Blank	76.103	n/a	4	10	16	n/a	76	n/a	3	n/a	n/a	n/a	n/a	389.262	n/a
359.283	0.497	angry	Picture	75.589	n/a	4	10	17	n/a	77	93	3	n/a	n/a	n/a	n/a	389.793	BF22ANS.jpg
359.78	0.514	Blank	Blank	75.075	n/a	4	10	17	n/a	77	n/a	3	n/a	n/a	n/a	n/a	390.29	n/a
360.311	0.497	angry	Picture	74.562	n/a	4	10	18	n/a	78	86	3	n/a	n/a	n/a	n/a	390.82	AF09ANS.jpg
360.808	0.514	Blank	Blank	74.048	n/a	4	10	18	n/a	78	n/a	3	n/a	n/a	n/a	n/a	391.318	n/a
361.339	0.497	angry	Picture	73.534	n/a	4	10	19	n/a	79	92	3	n/a	n/a	n/a	n/a	391.848	AF21ANS.jpg
361.836	0.514	Blank	Blank	73.02	n/a	4	10	19	n/a	79	n/a	3	n/a	n/a	n/a	n/a	392.346	n/a
362.366	0.497	angry	Picture	72.506	n/a	4	10	20	n/a	80	84	3	n/a	n/a	n/a	n/a	392.876	AF05ANS.jpg
362.864	0.514	Blank	Blank	71.992	n/a	4	10	20	n/a	80	n/a	3	n/a	n/a	n/a	n/a	393.373	n/a
363.394	10.014	ITI	Fixation+	61.962	n/a	4	n/a	n/a	n/a	n/a	n/a	n/a	n/a	n/a	n/a	n/a	393.904	n/a
373.424	0.497	neutral	Picture	61.448	n/a	4	11	1	n/a	81	4	1	n/a	n/a	n/a	n/a	403.934	AF05NES.jpg
373.922	0.514	Blank	Blank	60.934	n/a	4	11	1	n/a	81	n/a	1	n/a	n/a	n/a	n/a	404.432	n/a
374.452	0.497	neutral	Picture	60.42	n/a	4	11	2	n/a	82	14	1	n/a	n/a	n/a	n/a	404.962	AF23NES.jpg
374.95	0.514	Blank	Blank	59.906	n/a	4	11	2	n/a	82	n/a	1	n/a	n/a	n/a	n/a	405.459	n/a
375.48	0.497	neutral	Picture	59.392	n/a	4	11	3	n/a	83	19	1	n/a	n/a	n/a	n/a	405.99	AF31NES.jpg
375.977	0.514	Blank	Blank	58.878	n/a	4	11	3	n/a	83	n/a	1	n/a	n/a	n/a	n/a	406.487	n/a
376.508	0.497	neutral	Picture	58.364	n/a	4	11	4	n/a	84	8	1	n/a	n/a	n/a	n/a	407.018	AF14NES.jpg
377.005	0.514	Blank	Blank	57.85	n/a	4	11	4	n/a	84	n/a	1	n/a	n/a	n/a	n/a	407.515	n/a
377.536	0.497	neutral	Picture	57.336	n/a	4	11	5	n/a	85	25	1	n/a	n/a	n/a	n/a	408.046	BM06NES.jpg
378.033	0.514	Blank	Blank	56.822	n/a	4	11	5	n/a	85	n/a	1	n/a	n/a	n/a	n/a	408.543	n/a
378.564	0.497	neutral	Picture	56.308	n/a	4	11	6	n/a	86	9	1	n/a	n/a	n/a	n/a	409.074	AF17NES.jpg
379.061	0.514	Blank	Blank	55.794	n/a	4	11	6	n/a	86	n/a	1	n/a	n/a	n/a	n/a	409.571	n/a
379.592	0.497	neutral	Picture	55.281	n/a	4	11	7	n/a	87	2	1	n/a	n/a	n/a	n/a	410.101	AF03NES.jpg
380.089	0.514	Blank	Blank	54.767	n/a	4	11	7	n/a	87	n/a	1	n/a	n/a	n/a	n/a	410.599	n/a
380.62	0.497	neutral	Picture	54.253	n/a	4	11	8	n/a	88	17	1	n/a	n/a	n/a	n/a	411.129	BF28NES.jpg
381.117	0.514	Blank	Blank	53.739	n/a	4	11	8	n/a	88	n/a	1	n/a	n/a	n/a	n/a	411.627	n/a
381.647	0.497	neutral	Picture	53.225	n/a	4	11	9	n/a	89	6	1	n/a	n/a	n/a	n/a	412.157	AF09NES.jpg
382.145	0.514	Blank	Blank	52.711	n/a	4	11	9	n/a	89	n/a	1	n/a	n/a	n/a	n/a	412.654	n/a
382.675	0.497	neutral	Picture	52.197	n/a	4	11	10	n/a	90	12	1	n/a	n/a	n/a	n/a	413.185	AF21NES.jpg
383.173	0.514	Blank	Blank	51.683	n/a	4	11	10	n/a	90	n/a	1	n/a	n/a	n/a	n/a	413.682	n/a
383.703	0.497	neutral	Picture	51.169	n/a	4	11	11	n/a	91	24	1	n/a	n/a	n/a	n/a	414.213	BM05NES.jpg
384.201	0.514	Blank	Blank	50.655	n/a	4	11	11	n/a	91	n/a	1	n/a	n/a	n/a	n/a	414.71	n/a
384.731	0.497	neutral	Picture	50.141	n/a	4	11	12	n/a	92	34	1	n/a	n/a	n/a	n/a	415.241	AM22NES.jpg
385.228	0.514	Blank	Blank	49.627	n/a	4	11	12	n/a	92	n/a	1	n/a	n/a	n/a	n/a	415.738	n/a
385.759	0.497	neutral	Picture	49.113	n/a	4	11	13	n/a	93	23	1	n/a	n/a	n/a	n/a	416.269	AM04NES.jpg
386.256	0.514	Blank	Blank	48.599	n/a	4	11	13	n/a	93	n/a	1	n/a	n/a	n/a	n/a	416.766	n/a
386.787	0.497	neutral	Picture	48.085	n/a	4	11	14	n/a	94	15	1	n/a	n/a	n/a	n/a	417.296	AF25NES.jpg
387.284	0.514	Blank	Blank	47.571	n/a	4	11	14	n/a	94	n/a	1	n/a	n/a	n/a	n/a	417.794	n/a
387.815	0.497	neutral	Picture	47.057	n/a	4	11	15	n/a	95	37	1	n/a	n/a	n/a	n/a	418.324	BM25NES.jpg
388.312	0.514	Blank	Blank	46.544	n/a	4	11	15	n/a	95	n/a	1	n/a	n/a	n/a	n/a	418.822	n/a
388.843	0.497	neutral	Picture	46.03	n/a	4	11	16	n/a	96	32	1	n/a	n/a	n/a	n/a	419.352	AM14NES.jpg
389.34	0.514	Blank	Blank	45.516	n/a	4	11	16	n/a	96	n/a	1	n/a	n/a	n/a	n/a	419.85	n/a
389.87	0.497	neutral	Picture	45.002	n/a	4	11	17	n/a	97	3	1	n/a	n/a	n/a	n/a	420.38	BF04NES.jpg
390.368	0.514	Blank	Blank	44.488	n/a	4	11	17	n/a	97	n/a	1	n/a	n/a	n/a	n/a	420.877	n/a
390.898	0.497	neutral	Picture	43.974	n/a	4	11	18	n/a	98	16	1	n/a	n/a	n/a	n/a	421.408	AF26NES.jpg
391.396	0.514	Blank	Blank	43.46	n/a	4	11	18	n/a	98	n/a	1	n/a	n/a	n/a	n/a	421.905	n/a
391.926	0.497	neutral	Picture	42.946	n/a	4	11	19	n/a	99	27	1	n/a	n/a	n/a	n/a	422.436	BM08NES.jpg
392.424	0.514	Blank	Blank	42.432	n/a	4	11	19	n/a	99	n/a	1	n/a	n/a	n/a	n/a	422.933	n/a
392.954	0.497	neutral	Picture	41.918	n/a	4	11	20	n/a	100	28	1	n/a	n/a	n/a	n/a	423.464	AM09NES.jpg
393.452	0.514	Blank	Blank	41.404	n/a	4	11	20	n/a	100	n/a	1	n/a	n/a	n/a	n/a	423.961	n/a
393.982	10.014	ITI	Fixation+	31.374	n/a	4	n/a	n/a	n/a	n/a	n/a	n/a	n/a	n/a	n/a	n/a	424.492	n/a
404.012	0.497	angry	Picture	30.86	n/a	4	12	1	n/a	101	81	3	n/a	n/a	n/a	n/a	434.522	AF01ANS.jpg
404.509	0.514	Blank	Blank	30.346	n/a	4	12	1	n/a	101	n/a	3	n/a	n/a	n/a	n/a	435.019	n/a
405.04	0.497	angry	Picture	29.832	n/a	4	12	2	n/a	102	120	3	n/a	n/a	n/a	n/a	435.55	AM35ANS.jpg
405.537	0.514	Blank	Blank	29.318	n/a	4	12	2	n/a	102	n/a	3	n/a	n/a	n/a	n/a	436.047	n/a
406.068	0.497	angry	Picture	28.804	n/a	4	12	3	n/a	103	114	3	n/a	n/a	n/a	n/a	436.577	AM22ANS.jpg
406.565	0.514	Blank	Blank	28.29	n/a	4	12	3	n/a	103	n/a	3	n/a	n/a	n/a	n/a	437.075	n/a
407.096	0.497	angry	Picture	27.776	n/a	4	12	4	n/a	104	109	3	n/a	n/a	n/a	n/a	437.605	AM10ANS.jpg
407.593	0.514	Blank	Blank	27.263	n/a	4	12	4	n/a	104	n/a	3	n/a	n/a	n/a	n/a	438.103	n/a
408.124	0.497	angry	Picture	26.749	n/a	4	12	5	n/a	105	96	3	n/a	n/a	n/a	n/a	438.633	AF26ANS.jpg
408.621	0.514	Blank	Blank	26.235	n/a	4	12	5	n/a	105	n/a	3	n/a	n/a	n/a	n/a	439.131	n/a
409.151	0.497	angry	Picture	25.721	n/a	4	12	6	n/a	106	82	3	n/a	n/a	n/a	n/a	439.661	AF03ANS.jpg
409.649	0.514	Blank	Blank	25.207	n/a	4	12	6	n/a	106	n/a	3	n/a	n/a	n/a	n/a	440.159	n/a
410.179	0.497	angry	Picture	24.693	n/a	4	12	7	n/a	107	97	3	n/a	n/a	n/a	n/a	440.689	BF28ANS.jpg
410.677	0.514	Blank	Blank	24.179	n/a	4	12	7	n/a	107	n/a	3	n/a	n/a	n/a	n/a	441.186	n/a
411.207	0.497	angry	Picture	23.665	n/a	4	12	8	n/a	108	115	3	n/a	n/a	n/a	n/a	441.717	AM23ANS.jpg
411.705	0.514	Blank	Blank	23.151	n/a	4	12	8	n/a	108	n/a	3	n/a	n/a	n/a	n/a	442.214	n/a
412.235	0.497	angry	Picture	22.637	n/a	4	12	9	n/a	109	91	3	n/a	n/a	n/a	n/a	442.745	AF20ANS.jpg
412.733	0.514	Blank	Blank	22.123	n/a	4	12	9	n/a	109	n/a	3	n/a	n/a	n/a	n/a	443.242	n/a
413.263	0.497	angry	Picture	21.609	n/a	4	12	10	n/a	110	87	3	n/a	n/a	n/a	n/a	443.773	BF11ANS.jpg
413.76	0.514	Blank	Blank	21.095	n/a	4	12	10	n/a	110	n/a	3	n/a	n/a	n/a	n/a	444.27	n/a
414.291	0.497	angry	Picture	20.581	n/a	4	12	11	n/a	111	85	3	n/a	n/a	n/a	n/a	444.801	BF07ANS.jpg
414.788	0.514	Blank	Blank	20.067	n/a	4	12	11	n/a	111	n/a	3	n/a	n/a	n/a	n/a	445.298	n/a
415.319	0.497	angry	Picture	19.553	n/a	4	12	12	n/a	112	110	3	n/a	n/a	n/a	n/a	445.828	AM11ANS.jpg
415.816	0.514	Blank	Blank	19.04	n/a	4	12	12	n/a	112	n/a	3	n/a	n/a	n/a	n/a	446.326	n/a
416.347	0.497	angry	Picture	18.526	n/a	4	12	13	n/a	113	111	3	n/a	n/a	n/a	n/a	446.856	BM12ANS.jpg
416.844	0.514	Blank	Blank	18.012	n/a	4	12	13	n/a	113	n/a	3	n/a	n/a	n/a	n/a	447.354	n/a
417.375	0.497	angry	Picture	17.498	n/a	4	12	14	n/a	114	103	3	n/a	n/a	n/a	n/a	447.884	AM04ANS.jpg
417.872	0.514	Blank	Blank	16.984	n/a	4	12	14	n/a	114	n/a	3	n/a	n/a	n/a	n/a	448.382	n/a
418.402	0.497	angry	Picture	16.47	n/a	4	12	15	n/a	115	101	3	n/a	n/a	n/a	n/a	448.912	AM01ANS.jpg
418.9	0.514	Blank	Blank	15.956	n/a	4	12	15	n/a	115	n/a	3	n/a	n/a	n/a	n/a	449.409	n/a
419.43	0.497	angry	Picture	15.442	n/a	4	12	16	n/a	116	104	3	n/a	n/a	n/a	n/a	449.94	BM05ANS.jpg
419.928	0.514	Blank	Blank	14.928	n/a	4	12	16	n/a	116	n/a	3	n/a	n/a	n/a	n/a	450.437	n/a
420.458	0.497	angry	Picture	14.414	n/a	4	12	17	n/a	117	107	3	n/a	n/a	n/a	n/a	450.968	BM08ANS.jpg
420.955	0.514	Blank	Blank	13.9	n/a	4	12	17	n/a	117	n/a	3	n/a	n/a	n/a	n/a	451.465	n/a
421.486	0.497	angry	Picture	13.386	n/a	4	12	18	n/a	118	98	3	n/a	n/a	n/a	n/a	451.996	BF29ANS.jpg
421.983	0.514	Blank	Blank	12.872	n/a	4	12	18	n/a	118	n/a	3	n/a	n/a	n/a	n/a	452.493	n/a
422.514	0.497	angry	Picture	12.358	n/a	4	12	19	n/a	119	99	3	n/a	n/a	n/a	n/a	453.024	AF31ANS.jpg
423.011	0.514	Blank	Blank	11.844	n/a	4	12	19	n/a	119	n/a	3	n/a	n/a	n/a	n/a	453.521	n/a
423.542	0.497	angry	Picture	11.33	n/a	4	12	20	n/a	120	108	3	n/a	n/a	n/a	n/a	454.051	AM09ANS.jpg
424.039	0.514	Blank	Blank	10.817	n/a	4	12	20	n/a	120	n/a	3	n/a	n/a	n/a	n/a	454.549	n/a
424.57	10.014	ITI	Fixation+	0.786	n/a	4	n/a	n/a	n/a	n/a	n/a	n/a	n/a	n/a	n/a	n/a	455.079	n/a
435.37	n/a	ConfirmRating	Rate	n/a	0.779	4	n/a	n/a	0	n/a	n/a	n/a	2	Angry	50	50	465.879	n/a
436.174	n/a	ConfirmRating	Rate	n/a	0.779	4	n/a	n/a	1	n/a	n/a	n/a	3	Angry	50	50	466.684	n/a
