onset	duration	trial_type	event_type	time_until_response	response_time	trial_number	block_num_within_trial	image_seq_num_within_block	question_seq_num_within_block	image_seq_num	picture_number	condition	question_type	block_type	rating	rating_computed	onset_uncorrected	KDEV_imagefile
0.003	10.014	ITI	Fixation+	100.385	n/a	1	n/a	n/a	n/a	n/a	n/a	n/a	n/a	n/a	n/a	n/a	25.725	n/a
10.033	0.497	happy	Picture	99.871	n/a	1	1	1	n/a	1	108	3	n/a	n/a	n/a	n/a	35.755	AM09ANS.jpg
10.531	0.514	Blank	Blank	99.357	n/a	1	1	1	n/a	1	n/a	3	n/a	n/a	n/a	n/a	36.253	n/a
11.061	0.497	happy	Picture	98.843	n/a	1	1	2	n/a	2	99	3	n/a	n/a	n/a	n/a	36.783	AF31ANS.jpg
11.559	0.514	Blank	Blank	98.329	n/a	1	1	2	n/a	2	n/a	3	n/a	n/a	n/a	n/a	37.281	n/a
12.089	0.497	happy	Picture	97.815	n/a	1	1	3	n/a	3	98	3	n/a	n/a	n/a	n/a	37.811	BF29ANS.jpg
12.587	0.514	Blank	Blank	97.302	n/a	1	1	3	n/a	3	n/a	3	n/a	n/a	n/a	n/a	38.309	n/a
13.117	0.497	happy	Picture	96.788	n/a	1	1	4	n/a	4	107	3	n/a	n/a	n/a	n/a	38.839	BM08ANS.jpg
13.614	0.514	Blank	Blank	96.274	n/a	1	1	4	n/a	4	n/a	3	n/a	n/a	n/a	n/a	39.336	n/a
14.145	0.497	happy	Picture	95.76	n/a	1	1	5	n/a	5	104	3	n/a	n/a	n/a	n/a	39.867	BM05ANS.jpg
14.642	0.514	Blank	Blank	95.246	n/a	1	1	5	n/a	5	n/a	3	n/a	n/a	n/a	n/a	40.364	n/a
15.173	0.497	happy	Picture	94.732	n/a	1	1	6	n/a	6	101	3	n/a	n/a	n/a	n/a	40.895	AM01ANS.jpg
15.67	0.514	Blank	Blank	94.218	n/a	1	1	6	n/a	6	n/a	3	n/a	n/a	n/a	n/a	41.392	n/a
16.201	0.497	happy	Picture	93.704	n/a	1	1	7	n/a	7	103	3	n/a	n/a	n/a	n/a	41.923	AM04ANS.jpg
16.698	0.514	Blank	Blank	93.19	n/a	1	1	7	n/a	7	n/a	3	n/a	n/a	n/a	n/a	42.42	n/a
17.228	0.497	happy	Picture	92.676	n/a	1	1	8	n/a	8	111	3	n/a	n/a	n/a	n/a	42.95	BM12ANS.jpg
17.726	0.514	Blank	Blank	92.162	n/a	1	1	8	n/a	8	n/a	3	n/a	n/a	n/a	n/a	43.448	n/a
18.256	0.497	happy	Picture	91.648	n/a	1	1	9	n/a	9	110	3	n/a	n/a	n/a	n/a	43.978	AM11ANS.jpg
18.754	0.514	Blank	Blank	91.134	n/a	1	1	9	n/a	9	n/a	3	n/a	n/a	n/a	n/a	44.476	n/a
19.284	0.497	happy	Picture	90.62	n/a	1	1	10	n/a	10	85	3	n/a	n/a	n/a	n/a	45.006	BF07ANS.jpg
19.782	0.514	Blank	Blank	90.106	n/a	1	1	10	n/a	10	n/a	3	n/a	n/a	n/a	n/a	45.504	n/a
20.312	0.497	happy	Picture	89.592	n/a	1	1	11	n/a	11	87	3	n/a	n/a	n/a	n/a	46.034	BF11ANS.jpg
20.81	0.514	Blank	Blank	89.078	n/a	1	1	11	n/a	11	n/a	3	n/a	n/a	n/a	n/a	46.532	n/a
21.34	0.497	happy	Picture	88.564	n/a	1	1	12	n/a	12	91	3	n/a	n/a	n/a	n/a	47.062	AF20ANS.jpg
21.837	0.514	Blank	Blank	88.051	n/a	1	1	12	n/a	12	n/a	3	n/a	n/a	n/a	n/a	47.559	n/a
22.368	0.497	happy	Picture	87.537	n/a	1	1	13	n/a	13	115	3	n/a	n/a	n/a	n/a	48.09	AM23ANS.jpg
22.865	0.514	Blank	Blank	87.023	n/a	1	1	13	n/a	13	n/a	3	n/a	n/a	n/a	n/a	48.587	n/a
23.396	0.497	happy	Picture	86.509	n/a	1	1	14	n/a	14	97	3	n/a	n/a	n/a	n/a	49.118	BF28ANS.jpg
23.893	0.514	Blank	Blank	85.995	n/a	1	1	14	n/a	14	n/a	3	n/a	n/a	n/a	n/a	49.615	n/a
24.424	0.497	happy	Picture	85.481	n/a	1	1	15	n/a	15	82	3	n/a	n/a	n/a	n/a	50.146	AF03ANS.jpg
24.921	0.514	Blank	Blank	84.967	n/a	1	1	15	n/a	15	n/a	3	n/a	n/a	n/a	n/a	50.643	n/a
25.452	0.497	happy	Picture	84.453	n/a	1	1	16	n/a	16	96	3	n/a	n/a	n/a	n/a	51.174	AF26ANS.jpg
25.949	0.514	Blank	Blank	83.939	n/a	1	1	16	n/a	16	n/a	3	n/a	n/a	n/a	n/a	51.671	n/a
26.48	0.497	happy	Picture	83.425	n/a	1	1	17	n/a	17	109	3	n/a	n/a	n/a	n/a	52.202	AM10ANS.jpg
26.977	0.514	Blank	Blank	82.911	n/a	1	1	17	n/a	17	n/a	3	n/a	n/a	n/a	n/a	52.699	n/a
27.508	0.497	happy	Picture	82.397	n/a	1	1	18	n/a	18	114	3	n/a	n/a	n/a	n/a	53.23	AM22ANS.jpg
28.005	0.514	Blank	Blank	81.883	n/a	1	1	18	n/a	18	n/a	3	n/a	n/a	n/a	n/a	53.727	n/a
28.535	0.497	happy	Picture	81.369	n/a	1	1	19	n/a	19	120	3	n/a	n/a	n/a	n/a	54.257	AM35ANS.jpg
29.033	0.514	Blank	Blank	80.855	n/a	1	1	19	n/a	19	n/a	3	n/a	n/a	n/a	n/a	54.755	n/a
29.563	0.497	happy	Picture	80.341	n/a	1	1	20	n/a	20	81	3	n/a	n/a	n/a	n/a	55.285	AF01ANS.jpg
30.061	0.514	Blank	Blank	79.827	n/a	1	1	20	n/a	20	n/a	3	n/a	n/a	n/a	n/a	55.783	n/a
30.591	10.014	ITI	Fixation+	69.797	n/a	1	n/a	n/a	n/a	n/a	n/a	n/a	n/a	n/a	n/a	n/a	56.313	n/a
40.621	0.497	neutral	Picture	69.283	n/a	1	2	1	n/a	21	28	1	n/a	n/a	n/a	n/a	66.343	AM09NES.jpg
41.119	0.514	Blank	Blank	68.769	n/a	1	2	1	n/a	21	n/a	1	n/a	n/a	n/a	n/a	66.841	n/a
41.649	0.497	neutral	Picture	68.255	n/a	1	2	2	n/a	22	27	1	n/a	n/a	n/a	n/a	67.371	BM08NES.jpg
42.147	0.514	Blank	Blank	67.741	n/a	1	2	2	n/a	22	n/a	1	n/a	n/a	n/a	n/a	67.869	n/a
42.677	0.497	neutral	Picture	67.227	n/a	1	2	3	n/a	23	16	1	n/a	n/a	n/a	n/a	68.399	AF26NES.jpg
43.175	0.514	Blank	Blank	66.714	n/a	1	2	3	n/a	23	n/a	1	n/a	n/a	n/a	n/a	68.897	n/a
43.705	0.497	neutral	Picture	66.2	n/a	1	2	4	n/a	24	3	1	n/a	n/a	n/a	n/a	69.427	BF04NES.jpg
44.202	0.514	Blank	Blank	65.686	n/a	1	2	4	n/a	24	n/a	1	n/a	n/a	n/a	n/a	69.924	n/a
44.733	0.497	neutral	Picture	65.172	n/a	1	2	5	n/a	25	32	1	n/a	n/a	n/a	n/a	70.455	AM14NES.jpg
45.23	0.514	Blank	Blank	64.658	n/a	1	2	5	n/a	25	n/a	1	n/a	n/a	n/a	n/a	70.952	n/a
45.761	0.497	neutral	Picture	64.144	n/a	1	2	6	n/a	26	37	1	n/a	n/a	n/a	n/a	71.483	BM25NES.jpg
46.258	0.514	Blank	Blank	63.63	n/a	1	2	6	n/a	26	n/a	1	n/a	n/a	n/a	n/a	71.98	n/a
46.789	0.497	neutral	Picture	63.116	n/a	1	2	7	n/a	27	15	1	n/a	n/a	n/a	n/a	72.511	AF25NES.jpg
47.286	0.514	Blank	Blank	62.602	n/a	1	2	7	n/a	27	n/a	1	n/a	n/a	n/a	n/a	73.008	n/a
47.817	0.497	neutral	Picture	62.088	n/a	1	2	8	n/a	28	23	1	n/a	n/a	n/a	n/a	73.539	AM04NES.jpg
48.314	0.514	Blank	Blank	61.574	n/a	1	2	8	n/a	28	n/a	1	n/a	n/a	n/a	n/a	74.036	n/a
48.845	0.497	neutral	Picture	61.06	n/a	1	2	9	n/a	29	34	1	n/a	n/a	n/a	n/a	74.567	AM22NES.jpg
49.342	0.514	Blank	Blank	60.546	n/a	1	2	9	n/a	29	n/a	1	n/a	n/a	n/a	n/a	75.064	n/a
49.872	0.497	neutral	Picture	60.032	n/a	1	2	10	n/a	30	24	1	n/a	n/a	n/a	n/a	75.594	BM05NES.jpg
50.37	0.514	Blank	Blank	59.518	n/a	1	2	10	n/a	30	n/a	1	n/a	n/a	n/a	n/a	76.092	n/a
50.9	0.497	neutral	Picture	59.004	n/a	1	2	11	n/a	31	12	1	n/a	n/a	n/a	n/a	76.622	AF21NES.jpg
51.398	0.514	Blank	Blank	58.49	n/a	1	2	11	n/a	31	n/a	1	n/a	n/a	n/a	n/a	77.12	n/a
51.928	0.497	neutral	Picture	57.976	n/a	1	2	12	n/a	32	6	1	n/a	n/a	n/a	n/a	77.65	AF09NES.jpg
52.425	0.514	Blank	Blank	57.462	n/a	1	2	12	n/a	32	n/a	1	n/a	n/a	n/a	n/a	78.147	n/a
52.956	0.497	neutral	Picture	56.949	n/a	1	2	13	n/a	33	17	1	n/a	n/a	n/a	n/a	78.678	BF28NES.jpg
53.453	0.514	Blank	Blank	56.435	n/a	1	2	13	n/a	33	n/a	1	n/a	n/a	n/a	n/a	79.175	n/a
53.984	0.497	neutral	Picture	55.921	n/a	1	2	14	n/a	34	2	1	n/a	n/a	n/a	n/a	79.706	AF03NES.jpg
54.481	0.514	Blank	Blank	55.407	n/a	1	2	14	n/a	34	n/a	1	n/a	n/a	n/a	n/a	80.203	n/a
55.012	0.497	neutral	Picture	54.893	n/a	1	2	15	n/a	35	9	1	n/a	n/a	n/a	n/a	80.734	AF17NES.jpg
55.509	0.514	Blank	Blank	54.379	n/a	1	2	15	n/a	35	n/a	1	n/a	n/a	n/a	n/a	81.231	n/a
56.04	0.497	neutral	Picture	53.865	n/a	1	2	16	n/a	36	25	1	n/a	n/a	n/a	n/a	81.762	BM06NES.jpg
56.537	0.514	Blank	Blank	53.351	n/a	1	2	16	n/a	36	n/a	1	n/a	n/a	n/a	n/a	82.259	n/a
57.068	0.497	neutral	Picture	52.837	n/a	1	2	17	n/a	37	8	1	n/a	n/a	n/a	n/a	82.79	AF14NES.jpg
57.565	0.514	Blank	Blank	52.323	n/a	1	2	17	n/a	37	n/a	1	n/a	n/a	n/a	n/a	83.287	n/a
58.095	0.497	neutral	Picture	51.809	n/a	1	2	18	n/a	38	19	1	n/a	n/a	n/a	n/a	83.817	AF31NES.jpg
58.593	0.514	Blank	Blank	51.295	n/a	1	2	18	n/a	38	n/a	1	n/a	n/a	n/a	n/a	84.315	n/a
59.123	0.497	neutral	Picture	50.781	n/a	1	2	19	n/a	39	14	1	n/a	n/a	n/a	n/a	84.845	AF23NES.jpg
59.621	0.514	Blank	Blank	50.267	n/a	1	2	19	n/a	39	n/a	1	n/a	n/a	n/a	n/a	85.343	n/a
60.151	0.497	neutral	Picture	49.753	n/a	1	2	20	n/a	40	4	1	n/a	n/a	n/a	n/a	85.873	AF05NES.jpg
60.649	0.514	Blank	Blank	49.239	n/a	1	2	20	n/a	40	n/a	1	n/a	n/a	n/a	n/a	86.371	n/a
61.179	10.014	ITI	Fixation+	39.209	n/a	1	n/a	n/a	n/a	n/a	n/a	n/a	n/a	n/a	n/a	n/a	86.901	n/a
71.209	0.497	happy	Picture	38.695	n/a	1	3	1	n/a	41	84	3	n/a	n/a	n/a	n/a	96.931	AF05ANS.jpg
71.707	0.514	Blank	Blank	38.181	n/a	1	3	1	n/a	41	n/a	3	n/a	n/a	n/a	n/a	97.429	n/a
72.237	0.497	happy	Picture	37.667	n/a	1	3	2	n/a	42	92	3	n/a	n/a	n/a	n/a	97.959	AF21ANS.jpg
72.735	0.514	Blank	Blank	37.153	n/a	1	3	2	n/a	42	n/a	3	n/a	n/a	n/a	n/a	98.457	n/a
73.265	0.497	happy	Picture	36.639	n/a	1	3	3	n/a	43	86	3	n/a	n/a	n/a	n/a	98.987	AF09ANS.jpg
73.762	0.514	Blank	Blank	36.126	n/a	1	3	3	n/a	43	n/a	3	n/a	n/a	n/a	n/a	99.484	n/a
74.293	0.497	happy	Picture	35.612	n/a	1	3	4	n/a	44	93	3	n/a	n/a	n/a	n/a	100.015	BF22ANS.jpg
74.79	0.514	Blank	Blank	35.098	n/a	1	3	4	n/a	44	n/a	3	n/a	n/a	n/a	n/a	100.512	n/a
75.321	0.497	happy	Picture	34.584	n/a	1	3	5	n/a	45	88	3	n/a	n/a	n/a	n/a	101.043	AF14ANS.jpg
75.818	0.514	Blank	Blank	34.07	n/a	1	3	5	n/a	45	n/a	3	n/a	n/a	n/a	n/a	101.54	n/a
76.349	0.497	happy	Picture	33.556	n/a	1	3	6	n/a	46	113	3	n/a	n/a	n/a	n/a	102.071	AM21ANS.jpg
76.846	0.514	Blank	Blank	33.042	n/a	1	3	6	n/a	46	n/a	3	n/a	n/a	n/a	n/a	102.568	n/a
77.377	0.497	happy	Picture	32.528	n/a	1	3	7	n/a	47	95	3	n/a	n/a	n/a	n/a	103.099	AF25ANS.jpg
77.874	0.514	Blank	Blank	32.014	n/a	1	3	7	n/a	47	n/a	3	n/a	n/a	n/a	n/a	103.596	n/a
78.405	0.497	happy	Picture	31.5	n/a	1	3	8	n/a	48	102	3	n/a	n/a	n/a	n/a	104.127	BM03ANS.jpg
78.902	0.514	Blank	Blank	30.986	n/a	1	3	8	n/a	48	n/a	3	n/a	n/a	n/a	n/a	104.624	n/a
79.433	0.497	happy	Picture	30.472	n/a	1	3	9	n/a	49	112	3	n/a	n/a	n/a	n/a	105.154	AM14ANS.jpg
79.93	0.514	Blank	Blank	29.958	n/a	1	3	9	n/a	49	n/a	3	n/a	n/a	n/a	n/a	105.652	n/a
80.46	0.497	happy	Picture	29.444	n/a	1	3	10	n/a	50	83	3	n/a	n/a	n/a	n/a	106.182	BF04ANS.jpg
80.958	0.514	Blank	Blank	28.93	n/a	1	3	10	n/a	50	n/a	3	n/a	n/a	n/a	n/a	106.68	n/a
81.488	0.497	happy	Picture	28.416	n/a	1	3	11	n/a	51	90	3	n/a	n/a	n/a	n/a	107.21	AF18ANS.jpg
81.986	0.514	Blank	Blank	27.902	n/a	1	3	11	n/a	51	n/a	3	n/a	n/a	n/a	n/a	107.708	n/a
82.516	0.497	happy	Picture	27.388	n/a	1	3	12	n/a	52	117	3	n/a	n/a	n/a	n/a	108.238	BM25ANS.jpg
83.013	0.514	Blank	Blank	26.874	n/a	1	3	12	n/a	52	n/a	3	n/a	n/a	n/a	n/a	108.736	n/a
83.544	0.497	happy	Picture	26.361	n/a	1	3	13	n/a	53	94	3	n/a	n/a	n/a	n/a	109.266	AF23ANS.jpg
84.041	0.514	Blank	Blank	25.847	n/a	1	3	13	n/a	53	n/a	3	n/a	n/a	n/a	n/a	109.763	n/a
84.572	0.497	happy	Picture	25.333	n/a	1	3	14	n/a	54	106	3	n/a	n/a	n/a	n/a	110.294	AM07ANS.jpg
85.069	0.514	Blank	Blank	24.819	n/a	1	3	14	n/a	54	n/a	3	n/a	n/a	n/a	n/a	110.791	n/a
85.6	0.497	happy	Picture	24.305	n/a	1	3	15	n/a	55	105	3	n/a	n/a	n/a	n/a	111.322	BM06ANS.jpg
86.097	0.514	Blank	Blank	23.791	n/a	1	3	15	n/a	55	n/a	3	n/a	n/a	n/a	n/a	111.819	n/a
86.628	0.497	happy	Picture	23.277	n/a	1	3	16	n/a	56	116	3	n/a	n/a	n/a	n/a	112.35	BM24ANS.jpg
87.125	0.514	Blank	Blank	22.763	n/a	1	3	16	n/a	56	n/a	3	n/a	n/a	n/a	n/a	112.847	n/a
87.656	0.497	happy	Picture	22.249	n/a	1	3	17	n/a	57	89	3	n/a	n/a	n/a	n/a	113.378	AF17ANS.jpg
88.153	0.514	Blank	Blank	21.735	n/a	1	3	17	n/a	57	n/a	3	n/a	n/a	n/a	n/a	113.875	n/a
88.684	0.497	happy	Picture	21.221	n/a	1	3	18	n/a	58	118	3	n/a	n/a	n/a	n/a	114.406	BM26ANS.jpg
89.181	0.514	Blank	Blank	20.707	n/a	1	3	18	n/a	58	n/a	3	n/a	n/a	n/a	n/a	114.903	n/a
89.711	0.497	happy	Picture	20.193	n/a	1	3	19	n/a	59	100	3	n/a	n/a	n/a	n/a	115.433	AF32ANS.jpg
90.209	0.514	Blank	Blank	19.679	n/a	1	3	19	n/a	59	n/a	3	n/a	n/a	n/a	n/a	115.931	n/a
90.739	0.497	happy	Picture	19.165	n/a	1	3	20	n/a	60	119	3	n/a	n/a	n/a	n/a	116.461	BM28ANS.jpg
91.237	0.514	Blank	Blank	18.651	n/a	1	3	20	n/a	60	n/a	3	n/a	n/a	n/a	n/a	116.959	n/a
91.767	10.014	ITI	Fixation+	8.621	n/a	1	n/a	n/a	n/a	n/a	n/a	n/a	n/a	n/a	n/a	n/a	117.489	n/a
110.402	n/a	ConfirmRating	Rate	n/a	8.604	1	n/a	n/a	0	n/a	n/a	n/a	2	Happy	69	51	136.124	n/a
115.586	n/a	ConfirmRating	Rate	n/a	5.156	1	n/a	n/a	1	n/a	n/a	n/a	3	Happy	0	48	141.308	n/a
115.608	10.014	ITI	Fixation+	97.107	n/a	2	n/a	n/a	n/a	n/a	n/a	n/a	n/a	n/a	n/a	n/a	141.33	n/a
125.638	0.497	angry	Picture	96.594	n/a	2	4	1	n/a	61	79	2	n/a	n/a	n/a	n/a	151.36	BM28HAS.jpg
126.135	0.514	Blank	Blank	96.08	n/a	2	4	1	n/a	61	n/a	2	n/a	n/a	n/a	n/a	151.857	n/a
126.666	0.497	angry	Picture	95.566	n/a	2	4	2	n/a	62	61	2	n/a	n/a	n/a	n/a	152.388	AM01HAS.jpg
127.163	0.514	Blank	Blank	95.052	n/a	2	4	2	n/a	62	n/a	2	n/a	n/a	n/a	n/a	152.885	n/a
127.694	0.497	angry	Picture	94.538	n/a	2	4	3	n/a	63	57	2	n/a	n/a	n/a	n/a	153.416	BF28HAS.jpg
128.191	0.514	Blank	Blank	94.024	n/a	2	4	3	n/a	63	n/a	2	n/a	n/a	n/a	n/a	153.913	n/a
128.721	0.497	angry	Picture	93.51	n/a	2	4	4	n/a	64	77	2	n/a	n/a	n/a	n/a	154.444	BM25HAS.jpg
129.219	0.514	Blank	Blank	92.996	n/a	2	4	4	n/a	64	n/a	2	n/a	n/a	n/a	n/a	154.941	n/a
129.749	0.497	angry	Picture	92.482	n/a	2	4	5	n/a	65	47	2	n/a	n/a	n/a	n/a	155.471	BF11HAS.jpg
130.247	0.514	Blank	Blank	91.968	n/a	2	4	5	n/a	65	n/a	2	n/a	n/a	n/a	n/a	155.969	n/a
130.777	0.497	angry	Picture	91.454	n/a	2	4	6	n/a	66	50	2	n/a	n/a	n/a	n/a	156.499	AF18HAS.jpg
131.275	0.514	Blank	Blank	90.94	n/a	2	4	6	n/a	66	n/a	2	n/a	n/a	n/a	n/a	156.997	n/a
131.805	0.497	angry	Picture	90.426	n/a	2	4	7	n/a	67	78	2	n/a	n/a	n/a	n/a	157.527	BM26HAS.jpg
132.303	0.514	Blank	Blank	89.912	n/a	2	4	7	n/a	67	n/a	2	n/a	n/a	n/a	n/a	158.025	n/a
132.833	0.497	angry	Picture	89.398	n/a	2	4	8	n/a	68	45	2	n/a	n/a	n/a	n/a	158.555	BF07HAS.jpg
133.33	0.514	Blank	Blank	88.884	n/a	2	4	8	n/a	68	n/a	2	n/a	n/a	n/a	n/a	159.052	n/a
133.861	0.497	angry	Picture	88.37	n/a	2	4	9	n/a	69	56	2	n/a	n/a	n/a	n/a	159.583	AF26HAS.jpg
134.358	0.514	Blank	Blank	87.856	n/a	2	4	9	n/a	69	n/a	2	n/a	n/a	n/a	n/a	160.08	n/a
134.889	0.497	angry	Picture	87.343	n/a	2	4	10	n/a	70	65	2	n/a	n/a	n/a	n/a	160.611	BM06HAS.jpg
135.386	0.514	Blank	Blank	86.829	n/a	2	4	10	n/a	70	n/a	2	n/a	n/a	n/a	n/a	161.108	n/a
135.917	0.497	angry	Picture	86.315	n/a	2	4	11	n/a	71	73	2	n/a	n/a	n/a	n/a	161.639	AM21HAS.jpg
136.414	0.514	Blank	Blank	85.801	n/a	2	4	11	n/a	71	n/a	2	n/a	n/a	n/a	n/a	162.136	n/a
136.945	0.497	angry	Picture	85.287	n/a	2	4	12	n/a	72	41	2	n/a	n/a	n/a	n/a	162.667	AF01HAS.jpg
137.442	0.514	Blank	Blank	84.773	n/a	2	4	12	n/a	72	n/a	2	n/a	n/a	n/a	n/a	163.164	n/a
137.972	0.497	angry	Picture	84.259	n/a	2	4	13	n/a	73	59	2	n/a	n/a	n/a	n/a	163.695	AF31HAS.jpg
138.47	0.514	Blank	Blank	83.745	n/a	2	4	13	n/a	73	n/a	2	n/a	n/a	n/a	n/a	164.192	n/a
139.0	0.497	angry	Picture	83.231	n/a	2	4	14	n/a	74	64	2	n/a	n/a	n/a	n/a	164.722	BM05HAS.jpg
139.498	0.514	Blank	Blank	82.717	n/a	2	4	14	n/a	74	n/a	2	n/a	n/a	n/a	n/a	165.22	n/a
140.028	0.497	angry	Picture	82.203	n/a	2	4	15	n/a	75	68	2	n/a	n/a	n/a	n/a	165.75	AM09HAS.jpg
140.526	0.514	Blank	Blank	81.689	n/a	2	4	15	n/a	75	n/a	2	n/a	n/a	n/a	n/a	166.248	n/a
141.056	0.497	angry	Picture	81.175	n/a	2	4	16	n/a	76	54	2	n/a	n/a	n/a	n/a	166.778	AF23HAS.jpg
141.554	0.514	Blank	Blank	80.661	n/a	2	4	16	n/a	76	n/a	2	n/a	n/a	n/a	n/a	167.276	n/a
142.084	0.497	angry	Picture	80.147	n/a	2	4	17	n/a	77	53	2	n/a	n/a	n/a	n/a	167.806	BF22HAS.jpg
142.582	0.514	Blank	Blank	79.633	n/a	2	4	17	n/a	77	n/a	2	n/a	n/a	n/a	n/a	168.304	n/a
143.112	0.497	angry	Picture	79.119	n/a	2	4	18	n/a	78	44	2	n/a	n/a	n/a	n/a	168.834	AF05HAS.jpg
143.609	0.514	Blank	Blank	78.605	n/a	2	4	18	n/a	78	n/a	2	n/a	n/a	n/a	n/a	169.331	n/a
144.14	0.497	angry	Picture	78.092	n/a	2	4	19	n/a	79	52	2	n/a	n/a	n/a	n/a	169.862	AF21HAS.jpg
144.637	0.514	Blank	Blank	77.578	n/a	2	4	19	n/a	79	n/a	2	n/a	n/a	n/a	n/a	170.359	n/a
145.168	0.497	angry	Picture	77.064	n/a	2	4	20	n/a	80	62	2	n/a	n/a	n/a	n/a	170.89	BM03HAS.jpg
145.665	0.514	Blank	Blank	76.55	n/a	2	4	20	n/a	80	n/a	2	n/a	n/a	n/a	n/a	171.387	n/a
146.196	10.014	ITI	Fixation+	66.519	n/a	2	n/a	n/a	n/a	n/a	n/a	n/a	n/a	n/a	n/a	n/a	171.918	n/a
156.226	0.497	neutral	Picture	66.005	n/a	2	5	1	n/a	81	23	1	n/a	n/a	n/a	n/a	181.948	AM04NES.jpg
156.723	0.514	Blank	Blank	65.492	n/a	2	5	1	n/a	81	n/a	1	n/a	n/a	n/a	n/a	182.445	n/a
157.254	0.497	neutral	Picture	64.978	n/a	2	5	2	n/a	82	29	1	n/a	n/a	n/a	n/a	182.976	AM10NES.jpg
157.751	0.514	Blank	Blank	64.464	n/a	2	5	2	n/a	82	n/a	1	n/a	n/a	n/a	n/a	183.473	n/a
158.282	0.497	neutral	Picture	63.95	n/a	2	5	3	n/a	83	24	1	n/a	n/a	n/a	n/a	184.004	BM05NES.jpg
158.779	0.514	Blank	Blank	63.436	n/a	2	5	3	n/a	83	n/a	1	n/a	n/a	n/a	n/a	184.501	n/a
159.31	0.497	neutral	Picture	62.922	n/a	2	5	4	n/a	84	12	1	n/a	n/a	n/a	n/a	185.032	AF21NES.jpg
159.807	0.514	Blank	Blank	62.408	n/a	2	5	4	n/a	84	n/a	1	n/a	n/a	n/a	n/a	185.529	n/a
160.337	0.497	neutral	Picture	61.894	n/a	2	5	5	n/a	85	13	1	n/a	n/a	n/a	n/a	186.059	BF22NES.jpg
160.835	0.514	Blank	Blank	61.38	n/a	2	5	5	n/a	85	n/a	1	n/a	n/a	n/a	n/a	186.557	n/a
161.365	0.497	neutral	Picture	60.866	n/a	2	5	6	n/a	86	17	1	n/a	n/a	n/a	n/a	187.087	BF28NES.jpg
161.863	0.514	Blank	Blank	60.352	n/a	2	5	6	n/a	86	n/a	1	n/a	n/a	n/a	n/a	187.585	n/a
162.393	0.497	neutral	Picture	59.838	n/a	2	5	7	n/a	87	4	1	n/a	n/a	n/a	n/a	188.115	AF05NES.jpg
162.891	0.514	Blank	Blank	59.324	n/a	2	5	7	n/a	87	n/a	1	n/a	n/a	n/a	n/a	188.613	n/a
163.421	0.497	neutral	Picture	58.81	n/a	2	5	8	n/a	88	11	1	n/a	n/a	n/a	n/a	189.143	AF20NES.jpg
163.918	0.514	Blank	Blank	58.296	n/a	2	5	8	n/a	88	n/a	1	n/a	n/a	n/a	n/a	189.641	n/a
164.449	0.497	neutral	Picture	57.782	n/a	2	5	9	n/a	89	22	1	n/a	n/a	n/a	n/a	190.171	BM03NES.jpg
164.946	0.514	Blank	Blank	57.268	n/a	2	5	9	n/a	89	n/a	1	n/a	n/a	n/a	n/a	190.668	n/a
165.477	0.497	neutral	Picture	56.754	n/a	2	5	10	n/a	90	15	1	n/a	n/a	n/a	n/a	191.199	AF25NES.jpg
165.974	0.514	Blank	Blank	56.241	n/a	2	5	10	n/a	90	n/a	1	n/a	n/a	n/a	n/a	191.696	n/a
166.505	0.497	neutral	Picture	55.727	n/a	2	5	11	n/a	91	19	1	n/a	n/a	n/a	n/a	192.227	AF31NES.jpg
167.002	0.514	Blank	Blank	55.213	n/a	2	5	11	n/a	91	n/a	1	n/a	n/a	n/a	n/a	192.724	n/a
167.533	0.497	neutral	Picture	54.699	n/a	2	5	12	n/a	92	9	1	n/a	n/a	n/a	n/a	193.255	AF17NES.jpg
168.03	0.514	Blank	Blank	54.185	n/a	2	5	12	n/a	92	n/a	1	n/a	n/a	n/a	n/a	193.752	n/a
168.561	0.497	neutral	Picture	53.671	n/a	2	5	13	n/a	93	14	1	n/a	n/a	n/a	n/a	194.283	AF23NES.jpg
169.058	0.514	Blank	Blank	53.157	n/a	2	5	13	n/a	93	n/a	1	n/a	n/a	n/a	n/a	194.78	n/a
169.588	0.497	neutral	Picture	52.643	n/a	2	5	14	n/a	94	36	1	n/a	n/a	n/a	n/a	195.31	BM24NES.jpg
170.086	0.514	Blank	Blank	52.129	n/a	2	5	14	n/a	94	n/a	1	n/a	n/a	n/a	n/a	195.808	n/a
170.616	0.497	neutral	Picture	51.615	n/a	2	5	15	n/a	95	34	1	n/a	n/a	n/a	n/a	196.338	AM22NES.jpg
171.114	0.514	Blank	Blank	51.101	n/a	2	5	15	n/a	95	n/a	1	n/a	n/a	n/a	n/a	196.836	n/a
171.644	0.497	neutral	Picture	50.587	n/a	2	5	16	n/a	96	10	1	n/a	n/a	n/a	n/a	197.366	AF18NES.jpg
172.142	0.514	Blank	Blank	50.073	n/a	2	5	16	n/a	96	n/a	1	n/a	n/a	n/a	n/a	197.864	n/a
172.672	0.497	neutral	Picture	49.559	n/a	2	5	17	n/a	97	5	1	n/a	n/a	n/a	n/a	198.394	BF07NES.jpg
173.169	0.514	Blank	Blank	49.045	n/a	2	5	17	n/a	97	n/a	1	n/a	n/a	n/a	n/a	198.892	n/a
173.7	0.497	neutral	Picture	48.531	n/a	2	5	18	n/a	98	25	1	n/a	n/a	n/a	n/a	199.422	BM06NES.jpg
174.197	0.514	Blank	Blank	48.017	n/a	2	5	18	n/a	98	n/a	1	n/a	n/a	n/a	n/a	199.919	n/a
174.728	0.497	neutral	Picture	47.503	n/a	2	5	19	n/a	99	39	1	n/a	n/a	n/a	n/a	200.45	AM28NES.jpg
175.225	0.514	Blank	Blank	46.99	n/a	2	5	19	n/a	99	n/a	1	n/a	n/a	n/a	n/a	200.947	n/a
175.756	0.497	neutral	Picture	46.476	n/a	2	5	20	n/a	100	33	1	n/a	n/a	n/a	n/a	201.478	AM21NES.jpg
176.253	0.514	Blank	Blank	45.962	n/a	2	5	20	n/a	100	n/a	1	n/a	n/a	n/a	n/a	201.975	n/a
176.784	10.014	ITI	Fixation+	35.931	n/a	2	n/a	n/a	n/a	n/a	n/a	n/a	n/a	n/a	n/a	n/a	202.506	n/a
186.814	0.497	angry	Picture	35.417	n/a	2	6	1	n/a	101	74	2	n/a	n/a	n/a	n/a	212.536	AM22HAS.jpg
187.311	0.514	Blank	Blank	34.904	n/a	2	6	1	n/a	101	n/a	2	n/a	n/a	n/a	n/a	213.033	n/a
187.842	0.497	angry	Picture	34.39	n/a	2	6	2	n/a	102	76	2	n/a	n/a	n/a	n/a	213.564	BM24HAS.jpg
188.339	0.514	Blank	Blank	33.876	n/a	2	6	2	n/a	102	n/a	2	n/a	n/a	n/a	n/a	214.061	n/a
188.87	0.497	angry	Picture	33.362	n/a	2	6	3	n/a	103	80	2	n/a	n/a	n/a	n/a	214.592	BM35HAS.jpg
189.367	0.514	Blank	Blank	32.848	n/a	2	6	3	n/a	103	n/a	2	n/a	n/a	n/a	n/a	215.089	n/a
189.898	0.497	angry	Picture	32.334	n/a	2	6	4	n/a	104	75	2	n/a	n/a	n/a	n/a	215.62	AM23HAS.jpg
190.395	0.514	Blank	Blank	31.82	n/a	2	6	4	n/a	104	n/a	2	n/a	n/a	n/a	n/a	216.117	n/a
190.925	0.497	angry	Picture	31.306	n/a	2	6	5	n/a	105	49	2	n/a	n/a	n/a	n/a	216.648	AF17HAS.jpg
191.423	0.514	Blank	Blank	30.792	n/a	2	6	5	n/a	105	n/a	2	n/a	n/a	n/a	n/a	217.145	n/a
191.953	0.497	angry	Picture	30.278	n/a	2	6	6	n/a	106	43	2	n/a	n/a	n/a	n/a	217.675	BF04HAS.jpg
192.451	0.514	Blank	Blank	29.764	n/a	2	6	6	n/a	106	n/a	2	n/a	n/a	n/a	n/a	218.173	n/a
192.981	0.497	angry	Picture	29.25	n/a	2	6	7	n/a	107	70	2	n/a	n/a	n/a	n/a	218.703	BM11HAS.jpg
193.479	0.514	Blank	Blank	28.736	n/a	2	6	7	n/a	107	n/a	2	n/a	n/a	n/a	n/a	219.201	n/a
194.009	0.497	angry	Picture	28.222	n/a	2	6	8	n/a	108	66	2	n/a	n/a	n/a	n/a	219.731	BM07HAS.jpg
194.506	0.514	Blank	Blank	27.708	n/a	2	6	8	n/a	108	n/a	2	n/a	n/a	n/a	n/a	220.228	n/a
195.037	0.497	angry	Picture	27.194	n/a	2	6	9	n/a	109	48	2	n/a	n/a	n/a	n/a	220.759	AF14HAS.jpg
195.534	0.514	Blank	Blank	26.68	n/a	2	6	9	n/a	109	n/a	2	n/a	n/a	n/a	n/a	221.256	n/a
196.065	0.497	angry	Picture	26.166	n/a	2	6	10	n/a	110	58	2	n/a	n/a	n/a	n/a	221.787	BF29HAS.jpg
196.562	0.514	Blank	Blank	25.653	n/a	2	6	10	n/a	110	n/a	2	n/a	n/a	n/a	n/a	222.284	n/a
197.093	0.497	angry	Picture	25.139	n/a	2	6	11	n/a	111	63	2	n/a	n/a	n/a	n/a	222.815	AM04HAS.jpg
197.59	0.514	Blank	Blank	24.625	n/a	2	6	11	n/a	111	n/a	2	n/a	n/a	n/a	n/a	223.312	n/a
198.121	0.497	angry	Picture	24.111	n/a	2	6	12	n/a	112	72	2	n/a	n/a	n/a	n/a	223.843	AM14HAS.jpg
198.618	0.514	Blank	Blank	23.597	n/a	2	6	12	n/a	112	n/a	2	n/a	n/a	n/a	n/a	224.34	n/a
199.149	0.497	angry	Picture	23.083	n/a	2	6	13	n/a	113	55	2	n/a	n/a	n/a	n/a	224.871	AF25HAS.jpg
199.646	0.514	Blank	Blank	22.569	n/a	2	6	13	n/a	113	n/a	2	n/a	n/a	n/a	n/a	225.368	n/a
200.177	0.497	angry	Picture	22.055	n/a	2	6	14	n/a	114	42	2	n/a	n/a	n/a	n/a	225.899	AF03HAS.jpg
200.674	0.514	Blank	Blank	21.541	n/a	2	6	14	n/a	114	n/a	2	n/a	n/a	n/a	n/a	226.396	n/a
201.204	0.497	angry	Picture	21.027	n/a	2	6	15	n/a	115	60	2	n/a	n/a	n/a	n/a	226.926	AF32HAS.jpg
201.702	0.514	Blank	Blank	20.513	n/a	2	6	15	n/a	115	n/a	2	n/a	n/a	n/a	n/a	227.424	n/a
202.232	0.497	angry	Picture	19.999	n/a	2	6	16	n/a	116	67	2	n/a	n/a	n/a	n/a	227.954	BM08HAS.jpg
202.73	0.514	Blank	Blank	19.485	n/a	2	6	16	n/a	116	n/a	2	n/a	n/a	n/a	n/a	228.452	n/a
203.26	0.497	angry	Picture	18.971	n/a	2	6	17	n/a	117	51	2	n/a	n/a	n/a	n/a	228.982	AF20HAS.jpg
203.757	0.514	Blank	Blank	18.457	n/a	2	6	17	n/a	117	n/a	2	n/a	n/a	n/a	n/a	229.48	n/a
204.288	0.497	angry	Picture	17.943	n/a	2	6	18	n/a	118	71	2	n/a	n/a	n/a	n/a	230.01	BM12HAS.jpg
204.785	0.514	Blank	Blank	17.429	n/a	2	6	18	n/a	118	n/a	2	n/a	n/a	n/a	n/a	230.507	n/a
205.316	0.497	angry	Picture	16.915	n/a	2	6	19	n/a	119	69	2	n/a	n/a	n/a	n/a	231.038	AM10HAS.jpg
205.813	0.514	Blank	Blank	16.401	n/a	2	6	19	n/a	119	n/a	2	n/a	n/a	n/a	n/a	231.535	n/a
206.344	0.497	angry	Picture	15.888	n/a	2	6	20	n/a	120	46	2	n/a	n/a	n/a	n/a	232.066	AF09HAS.jpg
206.841	0.514	Blank	Blank	15.374	n/a	2	6	20	n/a	120	n/a	2	n/a	n/a	n/a	n/a	232.563	n/a
207.372	10.014	ITI	Fixation+	5.343	n/a	2	n/a	n/a	n/a	n/a	n/a	n/a	n/a	n/a	n/a	n/a	233.094	n/a
222.729	n/a	ConfirmRating	Rate	n/a	5.338	2	n/a	n/a	0	n/a	n/a	n/a	2	Angry	60	51	248.451	n/a
226.05	n/a	ConfirmRating	Rate	n/a	3.299	2	n/a	n/a	1	n/a	n/a	n/a	3	Angry	38	49	251.772	n/a
226.073	15.004	Rest	Picture	n/a	n/a	n/a	n/a	n/a	n/a	n/a	n/a	n/a	0	n/a	0	0	251.795	n/a
241.093	10.014	ITI	Fixation+	96.555	n/a	3	n/a	n/a	n/a	n/a	n/a	n/a	n/a	n/a	n/a	n/a	266.815	n/a
251.123	0.497	happy	Picture	96.041	n/a	3	7	1	n/a	1	108	3	n/a	n/a	n/a	n/a	276.845	AM09ANS.jpg
251.621	0.514	Blank	Blank	95.527	n/a	3	7	1	n/a	1	n/a	3	n/a	n/a	n/a	n/a	277.343	n/a
252.151	0.497	happy	Picture	95.013	n/a	3	7	2	n/a	2	99	3	n/a	n/a	n/a	n/a	277.873	AF31ANS.jpg
252.649	0.514	Blank	Blank	94.499	n/a	3	7	2	n/a	2	n/a	3	n/a	n/a	n/a	n/a	278.371	n/a
253.179	0.497	happy	Picture	93.985	n/a	3	7	3	n/a	3	98	3	n/a	n/a	n/a	n/a	278.901	BF29ANS.jpg
253.677	0.514	Blank	Blank	93.471	n/a	3	7	3	n/a	3	n/a	3	n/a	n/a	n/a	n/a	279.399	n/a
254.207	0.497	happy	Picture	92.957	n/a	3	7	4	n/a	4	107	3	n/a	n/a	n/a	n/a	279.929	BM08ANS.jpg
254.704	0.514	Blank	Blank	92.443	n/a	3	7	4	n/a	4	n/a	3	n/a	n/a	n/a	n/a	280.426	n/a
255.235	0.497	happy	Picture	91.929	n/a	3	7	5	n/a	5	104	3	n/a	n/a	n/a	n/a	280.957	BM05ANS.jpg
255.732	0.514	Blank	Blank	91.415	n/a	3	7	5	n/a	5	n/a	3	n/a	n/a	n/a	n/a	281.454	n/a
256.263	0.497	happy	Picture	90.901	n/a	3	7	6	n/a	6	101	3	n/a	n/a	n/a	n/a	281.985	AM01ANS.jpg
256.76	0.514	Blank	Blank	90.387	n/a	3	7	6	n/a	6	n/a	3	n/a	n/a	n/a	n/a	282.482	n/a
257.291	0.497	happy	Picture	89.873	n/a	3	7	7	n/a	7	103	3	n/a	n/a	n/a	n/a	283.013	AM04ANS.jpg
257.788	0.514	Blank	Blank	89.36	n/a	3	7	7	n/a	7	n/a	3	n/a	n/a	n/a	n/a	283.51	n/a
258.319	0.497	happy	Picture	88.846	n/a	3	7	8	n/a	8	111	3	n/a	n/a	n/a	n/a	284.041	BM12ANS.jpg
258.816	0.514	Blank	Blank	88.332	n/a	3	7	8	n/a	8	n/a	3	n/a	n/a	n/a	n/a	284.538	n/a
259.346	0.497	happy	Picture	87.818	n/a	3	7	9	n/a	9	110	3	n/a	n/a	n/a	n/a	285.068	AM11ANS.jpg
259.844	0.514	Blank	Blank	87.304	n/a	3	7	9	n/a	9	n/a	3	n/a	n/a	n/a	n/a	285.566	n/a
260.374	0.497	happy	Picture	86.79	n/a	3	7	10	n/a	10	85	3	n/a	n/a	n/a	n/a	286.096	BF07ANS.jpg
260.872	0.514	Blank	Blank	86.276	n/a	3	7	10	n/a	10	n/a	3	n/a	n/a	n/a	n/a	286.594	n/a
261.402	0.497	happy	Picture	85.762	n/a	3	7	11	n/a	11	87	3	n/a	n/a	n/a	n/a	287.124	BF11ANS.jpg
261.9	0.514	Blank	Blank	85.248	n/a	3	7	11	n/a	11	n/a	3	n/a	n/a	n/a	n/a	287.622	n/a
262.43	0.497	happy	Picture	84.734	n/a	3	7	12	n/a	12	91	3	n/a	n/a	n/a	n/a	288.152	AF20ANS.jpg
262.928	0.514	Blank	Blank	84.22	n/a	3	7	12	n/a	12	n/a	3	n/a	n/a	n/a	n/a	288.65	n/a
263.458	0.497	happy	Picture	83.706	n/a	3	7	13	n/a	13	115	3	n/a	n/a	n/a	n/a	289.18	AM23ANS.jpg
263.955	0.514	Blank	Blank	83.192	n/a	3	7	13	n/a	13	n/a	3	n/a	n/a	n/a	n/a	289.677	n/a
264.486	0.497	happy	Picture	82.678	n/a	3	7	14	n/a	14	97	3	n/a	n/a	n/a	n/a	290.208	BF28ANS.jpg
264.983	0.514	Blank	Blank	82.164	n/a	3	7	14	n/a	14	n/a	3	n/a	n/a	n/a	n/a	290.705	n/a
265.514	0.497	happy	Picture	81.65	n/a	3	7	15	n/a	15	82	3	n/a	n/a	n/a	n/a	291.236	AF03ANS.jpg
266.011	0.514	Blank	Blank	81.136	n/a	3	7	15	n/a	15	n/a	3	n/a	n/a	n/a	n/a	291.733	n/a
266.542	0.497	happy	Picture	80.623	n/a	3	7	16	n/a	16	96	3	n/a	n/a	n/a	n/a	292.264	AF26ANS.jpg
267.039	0.514	Blank	Blank	80.108	n/a	3	7	16	n/a	16	n/a	3	n/a	n/a	n/a	n/a	292.761	n/a
267.57	0.497	happy	Picture	79.595	n/a	3	7	17	n/a	17	109	3	n/a	n/a	n/a	n/a	293.292	AM10ANS.jpg
268.067	0.514	Blank	Blank	79.081	n/a	3	7	17	n/a	17	n/a	3	n/a	n/a	n/a	n/a	293.789	n/a
268.598	0.497	happy	Picture	78.567	n/a	3	7	18	n/a	18	114	3	n/a	n/a	n/a	n/a	294.32	AM22ANS.jpg
269.095	0.514	Blank	Blank	78.053	n/a	3	7	18	n/a	18	n/a	3	n/a	n/a	n/a	n/a	294.817	n/a
269.625	0.497	happy	Picture	77.539	n/a	3	7	19	n/a	19	120	3	n/a	n/a	n/a	n/a	295.347	AM35ANS.jpg
270.123	0.514	Blank	Blank	77.025	n/a	3	7	19	n/a	19	n/a	3	n/a	n/a	n/a	n/a	295.845	n/a
270.653	0.497	happy	Picture	76.511	n/a	3	7	20	n/a	20	81	3	n/a	n/a	n/a	n/a	296.375	AF01ANS.jpg
271.151	0.514	Blank	Blank	75.997	n/a	3	7	20	n/a	20	n/a	3	n/a	n/a	n/a	n/a	296.873	n/a
271.681	10.014	ITI	Fixation+	65.967	n/a	3	n/a	n/a	n/a	n/a	n/a	n/a	n/a	n/a	n/a	n/a	297.403	n/a
281.711	0.497	neutral	Picture	65.453	n/a	3	8	1	n/a	21	28	1	n/a	n/a	n/a	n/a	307.433	AM09NES.jpg
282.209	0.514	Blank	Blank	64.939	n/a	3	8	1	n/a	21	n/a	1	n/a	n/a	n/a	n/a	307.931	n/a
282.739	0.497	neutral	Picture	64.425	n/a	3	8	2	n/a	22	27	1	n/a	n/a	n/a	n/a	308.461	BM08NES.jpg
283.237	0.514	Blank	Blank	63.911	n/a	3	8	2	n/a	22	n/a	1	n/a	n/a	n/a	n/a	308.959	n/a
283.767	0.497	neutral	Picture	63.397	n/a	3	8	3	n/a	23	16	1	n/a	n/a	n/a	n/a	309.489	AF26NES.jpg
284.265	0.514	Blank	Blank	62.883	n/a	3	8	3	n/a	23	n/a	1	n/a	n/a	n/a	n/a	309.987	n/a
284.795	0.497	neutral	Picture	62.369	n/a	3	8	4	n/a	24	3	1	n/a	n/a	n/a	n/a	310.517	BF04NES.jpg
285.293	0.514	Blank	Blank	61.855	n/a	3	8	4	n/a	24	n/a	1	n/a	n/a	n/a	n/a	311.014	n/a
285.823	0.497	neutral	Picture	61.341	n/a	3	8	5	n/a	25	32	1	n/a	n/a	n/a	n/a	311.545	AM14NES.jpg
286.32	0.514	Blank	Blank	60.827	n/a	3	8	5	n/a	25	n/a	1	n/a	n/a	n/a	n/a	312.042	n/a
286.851	0.497	neutral	Picture	60.313	n/a	3	8	6	n/a	26	37	1	n/a	n/a	n/a	n/a	312.573	BM25NES.jpg
287.348	0.514	Blank	Blank	59.799	n/a	3	8	6	n/a	26	n/a	1	n/a	n/a	n/a	n/a	313.07	n/a
287.879	0.497	neutral	Picture	59.286	n/a	3	8	7	n/a	27	15	1	n/a	n/a	n/a	n/a	313.601	AF25NES.jpg
288.376	0.514	Blank	Blank	58.772	n/a	3	8	7	n/a	27	n/a	1	n/a	n/a	n/a	n/a	314.098	n/a
288.907	0.497	neutral	Picture	58.258	n/a	3	8	8	n/a	28	23	1	n/a	n/a	n/a	n/a	314.629	AM04NES.jpg
289.404	0.514	Blank	Blank	57.744	n/a	3	8	8	n/a	28	n/a	1	n/a	n/a	n/a	n/a	315.126	n/a
289.935	0.497	neutral	Picture	57.23	n/a	3	8	9	n/a	29	34	1	n/a	n/a	n/a	n/a	315.657	AM22NES.jpg
290.432	0.514	Blank	Blank	56.716	n/a	3	8	9	n/a	29	n/a	1	n/a	n/a	n/a	n/a	316.154	n/a
290.962	0.497	neutral	Picture	56.202	n/a	3	8	10	n/a	30	24	1	n/a	n/a	n/a	n/a	316.684	BM05NES.jpg
291.46	0.514	Blank	Blank	55.688	n/a	3	8	10	n/a	30	n/a	1	n/a	n/a	n/a	n/a	317.182	n/a
291.99	0.497	neutral	Picture	55.174	n/a	3	8	11	n/a	31	12	1	n/a	n/a	n/a	n/a	317.712	AF21NES.jpg
292.488	0.514	Blank	Blank	54.66	n/a	3	8	11	n/a	31	n/a	1	n/a	n/a	n/a	n/a	318.21	n/a
293.018	0.497	neutral	Picture	54.146	n/a	3	8	12	n/a	32	6	1	n/a	n/a	n/a	n/a	318.74	AF09NES.jpg
293.516	0.514	Blank	Blank	53.632	n/a	3	8	12	n/a	32	n/a	1	n/a	n/a	n/a	n/a	319.238	n/a
294.046	0.497	neutral	Picture	53.118	n/a	3	8	13	n/a	33	17	1	n/a	n/a	n/a	n/a	319.768	BF28NES.jpg
294.543	0.514	Blank	Blank	52.604	n/a	3	8	13	n/a	33	n/a	1	n/a	n/a	n/a	n/a	320.265	n/a
295.074	0.497	neutral	Picture	52.09	n/a	3	8	14	n/a	34	2	1	n/a	n/a	n/a	n/a	320.796	AF03NES.jpg
295.571	0.514	Blank	Blank	51.576	n/a	3	8	14	n/a	34	n/a	1	n/a	n/a	n/a	n/a	321.293	n/a
296.102	0.497	neutral	Picture	51.062	n/a	3	8	15	n/a	35	9	1	n/a	n/a	n/a	n/a	321.824	AF17NES.jpg
296.599	0.514	Blank	Blank	50.548	n/a	3	8	15	n/a	35	n/a	1	n/a	n/a	n/a	n/a	322.321	n/a
297.13	0.497	neutral	Picture	50.034	n/a	3	8	16	n/a	36	25	1	n/a	n/a	n/a	n/a	322.852	BM06NES.jpg
297.627	0.514	Blank	Blank	49.521	n/a	3	8	16	n/a	36	n/a	1	n/a	n/a	n/a	n/a	323.349	n/a
298.158	0.497	neutral	Picture	49.007	n/a	3	8	17	n/a	37	8	1	n/a	n/a	n/a	n/a	323.88	AF14NES.jpg
298.655	0.514	Blank	Blank	48.493	n/a	3	8	17	n/a	37	n/a	1	n/a	n/a	n/a	n/a	324.377	n/a
299.186	0.497	neutral	Picture	47.979	n/a	3	8	18	n/a	38	19	1	n/a	n/a	n/a	n/a	324.908	AF31NES.jpg
299.683	0.514	Blank	Blank	47.465	n/a	3	8	18	n/a	38	n/a	1	n/a	n/a	n/a	n/a	325.405	n/a
300.214	0.497	neutral	Picture	46.951	n/a	3	8	19	n/a	39	14	1	n/a	n/a	n/a	n/a	325.935	AF23NES.jpg
300.711	0.514	Blank	Blank	46.437	n/a	3	8	19	n/a	39	n/a	1	n/a	n/a	n/a	n/a	326.433	n/a
301.241	0.497	neutral	Picture	45.923	n/a	3	8	20	n/a	40	4	1	n/a	n/a	n/a	n/a	326.963	AF05NES.jpg
301.739	0.514	Blank	Blank	45.409	n/a	3	8	20	n/a	40	n/a	1	n/a	n/a	n/a	n/a	327.461	n/a
302.269	10.014	ITI	Fixation+	35.379	n/a	3	n/a	n/a	n/a	n/a	n/a	n/a	n/a	n/a	n/a	n/a	327.991	n/a
312.3	0.497	happy	Picture	34.865	n/a	3	9	1	n/a	41	84	3	n/a	n/a	n/a	n/a	338.022	AF05ANS.jpg
312.797	0.514	Blank	Blank	34.351	n/a	3	9	1	n/a	41	n/a	3	n/a	n/a	n/a	n/a	338.519	n/a
313.327	0.497	happy	Picture	33.837	n/a	3	9	2	n/a	42	92	3	n/a	n/a	n/a	n/a	339.049	AF21ANS.jpg
313.825	0.514	Blank	Blank	33.323	n/a	3	9	2	n/a	42	n/a	3	n/a	n/a	n/a	n/a	339.547	n/a
314.355	0.497	happy	Picture	32.809	n/a	3	9	3	n/a	43	86	3	n/a	n/a	n/a	n/a	340.077	AF09ANS.jpg
314.853	0.514	Blank	Blank	32.295	n/a	3	9	3	n/a	43	n/a	3	n/a	n/a	n/a	n/a	340.575	n/a
315.383	0.497	happy	Picture	31.781	n/a	3	9	4	n/a	44	93	3	n/a	n/a	n/a	n/a	341.105	BF22ANS.jpg
315.881	0.514	Blank	Blank	31.267	n/a	3	9	4	n/a	44	n/a	3	n/a	n/a	n/a	n/a	341.603	n/a
316.411	0.497	happy	Picture	30.753	n/a	3	9	5	n/a	45	88	3	n/a	n/a	n/a	n/a	342.133	AF14ANS.jpg
316.908	0.514	Blank	Blank	30.239	n/a	3	9	5	n/a	45	n/a	3	n/a	n/a	n/a	n/a	342.63	n/a
317.439	0.497	happy	Picture	29.725	n/a	3	9	6	n/a	46	113	3	n/a	n/a	n/a	n/a	343.161	AM21ANS.jpg
317.936	0.514	Blank	Blank	29.211	n/a	3	9	6	n/a	46	n/a	3	n/a	n/a	n/a	n/a	343.658	n/a
318.467	0.497	happy	Picture	28.697	n/a	3	9	7	n/a	47	95	3	n/a	n/a	n/a	n/a	344.189	AF25ANS.jpg
318.964	0.514	Blank	Blank	28.184	n/a	3	9	7	n/a	47	n/a	3	n/a	n/a	n/a	n/a	344.686	n/a
319.495	0.497	happy	Picture	27.669	n/a	3	9	8	n/a	48	102	3	n/a	n/a	n/a	n/a	345.217	BM03ANS.jpg
319.992	0.514	Blank	Blank	27.156	n/a	3	9	8	n/a	48	n/a	3	n/a	n/a	n/a	n/a	345.714	n/a
320.523	0.497	happy	Picture	26.642	n/a	3	9	9	n/a	49	112	3	n/a	n/a	n/a	n/a	346.245	AM14ANS.jpg
321.02	0.514	Blank	Blank	26.128	n/a	3	9	9	n/a	49	n/a	3	n/a	n/a	n/a	n/a	346.742	n/a
321.55	0.497	happy	Picture	25.614	n/a	3	9	10	n/a	50	83	3	n/a	n/a	n/a	n/a	347.272	BF04ANS.jpg
322.048	0.514	Blank	Blank	25.1	n/a	3	9	10	n/a	50	n/a	3	n/a	n/a	n/a	n/a	347.77	n/a
322.578	0.498	happy	Picture	24.586	n/a	3	9	11	n/a	51	90	3	n/a	n/a	n/a	n/a	348.3	AF18ANS.jpg
323.076	0.514	Blank	Blank	24.072	n/a	3	9	11	n/a	51	n/a	3	n/a	n/a	n/a	n/a	348.798	n/a
323.606	0.497	happy	Picture	23.558	n/a	3	9	12	n/a	52	117	3	n/a	n/a	n/a	n/a	349.328	BM25ANS.jpg
324.104	0.514	Blank	Blank	23.044	n/a	3	9	12	n/a	52	n/a	3	n/a	n/a	n/a	n/a	349.826	n/a
324.634	0.497	happy	Picture	22.53	n/a	3	9	13	n/a	53	94	3	n/a	n/a	n/a	n/a	350.356	AF23ANS.jpg
325.132	0.514	Blank	Blank	22.016	n/a	3	9	13	n/a	53	n/a	3	n/a	n/a	n/a	n/a	350.853	n/a
325.662	0.497	happy	Picture	21.502	n/a	3	9	14	n/a	54	106	3	n/a	n/a	n/a	n/a	351.384	AM07ANS.jpg
326.159	0.514	Blank	Blank	20.988	n/a	3	9	14	n/a	54	n/a	3	n/a	n/a	n/a	n/a	351.881	n/a
326.69	0.497	happy	Picture	20.474	n/a	3	9	15	n/a	55	105	3	n/a	n/a	n/a	n/a	352.412	BM06ANS.jpg
327.187	0.514	Blank	Blank	19.96	n/a	3	9	15	n/a	55	n/a	3	n/a	n/a	n/a	n/a	352.909	n/a
327.718	0.497	happy	Picture	19.446	n/a	3	9	16	n/a	56	116	3	n/a	n/a	n/a	n/a	353.44	BM24ANS.jpg
328.215	0.514	Blank	Blank	18.933	n/a	3	9	16	n/a	56	n/a	3	n/a	n/a	n/a	n/a	353.937	n/a
328.746	0.497	happy	Picture	18.418	n/a	3	9	17	n/a	57	89	3	n/a	n/a	n/a	n/a	354.468	AF17ANS.jpg
329.243	0.514	Blank	Blank	17.905	n/a	3	9	17	n/a	57	n/a	3	n/a	n/a	n/a	n/a	354.965	n/a
329.774	0.497	happy	Picture	17.391	n/a	3	9	18	n/a	58	118	3	n/a	n/a	n/a	n/a	355.496	BM26ANS.jpg
330.271	0.514	Blank	Blank	16.877	n/a	3	9	18	n/a	58	n/a	3	n/a	n/a	n/a	n/a	355.993	n/a
330.802	0.497	happy	Picture	16.363	n/a	3	9	19	n/a	59	100	3	n/a	n/a	n/a	n/a	356.524	AF32ANS.jpg
331.299	0.514	Blank	Blank	15.849	n/a	3	9	19	n/a	59	n/a	3	n/a	n/a	n/a	n/a	357.021	n/a
331.829	0.497	happy	Picture	15.335	n/a	3	9	20	n/a	60	119	3	n/a	n/a	n/a	n/a	357.551	BM28ANS.jpg
332.327	0.514	Blank	Blank	14.821	n/a	3	9	20	n/a	60	n/a	3	n/a	n/a	n/a	n/a	358.049	n/a
332.857	10.014	ITI	Fixation+	4.791	n/a	3	n/a	n/a	n/a	n/a	n/a	n/a	n/a	n/a	n/a	n/a	358.579	n/a
347.662	n/a	ConfirmRating	Rate	n/a	4.775	3	n/a	n/a	0	n/a	n/a	n/a	2	Happy	62	51	373.384	n/a
353.454	n/a	ConfirmRating	Rate	n/a	5.786	3	n/a	n/a	1	n/a	n/a	n/a	3	Happy	45	50	379.175	n/a
353.481	10.014	ITI	Fixation+	96.039	n/a	4	n/a	n/a	n/a	n/a	n/a	n/a	n/a	n/a	n/a	n/a	379.203	n/a
363.512	0.497	angry	Picture	95.525	n/a	4	10	1	n/a	61	79	2	n/a	n/a	n/a	n/a	389.234	BM28HAS.jpg
364.009	0.514	Blank	Blank	95.012	n/a	4	10	1	n/a	61	n/a	2	n/a	n/a	n/a	n/a	389.731	n/a
364.54	0.497	angry	Picture	94.497	n/a	4	10	2	n/a	62	61	2	n/a	n/a	n/a	n/a	390.262	AM01HAS.jpg
365.037	0.514	Blank	Blank	93.984	n/a	4	10	2	n/a	62	n/a	2	n/a	n/a	n/a	n/a	390.759	n/a
365.567	0.497	angry	Picture	93.47	n/a	4	10	3	n/a	63	57	2	n/a	n/a	n/a	n/a	391.289	BF28HAS.jpg
366.065	0.514	Blank	Blank	92.956	n/a	4	10	3	n/a	63	n/a	2	n/a	n/a	n/a	n/a	391.787	n/a
366.595	0.497	angry	Picture	92.442	n/a	4	10	4	n/a	64	77	2	n/a	n/a	n/a	n/a	392.317	BM25HAS.jpg
367.093	0.514	Blank	Blank	91.928	n/a	4	10	4	n/a	64	n/a	2	n/a	n/a	n/a	n/a	392.815	n/a
367.623	0.497	angry	Picture	91.414	n/a	4	10	5	n/a	65	47	2	n/a	n/a	n/a	n/a	393.345	BF11HAS.jpg
368.12	0.514	Blank	Blank	90.9	n/a	4	10	5	n/a	65	n/a	2	n/a	n/a	n/a	n/a	393.842	n/a
368.651	0.497	angry	Picture	90.386	n/a	4	10	6	n/a	66	50	2	n/a	n/a	n/a	n/a	394.373	AF18HAS.jpg
369.148	0.514	Blank	Blank	89.872	n/a	4	10	6	n/a	66	n/a	2	n/a	n/a	n/a	n/a	394.87	n/a
369.679	0.497	angry	Picture	89.358	n/a	4	10	7	n/a	67	78	2	n/a	n/a	n/a	n/a	395.401	BM26HAS.jpg
370.176	0.514	Blank	Blank	88.844	n/a	4	10	7	n/a	67	n/a	2	n/a	n/a	n/a	n/a	395.898	n/a
370.707	0.497	angry	Picture	88.33	n/a	4	10	8	n/a	68	45	2	n/a	n/a	n/a	n/a	396.429	BF07HAS.jpg
371.204	0.514	Blank	Blank	87.816	n/a	4	10	8	n/a	68	n/a	2	n/a	n/a	n/a	n/a	396.926	n/a
371.735	0.497	angry	Picture	87.302	n/a	4	10	9	n/a	69	56	2	n/a	n/a	n/a	n/a	397.457	AF26HAS.jpg
372.232	0.514	Blank	Blank	86.788	n/a	4	10	9	n/a	69	n/a	2	n/a	n/a	n/a	n/a	397.954	n/a
372.763	0.497	angry	Picture	86.274	n/a	4	10	10	n/a	70	65	2	n/a	n/a	n/a	n/a	398.485	BM06HAS.jpg
373.26	0.514	Blank	Blank	85.76	n/a	4	10	10	n/a	70	n/a	2	n/a	n/a	n/a	n/a	398.982	n/a
373.791	0.497	angry	Picture	85.246	n/a	4	10	11	n/a	71	73	2	n/a	n/a	n/a	n/a	399.512	AM21HAS.jpg
374.288	0.514	Blank	Blank	84.733	n/a	4	10	11	n/a	71	n/a	2	n/a	n/a	n/a	n/a	400.01	n/a
374.818	0.497	angry	Picture	84.219	n/a	4	10	12	n/a	72	41	2	n/a	n/a	n/a	n/a	400.54	AF01HAS.jpg
375.316	0.514	Blank	Blank	83.705	n/a	4	10	12	n/a	72	n/a	2	n/a	n/a	n/a	n/a	401.038	n/a
375.846	0.497	angry	Picture	83.191	n/a	4	10	13	n/a	73	59	2	n/a	n/a	n/a	n/a	401.568	AF31HAS.jpg
376.344	0.514	Blank	Blank	82.677	n/a	4	10	13	n/a	73	n/a	2	n/a	n/a	n/a	n/a	402.066	n/a
376.874	0.497	angry	Picture	82.163	n/a	4	10	14	n/a	74	64	2	n/a	n/a	n/a	n/a	402.596	BM05HAS.jpg
377.372	0.514	Blank	Blank	81.649	n/a	4	10	14	n/a	74	n/a	2	n/a	n/a	n/a	n/a	403.094	n/a
377.902	0.497	angry	Picture	81.135	n/a	4	10	15	n/a	75	68	2	n/a	n/a	n/a	n/a	403.624	AM09HAS.jpg
378.4	0.514	Blank	Blank	80.621	n/a	4	10	15	n/a	75	n/a	2	n/a	n/a	n/a	n/a	404.122	n/a
378.93	0.497	angry	Picture	80.107	n/a	4	10	16	n/a	76	54	2	n/a	n/a	n/a	n/a	404.652	AF23HAS.jpg
379.427	0.514	Blank	Blank	79.593	n/a	4	10	16	n/a	76	n/a	2	n/a	n/a	n/a	n/a	405.149	n/a
379.958	0.497	angry	Picture	79.079	n/a	4	10	17	n/a	77	53	2	n/a	n/a	n/a	n/a	405.68	BF22HAS.jpg
380.455	0.514	Blank	Blank	78.565	n/a	4	10	17	n/a	77	n/a	2	n/a	n/a	n/a	n/a	406.177	n/a
380.986	0.497	angry	Picture	78.051	n/a	4	10	18	n/a	78	44	2	n/a	n/a	n/a	n/a	406.708	AF05HAS.jpg
381.483	0.514	Blank	Blank	77.537	n/a	4	10	18	n/a	78	n/a	2	n/a	n/a	n/a	n/a	407.205	n/a
382.014	0.497	angry	Picture	77.023	n/a	4	10	19	n/a	79	52	2	n/a	n/a	n/a	n/a	407.736	AF21HAS.jpg
382.511	0.514	Blank	Blank	76.509	n/a	4	10	19	n/a	79	n/a	2	n/a	n/a	n/a	n/a	408.233	n/a
383.042	0.497	angry	Picture	75.995	n/a	4	10	20	n/a	80	62	2	n/a	n/a	n/a	n/a	408.764	BM03HAS.jpg
383.539	0.514	Blank	Blank	75.482	n/a	4	10	20	n/a	80	n/a	2	n/a	n/a	n/a	n/a	409.261	n/a
384.069	10.014	ITI	Fixation+	65.451	n/a	4	n/a	n/a	n/a	n/a	n/a	n/a	n/a	n/a	n/a	n/a	409.791	n/a
394.1	0.497	neutral	Picture	64.937	n/a	4	11	1	n/a	81	23	1	n/a	n/a	n/a	n/a	419.822	AM04NES.jpg
394.597	0.514	Blank	Blank	64.423	n/a	4	11	1	n/a	81	n/a	1	n/a	n/a	n/a	n/a	420.319	n/a
395.127	0.497	neutral	Picture	63.909	n/a	4	11	2	n/a	82	29	1	n/a	n/a	n/a	n/a	420.849	AM10NES.jpg
395.625	0.514	Blank	Blank	63.395	n/a	4	11	2	n/a	82	n/a	1	n/a	n/a	n/a	n/a	421.347	n/a
396.155	0.497	neutral	Picture	62.882	n/a	4	11	3	n/a	83	24	1	n/a	n/a	n/a	n/a	421.877	BM05NES.jpg
396.653	0.514	Blank	Blank	62.368	n/a	4	11	3	n/a	83	n/a	1	n/a	n/a	n/a	n/a	422.375	n/a
397.183	0.497	neutral	Picture	61.854	n/a	4	11	4	n/a	84	12	1	n/a	n/a	n/a	n/a	422.905	AF21NES.jpg
397.681	0.514	Blank	Blank	61.34	n/a	4	11	4	n/a	84	n/a	1	n/a	n/a	n/a	n/a	423.403	n/a
398.211	0.497	neutral	Picture	60.826	n/a	4	11	5	n/a	85	13	1	n/a	n/a	n/a	n/a	423.933	BF22NES.jpg
398.709	0.514	Blank	Blank	60.312	n/a	4	11	5	n/a	85	n/a	1	n/a	n/a	n/a	n/a	424.431	n/a
399.239	0.497	neutral	Picture	59.798	n/a	4	11	6	n/a	86	17	1	n/a	n/a	n/a	n/a	424.961	BF28NES.jpg
399.737	0.514	Blank	Blank	59.284	n/a	4	11	6	n/a	86	n/a	1	n/a	n/a	n/a	n/a	425.459	n/a
400.267	0.497	neutral	Picture	58.77	n/a	4	11	7	n/a	87	4	1	n/a	n/a	n/a	n/a	425.989	AF05NES.jpg
400.764	0.514	Blank	Blank	58.256	n/a	4	11	7	n/a	87	n/a	1	n/a	n/a	n/a	n/a	426.486	n/a
401.295	0.497	neutral	Picture	57.742	n/a	4	11	8	n/a	88	11	1	n/a	n/a	n/a	n/a	427.017	AF20NES.jpg
401.792	0.514	Blank	Blank	57.228	n/a	4	11	8	n/a	88	n/a	1	n/a	n/a	n/a	n/a	427.514	n/a
402.323	0.497	neutral	Picture	56.714	n/a	4	11	9	n/a	89	22	1	n/a	n/a	n/a	n/a	428.045	BM03NES.jpg
402.82	0.514	Blank	Blank	56.2	n/a	4	11	9	n/a	89	n/a	1	n/a	n/a	n/a	n/a	428.542	n/a
403.351	0.497	neutral	Picture	55.686	n/a	4	11	10	n/a	90	15	1	n/a	n/a	n/a	n/a	429.073	AF25NES.jpg
403.848	0.514	Blank	Blank	55.172	n/a	4	11	10	n/a	90	n/a	1	n/a	n/a	n/a	n/a	429.57	n/a
404.379	0.497	neutral	Picture	54.659	n/a	4	11	11	n/a	91	19	1	n/a	n/a	n/a	n/a	430.101	AF31NES.jpg
404.876	0.514	Blank	Blank	54.144	n/a	4	11	11	n/a	91	n/a	1	n/a	n/a	n/a	n/a	430.598	n/a
405.406	0.497	neutral	Picture	53.631	n/a	4	11	12	n/a	92	9	1	n/a	n/a	n/a	n/a	431.128	AF17NES.jpg
405.904	0.514	Blank	Blank	53.117	n/a	4	11	12	n/a	92	n/a	1	n/a	n/a	n/a	n/a	431.626	n/a
406.434	0.497	neutral	Picture	52.603	n/a	4	11	13	n/a	93	14	1	n/a	n/a	n/a	n/a	432.156	AF23NES.jpg
406.932	0.514	Blank	Blank	52.089	n/a	4	11	13	n/a	93	n/a	1	n/a	n/a	n/a	n/a	432.654	n/a
407.462	0.497	neutral	Picture	51.575	n/a	4	11	14	n/a	94	36	1	n/a	n/a	n/a	n/a	433.184	BM24NES.jpg
407.96	0.514	Blank	Blank	51.061	n/a	4	11	14	n/a	94	n/a	1	n/a	n/a	n/a	n/a	433.682	n/a
408.49	0.497	neutral	Picture	50.547	n/a	4	11	15	n/a	95	34	1	n/a	n/a	n/a	n/a	434.212	AM22NES.jpg
408.988	0.514	Blank	Blank	50.033	n/a	4	11	15	n/a	95	n/a	1	n/a	n/a	n/a	n/a	434.709	n/a
409.518	0.497	neutral	Picture	49.519	n/a	4	11	16	n/a	96	10	1	n/a	n/a	n/a	n/a	435.24	AF18NES.jpg
410.015	0.514	Blank	Blank	49.005	n/a	4	11	16	n/a	96	n/a	1	n/a	n/a	n/a	n/a	435.737	n/a
410.546	0.497	neutral	Picture	48.491	n/a	4	11	17	n/a	97	5	1	n/a	n/a	n/a	n/a	436.268	BF07NES.jpg
411.043	0.514	Blank	Blank	47.977	n/a	4	11	17	n/a	97	n/a	1	n/a	n/a	n/a	n/a	436.765	n/a
411.574	0.497	neutral	Picture	47.463	n/a	4	11	18	n/a	98	25	1	n/a	n/a	n/a	n/a	437.296	BM06NES.jpg
412.071	0.514	Blank	Blank	46.949	n/a	4	11	18	n/a	98	n/a	1	n/a	n/a	n/a	n/a	437.793	n/a
412.602	0.497	neutral	Picture	46.435	n/a	4	11	19	n/a	99	39	1	n/a	n/a	n/a	n/a	438.324	AM28NES.jpg
413.099	0.514	Blank	Blank	45.921	n/a	4	11	19	n/a	99	n/a	1	n/a	n/a	n/a	n/a	438.821	n/a
413.63	0.497	neutral	Picture	45.407	n/a	4	11	20	n/a	100	33	1	n/a	n/a	n/a	n/a	439.352	AM21NES.jpg
414.127	0.514	Blank	Blank	44.893	n/a	4	11	20	n/a	100	n/a	1	n/a	n/a	n/a	n/a	439.849	n/a
414.658	10.014	ITI	Fixation+	34.863	n/a	4	n/a	n/a	n/a	n/a	n/a	n/a	n/a	n/a	n/a	n/a	440.38	n/a
424.688	0.497	angry	Picture	34.349	n/a	4	12	1	n/a	101	74	2	n/a	n/a	n/a	n/a	450.41	AM22HAS.jpg
425.185	0.514	Blank	Blank	33.835	n/a	4	12	1	n/a	101	n/a	2	n/a	n/a	n/a	n/a	450.907	n/a
425.716	0.497	angry	Picture	33.322	n/a	4	12	2	n/a	102	76	2	n/a	n/a	n/a	n/a	451.438	BM24HAS.jpg
426.213	0.514	Blank	Blank	32.807	n/a	4	12	2	n/a	102	n/a	2	n/a	n/a	n/a	n/a	451.935	n/a
426.744	0.497	angry	Picture	32.294	n/a	4	12	3	n/a	103	80	2	n/a	n/a	n/a	n/a	452.466	BM35HAS.jpg
427.241	0.514	Blank	Blank	31.78	n/a	4	12	3	n/a	103	n/a	2	n/a	n/a	n/a	n/a	452.963	n/a
427.771	0.497	angry	Picture	31.266	n/a	4	12	4	n/a	104	75	2	n/a	n/a	n/a	n/a	453.493	AM23HAS.jpg
428.269	0.514	Blank	Blank	30.752	n/a	4	12	4	n/a	104	n/a	2	n/a	n/a	n/a	n/a	453.991	n/a
428.799	0.497	angry	Picture	30.238	n/a	4	12	5	n/a	105	49	2	n/a	n/a	n/a	n/a	454.521	AF17HAS.jpg
429.297	0.514	Blank	Blank	29.724	n/a	4	12	5	n/a	105	n/a	2	n/a	n/a	n/a	n/a	455.019	n/a
429.827	0.497	angry	Picture	29.21	n/a	4	12	6	n/a	106	43	2	n/a	n/a	n/a	n/a	455.549	BF04HAS.jpg
430.325	0.514	Blank	Blank	28.696	n/a	4	12	6	n/a	106	n/a	2	n/a	n/a	n/a	n/a	456.046	n/a
430.855	0.497	angry	Picture	28.182	n/a	4	12	7	n/a	107	70	2	n/a	n/a	n/a	n/a	456.577	BM11HAS.jpg
431.352	0.514	Blank	Blank	27.668	n/a	4	12	7	n/a	107	n/a	2	n/a	n/a	n/a	n/a	457.074	n/a
431.883	0.497	angry	Picture	27.154	n/a	4	12	8	n/a	108	66	2	n/a	n/a	n/a	n/a	457.605	BM07HAS.jpg
432.38	0.514	Blank	Blank	26.64	n/a	4	12	8	n/a	108	n/a	2	n/a	n/a	n/a	n/a	458.102	n/a
432.911	0.497	angry	Picture	26.126	n/a	4	12	9	n/a	109	48	2	n/a	n/a	n/a	n/a	458.633	AF14HAS.jpg
433.408	0.514	Blank	Blank	25.612	n/a	4	12	9	n/a	109	n/a	2	n/a	n/a	n/a	n/a	459.13	n/a
433.939	0.497	angry	Picture	25.098	n/a	4	12	10	n/a	110	58	2	n/a	n/a	n/a	n/a	459.661	BF29HAS.jpg
434.436	0.514	Blank	Blank	24.584	n/a	4	12	10	n/a	110	n/a	2	n/a	n/a	n/a	n/a	460.158	n/a
434.967	0.497	angry	Picture	24.07	n/a	4	12	11	n/a	111	63	2	n/a	n/a	n/a	n/a	460.689	AM04HAS.jpg
435.464	0.514	Blank	Blank	23.557	n/a	4	12	11	n/a	111	n/a	2	n/a	n/a	n/a	n/a	461.186	n/a
435.995	0.497	angry	Picture	23.043	n/a	4	12	12	n/a	112	72	2	n/a	n/a	n/a	n/a	461.716	AM14HAS.jpg
436.492	0.514	Blank	Blank	22.529	n/a	4	12	12	n/a	112	n/a	2	n/a	n/a	n/a	n/a	462.214	n/a
437.022	0.497	angry	Picture	22.015	n/a	4	12	13	n/a	113	55	2	n/a	n/a	n/a	n/a	462.744	AF25HAS.jpg
437.52	0.514	Blank	Blank	21.501	n/a	4	12	13	n/a	113	n/a	2	n/a	n/a	n/a	n/a	463.242	n/a
438.05	0.497	angry	Picture	20.987	n/a	4	12	14	n/a	114	42	2	n/a	n/a	n/a	n/a	463.772	AF03HAS.jpg
438.548	0.514	Blank	Blank	20.473	n/a	4	12	14	n/a	114	n/a	2	n/a	n/a	n/a	n/a	464.27	n/a
439.078	0.497	angry	Picture	19.959	n/a	4	12	15	n/a	115	60	2	n/a	n/a	n/a	n/a	464.8	AF32HAS.jpg
439.576	0.514	Blank	Blank	19.445	n/a	4	12	15	n/a	115	n/a	2	n/a	n/a	n/a	n/a	465.298	n/a
440.106	0.497	angry	Picture	18.931	n/a	4	12	16	n/a	116	67	2	n/a	n/a	n/a	n/a	465.828	BM08HAS.jpg
440.603	0.514	Blank	Blank	18.417	n/a	4	12	16	n/a	116	n/a	2	n/a	n/a	n/a	n/a	466.325	n/a
441.134	0.497	angry	Picture	17.903	n/a	4	12	17	n/a	117	51	2	n/a	n/a	n/a	n/a	466.856	AF20HAS.jpg
441.631	0.514	Blank	Blank	17.389	n/a	4	12	17	n/a	117	n/a	2	n/a	n/a	n/a	n/a	467.353	n/a
442.162	0.497	angry	Picture	16.875	n/a	4	12	18	n/a	118	71	2	n/a	n/a	n/a	n/a	467.884	BM12HAS.jpg
442.659	0.514	Blank	Blank	16.361	n/a	4	12	18	n/a	118	n/a	2	n/a	n/a	n/a	n/a	468.381	n/a
443.19	0.497	angry	Picture	15.847	n/a	4	12	19	n/a	119	69	2	n/a	n/a	n/a	n/a	468.912	AM10HAS.jpg
443.687	0.514	Blank	Blank	15.333	n/a	4	12	19	n/a	119	n/a	2	n/a	n/a	n/a	n/a	469.409	n/a
444.218	0.497	angry	Picture	14.819	n/a	4	12	20	n/a	120	46	2	n/a	n/a	n/a	n/a	469.94	AF09HAS.jpg
444.715	0.514	Blank	Blank	14.305	n/a	4	12	20	n/a	120	n/a	2	n/a	n/a	n/a	n/a	470.437	n/a
445.245	10.014	ITI	Fixation+	4.275	n/a	4	n/a	n/a	n/a	n/a	n/a	n/a	n/a	n/a	n/a	n/a	470.967	n/a
459.534	n/a	ConfirmRating	Rate	n/a	4.261	4	n/a	n/a	0	n/a	n/a	n/a	2	Angry	62	51	485.256	n/a
463.67	n/a	ConfirmRating	Rate	n/a	4.128	4	n/a	n/a	1	n/a	n/a	n/a	3	Angry	24	48	489.392	n/a
