onset	duration	trial_type	event_type	time_until_response	response_time	trial_number	block_num_within_trial	image_seq_num_within_block	question_seq_num_within_block	image_seq_num	picture_number	condition	question_type	block_type	rating	rating_computed	onset_uncorrected	KDEV_imagefile
0.013	10.014	ITI	Fixation+	99.078	n/a	1	n/a	n/a	n/a	n/a	n/a	n/a	n/a	n/a	n/a	n/a	32.075	n/a
10.043	0.497	angry	Picture	98.564	n/a	1	1	1	n/a	1	46	2	n/a	n/a	n/a	n/a	42.105	AF09HAS.jpg
10.541	0.514	Blank	Blank	98.05	n/a	1	1	1	n/a	1	n/a	2	n/a	n/a	n/a	n/a	42.602	n/a
11.071	0.497	angry	Picture	97.536	n/a	1	1	2	n/a	2	69	2	n/a	n/a	n/a	n/a	43.133	AM10HAS.jpg
11.569	0.514	Blank	Blank	97.022	n/a	1	1	2	n/a	2	n/a	2	n/a	n/a	n/a	n/a	43.63	n/a
12.099	0.497	angry	Picture	96.508	n/a	1	1	3	n/a	3	71	2	n/a	n/a	n/a	n/a	44.161	BM12HAS.jpg
12.596	0.514	Blank	Blank	95.994	n/a	1	1	3	n/a	3	n/a	2	n/a	n/a	n/a	n/a	44.658	n/a
13.127	0.497	angry	Picture	95.48	n/a	1	1	4	n/a	4	51	2	n/a	n/a	n/a	n/a	45.188	AF20HAS.jpg
13.624	0.514	Blank	Blank	94.966	n/a	1	1	4	n/a	4	n/a	2	n/a	n/a	n/a	n/a	45.686	n/a
14.155	0.497	angry	Picture	94.452	n/a	1	1	5	n/a	5	67	2	n/a	n/a	n/a	n/a	46.216	BM08HAS.jpg
14.652	0.514	Blank	Blank	93.938	n/a	1	1	5	n/a	5	n/a	2	n/a	n/a	n/a	n/a	46.714	n/a
15.183	0.497	angry	Picture	93.424	n/a	1	1	6	n/a	6	60	2	n/a	n/a	n/a	n/a	47.244	AF32HAS.jpg
15.68	0.514	Blank	Blank	92.91	n/a	1	1	6	n/a	6	n/a	2	n/a	n/a	n/a	n/a	47.742	n/a
16.211	0.497	angry	Picture	92.396	n/a	1	1	7	n/a	7	42	2	n/a	n/a	n/a	n/a	48.272	AF03HAS.jpg
16.708	0.514	Blank	Blank	91.882	n/a	1	1	7	n/a	7	n/a	2	n/a	n/a	n/a	n/a	48.77	n/a
17.239	0.497	angry	Picture	91.369	n/a	1	1	8	n/a	8	55	2	n/a	n/a	n/a	n/a	49.3	AF25HAS.jpg
17.736	0.514	Blank	Blank	90.855	n/a	1	1	8	n/a	8	n/a	2	n/a	n/a	n/a	n/a	49.797	n/a
18.266	0.497	angry	Picture	90.341	n/a	1	1	9	n/a	9	72	2	n/a	n/a	n/a	n/a	50.328	AM14HAS.jpg
18.764	0.514	Blank	Blank	89.827	n/a	1	1	9	n/a	9	n/a	2	n/a	n/a	n/a	n/a	50.825	n/a
19.294	0.497	angry	Picture	89.313	n/a	1	1	10	n/a	10	63	2	n/a	n/a	n/a	n/a	51.356	AM04HAS.jpg
19.792	0.514	Blank	Blank	88.799	n/a	1	1	10	n/a	10	n/a	2	n/a	n/a	n/a	n/a	51.853	n/a
20.322	0.497	angry	Picture	88.285	n/a	1	1	11	n/a	11	58	2	n/a	n/a	n/a	n/a	52.384	BF29HAS.jpg
20.82	0.514	Blank	Blank	87.771	n/a	1	1	11	n/a	11	n/a	2	n/a	n/a	n/a	n/a	52.881	n/a
21.35	0.497	angry	Picture	87.257	n/a	1	1	12	n/a	12	48	2	n/a	n/a	n/a	n/a	53.412	AF14HAS.jpg
21.847	0.514	Blank	Blank	86.743	n/a	1	1	12	n/a	12	n/a	2	n/a	n/a	n/a	n/a	53.909	n/a
22.378	0.497	angry	Picture	86.229	n/a	1	1	13	n/a	13	66	2	n/a	n/a	n/a	n/a	54.44	BM07HAS.jpg
22.875	0.514	Blank	Blank	85.715	n/a	1	1	13	n/a	13	n/a	2	n/a	n/a	n/a	n/a	54.937	n/a
23.406	0.497	angry	Picture	85.201	n/a	1	1	14	n/a	14	70	2	n/a	n/a	n/a	n/a	55.467	BM11HAS.jpg
23.903	0.514	Blank	Blank	84.687	n/a	1	1	14	n/a	14	n/a	2	n/a	n/a	n/a	n/a	55.965	n/a
24.434	0.497	angry	Picture	84.173	n/a	1	1	15	n/a	15	43	2	n/a	n/a	n/a	n/a	56.495	BF04HAS.jpg
24.931	0.514	Blank	Blank	83.659	n/a	1	1	15	n/a	15	n/a	2	n/a	n/a	n/a	n/a	56.993	n/a
25.462	0.497	angry	Picture	83.145	n/a	1	1	16	n/a	16	49	2	n/a	n/a	n/a	n/a	57.523	AF17HAS.jpg
25.959	0.514	Blank	Blank	82.632	n/a	1	1	16	n/a	16	n/a	2	n/a	n/a	n/a	n/a	58.02	n/a
26.489	0.497	angry	Picture	82.118	n/a	1	1	17	n/a	17	75	2	n/a	n/a	n/a	n/a	58.551	AM23HAS.jpg
26.987	0.514	Blank	Blank	81.604	n/a	1	1	17	n/a	17	n/a	2	n/a	n/a	n/a	n/a	59.048	n/a
27.517	0.497	angry	Picture	81.09	n/a	1	1	18	n/a	18	80	2	n/a	n/a	n/a	n/a	59.579	BM35HAS.jpg
28.015	0.514	Blank	Blank	80.576	n/a	1	1	18	n/a	18	n/a	2	n/a	n/a	n/a	n/a	60.076	n/a
28.545	0.497	angry	Picture	80.062	n/a	1	1	19	n/a	19	76	2	n/a	n/a	n/a	n/a	60.607	BM24HAS.jpg
29.043	0.514	Blank	Blank	79.548	n/a	1	1	19	n/a	19	n/a	2	n/a	n/a	n/a	n/a	61.104	n/a
29.573	0.497	angry	Picture	79.034	n/a	1	1	20	n/a	20	74	2	n/a	n/a	n/a	n/a	61.635	AM22HAS.jpg
30.071	0.514	Blank	Blank	78.52	n/a	1	1	20	n/a	20	n/a	2	n/a	n/a	n/a	n/a	62.132	n/a
30.601	10.014	ITI	Fixation+	68.49	n/a	1	n/a	n/a	n/a	n/a	n/a	n/a	n/a	n/a	n/a	n/a	62.663	n/a
40.631	0.497	neutral	Picture	67.976	n/a	1	2	1	n/a	21	33	1	n/a	n/a	n/a	n/a	72.693	AM21NES.jpg
41.129	0.514	Blank	Blank	67.462	n/a	1	2	1	n/a	21	n/a	1	n/a	n/a	n/a	n/a	73.19	n/a
41.659	0.497	neutral	Picture	66.948	n/a	1	2	2	n/a	22	39	1	n/a	n/a	n/a	n/a	73.721	AM28NES.jpg
42.156	0.514	Blank	Blank	66.434	n/a	1	2	2	n/a	22	n/a	1	n/a	n/a	n/a	n/a	74.218	n/a
42.687	0.497	neutral	Picture	65.92	n/a	1	2	3	n/a	23	25	1	n/a	n/a	n/a	n/a	74.749	BM06NES.jpg
43.184	0.514	Blank	Blank	65.406	n/a	1	2	3	n/a	23	n/a	1	n/a	n/a	n/a	n/a	75.246	n/a
43.715	0.497	neutral	Picture	64.892	n/a	1	2	4	n/a	24	5	1	n/a	n/a	n/a	n/a	75.776	BF07NES.jpg
44.212	0.514	Blank	Blank	64.378	n/a	1	2	4	n/a	24	n/a	1	n/a	n/a	n/a	n/a	76.274	n/a
44.743	0.497	neutral	Picture	63.864	n/a	1	2	5	n/a	25	10	1	n/a	n/a	n/a	n/a	76.804	AF18NES.jpg
45.24	0.514	Blank	Blank	63.35	n/a	1	2	5	n/a	25	n/a	1	n/a	n/a	n/a	n/a	77.302	n/a
45.771	0.497	neutral	Picture	62.836	n/a	1	2	6	n/a	26	34	1	n/a	n/a	n/a	n/a	77.832	AM22NES.jpg
46.268	0.514	Blank	Blank	62.322	n/a	1	2	6	n/a	26	n/a	1	n/a	n/a	n/a	n/a	78.33	n/a
46.799	0.497	neutral	Picture	61.808	n/a	1	2	7	n/a	27	36	1	n/a	n/a	n/a	n/a	78.86	BM24NES.jpg
47.296	0.514	Blank	Blank	61.295	n/a	1	2	7	n/a	27	n/a	1	n/a	n/a	n/a	n/a	79.358	n/a
47.826	0.497	neutral	Picture	60.781	n/a	1	2	8	n/a	28	14	1	n/a	n/a	n/a	n/a	79.888	AF23NES.jpg
48.324	0.514	Blank	Blank	60.267	n/a	1	2	8	n/a	28	n/a	1	n/a	n/a	n/a	n/a	80.385	n/a
48.854	0.497	neutral	Picture	59.753	n/a	1	2	9	n/a	29	9	1	n/a	n/a	n/a	n/a	80.916	AF17NES.jpg
49.352	0.514	Blank	Blank	59.239	n/a	1	2	9	n/a	29	n/a	1	n/a	n/a	n/a	n/a	81.413	n/a
49.882	0.497	neutral	Picture	58.725	n/a	1	2	10	n/a	30	19	1	n/a	n/a	n/a	n/a	81.944	AF31NES.jpg
50.38	0.514	Blank	Blank	58.211	n/a	1	2	10	n/a	30	n/a	1	n/a	n/a	n/a	n/a	82.441	n/a
50.91	0.497	neutral	Picture	57.697	n/a	1	2	11	n/a	31	15	1	n/a	n/a	n/a	n/a	82.972	AF25NES.jpg
51.407	0.514	Blank	Blank	57.183	n/a	1	2	11	n/a	31	n/a	1	n/a	n/a	n/a	n/a	83.469	n/a
51.938	0.497	neutral	Picture	56.669	n/a	1	2	12	n/a	32	22	1	n/a	n/a	n/a	n/a	84.0	BM03NES.jpg
52.435	0.514	Blank	Blank	56.155	n/a	1	2	12	n/a	32	n/a	1	n/a	n/a	n/a	n/a	84.497	n/a
52.966	0.497	neutral	Picture	55.641	n/a	1	2	13	n/a	33	11	1	n/a	n/a	n/a	n/a	85.027	AF20NES.jpg
53.463	0.514	Blank	Blank	55.127	n/a	1	2	13	n/a	33	n/a	1	n/a	n/a	n/a	n/a	85.525	n/a
53.994	0.497	neutral	Picture	54.613	n/a	1	2	14	n/a	34	4	1	n/a	n/a	n/a	n/a	86.055	AF05NES.jpg
54.491	0.514	Blank	Blank	54.099	n/a	1	2	14	n/a	34	n/a	1	n/a	n/a	n/a	n/a	86.553	n/a
55.022	0.497	neutral	Picture	53.585	n/a	1	2	15	n/a	35	17	1	n/a	n/a	n/a	n/a	87.083	BF28NES.jpg
55.519	0.514	Blank	Blank	53.071	n/a	1	2	15	n/a	35	n/a	1	n/a	n/a	n/a	n/a	87.581	n/a
56.049	0.497	neutral	Picture	52.558	n/a	1	2	16	n/a	36	13	1	n/a	n/a	n/a	n/a	88.111	BF22NES.jpg
56.547	0.514	Blank	Blank	52.044	n/a	1	2	16	n/a	36	n/a	1	n/a	n/a	n/a	n/a	88.609	n/a
57.077	0.497	neutral	Picture	51.53	n/a	1	2	17	n/a	37	12	1	n/a	n/a	n/a	n/a	89.139	AF21NES.jpg
57.575	0.514	Blank	Blank	51.016	n/a	1	2	17	n/a	37	n/a	1	n/a	n/a	n/a	n/a	89.636	n/a
58.105	0.497	neutral	Picture	50.502	n/a	1	2	18	n/a	38	24	1	n/a	n/a	n/a	n/a	90.167	BM05NES.jpg
58.603	0.514	Blank	Blank	49.988	n/a	1	2	18	n/a	38	n/a	1	n/a	n/a	n/a	n/a	90.664	n/a
59.133	0.497	neutral	Picture	49.474	n/a	1	2	19	n/a	39	29	1	n/a	n/a	n/a	n/a	91.195	AM10NES.jpg
59.63	0.514	Blank	Blank	48.96	n/a	1	2	19	n/a	39	n/a	1	n/a	n/a	n/a	n/a	91.692	n/a
60.161	0.497	neutral	Picture	48.446	n/a	1	2	20	n/a	40	23	1	n/a	n/a	n/a	n/a	92.223	AM04NES.jpg
60.658	0.514	Blank	Blank	47.932	n/a	1	2	20	n/a	40	n/a	1	n/a	n/a	n/a	n/a	92.72	n/a
61.189	10.014	ITI	Fixation+	37.902	n/a	1	n/a	n/a	n/a	n/a	n/a	n/a	n/a	n/a	n/a	n/a	93.251	n/a
71.219	0.497	angry	Picture	37.388	n/a	1	3	1	n/a	41	62	2	n/a	n/a	n/a	n/a	103.281	BM03HAS.jpg
71.716	0.514	Blank	Blank	36.874	n/a	1	3	1	n/a	41	n/a	2	n/a	n/a	n/a	n/a	103.778	n/a
72.247	0.497	angry	Picture	36.36	n/a	1	3	2	n/a	42	52	2	n/a	n/a	n/a	n/a	104.309	AF21HAS.jpg
72.744	0.514	Blank	Blank	35.846	n/a	1	3	2	n/a	42	n/a	2	n/a	n/a	n/a	n/a	104.806	n/a
73.275	0.497	angry	Picture	35.332	n/a	1	3	3	n/a	43	44	2	n/a	n/a	n/a	n/a	105.337	AF05HAS.jpg
73.772	0.514	Blank	Blank	34.818	n/a	1	3	3	n/a	43	n/a	2	n/a	n/a	n/a	n/a	105.834	n/a
74.303	0.497	angry	Picture	34.304	n/a	1	3	4	n/a	44	53	2	n/a	n/a	n/a	n/a	106.364	BF22HAS.jpg
74.8	0.514	Blank	Blank	33.79	n/a	1	3	4	n/a	44	n/a	2	n/a	n/a	n/a	n/a	106.862	n/a
75.331	0.497	angry	Picture	33.276	n/a	1	3	5	n/a	45	54	2	n/a	n/a	n/a	n/a	107.392	AF23HAS.jpg
75.828	0.514	Blank	Blank	32.762	n/a	1	3	5	n/a	45	n/a	2	n/a	n/a	n/a	n/a	107.89	n/a
76.359	0.497	angry	Picture	32.249	n/a	1	3	6	n/a	46	68	2	n/a	n/a	n/a	n/a	108.42	AM09HAS.jpg
76.856	0.514	Blank	Blank	31.734	n/a	1	3	6	n/a	46	n/a	2	n/a	n/a	n/a	n/a	108.918	n/a
77.386	0.497	angry	Picture	31.221	n/a	1	3	7	n/a	47	64	2	n/a	n/a	n/a	n/a	109.448	BM05HAS.jpg
77.884	0.514	Blank	Blank	30.707	n/a	1	3	7	n/a	47	n/a	2	n/a	n/a	n/a	n/a	109.945	n/a
78.414	0.497	angry	Picture	30.193	n/a	1	3	8	n/a	48	59	2	n/a	n/a	n/a	n/a	110.476	AF31HAS.jpg
78.912	0.514	Blank	Blank	29.679	n/a	1	3	8	n/a	48	n/a	2	n/a	n/a	n/a	n/a	110.973	n/a
79.442	0.497	angry	Picture	29.165	n/a	1	3	9	n/a	49	41	2	n/a	n/a	n/a	n/a	111.504	AF01HAS.jpg
79.94	0.514	Blank	Blank	28.651	n/a	1	3	9	n/a	49	n/a	2	n/a	n/a	n/a	n/a	112.001	n/a
80.47	0.497	angry	Picture	28.137	n/a	1	3	10	n/a	50	73	2	n/a	n/a	n/a	n/a	112.532	AM21HAS.jpg
80.968	0.514	Blank	Blank	27.623	n/a	1	3	10	n/a	50	n/a	2	n/a	n/a	n/a	n/a	113.029	n/a
81.498	0.497	angry	Picture	27.109	n/a	1	3	11	n/a	51	65	2	n/a	n/a	n/a	n/a	113.56	BM06HAS.jpg
81.995	0.514	Blank	Blank	26.595	n/a	1	3	11	n/a	51	n/a	2	n/a	n/a	n/a	n/a	114.057	n/a
82.526	0.497	angry	Picture	26.081	n/a	1	3	12	n/a	52	56	2	n/a	n/a	n/a	n/a	114.588	AF26HAS.jpg
83.023	0.514	Blank	Blank	25.567	n/a	1	3	12	n/a	52	n/a	2	n/a	n/a	n/a	n/a	115.085	n/a
83.554	0.497	angry	Picture	25.053	n/a	1	3	13	n/a	53	45	2	n/a	n/a	n/a	n/a	115.615	BF07HAS.jpg
84.051	0.514	Blank	Blank	24.539	n/a	1	3	13	n/a	53	n/a	2	n/a	n/a	n/a	n/a	116.113	n/a
84.582	0.497	angry	Picture	24.025	n/a	1	3	14	n/a	54	78	2	n/a	n/a	n/a	n/a	116.643	BM26HAS.jpg
85.079	0.514	Blank	Blank	23.511	n/a	1	3	14	n/a	54	n/a	2	n/a	n/a	n/a	n/a	117.141	n/a
85.609	0.497	angry	Picture	22.998	n/a	1	3	15	n/a	55	50	2	n/a	n/a	n/a	n/a	117.671	AF18HAS.jpg
86.107	0.514	Blank	Blank	22.484	n/a	1	3	15	n/a	55	n/a	2	n/a	n/a	n/a	n/a	118.168	n/a
86.637	0.497	angry	Picture	21.97	n/a	1	3	16	n/a	56	47	2	n/a	n/a	n/a	n/a	118.699	BF11HAS.jpg
87.135	0.514	Blank	Blank	21.456	n/a	1	3	16	n/a	56	n/a	2	n/a	n/a	n/a	n/a	119.196	n/a
87.665	0.497	angry	Picture	20.942	n/a	1	3	17	n/a	57	77	2	n/a	n/a	n/a	n/a	119.727	BM25HAS.jpg
88.163	0.514	Blank	Blank	20.428	n/a	1	3	17	n/a	57	n/a	2	n/a	n/a	n/a	n/a	120.224	n/a
88.693	0.497	angry	Picture	19.914	n/a	1	3	18	n/a	58	57	2	n/a	n/a	n/a	n/a	120.755	BF28HAS.jpg
89.191	0.514	Blank	Blank	19.4	n/a	1	3	18	n/a	58	n/a	2	n/a	n/a	n/a	n/a	121.252	n/a
89.721	0.497	angry	Picture	18.886	n/a	1	3	19	n/a	59	61	2	n/a	n/a	n/a	n/a	121.783	AM01HAS.jpg
90.219	0.514	Blank	Blank	18.372	n/a	1	3	19	n/a	59	n/a	2	n/a	n/a	n/a	n/a	122.28	n/a
90.749	0.497	angry	Picture	17.858	n/a	1	3	20	n/a	60	79	2	n/a	n/a	n/a	n/a	122.811	BM28HAS.jpg
91.246	0.514	Blank	Blank	17.344	n/a	1	3	20	n/a	60	n/a	2	n/a	n/a	n/a	n/a	123.308	n/a
91.777	10.014	ITI	Fixation+	7.314	n/a	1	n/a	n/a	n/a	n/a	n/a	n/a	n/a	n/a	n/a	n/a	123.838	n/a
109.104	n/a	ConfirmRating	Rate	n/a	7.294	1	n/a	n/a	0	n/a	n/a	n/a	2	Angry	15	49	141.166	n/a
113.599	n/a	ConfirmRating	Rate	n/a	4.476	1	n/a	n/a	1	n/a	n/a	n/a	3	Angry	42	49	145.661	n/a
113.628	10.014	ITI	Fixation+	95.052	n/a	2	n/a	n/a	n/a	n/a	n/a	n/a	n/a	n/a	n/a	n/a	145.689	n/a
123.658	0.497	happy	Picture	94.538	n/a	2	4	1	n/a	61	119	3	n/a	n/a	n/a	n/a	155.72	BM28ANS.jpg
124.155	0.514	Blank	Blank	94.024	n/a	2	4	1	n/a	61	n/a	3	n/a	n/a	n/a	n/a	156.217	n/a
124.686	0.497	happy	Picture	93.51	n/a	2	4	2	n/a	62	100	3	n/a	n/a	n/a	n/a	156.747	AF32ANS.jpg
125.183	0.514	Blank	Blank	92.996	n/a	2	4	2	n/a	62	n/a	3	n/a	n/a	n/a	n/a	157.245	n/a
125.714	0.497	happy	Picture	92.482	n/a	2	4	3	n/a	63	118	3	n/a	n/a	n/a	n/a	157.775	BM26ANS.jpg
126.211	0.514	Blank	Blank	91.968	n/a	2	4	3	n/a	63	n/a	3	n/a	n/a	n/a	n/a	158.273	n/a
126.742	0.497	happy	Picture	91.454	n/a	2	4	4	n/a	64	89	3	n/a	n/a	n/a	n/a	158.803	AF17ANS.jpg
127.239	0.514	Blank	Blank	90.94	n/a	2	4	4	n/a	64	n/a	3	n/a	n/a	n/a	n/a	159.301	n/a
127.769	0.497	happy	Picture	90.426	n/a	2	4	5	n/a	65	116	3	n/a	n/a	n/a	n/a	159.831	BM24ANS.jpg
128.267	0.514	Blank	Blank	89.912	n/a	2	4	5	n/a	65	n/a	3	n/a	n/a	n/a	n/a	160.328	n/a
128.797	0.497	happy	Picture	89.398	n/a	2	4	6	n/a	66	105	3	n/a	n/a	n/a	n/a	160.859	BM06ANS.jpg
129.295	0.514	Blank	Blank	88.884	n/a	2	4	6	n/a	66	n/a	3	n/a	n/a	n/a	n/a	161.356	n/a
129.825	0.497	happy	Picture	88.371	n/a	2	4	7	n/a	67	106	3	n/a	n/a	n/a	n/a	161.887	AM07ANS.jpg
130.323	0.514	Blank	Blank	87.857	n/a	2	4	7	n/a	67	n/a	3	n/a	n/a	n/a	n/a	162.384	n/a
130.853	0.497	happy	Picture	87.343	n/a	2	4	8	n/a	68	94	3	n/a	n/a	n/a	n/a	162.915	AF23ANS.jpg
131.351	0.514	Blank	Blank	86.829	n/a	2	4	8	n/a	68	n/a	3	n/a	n/a	n/a	n/a	163.412	n/a
131.881	0.497	happy	Picture	86.315	n/a	2	4	9	n/a	69	117	3	n/a	n/a	n/a	n/a	163.943	BM25ANS.jpg
132.378	0.514	Blank	Blank	85.801	n/a	2	4	9	n/a	69	n/a	3	n/a	n/a	n/a	n/a	164.44	n/a
132.909	0.497	happy	Picture	85.287	n/a	2	4	10	n/a	70	90	3	n/a	n/a	n/a	n/a	164.97	AF18ANS.jpg
133.406	0.514	Blank	Blank	84.773	n/a	2	4	10	n/a	70	n/a	3	n/a	n/a	n/a	n/a	165.468	n/a
133.937	0.497	happy	Picture	84.259	n/a	2	4	11	n/a	71	83	3	n/a	n/a	n/a	n/a	165.998	BF04ANS.jpg
134.434	0.514	Blank	Blank	83.745	n/a	2	4	11	n/a	71	n/a	3	n/a	n/a	n/a	n/a	166.496	n/a
134.965	0.497	happy	Picture	83.231	n/a	2	4	12	n/a	72	112	3	n/a	n/a	n/a	n/a	167.026	AM14ANS.jpg
135.462	0.514	Blank	Blank	82.717	n/a	2	4	12	n/a	72	n/a	3	n/a	n/a	n/a	n/a	167.524	n/a
135.993	0.497	happy	Picture	82.203	n/a	2	4	13	n/a	73	102	3	n/a	n/a	n/a	n/a	168.054	BM03ANS.jpg
136.49	0.514	Blank	Blank	81.689	n/a	2	4	13	n/a	73	n/a	3	n/a	n/a	n/a	n/a	168.552	n/a
137.02	0.497	happy	Picture	81.175	n/a	2	4	14	n/a	74	95	3	n/a	n/a	n/a	n/a	169.082	AF25ANS.jpg
137.518	0.514	Blank	Blank	80.661	n/a	2	4	14	n/a	74	n/a	3	n/a	n/a	n/a	n/a	169.579	n/a
138.048	0.497	happy	Picture	80.147	n/a	2	4	15	n/a	75	113	3	n/a	n/a	n/a	n/a	170.11	AM21ANS.jpg
138.546	0.514	Blank	Blank	79.633	n/a	2	4	15	n/a	75	n/a	3	n/a	n/a	n/a	n/a	170.607	n/a
139.076	0.497	happy	Picture	79.12	n/a	2	4	16	n/a	76	88	3	n/a	n/a	n/a	n/a	171.138	AF14ANS.jpg
139.574	0.514	Blank	Blank	78.606	n/a	2	4	16	n/a	76	n/a	3	n/a	n/a	n/a	n/a	171.635	n/a
140.104	0.497	happy	Picture	78.092	n/a	2	4	17	n/a	77	93	3	n/a	n/a	n/a	n/a	172.166	BF22ANS.jpg
140.601	0.514	Blank	Blank	77.578	n/a	2	4	17	n/a	77	n/a	3	n/a	n/a	n/a	n/a	172.663	n/a
141.132	0.497	happy	Picture	77.064	n/a	2	4	18	n/a	78	86	3	n/a	n/a	n/a	n/a	173.194	AF09ANS.jpg
141.629	0.514	Blank	Blank	76.55	n/a	2	4	18	n/a	78	n/a	3	n/a	n/a	n/a	n/a	173.691	n/a
142.16	0.497	happy	Picture	76.036	n/a	2	4	19	n/a	79	92	3	n/a	n/a	n/a	n/a	174.221	AF21ANS.jpg
142.657	0.514	Blank	Blank	75.522	n/a	2	4	19	n/a	79	n/a	3	n/a	n/a	n/a	n/a	174.719	n/a
143.188	0.497	happy	Picture	75.008	n/a	2	4	20	n/a	80	84	3	n/a	n/a	n/a	n/a	175.249	AF05ANS.jpg
143.685	0.514	Blank	Blank	74.494	n/a	2	4	20	n/a	80	n/a	3	n/a	n/a	n/a	n/a	175.747	n/a
144.216	10.014	ITI	Fixation+	64.464	n/a	2	n/a	n/a	n/a	n/a	n/a	n/a	n/a	n/a	n/a	n/a	176.277	n/a
154.246	0.497	neutral	Picture	63.95	n/a	2	5	1	n/a	81	4	1	n/a	n/a	n/a	n/a	186.308	AF05NES.jpg
154.743	0.514	Blank	Blank	63.436	n/a	2	5	1	n/a	81	n/a	1	n/a	n/a	n/a	n/a	186.805	n/a
155.274	0.497	neutral	Picture	62.922	n/a	2	5	2	n/a	82	14	1	n/a	n/a	n/a	n/a	187.335	AF23NES.jpg
155.771	0.514	Blank	Blank	62.408	n/a	2	5	2	n/a	82	n/a	1	n/a	n/a	n/a	n/a	187.833	n/a
156.302	0.497	neutral	Picture	61.894	n/a	2	5	3	n/a	83	19	1	n/a	n/a	n/a	n/a	188.363	AF31NES.jpg
156.799	0.514	Blank	Blank	61.38	n/a	2	5	3	n/a	83	n/a	1	n/a	n/a	n/a	n/a	188.861	n/a
157.329	0.497	neutral	Picture	60.866	n/a	2	5	4	n/a	84	8	1	n/a	n/a	n/a	n/a	189.391	AF14NES.jpg
157.827	0.514	Blank	Blank	60.352	n/a	2	5	4	n/a	84	n/a	1	n/a	n/a	n/a	n/a	189.888	n/a
158.357	0.497	neutral	Picture	59.838	n/a	2	5	5	n/a	85	25	1	n/a	n/a	n/a	n/a	190.419	BM06NES.jpg
158.855	0.514	Blank	Blank	59.324	n/a	2	5	5	n/a	85	n/a	1	n/a	n/a	n/a	n/a	190.916	n/a
159.385	0.497	neutral	Picture	58.81	n/a	2	5	6	n/a	86	9	1	n/a	n/a	n/a	n/a	191.447	AF17NES.jpg
159.883	0.514	Blank	Blank	58.297	n/a	2	5	6	n/a	86	n/a	1	n/a	n/a	n/a	n/a	191.944	n/a
160.413	0.497	neutral	Picture	57.783	n/a	2	5	7	n/a	87	2	1	n/a	n/a	n/a	n/a	192.475	AF03NES.jpg
160.911	0.514	Blank	Blank	57.269	n/a	2	5	7	n/a	87	n/a	1	n/a	n/a	n/a	n/a	192.972	n/a
161.441	0.497	neutral	Picture	56.755	n/a	2	5	8	n/a	88	17	1	n/a	n/a	n/a	n/a	193.503	BF28NES.jpg
161.939	0.514	Blank	Blank	56.241	n/a	2	5	8	n/a	88	n/a	1	n/a	n/a	n/a	n/a	194.0	n/a
162.469	0.497	neutral	Picture	55.728	n/a	2	5	9	n/a	89	6	1	n/a	n/a	n/a	n/a	194.531	AF09NES.jpg
162.966	0.515	Blank	Blank	55.213	n/a	2	5	9	n/a	89	n/a	1	n/a	n/a	n/a	n/a	195.027	n/a
163.497	0.497	neutral	Picture	54.699	n/a	2	5	10	n/a	90	12	1	n/a	n/a	n/a	n/a	195.559	AF21NES.jpg
163.994	0.514	Blank	Blank	54.185	n/a	2	5	10	n/a	90	n/a	1	n/a	n/a	n/a	n/a	196.056	n/a
164.525	0.497	neutral	Picture	53.671	n/a	2	5	11	n/a	91	24	1	n/a	n/a	n/a	n/a	196.586	BM05NES.jpg
165.022	0.514	Blank	Blank	53.157	n/a	2	5	11	n/a	91	n/a	1	n/a	n/a	n/a	n/a	197.084	n/a
165.553	0.497	neutral	Picture	52.643	n/a	2	5	12	n/a	92	34	1	n/a	n/a	n/a	n/a	197.614	AM22NES.jpg
166.05	0.514	Blank	Blank	52.129	n/a	2	5	12	n/a	92	n/a	1	n/a	n/a	n/a	n/a	198.112	n/a
166.581	0.497	neutral	Picture	51.615	n/a	2	5	13	n/a	93	23	1	n/a	n/a	n/a	n/a	198.642	AM04NES.jpg
167.078	0.514	Blank	Blank	51.101	n/a	2	5	13	n/a	93	n/a	1	n/a	n/a	n/a	n/a	199.139	n/a
167.608	0.497	neutral	Picture	50.587	n/a	2	5	14	n/a	94	15	1	n/a	n/a	n/a	n/a	199.67	AF25NES.jpg
168.106	0.514	Blank	Blank	50.073	n/a	2	5	14	n/a	94	n/a	1	n/a	n/a	n/a	n/a	200.167	n/a
168.636	0.497	neutral	Picture	49.559	n/a	2	5	15	n/a	95	37	1	n/a	n/a	n/a	n/a	200.698	BM25NES.jpg
169.134	0.514	Blank	Blank	49.046	n/a	2	5	15	n/a	95	n/a	1	n/a	n/a	n/a	n/a	201.195	n/a
169.664	0.497	neutral	Picture	48.532	n/a	2	5	16	n/a	96	32	1	n/a	n/a	n/a	n/a	201.726	AM14NES.jpg
170.161	0.514	Blank	Blank	48.018	n/a	2	5	16	n/a	96	n/a	1	n/a	n/a	n/a	n/a	202.223	n/a
170.692	0.497	neutral	Picture	47.504	n/a	2	5	17	n/a	97	3	1	n/a	n/a	n/a	n/a	202.754	BF04NES.jpg
171.189	0.514	Blank	Blank	46.99	n/a	2	5	17	n/a	97	n/a	1	n/a	n/a	n/a	n/a	203.251	n/a
171.72	0.497	neutral	Picture	46.476	n/a	2	5	18	n/a	98	16	1	n/a	n/a	n/a	n/a	203.782	AF26NES.jpg
172.217	0.514	Blank	Blank	45.962	n/a	2	5	18	n/a	98	n/a	1	n/a	n/a	n/a	n/a	204.279	n/a
172.748	0.497	neutral	Picture	45.448	n/a	2	5	19	n/a	99	27	1	n/a	n/a	n/a	n/a	204.809	BM08NES.jpg
173.245	0.514	Blank	Blank	44.934	n/a	2	5	19	n/a	99	n/a	1	n/a	n/a	n/a	n/a	205.307	n/a
173.776	0.497	neutral	Picture	44.42	n/a	2	5	20	n/a	100	28	1	n/a	n/a	n/a	n/a	205.837	AM09NES.jpg
174.273	0.514	Blank	Blank	43.906	n/a	2	5	20	n/a	100	n/a	1	n/a	n/a	n/a	n/a	206.335	n/a
174.804	10.014	ITI	Fixation+	33.876	n/a	2	n/a	n/a	n/a	n/a	n/a	n/a	n/a	n/a	n/a	n/a	206.865	n/a
184.834	0.497	happy	Picture	33.362	n/a	2	6	1	n/a	101	81	3	n/a	n/a	n/a	n/a	216.895	AF01ANS.jpg
185.331	0.514	Blank	Blank	32.848	n/a	2	6	1	n/a	101	n/a	3	n/a	n/a	n/a	n/a	217.393	n/a
185.862	0.497	happy	Picture	32.334	n/a	2	6	2	n/a	102	120	3	n/a	n/a	n/a	n/a	217.923	AM35ANS.jpg
186.359	0.514	Blank	Blank	31.82	n/a	2	6	2	n/a	102	n/a	3	n/a	n/a	n/a	n/a	218.421	n/a
186.89	0.497	happy	Picture	31.306	n/a	2	6	3	n/a	103	114	3	n/a	n/a	n/a	n/a	218.951	AM22ANS.jpg
187.387	0.514	Blank	Blank	30.792	n/a	2	6	3	n/a	103	n/a	3	n/a	n/a	n/a	n/a	219.448	n/a
187.917	0.497	happy	Picture	30.278	n/a	2	6	4	n/a	104	109	3	n/a	n/a	n/a	n/a	219.979	AM10ANS.jpg
188.415	0.514	Blank	Blank	29.764	n/a	2	6	4	n/a	104	n/a	3	n/a	n/a	n/a	n/a	220.476	n/a
188.945	0.497	happy	Picture	29.25	n/a	2	6	5	n/a	105	96	3	n/a	n/a	n/a	n/a	221.007	AF26ANS.jpg
189.443	0.514	Blank	Blank	28.736	n/a	2	6	5	n/a	105	n/a	3	n/a	n/a	n/a	n/a	221.504	n/a
189.973	0.497	happy	Picture	28.223	n/a	2	6	6	n/a	106	82	3	n/a	n/a	n/a	n/a	222.035	AF03ANS.jpg
190.471	0.514	Blank	Blank	27.709	n/a	2	6	6	n/a	106	n/a	3	n/a	n/a	n/a	n/a	222.532	n/a
191.001	0.497	happy	Picture	27.195	n/a	2	6	7	n/a	107	97	3	n/a	n/a	n/a	n/a	223.063	BF28ANS.jpg
191.499	0.514	Blank	Blank	26.681	n/a	2	6	7	n/a	107	n/a	3	n/a	n/a	n/a	n/a	223.56	n/a
192.029	0.497	happy	Picture	26.167	n/a	2	6	8	n/a	108	115	3	n/a	n/a	n/a	n/a	224.091	AM23ANS.jpg
192.526	0.514	Blank	Blank	25.653	n/a	2	6	8	n/a	108	n/a	3	n/a	n/a	n/a	n/a	224.588	n/a
193.057	0.497	happy	Picture	25.139	n/a	2	6	9	n/a	109	91	3	n/a	n/a	n/a	n/a	225.119	AF20ANS.jpg
193.554	0.514	Blank	Blank	24.625	n/a	2	6	9	n/a	109	n/a	3	n/a	n/a	n/a	n/a	225.616	n/a
194.085	0.497	happy	Picture	24.111	n/a	2	6	10	n/a	110	87	3	n/a	n/a	n/a	n/a	226.146	BF11ANS.jpg
194.582	0.514	Blank	Blank	23.597	n/a	2	6	10	n/a	110	n/a	3	n/a	n/a	n/a	n/a	226.644	n/a
195.113	0.497	happy	Picture	23.083	n/a	2	6	11	n/a	111	85	3	n/a	n/a	n/a	n/a	227.174	BF07ANS.jpg
195.61	0.514	Blank	Blank	22.569	n/a	2	6	11	n/a	111	n/a	3	n/a	n/a	n/a	n/a	227.672	n/a
196.141	0.497	happy	Picture	22.055	n/a	2	6	12	n/a	112	110	3	n/a	n/a	n/a	n/a	228.202	AM11ANS.jpg
196.638	0.514	Blank	Blank	21.541	n/a	2	6	12	n/a	112	n/a	3	n/a	n/a	n/a	n/a	228.7	n/a
197.168	0.497	happy	Picture	21.027	n/a	2	6	13	n/a	113	111	3	n/a	n/a	n/a	n/a	229.23	BM12ANS.jpg
197.666	0.514	Blank	Blank	20.513	n/a	2	6	13	n/a	113	n/a	3	n/a	n/a	n/a	n/a	229.727	n/a
198.196	0.497	happy	Picture	19.999	n/a	2	6	14	n/a	114	103	3	n/a	n/a	n/a	n/a	230.258	AM04ANS.jpg
198.694	0.514	Blank	Blank	19.486	n/a	2	6	14	n/a	114	n/a	3	n/a	n/a	n/a	n/a	230.755	n/a
199.224	0.497	happy	Picture	18.972	n/a	2	6	15	n/a	115	101	3	n/a	n/a	n/a	n/a	231.286	AM01ANS.jpg
199.722	0.514	Blank	Blank	18.458	n/a	2	6	15	n/a	115	n/a	3	n/a	n/a	n/a	n/a	231.783	n/a
200.252	0.497	happy	Picture	17.944	n/a	2	6	16	n/a	116	104	3	n/a	n/a	n/a	n/a	232.314	BM05ANS.jpg
200.75	0.514	Blank	Blank	17.43	n/a	2	6	16	n/a	116	n/a	3	n/a	n/a	n/a	n/a	232.811	n/a
201.28	0.497	happy	Picture	16.916	n/a	2	6	17	n/a	117	107	3	n/a	n/a	n/a	n/a	233.342	BM08ANS.jpg
201.777	0.514	Blank	Blank	16.402	n/a	2	6	17	n/a	117	n/a	3	n/a	n/a	n/a	n/a	233.839	n/a
202.308	0.497	happy	Picture	15.888	n/a	2	6	18	n/a	118	98	3	n/a	n/a	n/a	n/a	234.369	BF29ANS.jpg
202.805	0.514	Blank	Blank	15.374	n/a	2	6	18	n/a	118	n/a	3	n/a	n/a	n/a	n/a	234.867	n/a
203.336	0.497	happy	Picture	14.86	n/a	2	6	19	n/a	119	99	3	n/a	n/a	n/a	n/a	235.397	AF31ANS.jpg
203.833	0.514	Blank	Blank	14.346	n/a	2	6	19	n/a	119	n/a	3	n/a	n/a	n/a	n/a	235.895	n/a
204.364	0.497	happy	Picture	13.832	n/a	2	6	20	n/a	120	108	3	n/a	n/a	n/a	n/a	236.425	AM09ANS.jpg
204.861	0.514	Blank	Blank	13.318	n/a	2	6	20	n/a	120	n/a	3	n/a	n/a	n/a	n/a	236.923	n/a
205.392	10.014	ITI	Fixation+	3.288	n/a	2	n/a	n/a	n/a	n/a	n/a	n/a	n/a	n/a	n/a	n/a	237.453	n/a
218.693	n/a	ConfirmRating	Rate	n/a	3.283	2	n/a	n/a	0	n/a	n/a	n/a	2	Happy	61	51	250.755	n/a
222.642	n/a	ConfirmRating	Rate	n/a	3.929	2	n/a	n/a	1	n/a	n/a	n/a	3	Happy	50	50	254.704	n/a
222.667	15.004	Rest	Picture	n/a	n/a	n/a	n/a	n/a	n/a	n/a	n/a	n/a	0	n/a	0	0	254.728	n/a
237.687	10.014	ITI	Fixation+	94.924	n/a	3	n/a	n/a	n/a	n/a	n/a	n/a	n/a	n/a	n/a	n/a	269.749	n/a
247.717	0.497	angry	Picture	94.41	n/a	3	7	1	n/a	1	46	2	n/a	n/a	n/a	n/a	279.779	AF09HAS.jpg
248.215	0.514	Blank	Blank	93.896	n/a	3	7	1	n/a	1	n/a	2	n/a	n/a	n/a	n/a	280.276	n/a
248.745	0.497	angry	Picture	93.382	n/a	3	7	2	n/a	2	69	2	n/a	n/a	n/a	n/a	280.807	AM10HAS.jpg
249.243	0.514	Blank	Blank	92.868	n/a	3	7	2	n/a	2	n/a	2	n/a	n/a	n/a	n/a	281.304	n/a
249.773	0.497	angry	Picture	92.355	n/a	3	7	3	n/a	3	71	2	n/a	n/a	n/a	n/a	281.835	BM12HAS.jpg
250.27	0.514	Blank	Blank	91.841	n/a	3	7	3	n/a	3	n/a	2	n/a	n/a	n/a	n/a	282.332	n/a
250.801	0.497	angry	Picture	91.327	n/a	3	7	4	n/a	4	51	2	n/a	n/a	n/a	n/a	282.863	AF20HAS.jpg
251.298	0.514	Blank	Blank	90.813	n/a	3	7	4	n/a	4	n/a	2	n/a	n/a	n/a	n/a	283.36	n/a
251.829	0.497	angry	Picture	90.299	n/a	3	7	5	n/a	5	67	2	n/a	n/a	n/a	n/a	283.89	BM08HAS.jpg
252.326	0.514	Blank	Blank	89.785	n/a	3	7	5	n/a	5	n/a	2	n/a	n/a	n/a	n/a	284.388	n/a
252.857	0.497	angry	Picture	89.271	n/a	3	7	6	n/a	6	60	2	n/a	n/a	n/a	n/a	284.918	AF32HAS.jpg
253.354	0.514	Blank	Blank	88.757	n/a	3	7	6	n/a	6	n/a	2	n/a	n/a	n/a	n/a	285.416	n/a
253.885	0.497	angry	Picture	88.243	n/a	3	7	7	n/a	7	42	2	n/a	n/a	n/a	n/a	285.946	AF03HAS.jpg
254.382	0.514	Blank	Blank	87.729	n/a	3	7	7	n/a	7	n/a	2	n/a	n/a	n/a	n/a	286.444	n/a
254.913	0.497	angry	Picture	87.215	n/a	3	7	8	n/a	8	55	2	n/a	n/a	n/a	n/a	286.974	AF25HAS.jpg
255.41	0.514	Blank	Blank	86.701	n/a	3	7	8	n/a	8	n/a	2	n/a	n/a	n/a	n/a	287.471	n/a
255.94	0.497	angry	Picture	86.187	n/a	3	7	9	n/a	9	72	2	n/a	n/a	n/a	n/a	288.002	AM14HAS.jpg
256.438	0.514	Blank	Blank	85.673	n/a	3	7	9	n/a	9	n/a	2	n/a	n/a	n/a	n/a	288.499	n/a
256.968	0.497	angry	Picture	85.159	n/a	3	7	10	n/a	10	63	2	n/a	n/a	n/a	n/a	289.03	AM04HAS.jpg
257.466	0.514	Blank	Blank	84.645	n/a	3	7	10	n/a	10	n/a	2	n/a	n/a	n/a	n/a	289.527	n/a
257.996	0.497	angry	Picture	84.131	n/a	3	7	11	n/a	11	58	2	n/a	n/a	n/a	n/a	290.058	BF29HAS.jpg
258.493	0.514	Blank	Blank	83.617	n/a	3	7	11	n/a	11	n/a	2	n/a	n/a	n/a	n/a	290.555	n/a
259.024	0.497	angry	Picture	83.103	n/a	3	7	12	n/a	12	48	2	n/a	n/a	n/a	n/a	291.086	AF14HAS.jpg
259.521	0.514	Blank	Blank	82.59	n/a	3	7	12	n/a	12	n/a	2	n/a	n/a	n/a	n/a	291.583	n/a
260.052	0.497	angry	Picture	82.076	n/a	3	7	13	n/a	13	66	2	n/a	n/a	n/a	n/a	292.113	BM07HAS.jpg
260.549	0.514	Blank	Blank	81.562	n/a	3	7	13	n/a	13	n/a	2	n/a	n/a	n/a	n/a	292.611	n/a
261.08	0.497	angry	Picture	81.048	n/a	3	7	14	n/a	14	70	2	n/a	n/a	n/a	n/a	293.141	BM11HAS.jpg
261.577	0.514	Blank	Blank	80.534	n/a	3	7	14	n/a	14	n/a	2	n/a	n/a	n/a	n/a	293.639	n/a
262.108	0.497	angry	Picture	80.02	n/a	3	7	15	n/a	15	43	2	n/a	n/a	n/a	n/a	294.169	BF04HAS.jpg
262.605	0.514	Blank	Blank	79.506	n/a	3	7	15	n/a	15	n/a	2	n/a	n/a	n/a	n/a	294.667	n/a
263.136	0.497	angry	Picture	78.992	n/a	3	7	16	n/a	16	49	2	n/a	n/a	n/a	n/a	295.197	AF17HAS.jpg
263.633	0.514	Blank	Blank	78.478	n/a	3	7	16	n/a	16	n/a	2	n/a	n/a	n/a	n/a	295.695	n/a
264.163	0.497	angry	Picture	77.964	n/a	3	7	17	n/a	17	75	2	n/a	n/a	n/a	n/a	296.225	AM23HAS.jpg
264.661	0.514	Blank	Blank	77.45	n/a	3	7	17	n/a	17	n/a	2	n/a	n/a	n/a	n/a	296.722	n/a
265.191	0.497	angry	Picture	76.936	n/a	3	7	18	n/a	18	80	2	n/a	n/a	n/a	n/a	297.253	BM35HAS.jpg
265.689	0.514	Blank	Blank	76.422	n/a	3	7	18	n/a	18	n/a	2	n/a	n/a	n/a	n/a	297.75	n/a
266.219	0.497	angry	Picture	75.908	n/a	3	7	19	n/a	19	76	2	n/a	n/a	n/a	n/a	298.281	BM24HAS.jpg
266.717	0.514	Blank	Blank	75.394	n/a	3	7	19	n/a	19	n/a	2	n/a	n/a	n/a	n/a	298.778	n/a
267.247	0.497	angry	Picture	74.88	n/a	3	7	20	n/a	20	74	2	n/a	n/a	n/a	n/a	299.309	AM22HAS.jpg
267.745	0.514	Blank	Blank	74.367	n/a	3	7	20	n/a	20	n/a	2	n/a	n/a	n/a	n/a	299.806	n/a
268.275	10.014	ITI	Fixation+	64.336	n/a	3	n/a	n/a	n/a	n/a	n/a	n/a	n/a	n/a	n/a	n/a	300.337	n/a
278.305	0.497	neutral	Picture	63.822	n/a	3	8	1	n/a	21	33	1	n/a	n/a	n/a	n/a	310.367	AM21NES.jpg
278.803	0.514	Blank	Blank	63.308	n/a	3	8	1	n/a	21	n/a	1	n/a	n/a	n/a	n/a	310.864	n/a
279.333	0.497	neutral	Picture	62.794	n/a	3	8	2	n/a	22	39	1	n/a	n/a	n/a	n/a	311.395	AM28NES.jpg
279.831	0.514	Blank	Blank	62.281	n/a	3	8	2	n/a	22	n/a	1	n/a	n/a	n/a	n/a	311.892	n/a
280.361	0.497	neutral	Picture	61.767	n/a	3	8	3	n/a	23	25	1	n/a	n/a	n/a	n/a	312.423	BM06NES.jpg
280.858	0.514	Blank	Blank	61.253	n/a	3	8	3	n/a	23	n/a	1	n/a	n/a	n/a	n/a	312.92	n/a
281.389	0.497	neutral	Picture	60.739	n/a	3	8	4	n/a	24	5	1	n/a	n/a	n/a	n/a	313.45	BF07NES.jpg
281.886	0.514	Blank	Blank	60.225	n/a	3	8	4	n/a	24	n/a	1	n/a	n/a	n/a	n/a	313.948	n/a
282.417	0.497	neutral	Picture	59.711	n/a	3	8	5	n/a	25	10	1	n/a	n/a	n/a	n/a	314.478	AF18NES.jpg
282.914	0.514	Blank	Blank	59.197	n/a	3	8	5	n/a	25	n/a	1	n/a	n/a	n/a	n/a	314.976	n/a
283.445	0.497	neutral	Picture	58.683	n/a	3	8	6	n/a	26	34	1	n/a	n/a	n/a	n/a	315.506	AM22NES.jpg
283.942	0.514	Blank	Blank	58.169	n/a	3	8	6	n/a	26	n/a	1	n/a	n/a	n/a	n/a	316.004	n/a
284.473	0.497	neutral	Picture	57.655	n/a	3	8	7	n/a	27	36	1	n/a	n/a	n/a	n/a	316.534	BM24NES.jpg
284.97	0.514	Blank	Blank	57.141	n/a	3	8	7	n/a	27	n/a	1	n/a	n/a	n/a	n/a	317.031	n/a
285.5	0.497	neutral	Picture	56.627	n/a	3	8	8	n/a	28	14	1	n/a	n/a	n/a	n/a	317.562	AF23NES.jpg
285.998	0.514	Blank	Blank	56.113	n/a	3	8	8	n/a	28	n/a	1	n/a	n/a	n/a	n/a	318.059	n/a
286.528	0.497	neutral	Picture	55.599	n/a	3	8	9	n/a	29	9	1	n/a	n/a	n/a	n/a	318.59	AF17NES.jpg
287.026	0.514	Blank	Blank	55.085	n/a	3	8	9	n/a	29	n/a	1	n/a	n/a	n/a	n/a	319.087	n/a
287.556	0.497	neutral	Picture	54.571	n/a	3	8	10	n/a	30	19	1	n/a	n/a	n/a	n/a	319.618	AF31NES.jpg
288.054	0.514	Blank	Blank	54.057	n/a	3	8	10	n/a	30	n/a	1	n/a	n/a	n/a	n/a	320.115	n/a
288.584	0.497	neutral	Picture	53.544	n/a	3	8	11	n/a	31	15	1	n/a	n/a	n/a	n/a	320.646	AF25NES.jpg
289.081	0.514	Blank	Blank	53.03	n/a	3	8	11	n/a	31	n/a	1	n/a	n/a	n/a	n/a	321.143	n/a
289.612	0.497	neutral	Picture	52.516	n/a	3	8	12	n/a	32	22	1	n/a	n/a	n/a	n/a	321.674	BM03NES.jpg
290.109	0.514	Blank	Blank	52.002	n/a	3	8	12	n/a	32	n/a	1	n/a	n/a	n/a	n/a	322.171	n/a
290.64	0.497	neutral	Picture	51.488	n/a	3	8	13	n/a	33	11	1	n/a	n/a	n/a	n/a	322.702	AF20NES.jpg
291.137	0.514	Blank	Blank	50.974	n/a	3	8	13	n/a	33	n/a	1	n/a	n/a	n/a	n/a	323.199	n/a
291.668	0.497	neutral	Picture	50.46	n/a	3	8	14	n/a	34	4	1	n/a	n/a	n/a	n/a	323.729	AF05NES.jpg
292.165	0.514	Blank	Blank	49.946	n/a	3	8	14	n/a	34	n/a	1	n/a	n/a	n/a	n/a	324.227	n/a
292.696	0.497	neutral	Picture	49.432	n/a	3	8	15	n/a	35	17	1	n/a	n/a	n/a	n/a	324.757	BF28NES.jpg
293.193	0.514	Blank	Blank	48.918	n/a	3	8	15	n/a	35	n/a	1	n/a	n/a	n/a	n/a	325.255	n/a
293.724	0.497	neutral	Picture	48.404	n/a	3	8	16	n/a	36	13	1	n/a	n/a	n/a	n/a	325.785	BF22NES.jpg
294.221	0.514	Blank	Blank	47.89	n/a	3	8	16	n/a	36	n/a	1	n/a	n/a	n/a	n/a	326.283	n/a
294.751	0.497	neutral	Picture	47.376	n/a	3	8	17	n/a	37	12	1	n/a	n/a	n/a	n/a	326.813	AF21NES.jpg
295.249	0.514	Blank	Blank	46.862	n/a	3	8	17	n/a	37	n/a	1	n/a	n/a	n/a	n/a	327.31	n/a
295.779	0.497	neutral	Picture	46.348	n/a	3	8	18	n/a	38	24	1	n/a	n/a	n/a	n/a	327.841	BM05NES.jpg
296.277	0.514	Blank	Blank	45.834	n/a	3	8	18	n/a	38	n/a	1	n/a	n/a	n/a	n/a	328.338	n/a
296.807	0.497	neutral	Picture	45.32	n/a	3	8	19	n/a	39	29	1	n/a	n/a	n/a	n/a	328.869	AM10NES.jpg
297.305	0.514	Blank	Blank	44.806	n/a	3	8	19	n/a	39	n/a	1	n/a	n/a	n/a	n/a	329.366	n/a
297.835	0.497	neutral	Picture	44.293	n/a	3	8	20	n/a	40	23	1	n/a	n/a	n/a	n/a	329.897	AM04NES.jpg
298.332	0.514	Blank	Blank	43.779	n/a	3	8	20	n/a	40	n/a	1	n/a	n/a	n/a	n/a	330.394	n/a
298.863	10.014	ITI	Fixation+	33.748	n/a	3	n/a	n/a	n/a	n/a	n/a	n/a	n/a	n/a	n/a	n/a	330.925	n/a
308.893	0.497	angry	Picture	33.234	n/a	3	9	1	n/a	41	62	2	n/a	n/a	n/a	n/a	340.955	BM03HAS.jpg
309.39	0.514	Blank	Blank	32.721	n/a	3	9	1	n/a	41	n/a	2	n/a	n/a	n/a	n/a	341.452	n/a
309.921	0.497	angry	Picture	32.207	n/a	3	9	2	n/a	42	52	2	n/a	n/a	n/a	n/a	341.983	AF21HAS.jpg
310.418	0.514	Blank	Blank	31.693	n/a	3	9	2	n/a	42	n/a	2	n/a	n/a	n/a	n/a	342.48	n/a
310.949	0.497	angry	Picture	31.179	n/a	3	9	3	n/a	43	44	2	n/a	n/a	n/a	n/a	343.01	AF05HAS.jpg
311.446	0.514	Blank	Blank	30.665	n/a	3	9	3	n/a	43	n/a	2	n/a	n/a	n/a	n/a	343.508	n/a
311.977	0.497	angry	Picture	30.151	n/a	3	9	4	n/a	44	53	2	n/a	n/a	n/a	n/a	344.038	BF22HAS.jpg
312.474	0.514	Blank	Blank	29.637	n/a	3	9	4	n/a	44	n/a	2	n/a	n/a	n/a	n/a	344.536	n/a
313.005	0.497	angry	Picture	29.123	n/a	3	9	5	n/a	45	54	2	n/a	n/a	n/a	n/a	345.066	AF23HAS.jpg
313.502	0.514	Blank	Blank	28.609	n/a	3	9	5	n/a	45	n/a	2	n/a	n/a	n/a	n/a	345.564	n/a
314.033	0.497	angry	Picture	28.095	n/a	3	9	6	n/a	46	68	2	n/a	n/a	n/a	n/a	346.094	AM09HAS.jpg
314.53	0.514	Blank	Blank	27.581	n/a	3	9	6	n/a	46	n/a	2	n/a	n/a	n/a	n/a	346.591	n/a
315.06	0.497	angry	Picture	27.067	n/a	3	9	7	n/a	47	64	2	n/a	n/a	n/a	n/a	347.122	BM05HAS.jpg
315.558	0.514	Blank	Blank	26.553	n/a	3	9	7	n/a	47	n/a	2	n/a	n/a	n/a	n/a	347.619	n/a
316.088	0.497	angry	Picture	26.039	n/a	3	9	8	n/a	48	59	2	n/a	n/a	n/a	n/a	348.15	AF31HAS.jpg
316.586	0.514	Blank	Blank	25.525	n/a	3	9	8	n/a	48	n/a	2	n/a	n/a	n/a	n/a	348.647	n/a
317.116	0.497	angry	Picture	25.011	n/a	3	9	9	n/a	49	41	2	n/a	n/a	n/a	n/a	349.178	AF01HAS.jpg
317.614	0.514	Blank	Blank	24.497	n/a	3	9	9	n/a	49	n/a	2	n/a	n/a	n/a	n/a	349.675	n/a
318.144	0.497	angry	Picture	23.983	n/a	3	9	10	n/a	50	73	2	n/a	n/a	n/a	n/a	350.206	AM21HAS.jpg
318.642	0.514	Blank	Blank	23.47	n/a	3	9	10	n/a	50	n/a	2	n/a	n/a	n/a	n/a	350.703	n/a
319.172	0.497	angry	Picture	22.955	n/a	3	9	11	n/a	51	65	2	n/a	n/a	n/a	n/a	351.234	BM06HAS.jpg
319.669	0.514	Blank	Blank	22.442	n/a	3	9	11	n/a	51	n/a	2	n/a	n/a	n/a	n/a	351.731	n/a
320.2	0.497	angry	Picture	21.928	n/a	3	9	12	n/a	52	56	2	n/a	n/a	n/a	n/a	352.262	AF26HAS.jpg
320.697	0.514	Blank	Blank	21.414	n/a	3	9	12	n/a	52	n/a	2	n/a	n/a	n/a	n/a	352.759	n/a
321.228	0.497	angry	Picture	20.9	n/a	3	9	13	n/a	53	45	2	n/a	n/a	n/a	n/a	353.289	BF07HAS.jpg
321.725	0.514	Blank	Blank	20.386	n/a	3	9	13	n/a	53	n/a	2	n/a	n/a	n/a	n/a	353.787	n/a
322.256	0.497	angry	Picture	19.872	n/a	3	9	14	n/a	54	78	2	n/a	n/a	n/a	n/a	354.317	BM26HAS.jpg
322.753	0.514	Blank	Blank	19.358	n/a	3	9	14	n/a	54	n/a	2	n/a	n/a	n/a	n/a	354.815	n/a
323.284	0.497	angry	Picture	18.844	n/a	3	9	15	n/a	55	50	2	n/a	n/a	n/a	n/a	355.345	AF18HAS.jpg
323.781	0.514	Blank	Blank	18.33	n/a	3	9	15	n/a	55	n/a	2	n/a	n/a	n/a	n/a	355.842	n/a
324.311	0.497	angry	Picture	17.816	n/a	3	9	16	n/a	56	47	2	n/a	n/a	n/a	n/a	356.373	BF11HAS.jpg
324.809	0.514	Blank	Blank	17.302	n/a	3	9	16	n/a	56	n/a	2	n/a	n/a	n/a	n/a	356.87	n/a
325.339	0.497	angry	Picture	16.788	n/a	3	9	17	n/a	57	77	2	n/a	n/a	n/a	n/a	357.401	BM25HAS.jpg
325.837	0.514	Blank	Blank	16.274	n/a	3	9	17	n/a	57	n/a	2	n/a	n/a	n/a	n/a	357.898	n/a
326.367	0.497	angry	Picture	15.76	n/a	3	9	18	n/a	58	57	2	n/a	n/a	n/a	n/a	358.429	BF28HAS.jpg
326.865	0.514	Blank	Blank	15.246	n/a	3	9	18	n/a	58	n/a	2	n/a	n/a	n/a	n/a	358.926	n/a
327.395	0.497	angry	Picture	14.732	n/a	3	9	19	n/a	59	61	2	n/a	n/a	n/a	n/a	359.457	AM01HAS.jpg
327.892	0.514	Blank	Blank	14.219	n/a	3	9	19	n/a	59	n/a	2	n/a	n/a	n/a	n/a	359.954	n/a
328.423	0.497	angry	Picture	13.704	n/a	3	9	20	n/a	60	79	2	n/a	n/a	n/a	n/a	360.485	BM28HAS.jpg
328.92	0.514	Blank	Blank	13.191	n/a	3	9	20	n/a	60	n/a	2	n/a	n/a	n/a	n/a	360.982	n/a
329.451	10.014	ITI	Fixation+	3.16	n/a	3	n/a	n/a	n/a	n/a	n/a	n/a	n/a	n/a	n/a	n/a	361.512	n/a
342.625	n/a	ConfirmRating	Rate	n/a	3.15	3	n/a	n/a	0	n/a	n/a	n/a	2	Angry	22	47	374.687	n/a
345.015	n/a	ConfirmRating	Rate	n/a	2.371	3	n/a	n/a	1	n/a	n/a	n/a	3	Angry	63	51	377.077	n/a
345.035	10.014	ITI	Fixation+	93.694	n/a	4	n/a	n/a	n/a	n/a	n/a	n/a	n/a	n/a	n/a	n/a	377.097	n/a
355.065	0.497	happy	Picture	93.18	n/a	4	10	1	n/a	61	119	3	n/a	n/a	n/a	n/a	387.127	BM28ANS.jpg
355.563	0.514	Blank	Blank	92.666	n/a	4	10	1	n/a	61	n/a	3	n/a	n/a	n/a	n/a	387.624	n/a
356.093	0.497	happy	Picture	92.152	n/a	4	10	2	n/a	62	100	3	n/a	n/a	n/a	n/a	388.155	AF32ANS.jpg
356.59	0.514	Blank	Blank	91.638	n/a	4	10	2	n/a	62	n/a	3	n/a	n/a	n/a	n/a	388.652	n/a
357.121	0.497	happy	Picture	91.124	n/a	4	10	3	n/a	63	118	3	n/a	n/a	n/a	n/a	389.183	BM26ANS.jpg
357.618	0.514	Blank	Blank	90.611	n/a	4	10	3	n/a	63	n/a	3	n/a	n/a	n/a	n/a	389.68	n/a
358.149	0.497	happy	Picture	90.097	n/a	4	10	4	n/a	64	89	3	n/a	n/a	n/a	n/a	390.21	AF17ANS.jpg
358.646	0.514	Blank	Blank	89.583	n/a	4	10	4	n/a	64	n/a	3	n/a	n/a	n/a	n/a	390.708	n/a
359.177	0.497	happy	Picture	89.069	n/a	4	10	5	n/a	65	116	3	n/a	n/a	n/a	n/a	391.238	BM24ANS.jpg
359.674	0.514	Blank	Blank	88.555	n/a	4	10	5	n/a	65	n/a	3	n/a	n/a	n/a	n/a	391.736	n/a
360.205	0.497	happy	Picture	88.041	n/a	4	10	6	n/a	66	105	3	n/a	n/a	n/a	n/a	392.266	BM06ANS.jpg
360.702	0.514	Blank	Blank	87.527	n/a	4	10	6	n/a	66	n/a	3	n/a	n/a	n/a	n/a	392.764	n/a
361.233	0.497	happy	Picture	87.013	n/a	4	10	7	n/a	67	106	3	n/a	n/a	n/a	n/a	393.294	AM07ANS.jpg
361.73	0.514	Blank	Blank	86.499	n/a	4	10	7	n/a	67	n/a	3	n/a	n/a	n/a	n/a	393.791	n/a
362.26	0.497	happy	Picture	85.985	n/a	4	10	8	n/a	68	94	3	n/a	n/a	n/a	n/a	394.322	AF23ANS.jpg
362.758	0.514	Blank	Blank	85.471	n/a	4	10	8	n/a	68	n/a	3	n/a	n/a	n/a	n/a	394.819	n/a
363.288	0.497	happy	Picture	84.957	n/a	4	10	9	n/a	69	117	3	n/a	n/a	n/a	n/a	395.35	BM25ANS.jpg
363.786	0.514	Blank	Blank	84.443	n/a	4	10	9	n/a	69	n/a	3	n/a	n/a	n/a	n/a	395.847	n/a
364.316	0.497	happy	Picture	83.929	n/a	4	10	10	n/a	70	90	3	n/a	n/a	n/a	n/a	396.378	AF18ANS.jpg
364.813	0.514	Blank	Blank	83.415	n/a	4	10	10	n/a	70	n/a	3	n/a	n/a	n/a	n/a	396.875	n/a
365.344	0.497	happy	Picture	82.901	n/a	4	10	11	n/a	71	83	3	n/a	n/a	n/a	n/a	397.406	BF04ANS.jpg
365.841	0.514	Blank	Blank	82.387	n/a	4	10	11	n/a	71	n/a	3	n/a	n/a	n/a	n/a	397.903	n/a
366.372	0.497	happy	Picture	81.873	n/a	4	10	12	n/a	72	112	3	n/a	n/a	n/a	n/a	398.433	AM14ANS.jpg
366.869	0.514	Blank	Blank	81.36	n/a	4	10	12	n/a	72	n/a	3	n/a	n/a	n/a	n/a	398.931	n/a
367.4	0.497	happy	Picture	80.846	n/a	4	10	13	n/a	73	102	3	n/a	n/a	n/a	n/a	399.461	BM03ANS.jpg
367.897	0.514	Blank	Blank	80.332	n/a	4	10	13	n/a	73	n/a	3	n/a	n/a	n/a	n/a	399.959	n/a
368.428	0.497	happy	Picture	79.818	n/a	4	10	14	n/a	74	95	3	n/a	n/a	n/a	n/a	400.489	AF25ANS.jpg
368.925	0.514	Blank	Blank	79.304	n/a	4	10	14	n/a	74	n/a	3	n/a	n/a	n/a	n/a	400.987	n/a
369.456	0.497	happy	Picture	78.79	n/a	4	10	15	n/a	75	113	3	n/a	n/a	n/a	n/a	401.517	AM21ANS.jpg
369.953	0.514	Blank	Blank	78.276	n/a	4	10	15	n/a	75	n/a	3	n/a	n/a	n/a	n/a	402.014	n/a
370.483	0.497	happy	Picture	77.762	n/a	4	10	16	n/a	76	88	3	n/a	n/a	n/a	n/a	402.545	AF14ANS.jpg
370.981	0.514	Blank	Blank	77.248	n/a	4	10	16	n/a	76	n/a	3	n/a	n/a	n/a	n/a	403.042	n/a
371.511	0.497	happy	Picture	76.734	n/a	4	10	17	n/a	77	93	3	n/a	n/a	n/a	n/a	403.573	BF22ANS.jpg
372.009	0.514	Blank	Blank	76.22	n/a	4	10	17	n/a	77	n/a	3	n/a	n/a	n/a	n/a	404.07	n/a
372.539	0.497	happy	Picture	75.706	n/a	4	10	18	n/a	78	86	3	n/a	n/a	n/a	n/a	404.601	AF09ANS.jpg
373.037	0.514	Blank	Blank	75.192	n/a	4	10	18	n/a	78	n/a	3	n/a	n/a	n/a	n/a	405.098	n/a
373.567	0.497	happy	Picture	74.678	n/a	4	10	19	n/a	79	92	3	n/a	n/a	n/a	n/a	405.629	AF21ANS.jpg
374.065	0.514	Blank	Blank	74.164	n/a	4	10	19	n/a	79	n/a	3	n/a	n/a	n/a	n/a	406.126	n/a
374.595	0.497	happy	Picture	73.65	n/a	4	10	20	n/a	80	84	3	n/a	n/a	n/a	n/a	406.657	AF05ANS.jpg
375.092	0.514	Blank	Blank	73.137	n/a	4	10	20	n/a	80	n/a	3	n/a	n/a	n/a	n/a	407.154	n/a
375.623	10.014	ITI	Fixation+	63.106	n/a	4	n/a	n/a	n/a	n/a	n/a	n/a	n/a	n/a	n/a	n/a	407.685	n/a
385.653	0.497	neutral	Picture	62.592	n/a	4	11	1	n/a	81	4	1	n/a	n/a	n/a	n/a	417.715	AF05NES.jpg
386.15	0.514	Blank	Blank	62.078	n/a	4	11	1	n/a	81	n/a	1	n/a	n/a	n/a	n/a	418.212	n/a
386.681	0.497	neutral	Picture	61.565	n/a	4	11	2	n/a	82	14	1	n/a	n/a	n/a	n/a	418.743	AF23NES.jpg
387.178	0.514	Blank	Blank	61.05	n/a	4	11	2	n/a	82	n/a	1	n/a	n/a	n/a	n/a	419.24	n/a
387.709	0.497	neutral	Picture	60.537	n/a	4	11	3	n/a	83	19	1	n/a	n/a	n/a	n/a	419.771	AF31NES.jpg
388.206	0.514	Blank	Blank	60.023	n/a	4	11	3	n/a	83	n/a	1	n/a	n/a	n/a	n/a	420.268	n/a
388.737	0.497	neutral	Picture	59.509	n/a	4	11	4	n/a	84	8	1	n/a	n/a	n/a	n/a	420.798	AF14NES.jpg
389.234	0.514	Blank	Blank	58.995	n/a	4	11	4	n/a	84	n/a	1	n/a	n/a	n/a	n/a	421.296	n/a
389.765	0.497	neutral	Picture	58.481	n/a	4	11	5	n/a	85	25	1	n/a	n/a	n/a	n/a	421.826	BM06NES.jpg
390.262	0.514	Blank	Blank	57.967	n/a	4	11	5	n/a	85	n/a	1	n/a	n/a	n/a	n/a	422.324	n/a
390.793	0.497	neutral	Picture	57.453	n/a	4	11	6	n/a	86	9	1	n/a	n/a	n/a	n/a	422.854	AF17NES.jpg
391.29	0.514	Blank	Blank	56.939	n/a	4	11	6	n/a	86	n/a	1	n/a	n/a	n/a	n/a	423.351	n/a
391.82	0.497	neutral	Picture	56.425	n/a	4	11	7	n/a	87	2	1	n/a	n/a	n/a	n/a	423.882	AF03NES.jpg
392.318	0.514	Blank	Blank	55.911	n/a	4	11	7	n/a	87	n/a	1	n/a	n/a	n/a	n/a	424.379	n/a
392.848	0.497	neutral	Picture	55.397	n/a	4	11	8	n/a	88	17	1	n/a	n/a	n/a	n/a	424.91	BF28NES.jpg
393.346	0.514	Blank	Blank	54.883	n/a	4	11	8	n/a	88	n/a	1	n/a	n/a	n/a	n/a	425.407	n/a
393.876	0.497	neutral	Picture	54.369	n/a	4	11	9	n/a	89	6	1	n/a	n/a	n/a	n/a	425.938	AF09NES.jpg
394.373	0.514	Blank	Blank	53.855	n/a	4	11	9	n/a	89	n/a	1	n/a	n/a	n/a	n/a	426.435	n/a
394.904	0.497	neutral	Picture	53.341	n/a	4	11	10	n/a	90	12	1	n/a	n/a	n/a	n/a	426.966	AF21NES.jpg
395.401	0.514	Blank	Blank	52.827	n/a	4	11	10	n/a	90	n/a	1	n/a	n/a	n/a	n/a	427.463	n/a
395.932	0.497	neutral	Picture	52.313	n/a	4	11	11	n/a	91	24	1	n/a	n/a	n/a	n/a	427.994	BM05NES.jpg
396.429	0.514	Blank	Blank	51.799	n/a	4	11	11	n/a	91	n/a	1	n/a	n/a	n/a	n/a	428.491	n/a
396.959	0.498	neutral	Picture	51.286	n/a	4	11	12	n/a	92	34	1	n/a	n/a	n/a	n/a	429.021	AM22NES.jpg
397.457	0.514	Blank	Blank	50.772	n/a	4	11	12	n/a	92	n/a	1	n/a	n/a	n/a	n/a	429.519	n/a
397.988	0.497	neutral	Picture	50.258	n/a	4	11	13	n/a	93	23	1	n/a	n/a	n/a	n/a	430.049	AM04NES.jpg
398.485	0.514	Blank	Blank	49.744	n/a	4	11	13	n/a	93	n/a	1	n/a	n/a	n/a	n/a	430.547	n/a
399.016	0.497	neutral	Picture	49.23	n/a	4	11	14	n/a	94	15	1	n/a	n/a	n/a	n/a	431.077	AF25NES.jpg
399.513	0.514	Blank	Blank	48.716	n/a	4	11	14	n/a	94	n/a	1	n/a	n/a	n/a	n/a	431.575	n/a
400.043	0.497	neutral	Picture	48.202	n/a	4	11	15	n/a	95	37	1	n/a	n/a	n/a	n/a	432.105	BM25NES.jpg
400.541	0.514	Blank	Blank	47.688	n/a	4	11	15	n/a	95	n/a	1	n/a	n/a	n/a	n/a	432.603	n/a
401.071	0.497	neutral	Picture	47.174	n/a	4	11	16	n/a	96	32	1	n/a	n/a	n/a	n/a	433.133	AM14NES.jpg
401.569	0.514	Blank	Blank	46.66	n/a	4	11	16	n/a	96	n/a	1	n/a	n/a	n/a	n/a	433.63	n/a
402.099	0.497	neutral	Picture	46.146	n/a	4	11	17	n/a	97	3	1	n/a	n/a	n/a	n/a	434.161	BF04NES.jpg
402.597	0.514	Blank	Blank	45.632	n/a	4	11	17	n/a	97	n/a	1	n/a	n/a	n/a	n/a	434.658	n/a
403.127	0.497	neutral	Picture	45.118	n/a	4	11	18	n/a	98	16	1	n/a	n/a	n/a	n/a	435.189	AF26NES.jpg
403.625	0.514	Blank	Blank	44.604	n/a	4	11	18	n/a	98	n/a	1	n/a	n/a	n/a	n/a	435.686	n/a
404.155	0.497	neutral	Picture	44.09	n/a	4	11	19	n/a	99	27	1	n/a	n/a	n/a	n/a	436.217	BM08NES.jpg
404.652	0.514	Blank	Blank	43.576	n/a	4	11	19	n/a	99	n/a	1	n/a	n/a	n/a	n/a	436.714	n/a
405.183	0.497	neutral	Picture	43.062	n/a	4	11	20	n/a	100	28	1	n/a	n/a	n/a	n/a	437.245	AM09NES.jpg
405.68	0.514	Blank	Blank	42.549	n/a	4	11	20	n/a	100	n/a	1	n/a	n/a	n/a	n/a	437.742	n/a
406.211	10.014	ITI	Fixation+	32.518	n/a	4	n/a	n/a	n/a	n/a	n/a	n/a	n/a	n/a	n/a	n/a	438.272	n/a
416.241	0.497	happy	Picture	32.004	n/a	4	12	1	n/a	101	81	3	n/a	n/a	n/a	n/a	448.303	AF01ANS.jpg
416.738	0.514	Blank	Blank	31.49	n/a	4	12	1	n/a	101	n/a	3	n/a	n/a	n/a	n/a	448.8	n/a
417.269	0.497	happy	Picture	30.976	n/a	4	12	2	n/a	102	120	3	n/a	n/a	n/a	n/a	449.33	AM35ANS.jpg
417.766	0.514	Blank	Blank	30.463	n/a	4	12	2	n/a	102	n/a	3	n/a	n/a	n/a	n/a	449.828	n/a
418.297	0.497	happy	Picture	29.949	n/a	4	12	3	n/a	103	114	3	n/a	n/a	n/a	n/a	450.358	AM22ANS.jpg
418.794	0.514	Blank	Blank	29.435	n/a	4	12	3	n/a	103	n/a	3	n/a	n/a	n/a	n/a	450.856	n/a
419.325	0.497	happy	Picture	28.921	n/a	4	12	4	n/a	104	109	3	n/a	n/a	n/a	n/a	451.386	AM10ANS.jpg
419.822	0.514	Blank	Blank	28.407	n/a	4	12	4	n/a	104	n/a	3	n/a	n/a	n/a	n/a	451.884	n/a
420.353	0.497	happy	Picture	27.893	n/a	4	12	5	n/a	105	96	3	n/a	n/a	n/a	n/a	452.414	AF26ANS.jpg
420.85	0.514	Blank	Blank	27.379	n/a	4	12	5	n/a	105	n/a	3	n/a	n/a	n/a	n/a	452.911	n/a
421.38	0.497	happy	Picture	26.865	n/a	4	12	6	n/a	106	82	3	n/a	n/a	n/a	n/a	453.442	AF03ANS.jpg
421.878	0.514	Blank	Blank	26.351	n/a	4	12	6	n/a	106	n/a	3	n/a	n/a	n/a	n/a	453.939	n/a
422.408	0.497	happy	Picture	25.837	n/a	4	12	7	n/a	107	97	3	n/a	n/a	n/a	n/a	454.47	BF28ANS.jpg
422.906	0.514	Blank	Blank	25.323	n/a	4	12	7	n/a	107	n/a	3	n/a	n/a	n/a	n/a	454.967	n/a
423.436	0.497	happy	Picture	24.809	n/a	4	12	8	n/a	108	115	3	n/a	n/a	n/a	n/a	455.498	AM23ANS.jpg
423.934	0.514	Blank	Blank	24.295	n/a	4	12	8	n/a	108	n/a	3	n/a	n/a	n/a	n/a	455.995	n/a
424.464	0.497	happy	Picture	23.782	n/a	4	12	9	n/a	109	91	3	n/a	n/a	n/a	n/a	456.526	AF20ANS.jpg
424.961	0.515	Blank	Blank	23.267	n/a	4	12	9	n/a	109	n/a	3	n/a	n/a	n/a	n/a	457.022	n/a
425.492	0.497	happy	Picture	22.753	n/a	4	12	10	n/a	110	87	3	n/a	n/a	n/a	n/a	457.554	BF11ANS.jpg
425.989	0.514	Blank	Blank	22.24	n/a	4	12	10	n/a	110	n/a	3	n/a	n/a	n/a	n/a	458.051	n/a
426.52	0.497	happy	Picture	21.726	n/a	4	12	11	n/a	111	85	3	n/a	n/a	n/a	n/a	458.582	BF07ANS.jpg
427.017	0.514	Blank	Blank	21.212	n/a	4	12	11	n/a	111	n/a	3	n/a	n/a	n/a	n/a	459.079	n/a
427.548	0.497	happy	Picture	20.698	n/a	4	12	12	n/a	112	110	3	n/a	n/a	n/a	n/a	459.609	AM11ANS.jpg
428.045	0.514	Blank	Blank	20.184	n/a	4	12	12	n/a	112	n/a	3	n/a	n/a	n/a	n/a	460.107	n/a
428.576	0.497	happy	Picture	19.67	n/a	4	12	13	n/a	113	111	3	n/a	n/a	n/a	n/a	460.637	BM12ANS.jpg
429.073	0.514	Blank	Blank	19.156	n/a	4	12	13	n/a	113	n/a	3	n/a	n/a	n/a	n/a	461.135	n/a
429.603	0.497	happy	Picture	18.642	n/a	4	12	14	n/a	114	103	3	n/a	n/a	n/a	n/a	461.665	AM04ANS.jpg
430.101	0.514	Blank	Blank	18.128	n/a	4	12	14	n/a	114	n/a	3	n/a	n/a	n/a	n/a	462.163	n/a
430.631	0.497	happy	Picture	17.614	n/a	4	12	15	n/a	115	101	3	n/a	n/a	n/a	n/a	462.693	AM01ANS.jpg
431.129	0.514	Blank	Blank	17.1	n/a	4	12	15	n/a	115	n/a	3	n/a	n/a	n/a	n/a	463.19	n/a
431.659	0.497	happy	Picture	16.586	n/a	4	12	16	n/a	116	104	3	n/a	n/a	n/a	n/a	463.721	BM05ANS.jpg
432.157	0.514	Blank	Blank	16.072	n/a	4	12	16	n/a	116	n/a	3	n/a	n/a	n/a	n/a	464.218	n/a
432.687	0.497	happy	Picture	15.558	n/a	4	12	17	n/a	117	107	3	n/a	n/a	n/a	n/a	464.749	BM08ANS.jpg
433.185	0.514	Blank	Blank	15.044	n/a	4	12	17	n/a	117	n/a	3	n/a	n/a	n/a	n/a	465.246	n/a
433.715	0.497	happy	Picture	14.53	n/a	4	12	18	n/a	118	98	3	n/a	n/a	n/a	n/a	465.777	BF29ANS.jpg
434.212	0.514	Blank	Blank	14.016	n/a	4	12	18	n/a	118	n/a	3	n/a	n/a	n/a	n/a	466.274	n/a
434.743	0.497	happy	Picture	13.502	n/a	4	12	19	n/a	119	99	3	n/a	n/a	n/a	n/a	466.805	AF31ANS.jpg
435.24	0.514	Blank	Blank	12.988	n/a	4	12	19	n/a	119	n/a	3	n/a	n/a	n/a	n/a	467.302	n/a
435.771	0.497	happy	Picture	12.475	n/a	4	12	20	n/a	120	108	3	n/a	n/a	n/a	n/a	467.832	AM09ANS.jpg
436.268	0.514	Blank	Blank	11.961	n/a	4	12	20	n/a	120	n/a	3	n/a	n/a	n/a	n/a	468.33	n/a
436.799	10.014	ITI	Fixation+	1.93	n/a	4	n/a	n/a	n/a	n/a	n/a	n/a	n/a	n/a	n/a	n/a	468.86	n/a
448.743	n/a	ConfirmRating	Rate	n/a	1.923	4	n/a	n/a	0	n/a	n/a	n/a	2	Happy	50	50	480.804	n/a
450.4	n/a	ConfirmRating	Rate	n/a	1.641	4	n/a	n/a	1	n/a	n/a	n/a	3	Happy	66	51	482.461	n/a
