onset	duration	trial_type	event_type	time_until_response	response_time	trial_number	block_num_within_trial	image_seq_num_within_block	question_seq_num_within_block	image_seq_num	picture_number	condition	question_type	block_type	rating	rating_computed	onset_uncorrected	KDEV_imagefile
0.002	10.014	ITI	Fixation+	100.76	n/a	1	n/a	n/a	n/a	n/a	n/a	n/a	n/a	n/a	n/a	n/a	29.389	n/a
10.033	0.497	angry	Picture	100.246	n/a	1	1	1	n/a	1	108	3	n/a	n/a	n/a	n/a	39.419	AM09ANS.jpg
10.53	0.514	Blank	Blank	99.732	n/a	1	1	1	n/a	1	n/a	3	n/a	n/a	n/a	n/a	39.916	n/a
11.061	0.497	angry	Picture	99.218	n/a	1	1	2	n/a	2	99	3	n/a	n/a	n/a	n/a	40.447	AF31ANS.jpg
11.558	0.514	Blank	Blank	98.704	n/a	1	1	2	n/a	2	n/a	3	n/a	n/a	n/a	n/a	40.944	n/a
12.088	0.497	angry	Picture	98.19	n/a	1	1	3	n/a	3	98	3	n/a	n/a	n/a	n/a	41.475	BF29ANS.jpg
12.586	0.514	Blank	Blank	97.676	n/a	1	1	3	n/a	3	n/a	3	n/a	n/a	n/a	n/a	41.972	n/a
13.116	0.497	angry	Picture	97.162	n/a	1	1	4	n/a	4	107	3	n/a	n/a	n/a	n/a	42.503	BM08ANS.jpg
13.614	0.514	Blank	Blank	96.648	n/a	1	1	4	n/a	4	n/a	3	n/a	n/a	n/a	n/a	43.0	n/a
14.144	0.497	angry	Picture	96.134	n/a	1	1	5	n/a	5	104	3	n/a	n/a	n/a	n/a	43.531	BM05ANS.jpg
14.641	0.514	Blank	Blank	95.62	n/a	1	1	5	n/a	5	n/a	3	n/a	n/a	n/a	n/a	44.028	n/a
15.172	0.497	angry	Picture	95.106	n/a	1	1	6	n/a	6	101	3	n/a	n/a	n/a	n/a	44.559	AM01ANS.jpg
15.669	0.514	Blank	Blank	94.592	n/a	1	1	6	n/a	6	n/a	3	n/a	n/a	n/a	n/a	45.056	n/a
16.2	0.497	angry	Picture	94.078	n/a	1	1	7	n/a	7	103	3	n/a	n/a	n/a	n/a	45.586	AM04ANS.jpg
16.697	0.514	Blank	Blank	93.565	n/a	1	1	7	n/a	7	n/a	3	n/a	n/a	n/a	n/a	46.084	n/a
17.228	0.497	angry	Picture	93.051	n/a	1	1	8	n/a	8	111	3	n/a	n/a	n/a	n/a	46.614	BM12ANS.jpg
17.725	0.514	Blank	Blank	92.537	n/a	1	1	8	n/a	8	n/a	3	n/a	n/a	n/a	n/a	47.112	n/a
18.256	0.497	angry	Picture	92.023	n/a	1	1	9	n/a	9	110	3	n/a	n/a	n/a	n/a	47.642	AM11ANS.jpg
18.753	0.514	Blank	Blank	91.509	n/a	1	1	9	n/a	9	n/a	3	n/a	n/a	n/a	n/a	48.139	n/a
19.284	0.497	angry	Picture	90.995	n/a	1	1	10	n/a	10	85	3	n/a	n/a	n/a	n/a	48.67	BF07ANS.jpg
19.781	0.514	Blank	Blank	90.481	n/a	1	1	10	n/a	10	n/a	3	n/a	n/a	n/a	n/a	49.167	n/a
20.311	0.497	angry	Picture	89.967	n/a	1	1	11	n/a	11	87	3	n/a	n/a	n/a	n/a	49.698	BF11ANS.jpg
20.809	0.514	Blank	Blank	89.453	n/a	1	1	11	n/a	11	n/a	3	n/a	n/a	n/a	n/a	50.195	n/a
21.339	0.497	angry	Picture	88.939	n/a	1	1	12	n/a	12	91	3	n/a	n/a	n/a	n/a	50.726	AF20ANS.jpg
21.837	0.514	Blank	Blank	88.425	n/a	1	1	12	n/a	12	n/a	3	n/a	n/a	n/a	n/a	51.223	n/a
22.367	0.497	angry	Picture	87.911	n/a	1	1	13	n/a	13	115	3	n/a	n/a	n/a	n/a	51.754	AM23ANS.jpg
22.865	0.514	Blank	Blank	87.397	n/a	1	1	13	n/a	13	n/a	3	n/a	n/a	n/a	n/a	52.251	n/a
23.395	0.497	angry	Picture	86.883	n/a	1	1	14	n/a	14	97	3	n/a	n/a	n/a	n/a	52.782	BF28ANS.jpg
23.893	0.514	Blank	Blank	86.369	n/a	1	1	14	n/a	14	n/a	3	n/a	n/a	n/a	n/a	53.279	n/a
24.423	0.497	angry	Picture	85.855	n/a	1	1	15	n/a	15	82	3	n/a	n/a	n/a	n/a	53.809	AF03ANS.jpg
24.92	0.514	Blank	Blank	85.341	n/a	1	1	15	n/a	15	n/a	3	n/a	n/a	n/a	n/a	54.307	n/a
25.451	0.497	angry	Picture	84.828	n/a	1	1	16	n/a	16	96	3	n/a	n/a	n/a	n/a	54.837	AF26ANS.jpg
25.948	0.514	Blank	Blank	84.314	n/a	1	1	16	n/a	16	n/a	3	n/a	n/a	n/a	n/a	55.335	n/a
26.479	0.497	angry	Picture	83.8	n/a	1	1	17	n/a	17	109	3	n/a	n/a	n/a	n/a	55.865	AM10ANS.jpg
26.976	0.514	Blank	Blank	83.286	n/a	1	1	17	n/a	17	n/a	3	n/a	n/a	n/a	n/a	56.363	n/a
27.507	0.497	angry	Picture	82.772	n/a	1	1	18	n/a	18	114	3	n/a	n/a	n/a	n/a	56.893	AM22ANS.jpg
28.004	0.514	Blank	Blank	82.258	n/a	1	1	18	n/a	18	n/a	3	n/a	n/a	n/a	n/a	57.391	n/a
28.534	0.497	angry	Picture	81.744	n/a	1	1	19	n/a	19	120	3	n/a	n/a	n/a	n/a	57.921	AM35ANS.jpg
29.032	0.514	Blank	Blank	81.23	n/a	1	1	19	n/a	19	n/a	3	n/a	n/a	n/a	n/a	58.418	n/a
29.562	0.497	angry	Picture	80.716	n/a	1	1	20	n/a	20	81	3	n/a	n/a	n/a	n/a	58.949	AF01ANS.jpg
30.06	0.514	Blank	Blank	80.202	n/a	1	1	20	n/a	20	n/a	3	n/a	n/a	n/a	n/a	59.446	n/a
30.59	10.014	ITI	Fixation+	70.172	n/a	1	n/a	n/a	n/a	n/a	n/a	n/a	n/a	n/a	n/a	n/a	59.977	n/a
40.621	0.497	neutral	Picture	69.658	n/a	1	2	1	n/a	21	28	1	n/a	n/a	n/a	n/a	70.007	AM09NES.jpg
41.118	0.514	Blank	Blank	69.144	n/a	1	2	1	n/a	21	n/a	1	n/a	n/a	n/a	n/a	70.504	n/a
41.648	0.497	neutral	Picture	68.63	n/a	1	2	2	n/a	22	27	1	n/a	n/a	n/a	n/a	71.035	BM08NES.jpg
42.146	0.514	Blank	Blank	68.116	n/a	1	2	2	n/a	22	n/a	1	n/a	n/a	n/a	n/a	71.532	n/a
42.676	0.497	neutral	Picture	67.602	n/a	1	2	3	n/a	23	16	1	n/a	n/a	n/a	n/a	72.063	AF26NES.jpg
43.174	0.514	Blank	Blank	67.088	n/a	1	2	3	n/a	23	n/a	1	n/a	n/a	n/a	n/a	72.56	n/a
43.704	0.497	neutral	Picture	66.574	n/a	1	2	4	n/a	24	3	1	n/a	n/a	n/a	n/a	73.091	BF04NES.jpg
44.201	0.514	Blank	Blank	66.06	n/a	1	2	4	n/a	24	n/a	1	n/a	n/a	n/a	n/a	73.588	n/a
44.732	0.497	neutral	Picture	65.546	n/a	1	2	5	n/a	25	32	1	n/a	n/a	n/a	n/a	74.118	AM14NES.jpg
45.229	0.514	Blank	Blank	65.032	n/a	1	2	5	n/a	25	n/a	1	n/a	n/a	n/a	n/a	74.616	n/a
45.76	0.497	neutral	Picture	64.518	n/a	1	2	6	n/a	26	37	1	n/a	n/a	n/a	n/a	75.146	BM25NES.jpg
46.257	0.514	Blank	Blank	64.005	n/a	1	2	6	n/a	26	n/a	1	n/a	n/a	n/a	n/a	75.644	n/a
46.788	0.497	neutral	Picture	63.491	n/a	1	2	7	n/a	27	15	1	n/a	n/a	n/a	n/a	76.174	AF25NES.jpg
47.285	0.514	Blank	Blank	62.977	n/a	1	2	7	n/a	27	n/a	1	n/a	n/a	n/a	n/a	76.672	n/a
47.816	0.497	neutral	Picture	62.463	n/a	1	2	8	n/a	28	23	1	n/a	n/a	n/a	n/a	77.202	AM04NES.jpg
48.313	0.514	Blank	Blank	61.949	n/a	1	2	8	n/a	28	n/a	1	n/a	n/a	n/a	n/a	77.7	n/a
48.844	0.497	neutral	Picture	61.435	n/a	1	2	9	n/a	29	34	1	n/a	n/a	n/a	n/a	78.23	AM22NES.jpg
49.341	0.514	Blank	Blank	60.921	n/a	1	2	9	n/a	29	n/a	1	n/a	n/a	n/a	n/a	78.727	n/a
49.871	0.497	neutral	Picture	60.407	n/a	1	2	10	n/a	30	24	1	n/a	n/a	n/a	n/a	79.258	BM05NES.jpg
50.369	0.514	Blank	Blank	59.893	n/a	1	2	10	n/a	30	n/a	1	n/a	n/a	n/a	n/a	79.755	n/a
50.899	0.497	neutral	Picture	59.379	n/a	1	2	11	n/a	31	12	1	n/a	n/a	n/a	n/a	80.286	AF21NES.jpg
51.397	0.514	Blank	Blank	58.865	n/a	1	2	11	n/a	31	n/a	1	n/a	n/a	n/a	n/a	80.783	n/a
51.927	0.497	neutral	Picture	58.351	n/a	1	2	12	n/a	32	6	1	n/a	n/a	n/a	n/a	81.314	AF09NES.jpg
52.425	0.514	Blank	Blank	57.837	n/a	1	2	12	n/a	32	n/a	1	n/a	n/a	n/a	n/a	81.811	n/a
52.955	0.497	neutral	Picture	57.323	n/a	1	2	13	n/a	33	17	1	n/a	n/a	n/a	n/a	82.342	BF28NES.jpg
53.453	0.514	Blank	Blank	56.809	n/a	1	2	13	n/a	33	n/a	1	n/a	n/a	n/a	n/a	82.839	n/a
53.983	0.497	neutral	Picture	56.295	n/a	1	2	14	n/a	34	2	1	n/a	n/a	n/a	n/a	83.37	AF03NES.jpg
54.48	0.514	Blank	Blank	55.781	n/a	1	2	14	n/a	34	n/a	1	n/a	n/a	n/a	n/a	83.867	n/a
55.011	0.497	neutral	Picture	55.267	n/a	1	2	15	n/a	35	9	1	n/a	n/a	n/a	n/a	84.397	AF17NES.jpg
55.508	0.514	Blank	Blank	54.754	n/a	1	2	15	n/a	35	n/a	1	n/a	n/a	n/a	n/a	84.895	n/a
56.039	0.497	neutral	Picture	54.24	n/a	1	2	16	n/a	36	25	1	n/a	n/a	n/a	n/a	85.425	BM06NES.jpg
56.536	0.514	Blank	Blank	53.726	n/a	1	2	16	n/a	36	n/a	1	n/a	n/a	n/a	n/a	85.923	n/a
57.067	0.497	neutral	Picture	53.212	n/a	1	2	17	n/a	37	8	1	n/a	n/a	n/a	n/a	86.453	AF14NES.jpg
57.564	0.514	Blank	Blank	52.698	n/a	1	2	17	n/a	37	n/a	1	n/a	n/a	n/a	n/a	86.951	n/a
58.094	0.497	neutral	Picture	52.184	n/a	1	2	18	n/a	38	19	1	n/a	n/a	n/a	n/a	87.481	AF31NES.jpg
58.592	0.514	Blank	Blank	51.67	n/a	1	2	18	n/a	38	n/a	1	n/a	n/a	n/a	n/a	87.978	n/a
59.122	0.497	neutral	Picture	51.156	n/a	1	2	19	n/a	39	14	1	n/a	n/a	n/a	n/a	88.509	AF23NES.jpg
59.62	0.514	Blank	Blank	50.642	n/a	1	2	19	n/a	39	n/a	1	n/a	n/a	n/a	n/a	89.006	n/a
60.15	0.497	neutral	Picture	50.128	n/a	1	2	20	n/a	40	4	1	n/a	n/a	n/a	n/a	89.537	AF05NES.jpg
60.648	0.514	Blank	Blank	49.614	n/a	1	2	20	n/a	40	n/a	1	n/a	n/a	n/a	n/a	90.034	n/a
61.178	10.014	ITI	Fixation+	39.584	n/a	1	n/a	n/a	n/a	n/a	n/a	n/a	n/a	n/a	n/a	n/a	90.565	n/a
71.208	0.497	angry	Picture	39.07	n/a	1	3	1	n/a	41	84	3	n/a	n/a	n/a	n/a	100.595	AF05ANS.jpg
71.706	0.514	Blank	Blank	38.556	n/a	1	3	1	n/a	41	n/a	3	n/a	n/a	n/a	n/a	101.092	n/a
72.236	0.497	angry	Picture	38.042	n/a	1	3	2	n/a	42	92	3	n/a	n/a	n/a	n/a	101.623	AF21ANS.jpg
72.734	0.514	Blank	Blank	37.528	n/a	1	3	2	n/a	42	n/a	3	n/a	n/a	n/a	n/a	102.12	n/a
73.264	0.497	angry	Picture	37.014	n/a	1	3	3	n/a	43	86	3	n/a	n/a	n/a	n/a	102.651	AF09ANS.jpg
73.761	0.514	Blank	Blank	36.5	n/a	1	3	3	n/a	43	n/a	3	n/a	n/a	n/a	n/a	103.148	n/a
74.292	0.497	angry	Picture	35.986	n/a	1	3	4	n/a	44	93	3	n/a	n/a	n/a	n/a	103.678	BF22ANS.jpg
74.789	0.514	Blank	Blank	35.472	n/a	1	3	4	n/a	44	n/a	3	n/a	n/a	n/a	n/a	104.176	n/a
75.32	0.497	angry	Picture	34.958	n/a	1	3	5	n/a	45	88	3	n/a	n/a	n/a	n/a	104.706	AF14ANS.jpg
75.817	0.514	Blank	Blank	34.445	n/a	1	3	5	n/a	45	n/a	3	n/a	n/a	n/a	n/a	105.204	n/a
76.348	0.497	angry	Picture	33.931	n/a	1	3	6	n/a	46	113	3	n/a	n/a	n/a	n/a	105.734	AM21ANS.jpg
76.845	0.514	Blank	Blank	33.417	n/a	1	3	6	n/a	46	n/a	3	n/a	n/a	n/a	n/a	106.232	n/a
77.376	0.497	angry	Picture	32.903	n/a	1	3	7	n/a	47	95	3	n/a	n/a	n/a	n/a	106.762	AF25ANS.jpg
77.873	0.514	Blank	Blank	32.389	n/a	1	3	7	n/a	47	n/a	3	n/a	n/a	n/a	n/a	107.26	n/a
78.404	0.497	angry	Picture	31.875	n/a	1	3	8	n/a	48	102	3	n/a	n/a	n/a	n/a	107.79	BM03ANS.jpg
78.901	0.514	Blank	Blank	31.361	n/a	1	3	8	n/a	48	n/a	3	n/a	n/a	n/a	n/a	108.287	n/a
79.431	0.497	angry	Picture	30.847	n/a	1	3	9	n/a	49	112	3	n/a	n/a	n/a	n/a	108.818	AM14ANS.jpg
79.929	0.514	Blank	Blank	30.333	n/a	1	3	9	n/a	49	n/a	3	n/a	n/a	n/a	n/a	109.315	n/a
80.459	0.497	angry	Picture	29.819	n/a	1	3	10	n/a	50	83	3	n/a	n/a	n/a	n/a	109.846	BF04ANS.jpg
80.957	0.514	Blank	Blank	29.305	n/a	1	3	10	n/a	50	n/a	3	n/a	n/a	n/a	n/a	110.343	n/a
81.487	0.497	angry	Picture	28.791	n/a	1	3	11	n/a	51	90	3	n/a	n/a	n/a	n/a	110.874	AF18ANS.jpg
81.985	0.514	Blank	Blank	28.277	n/a	1	3	11	n/a	51	n/a	3	n/a	n/a	n/a	n/a	111.371	n/a
82.515	0.497	angry	Picture	27.763	n/a	1	3	12	n/a	52	117	3	n/a	n/a	n/a	n/a	111.902	BM25ANS.jpg
83.013	0.514	Blank	Blank	27.249	n/a	1	3	12	n/a	52	n/a	3	n/a	n/a	n/a	n/a	112.399	n/a
83.543	0.497	angry	Picture	26.735	n/a	1	3	13	n/a	53	94	3	n/a	n/a	n/a	n/a	112.93	AF23ANS.jpg
84.04	0.514	Blank	Blank	26.221	n/a	1	3	13	n/a	53	n/a	3	n/a	n/a	n/a	n/a	113.427	n/a
84.571	0.497	angry	Picture	25.707	n/a	1	3	14	n/a	54	106	3	n/a	n/a	n/a	n/a	113.957	AM07ANS.jpg
85.068	0.514	Blank	Blank	25.194	n/a	1	3	14	n/a	54	n/a	3	n/a	n/a	n/a	n/a	114.455	n/a
85.599	0.497	angry	Picture	24.68	n/a	1	3	15	n/a	55	105	3	n/a	n/a	n/a	n/a	114.985	BM06ANS.jpg
86.096	0.514	Blank	Blank	24.166	n/a	1	3	15	n/a	55	n/a	3	n/a	n/a	n/a	n/a	115.483	n/a
86.627	0.497	angry	Picture	23.652	n/a	1	3	16	n/a	56	116	3	n/a	n/a	n/a	n/a	116.013	BM24ANS.jpg
87.124	0.514	Blank	Blank	23.138	n/a	1	3	16	n/a	56	n/a	3	n/a	n/a	n/a	n/a	116.51	n/a
87.655	0.497	angry	Picture	22.624	n/a	1	3	17	n/a	57	89	3	n/a	n/a	n/a	n/a	117.041	AF17ANS.jpg
88.152	0.514	Blank	Blank	22.11	n/a	1	3	17	n/a	57	n/a	3	n/a	n/a	n/a	n/a	117.538	n/a
88.683	0.497	angry	Picture	21.596	n/a	1	3	18	n/a	58	118	3	n/a	n/a	n/a	n/a	118.069	BM26ANS.jpg
89.18	0.514	Blank	Blank	21.082	n/a	1	3	18	n/a	58	n/a	3	n/a	n/a	n/a	n/a	118.566	n/a
89.71	0.497	angry	Picture	20.568	n/a	1	3	19	n/a	59	100	3	n/a	n/a	n/a	n/a	119.097	AF32ANS.jpg
90.208	0.514	Blank	Blank	20.054	n/a	1	3	19	n/a	59	n/a	3	n/a	n/a	n/a	n/a	119.594	n/a
90.738	0.497	angry	Picture	19.54	n/a	1	3	20	n/a	60	119	3	n/a	n/a	n/a	n/a	120.125	BM28ANS.jpg
91.236	0.514	Blank	Blank	19.026	n/a	1	3	20	n/a	60	n/a	3	n/a	n/a	n/a	n/a	120.622	n/a
91.766	10.014	ITI	Fixation+	8.996	n/a	1	n/a	n/a	n/a	n/a	n/a	n/a	n/a	n/a	n/a	n/a	121.153	n/a
110.776	n/a	ConfirmRating	Rate	n/a	8.986	1	n/a	n/a	0	n/a	n/a	n/a	2	Angry	0	46	140.162	n/a
113.478	n/a	ConfirmRating	Rate	n/a	2.685	1	n/a	n/a	1	n/a	n/a	n/a	3	Angry	50	50	142.864	n/a
113.501	10.014	ITI	Fixation+	95.915	n/a	2	n/a	n/a	n/a	n/a	n/a	n/a	n/a	n/a	n/a	n/a	142.887	n/a
123.531	0.497	happy	Picture	95.401	n/a	2	4	1	n/a	61	79	2	n/a	n/a	n/a	n/a	152.918	BM28HAS.jpg
124.028	0.514	Blank	Blank	94.887	n/a	2	4	1	n/a	61	n/a	2	n/a	n/a	n/a	n/a	153.415	n/a
124.559	0.497	happy	Picture	94.373	n/a	2	4	2	n/a	62	61	2	n/a	n/a	n/a	n/a	153.946	AM01HAS.jpg
125.056	0.514	Blank	Blank	93.859	n/a	2	4	2	n/a	62	n/a	2	n/a	n/a	n/a	n/a	154.443	n/a
125.587	0.497	happy	Picture	93.345	n/a	2	4	3	n/a	63	57	2	n/a	n/a	n/a	n/a	154.973	BF28HAS.jpg
126.084	0.514	Blank	Blank	92.831	n/a	2	4	3	n/a	63	n/a	2	n/a	n/a	n/a	n/a	155.471	n/a
126.615	0.497	happy	Picture	92.317	n/a	2	4	4	n/a	64	77	2	n/a	n/a	n/a	n/a	156.001	BM25HAS.jpg
127.112	0.514	Blank	Blank	91.803	n/a	2	4	4	n/a	64	n/a	2	n/a	n/a	n/a	n/a	156.499	n/a
127.643	0.497	happy	Picture	91.289	n/a	2	4	5	n/a	65	47	2	n/a	n/a	n/a	n/a	157.029	BF11HAS.jpg
128.14	0.514	Blank	Blank	90.775	n/a	2	4	5	n/a	65	n/a	2	n/a	n/a	n/a	n/a	157.526	n/a
128.67	0.497	happy	Picture	90.261	n/a	2	4	6	n/a	66	50	2	n/a	n/a	n/a	n/a	158.057	AF18HAS.jpg
129.168	0.514	Blank	Blank	89.747	n/a	2	4	6	n/a	66	n/a	2	n/a	n/a	n/a	n/a	158.554	n/a
129.698	0.497	happy	Picture	89.233	n/a	2	4	7	n/a	67	78	2	n/a	n/a	n/a	n/a	159.085	BM26HAS.jpg
130.196	0.514	Blank	Blank	88.719	n/a	2	4	7	n/a	67	n/a	2	n/a	n/a	n/a	n/a	159.582	n/a
130.726	0.497	happy	Picture	88.206	n/a	2	4	8	n/a	68	45	2	n/a	n/a	n/a	n/a	160.113	BF07HAS.jpg
131.224	0.514	Blank	Blank	87.692	n/a	2	4	8	n/a	68	n/a	2	n/a	n/a	n/a	n/a	160.61	n/a
131.754	0.497	happy	Picture	87.178	n/a	2	4	9	n/a	69	56	2	n/a	n/a	n/a	n/a	161.141	AF26HAS.jpg
132.252	0.514	Blank	Blank	86.664	n/a	2	4	9	n/a	69	n/a	2	n/a	n/a	n/a	n/a	161.638	n/a
132.782	0.497	happy	Picture	86.15	n/a	2	4	10	n/a	70	65	2	n/a	n/a	n/a	n/a	162.169	BM06HAS.jpg
133.279	0.514	Blank	Blank	85.636	n/a	2	4	10	n/a	70	n/a	2	n/a	n/a	n/a	n/a	162.666	n/a
133.81	0.497	happy	Picture	85.122	n/a	2	4	11	n/a	71	73	2	n/a	n/a	n/a	n/a	163.196	AM21HAS.jpg
134.307	0.514	Blank	Blank	84.608	n/a	2	4	11	n/a	71	n/a	2	n/a	n/a	n/a	n/a	163.694	n/a
134.838	0.497	happy	Picture	84.094	n/a	2	4	12	n/a	72	41	2	n/a	n/a	n/a	n/a	164.224	AF01HAS.jpg
135.335	0.514	Blank	Blank	83.58	n/a	2	4	12	n/a	72	n/a	2	n/a	n/a	n/a	n/a	164.722	n/a
135.866	0.497	happy	Picture	83.066	n/a	2	4	13	n/a	73	59	2	n/a	n/a	n/a	n/a	165.252	AF31HAS.jpg
136.363	0.514	Blank	Blank	82.552	n/a	2	4	13	n/a	73	n/a	2	n/a	n/a	n/a	n/a	165.75	n/a
136.894	0.497	happy	Picture	82.038	n/a	2	4	14	n/a	74	64	2	n/a	n/a	n/a	n/a	166.28	BM05HAS.jpg
137.391	0.514	Blank	Blank	81.524	n/a	2	4	14	n/a	74	n/a	2	n/a	n/a	n/a	n/a	166.778	n/a
137.921	0.497	happy	Picture	81.01	n/a	2	4	15	n/a	75	68	2	n/a	n/a	n/a	n/a	167.308	AM09HAS.jpg
138.419	0.514	Blank	Blank	80.496	n/a	2	4	15	n/a	75	n/a	2	n/a	n/a	n/a	n/a	167.805	n/a
138.949	0.497	happy	Picture	79.982	n/a	2	4	16	n/a	76	54	2	n/a	n/a	n/a	n/a	168.336	AF23HAS.jpg
139.447	0.514	Blank	Blank	79.468	n/a	2	4	16	n/a	76	n/a	2	n/a	n/a	n/a	n/a	168.833	n/a
139.977	0.497	happy	Picture	78.954	n/a	2	4	17	n/a	77	53	2	n/a	n/a	n/a	n/a	169.364	BF22HAS.jpg
140.475	0.514	Blank	Blank	78.441	n/a	2	4	17	n/a	77	n/a	2	n/a	n/a	n/a	n/a	169.861	n/a
141.005	0.497	happy	Picture	77.927	n/a	2	4	18	n/a	78	44	2	n/a	n/a	n/a	n/a	170.392	AF05HAS.jpg
141.502	0.514	Blank	Blank	77.413	n/a	2	4	18	n/a	78	n/a	2	n/a	n/a	n/a	n/a	170.889	n/a
142.033	0.497	happy	Picture	76.899	n/a	2	4	19	n/a	79	52	2	n/a	n/a	n/a	n/a	171.42	AF21HAS.jpg
142.53	0.514	Blank	Blank	76.385	n/a	2	4	19	n/a	79	n/a	2	n/a	n/a	n/a	n/a	171.917	n/a
143.061	0.497	happy	Picture	75.871	n/a	2	4	20	n/a	80	62	2	n/a	n/a	n/a	n/a	172.447	BM03HAS.jpg
143.558	0.514	Blank	Blank	75.357	n/a	2	4	20	n/a	80	n/a	2	n/a	n/a	n/a	n/a	172.945	n/a
144.089	10.014	ITI	Fixation+	65.327	n/a	2	n/a	n/a	n/a	n/a	n/a	n/a	n/a	n/a	n/a	n/a	173.475	n/a
154.119	0.497	neutral	Picture	64.813	n/a	2	5	1	n/a	81	23	1	n/a	n/a	n/a	n/a	183.506	AM04NES.jpg
154.616	0.514	Blank	Blank	64.299	n/a	2	5	1	n/a	81	n/a	1	n/a	n/a	n/a	n/a	184.003	n/a
155.147	0.497	neutral	Picture	63.785	n/a	2	5	2	n/a	82	29	1	n/a	n/a	n/a	n/a	184.533	AM10NES.jpg
155.644	0.514	Blank	Blank	63.271	n/a	2	5	2	n/a	82	n/a	1	n/a	n/a	n/a	n/a	185.031	n/a
156.175	0.497	neutral	Picture	62.757	n/a	2	5	3	n/a	83	24	1	n/a	n/a	n/a	n/a	185.561	BM05NES.jpg
156.672	0.514	Blank	Blank	62.243	n/a	2	5	3	n/a	83	n/a	1	n/a	n/a	n/a	n/a	186.059	n/a
157.203	0.497	neutral	Picture	61.729	n/a	2	5	4	n/a	84	12	1	n/a	n/a	n/a	n/a	186.589	AF21NES.jpg
157.7	0.514	Blank	Blank	61.215	n/a	2	5	4	n/a	84	n/a	1	n/a	n/a	n/a	n/a	187.087	n/a
158.231	0.497	neutral	Picture	60.701	n/a	2	5	5	n/a	85	13	1	n/a	n/a	n/a	n/a	187.617	BF22NES.jpg
158.728	0.514	Blank	Blank	60.187	n/a	2	5	5	n/a	85	n/a	1	n/a	n/a	n/a	n/a	188.114	n/a
159.258	0.497	neutral	Picture	59.673	n/a	2	5	6	n/a	86	17	1	n/a	n/a	n/a	n/a	188.645	BF28NES.jpg
159.756	0.514	Blank	Blank	59.159	n/a	2	5	6	n/a	86	n/a	1	n/a	n/a	n/a	n/a	189.142	n/a
160.286	0.497	neutral	Picture	58.645	n/a	2	5	7	n/a	87	4	1	n/a	n/a	n/a	n/a	189.673	AF05NES.jpg
160.784	0.514	Blank	Blank	58.132	n/a	2	5	7	n/a	87	n/a	1	n/a	n/a	n/a	n/a	190.17	n/a
161.314	0.497	neutral	Picture	57.618	n/a	2	5	8	n/a	88	11	1	n/a	n/a	n/a	n/a	190.701	AF20NES.jpg
161.812	0.514	Blank	Blank	57.104	n/a	2	5	8	n/a	88	n/a	1	n/a	n/a	n/a	n/a	191.198	n/a
162.342	0.497	neutral	Picture	56.59	n/a	2	5	9	n/a	89	22	1	n/a	n/a	n/a	n/a	191.729	BM03NES.jpg
162.839	0.514	Blank	Blank	56.076	n/a	2	5	9	n/a	89	n/a	1	n/a	n/a	n/a	n/a	192.226	n/a
163.37	0.497	neutral	Picture	55.562	n/a	2	5	10	n/a	90	15	1	n/a	n/a	n/a	n/a	192.756	AF25NES.jpg
163.867	0.514	Blank	Blank	55.048	n/a	2	5	10	n/a	90	n/a	1	n/a	n/a	n/a	n/a	193.254	n/a
164.398	0.497	neutral	Picture	54.534	n/a	2	5	11	n/a	91	19	1	n/a	n/a	n/a	n/a	193.784	AF31NES.jpg
164.895	0.514	Blank	Blank	54.02	n/a	2	5	11	n/a	91	n/a	1	n/a	n/a	n/a	n/a	194.282	n/a
165.426	0.497	neutral	Picture	53.506	n/a	2	5	12	n/a	92	9	1	n/a	n/a	n/a	n/a	194.812	AF17NES.jpg
165.923	0.514	Blank	Blank	52.992	n/a	2	5	12	n/a	92	n/a	1	n/a	n/a	n/a	n/a	195.31	n/a
166.454	0.497	neutral	Picture	52.478	n/a	2	5	13	n/a	93	14	1	n/a	n/a	n/a	n/a	195.84	AF23NES.jpg
166.951	0.514	Blank	Blank	51.964	n/a	2	5	13	n/a	93	n/a	1	n/a	n/a	n/a	n/a	196.338	n/a
167.481	0.497	neutral	Picture	51.45	n/a	2	5	14	n/a	94	36	1	n/a	n/a	n/a	n/a	196.868	BM24NES.jpg
167.979	0.514	Blank	Blank	50.936	n/a	2	5	14	n/a	94	n/a	1	n/a	n/a	n/a	n/a	197.365	n/a
168.509	0.497	neutral	Picture	50.422	n/a	2	5	15	n/a	95	34	1	n/a	n/a	n/a	n/a	197.896	AM22NES.jpg
169.007	0.514	Blank	Blank	49.908	n/a	2	5	15	n/a	95	n/a	1	n/a	n/a	n/a	n/a	198.393	n/a
169.537	0.497	neutral	Picture	49.394	n/a	2	5	16	n/a	96	10	1	n/a	n/a	n/a	n/a	198.924	AF18NES.jpg
170.035	0.514	Blank	Blank	48.881	n/a	2	5	16	n/a	96	n/a	1	n/a	n/a	n/a	n/a	199.421	n/a
170.565	0.497	neutral	Picture	48.367	n/a	2	5	17	n/a	97	5	1	n/a	n/a	n/a	n/a	199.952	BF07NES.jpg
171.063	0.514	Blank	Blank	47.853	n/a	2	5	17	n/a	97	n/a	1	n/a	n/a	n/a	n/a	200.449	n/a
171.593	0.497	neutral	Picture	47.339	n/a	2	5	18	n/a	98	25	1	n/a	n/a	n/a	n/a	200.98	BM06NES.jpg
172.09	0.514	Blank	Blank	46.825	n/a	2	5	18	n/a	98	n/a	1	n/a	n/a	n/a	n/a	201.477	n/a
172.621	0.497	neutral	Picture	46.311	n/a	2	5	19	n/a	99	39	1	n/a	n/a	n/a	n/a	202.007	AM28NES.jpg
173.118	0.514	Blank	Blank	45.797	n/a	2	5	19	n/a	99	n/a	1	n/a	n/a	n/a	n/a	202.505	n/a
173.649	0.497	neutral	Picture	45.283	n/a	2	5	20	n/a	100	33	1	n/a	n/a	n/a	n/a	203.035	AM21NES.jpg
174.146	0.514	Blank	Blank	44.769	n/a	2	5	20	n/a	100	n/a	1	n/a	n/a	n/a	n/a	203.533	n/a
174.677	10.014	ITI	Fixation+	34.739	n/a	2	n/a	n/a	n/a	n/a	n/a	n/a	n/a	n/a	n/a	n/a	204.063	n/a
184.707	0.497	happy	Picture	34.225	n/a	2	6	1	n/a	101	74	2	n/a	n/a	n/a	n/a	214.093	AM22HAS.jpg
185.204	0.514	Blank	Blank	33.711	n/a	2	6	1	n/a	101	n/a	2	n/a	n/a	n/a	n/a	214.591	n/a
185.735	0.497	happy	Picture	33.197	n/a	2	6	2	n/a	102	76	2	n/a	n/a	n/a	n/a	215.121	BM24HAS.jpg
186.232	0.514	Blank	Blank	32.683	n/a	2	6	2	n/a	102	n/a	2	n/a	n/a	n/a	n/a	215.619	n/a
186.763	0.497	happy	Picture	32.169	n/a	2	6	3	n/a	103	80	2	n/a	n/a	n/a	n/a	216.149	BM35HAS.jpg
187.26	0.514	Blank	Blank	31.655	n/a	2	6	3	n/a	103	n/a	2	n/a	n/a	n/a	n/a	216.647	n/a
187.791	0.497	happy	Picture	31.141	n/a	2	6	4	n/a	104	75	2	n/a	n/a	n/a	n/a	217.177	AM23HAS.jpg
188.288	0.514	Blank	Blank	30.627	n/a	2	6	4	n/a	104	n/a	2	n/a	n/a	n/a	n/a	217.674	n/a
188.819	0.497	happy	Picture	30.113	n/a	2	6	5	n/a	105	49	2	n/a	n/a	n/a	n/a	218.205	AF17HAS.jpg
189.316	0.514	Blank	Blank	29.599	n/a	2	6	5	n/a	105	n/a	2	n/a	n/a	n/a	n/a	218.702	n/a
189.846	0.497	happy	Picture	29.085	n/a	2	6	6	n/a	106	43	2	n/a	n/a	n/a	n/a	219.233	BF04HAS.jpg
190.344	0.514	Blank	Blank	28.571	n/a	2	6	6	n/a	106	n/a	2	n/a	n/a	n/a	n/a	219.73	n/a
190.874	0.497	happy	Picture	28.058	n/a	2	6	7	n/a	107	70	2	n/a	n/a	n/a	n/a	220.261	BM11HAS.jpg
191.372	0.514	Blank	Blank	27.544	n/a	2	6	7	n/a	107	n/a	2	n/a	n/a	n/a	n/a	220.758	n/a
191.902	0.497	happy	Picture	27.03	n/a	2	6	8	n/a	108	66	2	n/a	n/a	n/a	n/a	221.289	BM07HAS.jpg
192.399	0.514	Blank	Blank	26.516	n/a	2	6	8	n/a	108	n/a	2	n/a	n/a	n/a	n/a	221.786	n/a
192.93	0.497	happy	Picture	26.002	n/a	2	6	9	n/a	109	48	2	n/a	n/a	n/a	n/a	222.316	AF14HAS.jpg
193.427	0.514	Blank	Blank	25.488	n/a	2	6	9	n/a	109	n/a	2	n/a	n/a	n/a	n/a	222.814	n/a
193.958	0.497	happy	Picture	24.974	n/a	2	6	10	n/a	110	58	2	n/a	n/a	n/a	n/a	223.344	BF29HAS.jpg
194.455	0.514	Blank	Blank	24.46	n/a	2	6	10	n/a	110	n/a	2	n/a	n/a	n/a	n/a	223.842	n/a
194.986	0.497	happy	Picture	23.946	n/a	2	6	11	n/a	111	63	2	n/a	n/a	n/a	n/a	224.372	AM04HAS.jpg
195.483	0.514	Blank	Blank	23.432	n/a	2	6	11	n/a	111	n/a	2	n/a	n/a	n/a	n/a	224.87	n/a
196.014	0.497	happy	Picture	22.918	n/a	2	6	12	n/a	112	72	2	n/a	n/a	n/a	n/a	225.4	AM14HAS.jpg
196.511	0.514	Blank	Blank	22.404	n/a	2	6	12	n/a	112	n/a	2	n/a	n/a	n/a	n/a	225.898	n/a
197.042	0.497	happy	Picture	21.89	n/a	2	6	13	n/a	113	55	2	n/a	n/a	n/a	n/a	226.428	AF25HAS.jpg
197.539	0.514	Blank	Blank	21.376	n/a	2	6	13	n/a	113	n/a	2	n/a	n/a	n/a	n/a	226.925	n/a
198.069	0.497	happy	Picture	20.862	n/a	2	6	14	n/a	114	42	2	n/a	n/a	n/a	n/a	227.456	AF03HAS.jpg
198.567	0.514	Blank	Blank	20.348	n/a	2	6	14	n/a	114	n/a	2	n/a	n/a	n/a	n/a	227.953	n/a
199.097	0.497	happy	Picture	19.834	n/a	2	6	15	n/a	115	60	2	n/a	n/a	n/a	n/a	228.484	AF32HAS.jpg
199.595	0.514	Blank	Blank	19.321	n/a	2	6	15	n/a	115	n/a	2	n/a	n/a	n/a	n/a	228.981	n/a
200.125	0.497	happy	Picture	18.807	n/a	2	6	16	n/a	116	67	2	n/a	n/a	n/a	n/a	229.512	BM08HAS.jpg
200.623	0.514	Blank	Blank	18.293	n/a	2	6	16	n/a	116	n/a	2	n/a	n/a	n/a	n/a	230.009	n/a
201.153	0.497	happy	Picture	17.779	n/a	2	6	17	n/a	117	51	2	n/a	n/a	n/a	n/a	230.54	AF20HAS.jpg
201.65	0.514	Blank	Blank	17.265	n/a	2	6	17	n/a	117	n/a	2	n/a	n/a	n/a	n/a	231.037	n/a
202.181	0.497	happy	Picture	16.751	n/a	2	6	18	n/a	118	71	2	n/a	n/a	n/a	n/a	231.567	BM12HAS.jpg
202.678	0.514	Blank	Blank	16.237	n/a	2	6	18	n/a	118	n/a	2	n/a	n/a	n/a	n/a	232.065	n/a
203.209	0.497	happy	Picture	15.723	n/a	2	6	19	n/a	119	69	2	n/a	n/a	n/a	n/a	232.595	AM10HAS.jpg
203.706	0.514	Blank	Blank	15.209	n/a	2	6	19	n/a	119	n/a	2	n/a	n/a	n/a	n/a	233.093	n/a
204.237	0.497	happy	Picture	14.695	n/a	2	6	20	n/a	120	46	2	n/a	n/a	n/a	n/a	233.623	AF09HAS.jpg
204.734	0.514	Blank	Blank	14.181	n/a	2	6	20	n/a	120	n/a	2	n/a	n/a	n/a	n/a	234.121	n/a
205.265	10.014	ITI	Fixation+	4.151	n/a	2	n/a	n/a	n/a	n/a	n/a	n/a	n/a	n/a	n/a	n/a	234.651	n/a
219.429	n/a	ConfirmRating	Rate	n/a	4.145	2	n/a	n/a	0	n/a	n/a	n/a	2	Happy	100	53	248.816	n/a
224.21	n/a	ConfirmRating	Rate	n/a	4.758	2	n/a	n/a	1	n/a	n/a	n/a	3	Happy	0	46	253.597	n/a
224.231	15.004	Rest	Picture	n/a	n/a	n/a	n/a	n/a	n/a	n/a	n/a	n/a	0	n/a	0	0	253.617	n/a
239.251	10.014	ITI	Fixation+	96.178	n/a	3	n/a	n/a	n/a	n/a	n/a	n/a	n/a	n/a	n/a	n/a	268.638	n/a
249.281	0.497	angry	Picture	95.665	n/a	3	7	1	n/a	1	108	3	n/a	n/a	n/a	n/a	278.668	AM09ANS.jpg
249.779	0.514	Blank	Blank	95.151	n/a	3	7	1	n/a	1	n/a	3	n/a	n/a	n/a	n/a	279.165	n/a
250.309	0.497	angry	Picture	94.637	n/a	3	7	2	n/a	2	99	3	n/a	n/a	n/a	n/a	279.696	AF31ANS.jpg
250.807	0.514	Blank	Blank	94.123	n/a	3	7	2	n/a	2	n/a	3	n/a	n/a	n/a	n/a	280.193	n/a
251.337	0.497	angry	Picture	93.609	n/a	3	7	3	n/a	3	98	3	n/a	n/a	n/a	n/a	280.724	BF29ANS.jpg
251.834	0.514	Blank	Blank	93.095	n/a	3	7	3	n/a	3	n/a	3	n/a	n/a	n/a	n/a	281.221	n/a
252.365	0.497	angry	Picture	92.581	n/a	3	7	4	n/a	4	107	3	n/a	n/a	n/a	n/a	281.752	BM08ANS.jpg
252.862	0.514	Blank	Blank	92.067	n/a	3	7	4	n/a	4	n/a	3	n/a	n/a	n/a	n/a	282.249	n/a
253.393	0.497	angry	Picture	91.553	n/a	3	7	5	n/a	5	104	3	n/a	n/a	n/a	n/a	282.779	BM05ANS.jpg
253.89	0.514	Blank	Blank	91.039	n/a	3	7	5	n/a	5	n/a	3	n/a	n/a	n/a	n/a	283.277	n/a
254.421	0.497	angry	Picture	90.525	n/a	3	7	6	n/a	6	101	3	n/a	n/a	n/a	n/a	283.807	AM01ANS.jpg
254.918	0.514	Blank	Blank	90.011	n/a	3	7	6	n/a	6	n/a	3	n/a	n/a	n/a	n/a	284.305	n/a
255.449	0.497	angry	Picture	89.497	n/a	3	7	7	n/a	7	103	3	n/a	n/a	n/a	n/a	284.835	AM04ANS.jpg
255.946	0.514	Blank	Blank	88.983	n/a	3	7	7	n/a	7	n/a	3	n/a	n/a	n/a	n/a	285.333	n/a
256.477	0.497	angry	Picture	88.469	n/a	3	7	8	n/a	8	111	3	n/a	n/a	n/a	n/a	285.863	BM12ANS.jpg
256.974	0.514	Blank	Blank	87.955	n/a	3	7	8	n/a	8	n/a	3	n/a	n/a	n/a	n/a	286.361	n/a
257.505	0.497	angry	Picture	87.441	n/a	3	7	9	n/a	9	110	3	n/a	n/a	n/a	n/a	286.891	AM11ANS.jpg
258.002	0.514	Blank	Blank	86.928	n/a	3	7	9	n/a	9	n/a	3	n/a	n/a	n/a	n/a	287.388	n/a
258.532	0.497	angry	Picture	86.414	n/a	3	7	10	n/a	10	85	3	n/a	n/a	n/a	n/a	287.919	BF07ANS.jpg
259.03	0.514	Blank	Blank	85.9	n/a	3	7	10	n/a	10	n/a	3	n/a	n/a	n/a	n/a	288.416	n/a
259.56	0.497	angry	Picture	85.386	n/a	3	7	11	n/a	11	87	3	n/a	n/a	n/a	n/a	288.947	BF11ANS.jpg
260.058	0.514	Blank	Blank	84.872	n/a	3	7	11	n/a	11	n/a	3	n/a	n/a	n/a	n/a	289.444	n/a
260.588	0.497	angry	Picture	84.358	n/a	3	7	12	n/a	12	91	3	n/a	n/a	n/a	n/a	289.975	AF20ANS.jpg
261.085	0.514	Blank	Blank	83.844	n/a	3	7	12	n/a	12	n/a	3	n/a	n/a	n/a	n/a	290.472	n/a
261.616	0.497	angry	Picture	83.33	n/a	3	7	13	n/a	13	115	3	n/a	n/a	n/a	n/a	291.002	AM23ANS.jpg
262.113	0.514	Blank	Blank	82.816	n/a	3	7	13	n/a	13	n/a	3	n/a	n/a	n/a	n/a	291.5	n/a
262.644	0.497	angry	Picture	82.302	n/a	3	7	14	n/a	14	97	3	n/a	n/a	n/a	n/a	292.03	BF28ANS.jpg
263.141	0.514	Blank	Blank	81.788	n/a	3	7	14	n/a	14	n/a	3	n/a	n/a	n/a	n/a	292.528	n/a
263.672	0.497	angry	Picture	81.274	n/a	3	7	15	n/a	15	82	3	n/a	n/a	n/a	n/a	293.058	AF03ANS.jpg
264.169	0.514	Blank	Blank	80.76	n/a	3	7	15	n/a	15	n/a	3	n/a	n/a	n/a	n/a	293.556	n/a
264.7	0.497	angry	Picture	80.246	n/a	3	7	16	n/a	16	96	3	n/a	n/a	n/a	n/a	294.086	AF26ANS.jpg
265.197	0.514	Blank	Blank	79.732	n/a	3	7	16	n/a	16	n/a	3	n/a	n/a	n/a	n/a	294.584	n/a
265.728	0.497	angry	Picture	79.218	n/a	3	7	17	n/a	17	109	3	n/a	n/a	n/a	n/a	295.114	AM10ANS.jpg
266.225	0.514	Blank	Blank	78.704	n/a	3	7	17	n/a	17	n/a	3	n/a	n/a	n/a	n/a	295.611	n/a
266.755	0.497	angry	Picture	78.19	n/a	3	7	18	n/a	18	114	3	n/a	n/a	n/a	n/a	296.142	AM22ANS.jpg
267.253	0.514	Blank	Blank	77.676	n/a	3	7	18	n/a	18	n/a	3	n/a	n/a	n/a	n/a	296.639	n/a
267.783	0.497	angry	Picture	77.163	n/a	3	7	19	n/a	19	120	3	n/a	n/a	n/a	n/a	297.17	AM35ANS.jpg
268.281	0.514	Blank	Blank	76.649	n/a	3	7	19	n/a	19	n/a	3	n/a	n/a	n/a	n/a	297.667	n/a
268.811	0.497	angry	Picture	76.135	n/a	3	7	20	n/a	20	81	3	n/a	n/a	n/a	n/a	298.198	AF01ANS.jpg
269.309	0.514	Blank	Blank	75.621	n/a	3	7	20	n/a	20	n/a	3	n/a	n/a	n/a	n/a	298.695	n/a
269.839	10.014	ITI	Fixation+	65.591	n/a	3	n/a	n/a	n/a	n/a	n/a	n/a	n/a	n/a	n/a	n/a	299.226	n/a
279.869	0.497	neutral	Picture	65.077	n/a	3	8	1	n/a	21	28	1	n/a	n/a	n/a	n/a	309.256	AM09NES.jpg
280.367	0.514	Blank	Blank	64.563	n/a	3	8	1	n/a	21	n/a	1	n/a	n/a	n/a	n/a	309.753	n/a
280.897	0.497	neutral	Picture	64.049	n/a	3	8	2	n/a	22	27	1	n/a	n/a	n/a	n/a	310.284	BM08NES.jpg
281.395	0.514	Blank	Blank	63.535	n/a	3	8	2	n/a	22	n/a	1	n/a	n/a	n/a	n/a	310.781	n/a
281.925	0.497	neutral	Picture	63.021	n/a	3	8	3	n/a	23	16	1	n/a	n/a	n/a	n/a	311.312	AF26NES.jpg
282.422	0.514	Blank	Blank	62.507	n/a	3	8	3	n/a	23	n/a	1	n/a	n/a	n/a	n/a	311.809	n/a
282.953	0.497	neutral	Picture	61.993	n/a	3	8	4	n/a	24	3	1	n/a	n/a	n/a	n/a	312.339	BF04NES.jpg
283.45	0.514	Blank	Blank	61.479	n/a	3	8	4	n/a	24	n/a	1	n/a	n/a	n/a	n/a	312.837	n/a
283.981	0.497	neutral	Picture	60.965	n/a	3	8	5	n/a	25	32	1	n/a	n/a	n/a	n/a	313.367	AM14NES.jpg
284.478	0.514	Blank	Blank	60.451	n/a	3	8	5	n/a	25	n/a	1	n/a	n/a	n/a	n/a	313.865	n/a
285.009	0.497	neutral	Picture	59.937	n/a	3	8	6	n/a	26	37	1	n/a	n/a	n/a	n/a	314.395	BM25NES.jpg
285.506	0.514	Blank	Blank	59.423	n/a	3	8	6	n/a	26	n/a	1	n/a	n/a	n/a	n/a	314.893	n/a
286.037	0.497	neutral	Picture	58.909	n/a	3	8	7	n/a	27	15	1	n/a	n/a	n/a	n/a	315.423	AF25NES.jpg
286.534	0.514	Blank	Blank	58.395	n/a	3	8	7	n/a	27	n/a	1	n/a	n/a	n/a	n/a	315.921	n/a
287.065	0.497	neutral	Picture	57.881	n/a	3	8	8	n/a	28	23	1	n/a	n/a	n/a	n/a	316.451	AM04NES.jpg
287.562	0.514	Blank	Blank	57.368	n/a	3	8	8	n/a	28	n/a	1	n/a	n/a	n/a	n/a	316.948	n/a
288.092	0.497	neutral	Picture	56.853	n/a	3	8	9	n/a	29	34	1	n/a	n/a	n/a	n/a	317.479	AM22NES.jpg
288.59	0.514	Blank	Blank	56.34	n/a	3	8	9	n/a	29	n/a	1	n/a	n/a	n/a	n/a	317.976	n/a
289.12	0.497	neutral	Picture	55.826	n/a	3	8	10	n/a	30	24	1	n/a	n/a	n/a	n/a	318.507	BM05NES.jpg
289.618	0.514	Blank	Blank	55.312	n/a	3	8	10	n/a	30	n/a	1	n/a	n/a	n/a	n/a	319.004	n/a
290.148	0.497	neutral	Picture	54.798	n/a	3	8	11	n/a	31	12	1	n/a	n/a	n/a	n/a	319.535	AF21NES.jpg
290.645	0.514	Blank	Blank	54.284	n/a	3	8	11	n/a	31	n/a	1	n/a	n/a	n/a	n/a	320.032	n/a
291.176	0.497	neutral	Picture	53.77	n/a	3	8	12	n/a	32	6	1	n/a	n/a	n/a	n/a	320.563	AF09NES.jpg
291.673	0.514	Blank	Blank	53.256	n/a	3	8	12	n/a	32	n/a	1	n/a	n/a	n/a	n/a	321.06	n/a
292.204	0.497	neutral	Picture	52.742	n/a	3	8	13	n/a	33	17	1	n/a	n/a	n/a	n/a	321.59	BF28NES.jpg
292.701	0.514	Blank	Blank	52.228	n/a	3	8	13	n/a	33	n/a	1	n/a	n/a	n/a	n/a	322.088	n/a
293.232	0.497	neutral	Picture	51.714	n/a	3	8	14	n/a	34	2	1	n/a	n/a	n/a	n/a	322.618	AF03NES.jpg
293.729	0.514	Blank	Blank	51.2	n/a	3	8	14	n/a	34	n/a	1	n/a	n/a	n/a	n/a	323.116	n/a
294.26	0.497	neutral	Picture	50.686	n/a	3	8	15	n/a	35	9	1	n/a	n/a	n/a	n/a	323.646	AF17NES.jpg
294.757	0.514	Blank	Blank	50.172	n/a	3	8	15	n/a	35	n/a	1	n/a	n/a	n/a	n/a	324.144	n/a
295.288	0.497	neutral	Picture	49.658	n/a	3	8	16	n/a	36	25	1	n/a	n/a	n/a	n/a	324.674	BM06NES.jpg
295.785	0.514	Blank	Blank	49.144	n/a	3	8	16	n/a	36	n/a	1	n/a	n/a	n/a	n/a	325.171	n/a
296.315	0.497	neutral	Picture	48.63	n/a	3	8	17	n/a	37	8	1	n/a	n/a	n/a	n/a	325.702	AF14NES.jpg
296.813	0.514	Blank	Blank	48.116	n/a	3	8	17	n/a	37	n/a	1	n/a	n/a	n/a	n/a	326.199	n/a
297.343	0.497	neutral	Picture	47.603	n/a	3	8	18	n/a	38	19	1	n/a	n/a	n/a	n/a	326.73	AF31NES.jpg
297.841	0.514	Blank	Blank	47.089	n/a	3	8	18	n/a	38	n/a	1	n/a	n/a	n/a	n/a	327.227	n/a
298.371	0.497	neutral	Picture	46.575	n/a	3	8	19	n/a	39	14	1	n/a	n/a	n/a	n/a	327.758	AF23NES.jpg
298.869	0.514	Blank	Blank	46.061	n/a	3	8	19	n/a	39	n/a	1	n/a	n/a	n/a	n/a	328.255	n/a
299.399	0.497	neutral	Picture	45.547	n/a	3	8	20	n/a	40	4	1	n/a	n/a	n/a	n/a	328.786	AF05NES.jpg
299.897	0.514	Blank	Blank	45.033	n/a	3	8	20	n/a	40	n/a	1	n/a	n/a	n/a	n/a	329.283	n/a
300.427	10.014	ITI	Fixation+	35.003	n/a	3	n/a	n/a	n/a	n/a	n/a	n/a	n/a	n/a	n/a	n/a	329.813	n/a
310.457	0.497	angry	Picture	34.489	n/a	3	9	1	n/a	41	84	3	n/a	n/a	n/a	n/a	339.844	AF05ANS.jpg
310.955	0.514	Blank	Blank	33.975	n/a	3	9	1	n/a	41	n/a	3	n/a	n/a	n/a	n/a	340.341	n/a
311.485	0.497	angry	Picture	33.461	n/a	3	9	2	n/a	42	92	3	n/a	n/a	n/a	n/a	340.872	AF21ANS.jpg
311.983	0.514	Blank	Blank	32.947	n/a	3	9	2	n/a	42	n/a	3	n/a	n/a	n/a	n/a	341.369	n/a
312.513	0.497	angry	Picture	32.433	n/a	3	9	3	n/a	43	86	3	n/a	n/a	n/a	n/a	341.899	AF09ANS.jpg
313.01	0.514	Blank	Blank	31.919	n/a	3	9	3	n/a	43	n/a	3	n/a	n/a	n/a	n/a	342.397	n/a
313.541	0.497	angry	Picture	31.405	n/a	3	9	4	n/a	44	93	3	n/a	n/a	n/a	n/a	342.927	BF22ANS.jpg
314.038	0.514	Blank	Blank	30.891	n/a	3	9	4	n/a	44	n/a	3	n/a	n/a	n/a	n/a	343.425	n/a
314.569	0.497	angry	Picture	30.377	n/a	3	9	5	n/a	45	88	3	n/a	n/a	n/a	n/a	343.955	AF14ANS.jpg
315.066	0.514	Blank	Blank	29.863	n/a	3	9	5	n/a	45	n/a	3	n/a	n/a	n/a	n/a	344.453	n/a
315.597	0.497	angry	Picture	29.349	n/a	3	9	6	n/a	46	113	3	n/a	n/a	n/a	n/a	344.983	AM21ANS.jpg
316.094	0.514	Blank	Blank	28.835	n/a	3	9	6	n/a	46	n/a	3	n/a	n/a	n/a	n/a	345.481	n/a
316.625	0.497	angry	Picture	28.321	n/a	3	9	7	n/a	47	95	3	n/a	n/a	n/a	n/a	346.011	AF25ANS.jpg
317.122	0.514	Blank	Blank	27.808	n/a	3	9	7	n/a	47	n/a	3	n/a	n/a	n/a	n/a	346.508	n/a
317.652	0.497	angry	Picture	27.293	n/a	3	9	8	n/a	48	102	3	n/a	n/a	n/a	n/a	347.039	BM03ANS.jpg
318.15	0.514	Blank	Blank	26.78	n/a	3	9	8	n/a	48	n/a	3	n/a	n/a	n/a	n/a	347.536	n/a
318.68	0.497	angry	Picture	26.266	n/a	3	9	9	n/a	49	112	3	n/a	n/a	n/a	n/a	348.067	AM14ANS.jpg
319.178	0.514	Blank	Blank	25.752	n/a	3	9	9	n/a	49	n/a	3	n/a	n/a	n/a	n/a	348.564	n/a
319.708	0.497	angry	Picture	25.238	n/a	3	9	10	n/a	50	83	3	n/a	n/a	n/a	n/a	349.095	BF04ANS.jpg
320.205	0.514	Blank	Blank	24.724	n/a	3	9	10	n/a	50	n/a	3	n/a	n/a	n/a	n/a	349.592	n/a
320.736	0.497	angry	Picture	24.21	n/a	3	9	11	n/a	51	90	3	n/a	n/a	n/a	n/a	350.123	AF18ANS.jpg
321.233	0.514	Blank	Blank	23.696	n/a	3	9	11	n/a	51	n/a	3	n/a	n/a	n/a	n/a	350.62	n/a
321.764	0.497	angry	Picture	23.182	n/a	3	9	12	n/a	52	117	3	n/a	n/a	n/a	n/a	351.151	BM25ANS.jpg
322.261	0.514	Blank	Blank	22.668	n/a	3	9	12	n/a	52	n/a	3	n/a	n/a	n/a	n/a	351.648	n/a
322.792	0.497	angry	Picture	22.154	n/a	3	9	13	n/a	53	94	3	n/a	n/a	n/a	n/a	352.178	AF23ANS.jpg
323.289	0.514	Blank	Blank	21.64	n/a	3	9	13	n/a	53	n/a	3	n/a	n/a	n/a	n/a	352.676	n/a
323.82	0.497	angry	Picture	21.126	n/a	3	9	14	n/a	54	106	3	n/a	n/a	n/a	n/a	353.206	AM07ANS.jpg
324.317	0.514	Blank	Blank	20.612	n/a	3	9	14	n/a	54	n/a	3	n/a	n/a	n/a	n/a	353.704	n/a
324.848	0.497	angry	Picture	20.098	n/a	3	9	15	n/a	55	105	3	n/a	n/a	n/a	n/a	354.234	BM06ANS.jpg
325.345	0.514	Blank	Blank	19.584	n/a	3	9	15	n/a	55	n/a	3	n/a	n/a	n/a	n/a	354.731	n/a
325.875	0.497	angry	Picture	19.07	n/a	3	9	16	n/a	56	116	3	n/a	n/a	n/a	n/a	355.262	BM24ANS.jpg
326.373	0.514	Blank	Blank	18.556	n/a	3	9	16	n/a	56	n/a	3	n/a	n/a	n/a	n/a	355.759	n/a
326.903	0.497	angry	Picture	18.043	n/a	3	9	17	n/a	57	89	3	n/a	n/a	n/a	n/a	356.29	AF17ANS.jpg
327.401	0.514	Blank	Blank	17.529	n/a	3	9	17	n/a	57	n/a	3	n/a	n/a	n/a	n/a	356.787	n/a
327.931	0.497	angry	Picture	17.015	n/a	3	9	18	n/a	58	118	3	n/a	n/a	n/a	n/a	357.318	BM26ANS.jpg
328.429	0.514	Blank	Blank	16.501	n/a	3	9	18	n/a	58	n/a	3	n/a	n/a	n/a	n/a	357.815	n/a
328.959	0.497	angry	Picture	15.987	n/a	3	9	19	n/a	59	100	3	n/a	n/a	n/a	n/a	358.346	AF32ANS.jpg
329.457	0.514	Blank	Blank	15.473	n/a	3	9	19	n/a	59	n/a	3	n/a	n/a	n/a	n/a	358.843	n/a
329.987	0.497	angry	Picture	14.959	n/a	3	9	20	n/a	60	119	3	n/a	n/a	n/a	n/a	359.373	BM28ANS.jpg
330.484	0.514	Blank	Blank	14.445	n/a	3	9	20	n/a	60	n/a	3	n/a	n/a	n/a	n/a	359.871	n/a
331.015	10.014	ITI	Fixation+	4.415	n/a	3	n/a	n/a	n/a	n/a	n/a	n/a	n/a	n/a	n/a	n/a	360.401	n/a
345.443	n/a	ConfirmRating	Rate	n/a	4.41	3	n/a	n/a	0	n/a	n/a	n/a	2	Angry	0	46	374.83	n/a
349.903	n/a	ConfirmRating	Rate	n/a	4.443	3	n/a	n/a	1	n/a	n/a	n/a	3	Angry	100	52	379.29	n/a
349.931	10.014	ITI	Fixation+	96.442	n/a	4	n/a	n/a	n/a	n/a	n/a	n/a	n/a	n/a	n/a	n/a	379.318	n/a
359.962	0.497	happy	Picture	95.928	n/a	4	10	1	n/a	61	79	2	n/a	n/a	n/a	n/a	389.348	BM28HAS.jpg
360.459	0.514	Blank	Blank	95.414	n/a	4	10	1	n/a	61	n/a	2	n/a	n/a	n/a	n/a	389.845	n/a
360.989	0.497	happy	Picture	94.9	n/a	4	10	2	n/a	62	61	2	n/a	n/a	n/a	n/a	390.376	AM01HAS.jpg
361.487	0.514	Blank	Blank	94.386	n/a	4	10	2	n/a	62	n/a	2	n/a	n/a	n/a	n/a	390.873	n/a
362.017	0.497	happy	Picture	93.872	n/a	4	10	3	n/a	63	57	2	n/a	n/a	n/a	n/a	391.404	BF28HAS.jpg
362.515	0.514	Blank	Blank	93.358	n/a	4	10	3	n/a	63	n/a	2	n/a	n/a	n/a	n/a	391.901	n/a
363.045	0.497	happy	Picture	92.844	n/a	4	10	4	n/a	64	77	2	n/a	n/a	n/a	n/a	392.432	BM25HAS.jpg
363.543	0.514	Blank	Blank	92.33	n/a	4	10	4	n/a	64	n/a	2	n/a	n/a	n/a	n/a	392.929	n/a
364.073	0.497	happy	Picture	91.816	n/a	4	10	5	n/a	65	47	2	n/a	n/a	n/a	n/a	393.46	BF11HAS.jpg
364.57	0.514	Blank	Blank	91.302	n/a	4	10	5	n/a	65	n/a	2	n/a	n/a	n/a	n/a	393.957	n/a
365.101	0.497	happy	Picture	90.788	n/a	4	10	6	n/a	66	50	2	n/a	n/a	n/a	n/a	394.488	AF18HAS.jpg
365.598	0.514	Blank	Blank	90.274	n/a	4	10	6	n/a	66	n/a	2	n/a	n/a	n/a	n/a	394.985	n/a
366.129	0.497	happy	Picture	89.76	n/a	4	10	7	n/a	67	78	2	n/a	n/a	n/a	n/a	395.515	BM26HAS.jpg
366.626	0.514	Blank	Blank	89.246	n/a	4	10	7	n/a	67	n/a	2	n/a	n/a	n/a	n/a	396.013	n/a
367.157	0.497	happy	Picture	88.733	n/a	4	10	8	n/a	68	45	2	n/a	n/a	n/a	n/a	396.543	BF07HAS.jpg
367.654	0.514	Blank	Blank	88.219	n/a	4	10	8	n/a	68	n/a	2	n/a	n/a	n/a	n/a	397.041	n/a
368.185	0.497	happy	Picture	87.705	n/a	4	10	9	n/a	69	56	2	n/a	n/a	n/a	n/a	397.571	AF26HAS.jpg
368.682	0.514	Blank	Blank	87.191	n/a	4	10	9	n/a	69	n/a	2	n/a	n/a	n/a	n/a	398.068	n/a
369.212	0.497	happy	Picture	86.677	n/a	4	10	10	n/a	70	65	2	n/a	n/a	n/a	n/a	398.599	BM06HAS.jpg
369.71	0.514	Blank	Blank	86.163	n/a	4	10	10	n/a	70	n/a	2	n/a	n/a	n/a	n/a	399.096	n/a
370.24	0.497	happy	Picture	85.649	n/a	4	10	11	n/a	71	73	2	n/a	n/a	n/a	n/a	399.627	AM21HAS.jpg
370.738	0.514	Blank	Blank	85.135	n/a	4	10	11	n/a	71	n/a	2	n/a	n/a	n/a	n/a	400.124	n/a
371.268	0.497	happy	Picture	84.621	n/a	4	10	12	n/a	72	41	2	n/a	n/a	n/a	n/a	400.655	AF01HAS.jpg
371.766	0.514	Blank	Blank	84.107	n/a	4	10	12	n/a	72	n/a	2	n/a	n/a	n/a	n/a	401.152	n/a
372.296	0.497	happy	Picture	83.593	n/a	4	10	13	n/a	73	59	2	n/a	n/a	n/a	n/a	401.683	AF31HAS.jpg
372.793	0.514	Blank	Blank	83.079	n/a	4	10	13	n/a	73	n/a	2	n/a	n/a	n/a	n/a	402.18	n/a
373.324	0.497	happy	Picture	82.565	n/a	4	10	14	n/a	74	64	2	n/a	n/a	n/a	n/a	402.711	BM05HAS.jpg
373.821	0.514	Blank	Blank	82.051	n/a	4	10	14	n/a	74	n/a	2	n/a	n/a	n/a	n/a	403.208	n/a
374.352	0.497	happy	Picture	81.537	n/a	4	10	15	n/a	75	68	2	n/a	n/a	n/a	n/a	403.738	AM09HAS.jpg
374.849	0.514	Blank	Blank	81.023	n/a	4	10	15	n/a	75	n/a	2	n/a	n/a	n/a	n/a	404.236	n/a
375.38	0.497	happy	Picture	80.509	n/a	4	10	16	n/a	76	54	2	n/a	n/a	n/a	n/a	404.766	AF23HAS.jpg
375.877	0.514	Blank	Blank	79.996	n/a	4	10	16	n/a	76	n/a	2	n/a	n/a	n/a	n/a	405.264	n/a
376.408	0.497	happy	Picture	79.482	n/a	4	10	17	n/a	77	53	2	n/a	n/a	n/a	n/a	405.794	BF22HAS.jpg
376.905	0.514	Blank	Blank	78.968	n/a	4	10	17	n/a	77	n/a	2	n/a	n/a	n/a	n/a	406.292	n/a
377.436	0.497	happy	Picture	78.454	n/a	4	10	18	n/a	78	44	2	n/a	n/a	n/a	n/a	406.822	AF05HAS.jpg
377.933	0.514	Blank	Blank	77.94	n/a	4	10	18	n/a	78	n/a	2	n/a	n/a	n/a	n/a	407.32	n/a
378.464	0.497	happy	Picture	77.426	n/a	4	10	19	n/a	79	52	2	n/a	n/a	n/a	n/a	407.85	AF21HAS.jpg
378.961	0.514	Blank	Blank	76.912	n/a	4	10	19	n/a	79	n/a	2	n/a	n/a	n/a	n/a	408.347	n/a
379.491	0.497	happy	Picture	76.398	n/a	4	10	20	n/a	80	62	2	n/a	n/a	n/a	n/a	408.878	BM03HAS.jpg
379.989	0.514	Blank	Blank	75.884	n/a	4	10	20	n/a	80	n/a	2	n/a	n/a	n/a	n/a	409.375	n/a
380.519	10.014	ITI	Fixation+	65.854	n/a	4	n/a	n/a	n/a	n/a	n/a	n/a	n/a	n/a	n/a	n/a	409.906	n/a
390.549	0.497	neutral	Picture	65.34	n/a	4	11	1	n/a	81	23	1	n/a	n/a	n/a	n/a	419.936	AM04NES.jpg
391.047	0.514	Blank	Blank	64.826	n/a	4	11	1	n/a	81	n/a	1	n/a	n/a	n/a	n/a	420.433	n/a
391.577	0.497	neutral	Picture	64.312	n/a	4	11	2	n/a	82	29	1	n/a	n/a	n/a	n/a	420.964	AM10NES.jpg
392.075	0.514	Blank	Blank	63.798	n/a	4	11	2	n/a	82	n/a	1	n/a	n/a	n/a	n/a	421.461	n/a
392.605	0.497	neutral	Picture	63.284	n/a	4	11	3	n/a	83	24	1	n/a	n/a	n/a	n/a	421.992	BM05NES.jpg
393.103	0.514	Blank	Blank	62.77	n/a	4	11	3	n/a	83	n/a	1	n/a	n/a	n/a	n/a	422.489	n/a
393.633	0.497	neutral	Picture	62.256	n/a	4	11	4	n/a	84	12	1	n/a	n/a	n/a	n/a	423.02	AF21NES.jpg
394.13	0.514	Blank	Blank	61.742	n/a	4	11	4	n/a	84	n/a	1	n/a	n/a	n/a	n/a	423.517	n/a
394.661	0.497	neutral	Picture	61.228	n/a	4	11	5	n/a	85	13	1	n/a	n/a	n/a	n/a	424.048	BF22NES.jpg
395.158	0.514	Blank	Blank	60.714	n/a	4	11	5	n/a	85	n/a	1	n/a	n/a	n/a	n/a	424.545	n/a
395.689	0.497	neutral	Picture	60.2	n/a	4	11	6	n/a	86	17	1	n/a	n/a	n/a	n/a	425.075	BF28NES.jpg
396.186	0.514	Blank	Blank	59.686	n/a	4	11	6	n/a	86	n/a	1	n/a	n/a	n/a	n/a	425.573	n/a
396.717	0.497	neutral	Picture	59.173	n/a	4	11	7	n/a	87	4	1	n/a	n/a	n/a	n/a	426.103	AF05NES.jpg
397.214	0.514	Blank	Blank	58.659	n/a	4	11	7	n/a	87	n/a	1	n/a	n/a	n/a	n/a	426.601	n/a
397.745	0.497	neutral	Picture	58.145	n/a	4	11	8	n/a	88	11	1	n/a	n/a	n/a	n/a	427.131	AF20NES.jpg
398.242	0.514	Blank	Blank	57.631	n/a	4	11	8	n/a	88	n/a	1	n/a	n/a	n/a	n/a	427.628	n/a
398.772	0.497	neutral	Picture	57.117	n/a	4	11	9	n/a	89	22	1	n/a	n/a	n/a	n/a	428.159	BM03NES.jpg
399.27	0.514	Blank	Blank	56.603	n/a	4	11	9	n/a	89	n/a	1	n/a	n/a	n/a	n/a	428.656	n/a
399.8	0.497	neutral	Picture	56.089	n/a	4	11	10	n/a	90	15	1	n/a	n/a	n/a	n/a	429.187	AF25NES.jpg
400.298	0.514	Blank	Blank	55.575	n/a	4	11	10	n/a	90	n/a	1	n/a	n/a	n/a	n/a	429.684	n/a
400.828	0.497	neutral	Picture	55.061	n/a	4	11	11	n/a	91	19	1	n/a	n/a	n/a	n/a	430.215	AF31NES.jpg
401.326	0.514	Blank	Blank	54.547	n/a	4	11	11	n/a	91	n/a	1	n/a	n/a	n/a	n/a	430.712	n/a
401.856	0.497	neutral	Picture	54.033	n/a	4	11	12	n/a	92	9	1	n/a	n/a	n/a	n/a	431.243	AF17NES.jpg
402.354	0.514	Blank	Blank	53.519	n/a	4	11	12	n/a	92	n/a	1	n/a	n/a	n/a	n/a	431.74	n/a
402.884	0.497	neutral	Picture	53.005	n/a	4	11	13	n/a	93	14	1	n/a	n/a	n/a	n/a	432.271	AF23NES.jpg
403.381	0.514	Blank	Blank	52.491	n/a	4	11	13	n/a	93	n/a	1	n/a	n/a	n/a	n/a	432.768	n/a
403.912	0.497	neutral	Picture	51.977	n/a	4	11	14	n/a	94	36	1	n/a	n/a	n/a	n/a	433.298	BM24NES.jpg
404.409	0.514	Blank	Blank	51.463	n/a	4	11	14	n/a	94	n/a	1	n/a	n/a	n/a	n/a	433.796	n/a
404.94	0.497	neutral	Picture	50.949	n/a	4	11	15	n/a	95	34	1	n/a	n/a	n/a	n/a	434.326	AM22NES.jpg
405.437	0.514	Blank	Blank	50.435	n/a	4	11	15	n/a	95	n/a	1	n/a	n/a	n/a	n/a	434.824	n/a
405.968	0.497	neutral	Picture	49.922	n/a	4	11	16	n/a	96	10	1	n/a	n/a	n/a	n/a	435.354	AF18NES.jpg
406.465	0.514	Blank	Blank	49.408	n/a	4	11	16	n/a	96	n/a	1	n/a	n/a	n/a	n/a	435.852	n/a
406.996	0.497	neutral	Picture	48.894	n/a	4	11	17	n/a	97	5	1	n/a	n/a	n/a	n/a	436.382	BF07NES.jpg
407.493	0.514	Blank	Blank	48.38	n/a	4	11	17	n/a	97	n/a	1	n/a	n/a	n/a	n/a	436.88	n/a
408.024	0.497	neutral	Picture	47.866	n/a	4	11	18	n/a	98	25	1	n/a	n/a	n/a	n/a	437.41	BM06NES.jpg
408.521	0.514	Blank	Blank	47.352	n/a	4	11	18	n/a	98	n/a	1	n/a	n/a	n/a	n/a	437.907	n/a
409.051	0.497	neutral	Picture	46.838	n/a	4	11	19	n/a	99	39	1	n/a	n/a	n/a	n/a	438.438	AM28NES.jpg
409.549	0.514	Blank	Blank	46.324	n/a	4	11	19	n/a	99	n/a	1	n/a	n/a	n/a	n/a	438.935	n/a
410.079	0.497	neutral	Picture	45.81	n/a	4	11	20	n/a	100	33	1	n/a	n/a	n/a	n/a	439.466	AM21NES.jpg
410.577	0.514	Blank	Blank	45.296	n/a	4	11	20	n/a	100	n/a	1	n/a	n/a	n/a	n/a	439.963	n/a
411.107	10.014	ITI	Fixation+	35.266	n/a	4	n/a	n/a	n/a	n/a	n/a	n/a	n/a	n/a	n/a	n/a	440.494	n/a
421.137	0.497	happy	Picture	34.752	n/a	4	12	1	n/a	101	74	2	n/a	n/a	n/a	n/a	450.524	AM22HAS.jpg
421.635	0.514	Blank	Blank	34.238	n/a	4	12	1	n/a	101	n/a	2	n/a	n/a	n/a	n/a	451.021	n/a
422.165	0.497	happy	Picture	33.724	n/a	4	12	2	n/a	102	76	2	n/a	n/a	n/a	n/a	451.552	BM24HAS.jpg
422.663	0.514	Blank	Blank	33.21	n/a	4	12	2	n/a	102	n/a	2	n/a	n/a	n/a	n/a	452.049	n/a
423.193	0.497	happy	Picture	32.696	n/a	4	12	3	n/a	103	80	2	n/a	n/a	n/a	n/a	452.58	BM35HAS.jpg
423.69	0.514	Blank	Blank	32.182	n/a	4	12	3	n/a	103	n/a	2	n/a	n/a	n/a	n/a	453.077	n/a
424.221	0.497	happy	Picture	31.668	n/a	4	12	4	n/a	104	75	2	n/a	n/a	n/a	n/a	453.608	AM23HAS.jpg
424.718	0.514	Blank	Blank	31.154	n/a	4	12	4	n/a	104	n/a	2	n/a	n/a	n/a	n/a	454.105	n/a
425.249	0.497	happy	Picture	30.64	n/a	4	12	5	n/a	105	49	2	n/a	n/a	n/a	n/a	454.635	AF17HAS.jpg
425.746	0.514	Blank	Blank	30.127	n/a	4	12	5	n/a	105	n/a	2	n/a	n/a	n/a	n/a	455.133	n/a
426.277	0.497	happy	Picture	29.613	n/a	4	12	6	n/a	106	43	2	n/a	n/a	n/a	n/a	455.663	BF04HAS.jpg
426.774	0.514	Blank	Blank	29.099	n/a	4	12	6	n/a	106	n/a	2	n/a	n/a	n/a	n/a	456.161	n/a
427.305	0.497	happy	Picture	28.585	n/a	4	12	7	n/a	107	70	2	n/a	n/a	n/a	n/a	456.691	BM11HAS.jpg
427.802	0.514	Blank	Blank	28.071	n/a	4	12	7	n/a	107	n/a	2	n/a	n/a	n/a	n/a	457.188	n/a
428.332	0.497	happy	Picture	27.557	n/a	4	12	8	n/a	108	66	2	n/a	n/a	n/a	n/a	457.719	BM07HAS.jpg
428.83	0.514	Blank	Blank	27.043	n/a	4	12	8	n/a	108	n/a	2	n/a	n/a	n/a	n/a	458.216	n/a
429.36	0.497	happy	Picture	26.529	n/a	4	12	9	n/a	109	48	2	n/a	n/a	n/a	n/a	458.747	AF14HAS.jpg
429.858	0.514	Blank	Blank	26.015	n/a	4	12	9	n/a	109	n/a	2	n/a	n/a	n/a	n/a	459.244	n/a
430.388	0.497	happy	Picture	25.501	n/a	4	12	10	n/a	110	58	2	n/a	n/a	n/a	n/a	459.775	BF29HAS.jpg
430.886	0.514	Blank	Blank	24.987	n/a	4	12	10	n/a	110	n/a	2	n/a	n/a	n/a	n/a	460.272	n/a
431.416	0.497	happy	Picture	24.473	n/a	4	12	11	n/a	111	63	2	n/a	n/a	n/a	n/a	460.803	AM04HAS.jpg
431.914	0.514	Blank	Blank	23.959	n/a	4	12	11	n/a	111	n/a	2	n/a	n/a	n/a	n/a	461.3	n/a
432.444	0.497	happy	Picture	23.445	n/a	4	12	12	n/a	112	72	2	n/a	n/a	n/a	n/a	461.831	AM14HAS.jpg
432.941	0.514	Blank	Blank	22.931	n/a	4	12	12	n/a	112	n/a	2	n/a	n/a	n/a	n/a	462.328	n/a
433.472	0.497	happy	Picture	22.417	n/a	4	12	13	n/a	113	55	2	n/a	n/a	n/a	n/a	462.858	AF25HAS.jpg
433.969	0.514	Blank	Blank	21.903	n/a	4	12	13	n/a	113	n/a	2	n/a	n/a	n/a	n/a	463.356	n/a
434.5	0.497	happy	Picture	21.389	n/a	4	12	14	n/a	114	42	2	n/a	n/a	n/a	n/a	463.886	AF03HAS.jpg
434.997	0.514	Blank	Blank	20.875	n/a	4	12	14	n/a	114	n/a	2	n/a	n/a	n/a	n/a	464.384	n/a
435.528	0.497	happy	Picture	20.362	n/a	4	12	15	n/a	115	60	2	n/a	n/a	n/a	n/a	464.914	AF32HAS.jpg
436.025	0.514	Blank	Blank	19.848	n/a	4	12	15	n/a	115	n/a	2	n/a	n/a	n/a	n/a	465.412	n/a
436.556	0.497	happy	Picture	19.334	n/a	4	12	16	n/a	116	67	2	n/a	n/a	n/a	n/a	465.942	BM08HAS.jpg
437.053	0.514	Blank	Blank	18.82	n/a	4	12	16	n/a	116	n/a	2	n/a	n/a	n/a	n/a	466.44	n/a
437.584	0.497	happy	Picture	18.306	n/a	4	12	17	n/a	117	51	2	n/a	n/a	n/a	n/a	466.97	AF20HAS.jpg
438.081	0.514	Blank	Blank	17.792	n/a	4	12	17	n/a	117	n/a	2	n/a	n/a	n/a	n/a	467.467	n/a
438.611	0.497	happy	Picture	17.278	n/a	4	12	18	n/a	118	71	2	n/a	n/a	n/a	n/a	467.998	BM12HAS.jpg
439.109	0.514	Blank	Blank	16.764	n/a	4	12	18	n/a	118	n/a	2	n/a	n/a	n/a	n/a	468.495	n/a
439.639	0.497	happy	Picture	16.25	n/a	4	12	19	n/a	119	69	2	n/a	n/a	n/a	n/a	469.026	AM10HAS.jpg
440.137	0.514	Blank	Blank	15.736	n/a	4	12	19	n/a	119	n/a	2	n/a	n/a	n/a	n/a	469.523	n/a
440.667	0.497	happy	Picture	15.222	n/a	4	12	20	n/a	120	46	2	n/a	n/a	n/a	n/a	470.054	AF09HAS.jpg
441.164	0.514	Blank	Blank	14.708	n/a	4	12	20	n/a	120	n/a	2	n/a	n/a	n/a	n/a	470.551	n/a
441.695	10.014	ITI	Fixation+	4.678	n/a	4	n/a	n/a	n/a	n/a	n/a	n/a	n/a	n/a	n/a	n/a	471.082	n/a
456.387	n/a	ConfirmRating	Rate	n/a	4.676	4	n/a	n/a	0	n/a	n/a	n/a	2	Happy	100	54	485.773	n/a
461.774	n/a	ConfirmRating	Rate	n/a	5.372	4	n/a	n/a	1	n/a	n/a	n/a	3	Happy	0	45	491.16	n/a
