onset	duration	trial_type	event_type	trial_number	condition	picture_number	time_until_response	response_time	unpleasantness_rating	onset_uncorrected
0.006	5.123	ITI	Fixation+	0	Pain	n/a	8.897	n/a	n/a	30.599
5.146	3.498	Pic2	Picture	0	Pain	7	5.383	n/a	n/a	35.738
8.644	2.006	Blank	Blank	0	Pain	n/a	3.377	n/a	n/a	39.237
14.027	n/a	ConfirmRating	Rate	0	Pain	7	n/a	2.86	20	44.619
14.049	4.244	ITI	Fixation+	1	Pain	n/a	9.375	n/a	n/a	44.641
18.309	3.498	Pic2	Picture	1	Pain	15	5.86	n/a	n/a	48.902
21.808	2.006	Blank	Blank	1	Pain	n/a	3.854	n/a	n/a	52.4
27.668	n/a	ConfirmRating	Rate	1	Pain	15	n/a	3.338	29	58.26
27.693	4.725	ITI	Fixation+	2	No_Pain	n/a	8.551	n/a	n/a	58.285
32.434	3.498	Pic2	Picture	2	No_Pain	34	5.037	n/a	n/a	63.027
35.933	2.006	Blank	Blank	2	No_Pain	n/a	3.031	n/a	n/a	66.525
40.969	n/a	ConfirmRating	Rate	2	No_Pain	34	n/a	2.514	0	71.562
40.989	4.841	ITI	Fixation+	3	No_Pain	n/a	8.349	n/a	n/a	71.582
45.847	3.498	Pic2	Picture	3	No_Pain	35	4.834	n/a	n/a	76.439
49.345	2.006	Blank	Blank	3	No_Pain	n/a	2.828	n/a	n/a	79.937
54.179	n/a	ConfirmRating	Rate	3	No_Pain	35	n/a	2.311	0	84.772
54.202	5.372	ITI	Fixation+	4	Pain	n/a	9.818	n/a	n/a	84.795
59.59	3.498	Pic2	Picture	4	Pain	6	6.303	n/a	n/a	90.183
63.089	2.006	Blank	Blank	4	Pain	n/a	4.297	n/a	n/a	93.681
69.392	n/a	ConfirmRating	Rate	4	Pain	6	n/a	3.781	20	99.984
69.422	4.294	ITI	Fixation+	5	No_Pain	n/a	8.314	n/a	n/a	100.014
73.732	3.498	Pic2	Picture	5	No_Pain	29	4.799	n/a	n/a	104.325
77.23	2.006	Blank	Blank	5	No_Pain	n/a	2.793	n/a	n/a	107.823
82.03	n/a	ConfirmRating	Rate	5	No_Pain	29	n/a	2.277	0	112.622
82.055	4.775	ITI	Fixation+	6	No_Pain	n/a	7.411	n/a	n/a	112.647
86.846	3.498	Pic2	Picture	6	No_Pain	39	3.896	n/a	n/a	117.439
90.344	2.006	Blank	Blank	6	No_Pain	n/a	1.89	n/a	n/a	120.937
94.24	n/a	ConfirmRating	Rate	6	No_Pain	39	n/a	1.373	30	124.833
94.273	5.09	ITI	Fixation+	7	Pain	n/a	10.57	n/a	n/a	124.866
99.379	3.498	Pic2	Picture	7	Pain	9	7.055	n/a	n/a	129.972
102.877	2.006	Blank	Blank	7	Pain	n/a	5.049	n/a	n/a	133.47
109.933	n/a	ConfirmRating	Rate	7	Pain	9	n/a	4.533	24	140.526
109.957	5.968	ITI	Fixation+	8	Pain	n/a	6.938	n/a	n/a	140.549
115.942	3.498	Pic2	Picture	8	Pain	14	3.423	n/a	n/a	146.534
119.44	2.006	Blank	Blank	8	Pain	n/a	1.417	n/a	n/a	150.032
122.863	n/a	ConfirmRating	Rate	8	Pain	14	n/a	0.901	40	153.455
122.888	5.736	ITI	Fixation+	9	No_Pain	n/a	9.72	n/a	n/a	153.481
128.641	3.498	Pic2	Picture	9	No_Pain	27	6.206	n/a	n/a	159.233
132.139	2.006	Blank	Blank	9	No_Pain	n/a	4.199	n/a	n/a	162.732
138.344	n/a	ConfirmRating	Rate	9	No_Pain	27	n/a	3.683	0	168.937
138.373	5.587	ITI	Fixation+	10	Pain	n/a	10.619	n/a	n/a	168.965
143.976	3.498	Pic2	Picture	10	Pain	20	7.105	n/a	n/a	174.569
147.474	2.006	Blank	Blank	10	Pain	n/a	5.099	n/a	n/a	178.067
154.579	n/a	ConfirmRating	Rate	10	Pain	20	n/a	4.582	21	185.172
154.603	4.874	ITI	Fixation+	11	No_Pain	n/a	8.2	n/a	n/a	185.196
159.494	3.498	Pic2	Picture	11	No_Pain	40	4.685	n/a	n/a	190.087
162.992	2.006	Blank	Blank	11	No_Pain	n/a	2.679	n/a	n/a	193.585
167.677	n/a	ConfirmRating	Rate	11	No_Pain	40	n/a	2.162	0	198.27
167.7	4.742	ITI	Fixation+	12	No_Pain	n/a	9.248	n/a	n/a	198.293
172.459	3.498	Pic2	Picture	12	No_Pain	33	5.733	n/a	n/a	203.051
175.957	2.006	Blank	Blank	12	No_Pain	n/a	3.727	n/a	n/a	206.549
181.69	n/a	ConfirmRating	Rate	12	No_Pain	33	n/a	3.211	0	212.282
181.709	5.604	ITI	Fixation+	13	Pain	n/a	10.219	n/a	n/a	212.302
187.33	3.498	Pic2	Picture	13	Pain	18	6.705	n/a	n/a	217.922
190.828	2.006	Blank	Blank	13	Pain	n/a	4.699	n/a	n/a	221.42
197.532	n/a	ConfirmRating	Rate	13	Pain	18	n/a	4.182	35	228.125
197.559	4.493	ITI	Fixation+	14	No_Pain	n/a	7.284	n/a	n/a	228.151
202.068	3.498	Pic2	Picture	14	No_Pain	31	3.769	n/a	n/a	232.661
205.566	2.006	Blank	Blank	14	No_Pain	n/a	1.763	n/a	n/a	236.159
209.335	n/a	ConfirmRating	Rate	14	No_Pain	31	n/a	1.246	0	239.928
209.363	4.029	ITI	Fixation+	15	Pain	n/a	12.276	n/a	n/a	239.955
213.408	3.498	Pic2	Picture	15	Pain	17	8.762	n/a	n/a	244.001
216.906	2.006	Blank	Blank	15	Pain	n/a	6.756	n/a	n/a	247.499
225.668	n/a	ConfirmRating	Rate	15	Pain	17	n/a	6.239	63	256.26
225.693	4.078	ITI	Fixation+	16	Pain	n/a	11.25	n/a	n/a	256.286
229.788	3.498	Pic2	Picture	16	Pain	11	7.736	n/a	n/a	260.38
233.286	2.006	Blank	Blank	16	Pain	n/a	5.73	n/a	n/a	263.879
241.022	n/a	ConfirmRating	Rate	16	Pain	11	n/a	5.213	32	271.614
241.045	5.454	ITI	Fixation+	17	No_Pain	n/a	7.702	n/a	n/a	271.637
246.516	3.498	Pic2	Picture	17	No_Pain	36	4.187	n/a	n/a	277.108
250.014	2.006	Blank	Blank	17	No_Pain	n/a	2.181	n/a	n/a	280.606
254.201	n/a	ConfirmRating	Rate	17	No_Pain	36	n/a	1.665	0	284.794
254.225	4.941	ITI	Fixation+	18	Pain	n/a	10.043	n/a	n/a	284.817
259.182	3.498	Pic2	Picture	18	Pain	10	6.528	n/a	n/a	289.775
262.68	2.006	Blank	Blank	18	Pain	n/a	4.522	n/a	n/a	293.273
269.208	n/a	ConfirmRating	Rate	18	Pain	10	n/a	4.005	32	299.801
269.229	5.919	ITI	Fixation+	19	No_Pain	n/a	8.659	n/a	n/a	299.821
275.164	3.498	Pic2	Picture	19	No_Pain	23	5.145	n/a	n/a	305.757
278.662	2.006	Blank	Blank	19	No_Pain	n/a	3.139	n/a	n/a	309.255
283.807	n/a	ConfirmRating	Rate	19	No_Pain	23	n/a	2.622	0	314.399
283.835	15.004	Rest	n/a	19	n/a	n/a	-15.031	n/a	n/a	314.427
298.855	5.139	ITI	Fixation+	20	Pain	n/a	8.264	n/a	n/a	329.447
304.011	3.498	Pic2	Picture	20	Pain	1	4.749	n/a	n/a	334.603
307.509	2.006	Blank	Blank	20	Pain	n/a	2.743	n/a	n/a	338.102
312.258	n/a	ConfirmRating	Rate	20	Pain	1	n/a	2.226	37	342.851
312.284	4.924	ITI	Fixation+	21	Pain	n/a	10.696	n/a	n/a	342.876
317.224	3.498	Pic2	Picture	21	Pain	8	7.182	n/a	n/a	347.817
320.722	2.006	Blank	Blank	21	Pain	n/a	5.176	n/a	n/a	351.315
327.904	n/a	ConfirmRating	Rate	21	Pain	8	n/a	4.659	28	358.497
327.934	5.007	ITI	Fixation+	22	No_Pain	n/a	7.651	n/a	n/a	358.527
332.957	3.498	Pic2	Picture	22	No_Pain	22	4.136	n/a	n/a	363.55
336.455	2.006	Blank	Blank	22	No_Pain	n/a	2.13	n/a	n/a	367.048
340.592	n/a	ConfirmRating	Rate	22	No_Pain	22	n/a	1.614	0	371.184
340.617	4.974	ITI	Fixation+	23	Pain	n/a	10.113	n/a	n/a	371.209
345.607	3.498	Pic2	Picture	23	Pain	16	6.598	n/a	n/a	376.2
349.105	2.006	Blank	Blank	23	Pain	n/a	4.592	n/a	n/a	379.698
355.704	n/a	ConfirmRating	Rate	23	Pain	16	n/a	4.076	32	386.296
355.737	5.537	ITI	Fixation+	24	No_Pain	n/a	8.991	n/a	n/a	386.329
361.291	3.498	Pic2	Picture	24	No_Pain	38	5.477	n/a	n/a	391.883
364.789	2.006	Blank	Blank	24	No_Pain	n/a	3.471	n/a	n/a	395.381
370.265	n/a	ConfirmRating	Rate	24	No_Pain	38	n/a	2.954	0	400.858
370.293	4.891	ITI	Fixation+	25	No_Pain	n/a	10.851	n/a	n/a	400.885
375.2	3.498	Pic2	Picture	25	No_Pain	21	7.336	n/a	n/a	405.793
378.698	2.006	Blank	Blank	25	No_Pain	n/a	5.33	n/a	n/a	409.291
386.034	n/a	ConfirmRating	Rate	25	No_Pain	21	n/a	4.813	0	416.627
386.059	4.592	ITI	Fixation+	26	Pain	n/a	8.864	n/a	n/a	416.652
390.668	3.498	Pic2	Picture	26	Pain	5	5.35	n/a	n/a	421.261
394.166	2.006	Blank	Blank	26	Pain	n/a	3.344	n/a	n/a	424.759
399.516	n/a	ConfirmRating	Rate	26	Pain	5	n/a	2.827	27	430.108
399.538	5.322	ITI	Fixation+	27	No_Pain	n/a	8.95	n/a	n/a	430.13
404.876	3.498	Pic2	Picture	27	No_Pain	32	5.435	n/a	n/a	435.469
408.374	2.006	Blank	Blank	27	No_Pain	n/a	3.429	n/a	n/a	438.967
413.809	n/a	ConfirmRating	Rate	27	No_Pain	32	n/a	2.913	0	444.402
413.829	5.653	ITI	Fixation+	28	Pain	n/a	9.038	n/a	n/a	444.421
419.498	3.498	Pic2	Picture	28	Pain	13	5.524	n/a	n/a	450.091
422.997	2.006	Blank	Blank	28	Pain	n/a	3.518	n/a	n/a	453.589
428.52	n/a	ConfirmRating	Rate	28	Pain	13	n/a	3.001	30	459.113
428.55	4.426	ITI	Fixation+	29	No_Pain	n/a	7.771	n/a	n/a	459.143
432.994	3.498	Pic2	Picture	29	No_Pain	28	4.256	n/a	n/a	463.586
436.492	2.006	Blank	Blank	29	No_Pain	n/a	2.25	n/a	n/a	467.084
440.748	n/a	ConfirmRating	Rate	29	No_Pain	28	n/a	1.734	0	471.341
440.769	4.443	ITI	Fixation+	30	Pain	n/a	10.357	n/a	n/a	471.362
445.229	3.498	Pic2	Picture	30	Pain	4	6.842	n/a	n/a	475.821
448.727	2.006	Blank	Blank	30	Pain	n/a	4.836	n/a	n/a	479.319
455.569	n/a	ConfirmRating	Rate	30	Pain	4	n/a	4.319	28	486.161
455.59	4.311	ITI	Fixation+	31	No_Pain	n/a	7.161	n/a	n/a	486.183
459.917	3.498	Pic2	Picture	31	No_Pain	30	3.646	n/a	n/a	490.51
463.416	2.006	Blank	Blank	31	No_Pain	n/a	1.64	n/a	n/a	494.008
467.062	n/a	ConfirmRating	Rate	31	No_Pain	30	n/a	1.124	0	497.654
467.079	4.41	ITI	Fixation+	32	Pain	n/a	8.985	n/a	n/a	497.672
471.506	3.498	Pic2	Picture	32	Pain	3	5.47	n/a	n/a	502.099
475.004	2.006	Blank	Blank	32	Pain	n/a	3.464	n/a	n/a	505.597
480.474	n/a	ConfirmRating	Rate	32	Pain	3	n/a	2.947	24	511.067
480.492	4.294	ITI	Fixation+	33	Pain	n/a	28.353	n/a	n/a	511.084
484.802	3.498	Pic2	Picture	33	Pain	12	24.838	n/a	n/a	515.395
488.3	2.006	Blank	Blank	33	Pain	n/a	22.832	n/a	n/a	518.893
513.139	n/a	ConfirmRating	Rate	33	Pain	12	n/a	22.316	21	543.731
513.168	4.625	ITI	Fixation+	34	No_Pain	n/a	8.537	n/a	n/a	543.761
517.81	3.498	Pic2	Picture	34	No_Pain	26	5.022	n/a	n/a	548.403
521.309	2.006	Blank	Blank	34	No_Pain	n/a	3.016	n/a	n/a	551.901
526.33	n/a	ConfirmRating	Rate	34	No_Pain	26	n/a	2.5	0	556.923
526.349	4.128	ITI	Fixation+	35	Pain	n/a	9.392	n/a	n/a	556.941
530.493	3.498	Pic2	Picture	35	Pain	2	5.878	n/a	n/a	561.086
533.991	2.006	Blank	Blank	35	Pain	n/a	3.872	n/a	n/a	564.584
539.869	n/a	ConfirmRating	Rate	35	Pain	2	n/a	3.355	26	570.462
539.893	5.571	ITI	Fixation+	36	No_Pain	n/a	9.849	n/a	n/a	570.486
545.48	3.498	Pic2	Picture	36	No_Pain	37	6.334	n/a	n/a	576.073
548.979	2.006	Blank	Blank	36	No_Pain	n/a	4.328	n/a	n/a	579.571
555.313	n/a	ConfirmRating	Rate	36	No_Pain	37	n/a	3.812	28	585.905
555.345	4.725	ITI	Fixation+	37	Pain	n/a	9.317	n/a	n/a	585.937
560.086	3.498	Pic2	Picture	37	Pain	19	5.802	n/a	n/a	590.679
563.584	2.006	Blank	Blank	37	Pain	n/a	3.796	n/a	n/a	594.177
569.387	n/a	ConfirmRating	Rate	37	Pain	19	n/a	3.28	31	599.979
569.404	5.189	ITI	Fixation+	38	No_Pain	n/a	8.274	n/a	n/a	599.996
574.609	3.498	Pic2	Picture	38	No_Pain	25	4.759	n/a	n/a	605.202
578.107	2.006	Blank	Blank	38	No_Pain	n/a	2.753	n/a	n/a	608.7
582.866	n/a	ConfirmRating	Rate	38	No_Pain	25	n/a	2.236	0	613.459
582.899	4.858	ITI	Fixation+	39	No_Pain	n/a	10.488	n/a	n/a	613.491
587.773	3.498	Pic2	Picture	39	No_Pain	24	6.973	n/a	n/a	618.365
591.271	2.006	Blank	Blank	39	No_Pain	n/a	4.967	n/a	n/a	621.864
598.244	n/a	ConfirmRating	Rate	39	No_Pain	24	n/a	4.45	0	628.837
