onset	duration	trial_type	event_type	time_until_response	response_time	trial_number	block_num_within_trial	image_seq_num_within_block	question_seq_num_within_block	image_seq_num	picture_number	condition	question_type	block_type	rating	rating_computed	onset_uncorrected	KDEV_imagefile
0.007	10.014	ITI	Fixation+	94.912	n/a	1	n/a	n/a	n/a	n/a	n/a	n/a	n/a	n/a	n/a	n/a	28.858	n/a
10.037	0.497	angry	Picture	94.398	n/a	1	1	1	n/a	1	108	3	n/a	n/a	n/a	n/a	38.889	AM09ANS.jpg
10.535	0.514	Blank	Blank	93.884	n/a	1	1	1	n/a	1	n/a	3	n/a	n/a	n/a	n/a	39.386	n/a
11.065	0.497	angry	Picture	93.37	n/a	1	1	2	n/a	2	99	3	n/a	n/a	n/a	n/a	39.917	AF31ANS.jpg
11.563	0.514	Blank	Blank	92.856	n/a	1	1	2	n/a	2	n/a	3	n/a	n/a	n/a	n/a	40.414	n/a
12.093	0.497	angry	Picture	92.342	n/a	1	1	3	n/a	3	98	3	n/a	n/a	n/a	n/a	40.944	BF29ANS.jpg
12.59	0.514	Blank	Blank	91.828	n/a	1	1	3	n/a	3	n/a	3	n/a	n/a	n/a	n/a	41.442	n/a
13.121	0.497	angry	Picture	91.314	n/a	1	1	4	n/a	4	107	3	n/a	n/a	n/a	n/a	41.972	BM08ANS.jpg
13.618	0.514	Blank	Blank	90.8	n/a	1	1	4	n/a	4	n/a	3	n/a	n/a	n/a	n/a	42.47	n/a
14.149	0.497	angry	Picture	90.286	n/a	1	1	5	n/a	5	104	3	n/a	n/a	n/a	n/a	43.0	BM05ANS.jpg
14.646	0.514	Blank	Blank	89.772	n/a	1	1	5	n/a	5	n/a	3	n/a	n/a	n/a	n/a	43.498	n/a
15.177	0.497	angry	Picture	89.258	n/a	1	1	6	n/a	6	101	3	n/a	n/a	n/a	n/a	44.028	AM01ANS.jpg
15.674	0.514	Blank	Blank	88.744	n/a	1	1	6	n/a	6	n/a	3	n/a	n/a	n/a	n/a	44.526	n/a
16.205	0.497	angry	Picture	88.231	n/a	1	1	7	n/a	7	103	3	n/a	n/a	n/a	n/a	45.056	AM04ANS.jpg
16.702	0.514	Blank	Blank	87.717	n/a	1	1	7	n/a	7	n/a	3	n/a	n/a	n/a	n/a	45.553	n/a
17.232	0.497	angry	Picture	87.203	n/a	1	1	8	n/a	8	111	3	n/a	n/a	n/a	n/a	46.084	BM12ANS.jpg
17.73	0.514	Blank	Blank	86.689	n/a	1	1	8	n/a	8	n/a	3	n/a	n/a	n/a	n/a	46.581	n/a
18.26	0.497	angry	Picture	86.175	n/a	1	1	9	n/a	9	110	3	n/a	n/a	n/a	n/a	47.112	AM11ANS.jpg
18.758	0.514	Blank	Blank	85.661	n/a	1	1	9	n/a	9	n/a	3	n/a	n/a	n/a	n/a	47.609	n/a
19.288	0.497	angry	Picture	85.147	n/a	1	1	10	n/a	10	85	3	n/a	n/a	n/a	n/a	48.14	BF07ANS.jpg
19.786	0.514	Blank	Blank	84.633	n/a	1	1	10	n/a	10	n/a	3	n/a	n/a	n/a	n/a	48.637	n/a
20.316	0.497	angry	Picture	84.119	n/a	1	1	11	n/a	11	87	3	n/a	n/a	n/a	n/a	49.168	BF11ANS.jpg
20.813	0.514	Blank	Blank	83.605	n/a	1	1	11	n/a	11	n/a	3	n/a	n/a	n/a	n/a	49.665	n/a
21.344	0.497	angry	Picture	83.091	n/a	1	1	12	n/a	12	91	3	n/a	n/a	n/a	n/a	50.196	AF20ANS.jpg
21.841	0.514	Blank	Blank	82.577	n/a	1	1	12	n/a	12	n/a	3	n/a	n/a	n/a	n/a	50.693	n/a
22.372	0.497	angry	Picture	82.063	n/a	1	1	13	n/a	13	115	3	n/a	n/a	n/a	n/a	51.223	AM23ANS.jpg
22.869	0.514	Blank	Blank	81.549	n/a	1	1	13	n/a	13	n/a	3	n/a	n/a	n/a	n/a	51.721	n/a
23.4	0.497	angry	Picture	81.035	n/a	1	1	14	n/a	14	97	3	n/a	n/a	n/a	n/a	52.251	BF28ANS.jpg
23.897	0.514	Blank	Blank	80.521	n/a	1	1	14	n/a	14	n/a	3	n/a	n/a	n/a	n/a	52.749	n/a
24.428	0.497	angry	Picture	80.007	n/a	1	1	15	n/a	15	82	3	n/a	n/a	n/a	n/a	53.279	AF03ANS.jpg
24.925	0.514	Blank	Blank	79.493	n/a	1	1	15	n/a	15	n/a	3	n/a	n/a	n/a	n/a	53.776	n/a
25.456	0.497	angry	Picture	78.98	n/a	1	1	16	n/a	16	96	3	n/a	n/a	n/a	n/a	54.307	AF26ANS.jpg
25.953	0.514	Blank	Blank	78.466	n/a	1	1	16	n/a	16	n/a	3	n/a	n/a	n/a	n/a	54.804	n/a
26.483	0.497	angry	Picture	77.952	n/a	1	1	17	n/a	17	109	3	n/a	n/a	n/a	n/a	55.335	AM10ANS.jpg
26.981	0.514	Blank	Blank	77.438	n/a	1	1	17	n/a	17	n/a	3	n/a	n/a	n/a	n/a	55.832	n/a
27.511	0.497	angry	Picture	76.924	n/a	1	1	18	n/a	18	114	3	n/a	n/a	n/a	n/a	56.363	AM22ANS.jpg
28.009	0.514	Blank	Blank	76.41	n/a	1	1	18	n/a	18	n/a	3	n/a	n/a	n/a	n/a	56.86	n/a
28.539	0.497	angry	Picture	75.896	n/a	1	1	19	n/a	19	120	3	n/a	n/a	n/a	n/a	57.391	AM35ANS.jpg
29.037	0.514	Blank	Blank	75.382	n/a	1	1	19	n/a	19	n/a	3	n/a	n/a	n/a	n/a	57.888	n/a
29.567	0.497	angry	Picture	74.868	n/a	1	1	20	n/a	20	81	3	n/a	n/a	n/a	n/a	58.419	AF01ANS.jpg
30.064	0.514	Blank	Blank	74.354	n/a	1	1	20	n/a	20	n/a	3	n/a	n/a	n/a	n/a	58.916	n/a
30.595	10.014	ITI	Fixation+	64.324	n/a	1	n/a	n/a	n/a	n/a	n/a	n/a	n/a	n/a	n/a	n/a	59.447	n/a
40.625	0.497	neutral	Picture	63.81	n/a	1	2	1	n/a	21	28	1	n/a	n/a	n/a	n/a	69.477	AM09NES.jpg
41.123	0.514	Blank	Blank	63.296	n/a	1	2	1	n/a	21	n/a	1	n/a	n/a	n/a	n/a	69.974	n/a
41.653	0.497	neutral	Picture	62.782	n/a	1	2	2	n/a	22	27	1	n/a	n/a	n/a	n/a	70.505	BM08NES.jpg
42.15	0.514	Blank	Blank	62.268	n/a	1	2	2	n/a	22	n/a	1	n/a	n/a	n/a	n/a	71.002	n/a
42.681	0.497	neutral	Picture	61.754	n/a	1	2	3	n/a	23	16	1	n/a	n/a	n/a	n/a	71.532	AF26NES.jpg
43.178	0.514	Blank	Blank	61.24	n/a	1	2	3	n/a	23	n/a	1	n/a	n/a	n/a	n/a	72.03	n/a
43.709	0.497	neutral	Picture	60.726	n/a	1	2	4	n/a	24	3	1	n/a	n/a	n/a	n/a	72.56	BF04NES.jpg
44.206	0.514	Blank	Blank	60.212	n/a	1	2	4	n/a	24	n/a	1	n/a	n/a	n/a	n/a	73.058	n/a
44.737	0.497	neutral	Picture	59.698	n/a	1	2	5	n/a	25	32	1	n/a	n/a	n/a	n/a	73.588	AM14NES.jpg
45.234	0.514	Blank	Blank	59.184	n/a	1	2	5	n/a	25	n/a	1	n/a	n/a	n/a	n/a	74.086	n/a
45.765	0.497	neutral	Picture	58.67	n/a	1	2	6	n/a	26	37	1	n/a	n/a	n/a	n/a	74.616	BM25NES.jpg
46.262	0.514	Blank	Blank	58.156	n/a	1	2	6	n/a	26	n/a	1	n/a	n/a	n/a	n/a	75.114	n/a
46.793	0.497	neutral	Picture	57.643	n/a	1	2	7	n/a	27	15	1	n/a	n/a	n/a	n/a	75.644	AF25NES.jpg
47.29	0.514	Blank	Blank	57.129	n/a	1	2	7	n/a	27	n/a	1	n/a	n/a	n/a	n/a	76.141	n/a
47.82	0.497	neutral	Picture	56.615	n/a	1	2	8	n/a	28	23	1	n/a	n/a	n/a	n/a	76.672	AM04NES.jpg
48.318	0.514	Blank	Blank	56.101	n/a	1	2	8	n/a	28	n/a	1	n/a	n/a	n/a	n/a	77.169	n/a
48.848	0.497	neutral	Picture	55.587	n/a	1	2	9	n/a	29	34	1	n/a	n/a	n/a	n/a	77.7	AM22NES.jpg
49.346	0.514	Blank	Blank	55.073	n/a	1	2	9	n/a	29	n/a	1	n/a	n/a	n/a	n/a	78.197	n/a
49.876	0.497	neutral	Picture	54.559	n/a	1	2	10	n/a	30	24	1	n/a	n/a	n/a	n/a	78.728	BM05NES.jpg
50.374	0.514	Blank	Blank	54.045	n/a	1	2	10	n/a	30	n/a	1	n/a	n/a	n/a	n/a	79.225	n/a
50.904	0.497	neutral	Picture	53.531	n/a	1	2	11	n/a	31	12	1	n/a	n/a	n/a	n/a	79.756	AF21NES.jpg
51.401	0.514	Blank	Blank	53.017	n/a	1	2	11	n/a	31	n/a	1	n/a	n/a	n/a	n/a	80.253	n/a
51.932	0.497	neutral	Picture	52.503	n/a	1	2	12	n/a	32	6	1	n/a	n/a	n/a	n/a	80.784	AF09NES.jpg
52.429	0.514	Blank	Blank	51.989	n/a	1	2	12	n/a	32	n/a	1	n/a	n/a	n/a	n/a	81.281	n/a
52.96	0.497	neutral	Picture	51.475	n/a	1	2	13	n/a	33	17	1	n/a	n/a	n/a	n/a	81.811	BF28NES.jpg
53.457	0.514	Blank	Blank	50.961	n/a	1	2	13	n/a	33	n/a	1	n/a	n/a	n/a	n/a	82.309	n/a
53.988	0.497	neutral	Picture	50.447	n/a	1	2	14	n/a	34	2	1	n/a	n/a	n/a	n/a	82.839	AF03NES.jpg
54.485	0.514	Blank	Blank	49.933	n/a	1	2	14	n/a	34	n/a	1	n/a	n/a	n/a	n/a	83.337	n/a
55.016	0.497	neutral	Picture	49.419	n/a	1	2	15	n/a	35	9	1	n/a	n/a	n/a	n/a	83.867	AF17NES.jpg
55.513	0.514	Blank	Blank	48.905	n/a	1	2	15	n/a	35	n/a	1	n/a	n/a	n/a	n/a	84.365	n/a
56.044	0.497	neutral	Picture	48.391	n/a	1	2	16	n/a	36	25	1	n/a	n/a	n/a	n/a	84.895	BM06NES.jpg
56.541	0.514	Blank	Blank	47.878	n/a	1	2	16	n/a	36	n/a	1	n/a	n/a	n/a	n/a	85.392	n/a
57.072	0.497	neutral	Picture	47.364	n/a	1	2	17	n/a	37	8	1	n/a	n/a	n/a	n/a	85.923	AF14NES.jpg
57.569	0.514	Blank	Blank	46.85	n/a	1	2	17	n/a	37	n/a	1	n/a	n/a	n/a	n/a	86.42	n/a
58.099	0.497	neutral	Picture	46.336	n/a	1	2	18	n/a	38	19	1	n/a	n/a	n/a	n/a	86.951	AF31NES.jpg
58.597	0.514	Blank	Blank	45.822	n/a	1	2	18	n/a	38	n/a	1	n/a	n/a	n/a	n/a	87.448	n/a
59.127	0.497	neutral	Picture	45.308	n/a	1	2	19	n/a	39	14	1	n/a	n/a	n/a	n/a	87.979	AF23NES.jpg
59.625	0.514	Blank	Blank	44.794	n/a	1	2	19	n/a	39	n/a	1	n/a	n/a	n/a	n/a	88.476	n/a
60.155	0.497	neutral	Picture	44.28	n/a	1	2	20	n/a	40	4	1	n/a	n/a	n/a	n/a	89.007	AF05NES.jpg
60.653	0.514	Blank	Blank	43.766	n/a	1	2	20	n/a	40	n/a	1	n/a	n/a	n/a	n/a	89.504	n/a
61.183	10.014	ITI	Fixation+	33.736	n/a	1	n/a	n/a	n/a	n/a	n/a	n/a	n/a	n/a	n/a	n/a	90.034	n/a
71.213	0.497	angry	Picture	33.222	n/a	1	3	1	n/a	41	84	3	n/a	n/a	n/a	n/a	100.065	AF05ANS.jpg
71.711	0.514	Blank	Blank	32.708	n/a	1	3	1	n/a	41	n/a	3	n/a	n/a	n/a	n/a	100.562	n/a
72.241	0.497	angry	Picture	32.194	n/a	1	3	2	n/a	42	92	3	n/a	n/a	n/a	n/a	101.093	AF21ANS.jpg
72.739	0.514	Blank	Blank	31.68	n/a	1	3	2	n/a	42	n/a	3	n/a	n/a	n/a	n/a	101.59	n/a
73.269	0.497	angry	Picture	31.166	n/a	1	3	3	n/a	43	86	3	n/a	n/a	n/a	n/a	102.121	AF09ANS.jpg
73.766	0.514	Blank	Blank	30.652	n/a	1	3	3	n/a	43	n/a	3	n/a	n/a	n/a	n/a	102.618	n/a
74.297	0.497	angry	Picture	30.138	n/a	1	3	4	n/a	44	93	3	n/a	n/a	n/a	n/a	103.148	BF22ANS.jpg
74.794	0.514	Blank	Blank	29.624	n/a	1	3	4	n/a	44	n/a	3	n/a	n/a	n/a	n/a	103.646	n/a
75.325	0.497	angry	Picture	29.11	n/a	1	3	5	n/a	45	88	3	n/a	n/a	n/a	n/a	104.176	AF14ANS.jpg
75.822	0.514	Blank	Blank	28.596	n/a	1	3	5	n/a	45	n/a	3	n/a	n/a	n/a	n/a	104.674	n/a
76.353	0.497	angry	Picture	28.082	n/a	1	3	6	n/a	46	113	3	n/a	n/a	n/a	n/a	105.204	AM21ANS.jpg
76.85	0.514	Blank	Blank	27.568	n/a	1	3	6	n/a	46	n/a	3	n/a	n/a	n/a	n/a	105.702	n/a
77.381	0.497	angry	Picture	27.054	n/a	1	3	7	n/a	47	95	3	n/a	n/a	n/a	n/a	106.232	AF25ANS.jpg
77.878	0.514	Blank	Blank	26.541	n/a	1	3	7	n/a	47	n/a	3	n/a	n/a	n/a	n/a	106.73	n/a
78.409	0.497	angry	Picture	26.027	n/a	1	3	8	n/a	48	102	3	n/a	n/a	n/a	n/a	107.26	BM03ANS.jpg
78.906	0.514	Blank	Blank	25.513	n/a	1	3	8	n/a	48	n/a	3	n/a	n/a	n/a	n/a	107.757	n/a
79.436	0.497	angry	Picture	24.999	n/a	1	3	9	n/a	49	112	3	n/a	n/a	n/a	n/a	108.288	AM14ANS.jpg
79.934	0.514	Blank	Blank	24.485	n/a	1	3	9	n/a	49	n/a	3	n/a	n/a	n/a	n/a	108.785	n/a
80.464	0.497	angry	Picture	23.971	n/a	1	3	10	n/a	50	83	3	n/a	n/a	n/a	n/a	109.316	BF04ANS.jpg
80.962	0.514	Blank	Blank	23.457	n/a	1	3	10	n/a	50	n/a	3	n/a	n/a	n/a	n/a	109.813	n/a
81.492	0.497	angry	Picture	22.943	n/a	1	3	11	n/a	51	90	3	n/a	n/a	n/a	n/a	110.344	AF18ANS.jpg
81.989	0.514	Blank	Blank	22.429	n/a	1	3	11	n/a	51	n/a	3	n/a	n/a	n/a	n/a	110.841	n/a
82.52	0.497	angry	Picture	21.915	n/a	1	3	12	n/a	52	117	3	n/a	n/a	n/a	n/a	111.372	BM25ANS.jpg
83.017	0.514	Blank	Blank	21.401	n/a	1	3	12	n/a	52	n/a	3	n/a	n/a	n/a	n/a	111.869	n/a
83.548	0.497	angry	Picture	20.887	n/a	1	3	13	n/a	53	94	3	n/a	n/a	n/a	n/a	112.399	AF23ANS.jpg
84.045	0.514	Blank	Blank	20.373	n/a	1	3	13	n/a	53	n/a	3	n/a	n/a	n/a	n/a	112.897	n/a
84.576	0.497	angry	Picture	19.859	n/a	1	3	14	n/a	54	106	3	n/a	n/a	n/a	n/a	113.427	AM07ANS.jpg
85.073	0.514	Blank	Blank	19.345	n/a	1	3	14	n/a	54	n/a	3	n/a	n/a	n/a	n/a	113.925	n/a
85.604	0.497	angry	Picture	18.831	n/a	1	3	15	n/a	55	105	3	n/a	n/a	n/a	n/a	114.455	BM06ANS.jpg
86.101	0.514	Blank	Blank	18.317	n/a	1	3	15	n/a	55	n/a	3	n/a	n/a	n/a	n/a	114.953	n/a
86.632	0.497	angry	Picture	17.803	n/a	1	3	16	n/a	56	116	3	n/a	n/a	n/a	n/a	115.483	BM24ANS.jpg
87.129	0.514	Blank	Blank	17.29	n/a	1	3	16	n/a	56	n/a	3	n/a	n/a	n/a	n/a	115.981	n/a
87.659	0.497	angry	Picture	16.776	n/a	1	3	17	n/a	57	89	3	n/a	n/a	n/a	n/a	116.511	AF17ANS.jpg
88.157	0.514	Blank	Blank	16.262	n/a	1	3	17	n/a	57	n/a	3	n/a	n/a	n/a	n/a	117.008	n/a
88.687	0.497	angry	Picture	15.748	n/a	1	3	18	n/a	58	118	3	n/a	n/a	n/a	n/a	117.539	BM26ANS.jpg
89.185	0.514	Blank	Blank	15.234	n/a	1	3	18	n/a	58	n/a	3	n/a	n/a	n/a	n/a	118.036	n/a
89.715	0.497	angry	Picture	14.72	n/a	1	3	19	n/a	59	100	3	n/a	n/a	n/a	n/a	118.567	AF32ANS.jpg
90.213	0.514	Blank	Blank	14.206	n/a	1	3	19	n/a	59	n/a	3	n/a	n/a	n/a	n/a	119.064	n/a
90.743	0.497	angry	Picture	13.692	n/a	1	3	20	n/a	60	119	3	n/a	n/a	n/a	n/a	119.595	BM28ANS.jpg
91.24	0.514	Blank	Blank	13.178	n/a	1	3	20	n/a	60	n/a	3	n/a	n/a	n/a	n/a	120.092	n/a
91.771	10.014	ITI	Fixation+	3.148	n/a	1	n/a	n/a	n/a	n/a	n/a	n/a	n/a	n/a	n/a	n/a	120.623	n/a
104.932	n/a	ConfirmRating	Rate	n/a	3.117	1	n/a	n/a	0	n/a	n/a	n/a	2	Angry	50	50	133.784	n/a
112.002	n/a	ConfirmRating	Rate	n/a	7.063	1	n/a	n/a	1	n/a	n/a	n/a	3	Angry	23	49	140.854	n/a
112.031	10.014	ITI	Fixation+	95.701	n/a	2	n/a	n/a	n/a	n/a	n/a	n/a	n/a	n/a	n/a	n/a	140.882	n/a
122.061	0.497	happy	Picture	95.187	n/a	2	4	1	n/a	61	79	2	n/a	n/a	n/a	n/a	150.912	BM28HAS.jpg
122.558	0.514	Blank	Blank	94.673	n/a	2	4	1	n/a	61	n/a	2	n/a	n/a	n/a	n/a	151.41	n/a
123.089	0.497	happy	Picture	94.159	n/a	2	4	2	n/a	62	61	2	n/a	n/a	n/a	n/a	151.94	AM01HAS.jpg
123.586	0.514	Blank	Blank	93.645	n/a	2	4	2	n/a	62	n/a	2	n/a	n/a	n/a	n/a	152.437	n/a
124.116	0.497	happy	Picture	93.132	n/a	2	4	3	n/a	63	57	2	n/a	n/a	n/a	n/a	152.968	BF28HAS.jpg
124.614	0.514	Blank	Blank	92.617	n/a	2	4	3	n/a	63	n/a	2	n/a	n/a	n/a	n/a	153.465	n/a
125.144	0.497	happy	Picture	92.104	n/a	2	4	4	n/a	64	77	2	n/a	n/a	n/a	n/a	153.996	BM25HAS.jpg
125.642	0.514	Blank	Blank	91.59	n/a	2	4	4	n/a	64	n/a	2	n/a	n/a	n/a	n/a	154.493	n/a
126.172	0.497	happy	Picture	91.076	n/a	2	4	5	n/a	65	47	2	n/a	n/a	n/a	n/a	155.024	BF11HAS.jpg
126.67	0.514	Blank	Blank	90.562	n/a	2	4	5	n/a	65	n/a	2	n/a	n/a	n/a	n/a	155.521	n/a
127.2	0.497	happy	Picture	90.048	n/a	2	4	6	n/a	66	50	2	n/a	n/a	n/a	n/a	156.052	AF18HAS.jpg
127.698	0.514	Blank	Blank	89.534	n/a	2	4	6	n/a	66	n/a	2	n/a	n/a	n/a	n/a	156.549	n/a
128.228	0.497	happy	Picture	89.02	n/a	2	4	7	n/a	67	78	2	n/a	n/a	n/a	n/a	157.079	BM26HAS.jpg
128.725	0.514	Blank	Blank	88.506	n/a	2	4	7	n/a	67	n/a	2	n/a	n/a	n/a	n/a	157.577	n/a
129.256	0.497	happy	Picture	87.992	n/a	2	4	8	n/a	68	45	2	n/a	n/a	n/a	n/a	158.107	BF07HAS.jpg
129.753	0.514	Blank	Blank	87.478	n/a	2	4	8	n/a	68	n/a	2	n/a	n/a	n/a	n/a	158.605	n/a
130.284	0.497	happy	Picture	86.964	n/a	2	4	9	n/a	69	56	2	n/a	n/a	n/a	n/a	159.135	AF26HAS.jpg
130.781	0.514	Blank	Blank	86.45	n/a	2	4	9	n/a	69	n/a	2	n/a	n/a	n/a	n/a	159.633	n/a
131.312	0.497	happy	Picture	85.936	n/a	2	4	10	n/a	70	65	2	n/a	n/a	n/a	n/a	160.163	BM06HAS.jpg
131.809	0.514	Blank	Blank	85.422	n/a	2	4	10	n/a	70	n/a	2	n/a	n/a	n/a	n/a	160.661	n/a
132.34	0.497	happy	Picture	84.908	n/a	2	4	11	n/a	71	73	2	n/a	n/a	n/a	n/a	161.191	AM21HAS.jpg
132.837	0.514	Blank	Blank	84.394	n/a	2	4	11	n/a	71	n/a	2	n/a	n/a	n/a	n/a	161.688	n/a
133.368	0.497	happy	Picture	83.88	n/a	2	4	12	n/a	72	41	2	n/a	n/a	n/a	n/a	162.219	AF01HAS.jpg
133.865	0.514	Blank	Blank	83.366	n/a	2	4	12	n/a	72	n/a	2	n/a	n/a	n/a	n/a	162.716	n/a
134.395	0.497	happy	Picture	82.853	n/a	2	4	13	n/a	73	59	2	n/a	n/a	n/a	n/a	163.247	AF31HAS.jpg
134.893	0.514	Blank	Blank	82.339	n/a	2	4	13	n/a	73	n/a	2	n/a	n/a	n/a	n/a	163.744	n/a
135.423	0.497	happy	Picture	81.825	n/a	2	4	14	n/a	74	64	2	n/a	n/a	n/a	n/a	164.275	BM05HAS.jpg
135.921	0.514	Blank	Blank	81.311	n/a	2	4	14	n/a	74	n/a	2	n/a	n/a	n/a	n/a	164.772	n/a
136.451	0.497	happy	Picture	80.797	n/a	2	4	15	n/a	75	68	2	n/a	n/a	n/a	n/a	165.303	AM09HAS.jpg
136.949	0.514	Blank	Blank	80.283	n/a	2	4	15	n/a	75	n/a	2	n/a	n/a	n/a	n/a	165.8	n/a
137.479	0.497	happy	Picture	79.769	n/a	2	4	16	n/a	76	54	2	n/a	n/a	n/a	n/a	166.331	AF23HAS.jpg
137.976	0.514	Blank	Blank	79.255	n/a	2	4	16	n/a	76	n/a	2	n/a	n/a	n/a	n/a	166.828	n/a
138.507	0.497	happy	Picture	78.741	n/a	2	4	17	n/a	77	53	2	n/a	n/a	n/a	n/a	167.358	BF22HAS.jpg
139.004	0.514	Blank	Blank	78.227	n/a	2	4	17	n/a	77	n/a	2	n/a	n/a	n/a	n/a	167.856	n/a
139.535	0.497	happy	Picture	77.713	n/a	2	4	18	n/a	78	44	2	n/a	n/a	n/a	n/a	168.386	AF05HAS.jpg
140.032	0.514	Blank	Blank	77.199	n/a	2	4	18	n/a	78	n/a	2	n/a	n/a	n/a	n/a	168.884	n/a
140.563	0.497	happy	Picture	76.685	n/a	2	4	19	n/a	79	52	2	n/a	n/a	n/a	n/a	169.414	AF21HAS.jpg
141.06	0.514	Blank	Blank	76.171	n/a	2	4	19	n/a	79	n/a	2	n/a	n/a	n/a	n/a	169.912	n/a
141.591	0.497	happy	Picture	75.657	n/a	2	4	20	n/a	80	62	2	n/a	n/a	n/a	n/a	170.442	BM03HAS.jpg
142.088	0.514	Blank	Blank	75.143	n/a	2	4	20	n/a	80	n/a	2	n/a	n/a	n/a	n/a	170.94	n/a
142.618	10.014	ITI	Fixation+	65.113	n/a	2	n/a	n/a	n/a	n/a	n/a	n/a	n/a	n/a	n/a	n/a	171.47	n/a
152.649	0.497	neutral	Picture	64.599	n/a	2	5	1	n/a	81	23	1	n/a	n/a	n/a	n/a	181.5	AM04NES.jpg
153.146	0.514	Blank	Blank	64.085	n/a	2	5	1	n/a	81	n/a	1	n/a	n/a	n/a	n/a	181.998	n/a
153.677	0.497	neutral	Picture	63.571	n/a	2	5	2	n/a	82	29	1	n/a	n/a	n/a	n/a	182.528	AM10NES.jpg
154.174	0.514	Blank	Blank	63.057	n/a	2	5	2	n/a	82	n/a	1	n/a	n/a	n/a	n/a	183.025	n/a
154.704	0.497	neutral	Picture	62.543	n/a	2	5	3	n/a	83	24	1	n/a	n/a	n/a	n/a	183.556	BM05NES.jpg
155.202	0.514	Blank	Blank	62.029	n/a	2	5	3	n/a	83	n/a	1	n/a	n/a	n/a	n/a	184.053	n/a
155.732	0.497	neutral	Picture	61.516	n/a	2	5	4	n/a	84	12	1	n/a	n/a	n/a	n/a	184.584	AF21NES.jpg
156.23	0.514	Blank	Blank	61.002	n/a	2	5	4	n/a	84	n/a	1	n/a	n/a	n/a	n/a	185.081	n/a
156.76	0.497	neutral	Picture	60.488	n/a	2	5	5	n/a	85	13	1	n/a	n/a	n/a	n/a	185.612	BF22NES.jpg
157.258	0.514	Blank	Blank	59.974	n/a	2	5	5	n/a	85	n/a	1	n/a	n/a	n/a	n/a	186.109	n/a
157.788	0.497	neutral	Picture	59.46	n/a	2	5	6	n/a	86	17	1	n/a	n/a	n/a	n/a	186.64	BF28NES.jpg
158.286	0.514	Blank	Blank	58.946	n/a	2	5	6	n/a	86	n/a	1	n/a	n/a	n/a	n/a	187.137	n/a
158.816	0.497	neutral	Picture	58.432	n/a	2	5	7	n/a	87	4	1	n/a	n/a	n/a	n/a	187.667	AF05NES.jpg
159.313	0.514	Blank	Blank	57.918	n/a	2	5	7	n/a	87	n/a	1	n/a	n/a	n/a	n/a	188.165	n/a
159.844	0.497	neutral	Picture	57.404	n/a	2	5	8	n/a	88	11	1	n/a	n/a	n/a	n/a	188.695	AF20NES.jpg
160.341	0.514	Blank	Blank	56.89	n/a	2	5	8	n/a	88	n/a	1	n/a	n/a	n/a	n/a	189.193	n/a
160.872	0.497	neutral	Picture	56.376	n/a	2	5	9	n/a	89	22	1	n/a	n/a	n/a	n/a	189.723	BM03NES.jpg
161.369	0.514	Blank	Blank	55.862	n/a	2	5	9	n/a	89	n/a	1	n/a	n/a	n/a	n/a	190.221	n/a
161.9	0.497	neutral	Picture	55.348	n/a	2	5	10	n/a	90	15	1	n/a	n/a	n/a	n/a	190.751	AF25NES.jpg
162.397	0.514	Blank	Blank	54.834	n/a	2	5	10	n/a	90	n/a	1	n/a	n/a	n/a	n/a	191.249	n/a
162.928	0.497	neutral	Picture	54.32	n/a	2	5	11	n/a	91	19	1	n/a	n/a	n/a	n/a	191.779	AF31NES.jpg
163.425	0.514	Blank	Blank	53.806	n/a	2	5	11	n/a	91	n/a	1	n/a	n/a	n/a	n/a	192.276	n/a
163.955	0.497	neutral	Picture	53.292	n/a	2	5	12	n/a	92	9	1	n/a	n/a	n/a	n/a	192.807	AF17NES.jpg
164.453	0.514	Blank	Blank	52.778	n/a	2	5	12	n/a	92	n/a	1	n/a	n/a	n/a	n/a	193.304	n/a
164.983	0.497	neutral	Picture	52.264	n/a	2	5	13	n/a	93	14	1	n/a	n/a	n/a	n/a	193.835	AF23NES.jpg
165.481	0.514	Blank	Blank	51.751	n/a	2	5	13	n/a	93	n/a	1	n/a	n/a	n/a	n/a	194.332	n/a
166.011	0.497	neutral	Picture	51.237	n/a	2	5	14	n/a	94	36	1	n/a	n/a	n/a	n/a	194.863	BM24NES.jpg
166.509	0.514	Blank	Blank	50.723	n/a	2	5	14	n/a	94	n/a	1	n/a	n/a	n/a	n/a	195.36	n/a
167.039	0.497	neutral	Picture	50.209	n/a	2	5	15	n/a	95	34	1	n/a	n/a	n/a	n/a	195.891	AM22NES.jpg
167.536	0.514	Blank	Blank	49.695	n/a	2	5	15	n/a	95	n/a	1	n/a	n/a	n/a	n/a	196.388	n/a
168.067	0.497	neutral	Picture	49.181	n/a	2	5	16	n/a	96	10	1	n/a	n/a	n/a	n/a	196.919	AF18NES.jpg
168.564	0.514	Blank	Blank	48.667	n/a	2	5	16	n/a	96	n/a	1	n/a	n/a	n/a	n/a	197.416	n/a
169.095	0.497	neutral	Picture	48.153	n/a	2	5	17	n/a	97	5	1	n/a	n/a	n/a	n/a	197.946	BF07NES.jpg
169.592	0.514	Blank	Blank	47.639	n/a	2	5	17	n/a	97	n/a	1	n/a	n/a	n/a	n/a	198.444	n/a
170.123	0.497	neutral	Picture	47.125	n/a	2	5	18	n/a	98	25	1	n/a	n/a	n/a	n/a	198.974	BM06NES.jpg
170.62	0.514	Blank	Blank	46.611	n/a	2	5	18	n/a	98	n/a	1	n/a	n/a	n/a	n/a	199.472	n/a
171.151	0.497	neutral	Picture	46.097	n/a	2	5	19	n/a	99	39	1	n/a	n/a	n/a	n/a	200.002	AM28NES.jpg
171.648	0.514	Blank	Blank	45.583	n/a	2	5	19	n/a	99	n/a	1	n/a	n/a	n/a	n/a	200.5	n/a
172.179	0.497	neutral	Picture	45.069	n/a	2	5	20	n/a	100	33	1	n/a	n/a	n/a	n/a	201.03	AM21NES.jpg
172.676	0.514	Blank	Blank	44.555	n/a	2	5	20	n/a	100	n/a	1	n/a	n/a	n/a	n/a	201.528	n/a
173.207	10.014	ITI	Fixation+	34.525	n/a	2	n/a	n/a	n/a	n/a	n/a	n/a	n/a	n/a	n/a	n/a	202.058	n/a
183.237	0.497	happy	Picture	34.011	n/a	2	6	1	n/a	101	74	2	n/a	n/a	n/a	n/a	212.088	AM22HAS.jpg
183.734	0.514	Blank	Blank	33.497	n/a	2	6	1	n/a	101	n/a	2	n/a	n/a	n/a	n/a	212.586	n/a
184.265	0.497	happy	Picture	32.983	n/a	2	6	2	n/a	102	76	2	n/a	n/a	n/a	n/a	213.116	BM24HAS.jpg
184.762	0.514	Blank	Blank	32.469	n/a	2	6	2	n/a	102	n/a	2	n/a	n/a	n/a	n/a	213.613	n/a
185.293	0.497	happy	Picture	31.955	n/a	2	6	3	n/a	103	80	2	n/a	n/a	n/a	n/a	214.144	BM35HAS.jpg
185.79	0.514	Blank	Blank	31.441	n/a	2	6	3	n/a	103	n/a	2	n/a	n/a	n/a	n/a	214.641	n/a
186.32	0.497	happy	Picture	30.927	n/a	2	6	4	n/a	104	75	2	n/a	n/a	n/a	n/a	215.172	AM23HAS.jpg
186.818	0.514	Blank	Blank	30.414	n/a	2	6	4	n/a	104	n/a	2	n/a	n/a	n/a	n/a	215.669	n/a
187.348	0.497	happy	Picture	29.9	n/a	2	6	5	n/a	105	49	2	n/a	n/a	n/a	n/a	216.2	AF17HAS.jpg
187.846	0.514	Blank	Blank	29.386	n/a	2	6	5	n/a	105	n/a	2	n/a	n/a	n/a	n/a	216.697	n/a
188.376	0.497	happy	Picture	28.872	n/a	2	6	6	n/a	106	43	2	n/a	n/a	n/a	n/a	217.228	BF04HAS.jpg
188.874	0.514	Blank	Blank	28.358	n/a	2	6	6	n/a	106	n/a	2	n/a	n/a	n/a	n/a	217.725	n/a
189.404	0.497	happy	Picture	27.844	n/a	2	6	7	n/a	107	70	2	n/a	n/a	n/a	n/a	218.256	BM11HAS.jpg
189.901	0.514	Blank	Blank	27.33	n/a	2	6	7	n/a	107	n/a	2	n/a	n/a	n/a	n/a	218.753	n/a
190.432	0.497	happy	Picture	26.816	n/a	2	6	8	n/a	108	66	2	n/a	n/a	n/a	n/a	219.284	BM07HAS.jpg
190.929	0.514	Blank	Blank	26.302	n/a	2	6	8	n/a	108	n/a	2	n/a	n/a	n/a	n/a	219.781	n/a
191.46	0.497	happy	Picture	25.788	n/a	2	6	9	n/a	109	48	2	n/a	n/a	n/a	n/a	220.311	AF14HAS.jpg
191.957	0.514	Blank	Blank	25.274	n/a	2	6	9	n/a	109	n/a	2	n/a	n/a	n/a	n/a	220.809	n/a
192.488	0.497	happy	Picture	24.76	n/a	2	6	10	n/a	110	58	2	n/a	n/a	n/a	n/a	221.339	BF29HAS.jpg
192.985	0.514	Blank	Blank	24.246	n/a	2	6	10	n/a	110	n/a	2	n/a	n/a	n/a	n/a	221.837	n/a
193.516	0.497	happy	Picture	23.732	n/a	2	6	11	n/a	111	63	2	n/a	n/a	n/a	n/a	222.367	AM04HAS.jpg
194.013	0.514	Blank	Blank	23.218	n/a	2	6	11	n/a	111	n/a	2	n/a	n/a	n/a	n/a	222.864	n/a
194.543	0.497	happy	Picture	22.704	n/a	2	6	12	n/a	112	72	2	n/a	n/a	n/a	n/a	223.395	AM14HAS.jpg
195.041	0.514	Blank	Blank	22.19	n/a	2	6	12	n/a	112	n/a	2	n/a	n/a	n/a	n/a	223.892	n/a
195.571	0.497	happy	Picture	21.677	n/a	2	6	13	n/a	113	55	2	n/a	n/a	n/a	n/a	224.423	AF25HAS.jpg
196.069	0.514	Blank	Blank	21.163	n/a	2	6	13	n/a	113	n/a	2	n/a	n/a	n/a	n/a	224.92	n/a
196.599	0.497	happy	Picture	20.649	n/a	2	6	14	n/a	114	42	2	n/a	n/a	n/a	n/a	225.451	AF03HAS.jpg
197.097	0.514	Blank	Blank	20.135	n/a	2	6	14	n/a	114	n/a	2	n/a	n/a	n/a	n/a	225.948	n/a
197.627	0.497	happy	Picture	19.621	n/a	2	6	15	n/a	115	60	2	n/a	n/a	n/a	n/a	226.479	AF32HAS.jpg
198.125	0.514	Blank	Blank	19.107	n/a	2	6	15	n/a	115	n/a	2	n/a	n/a	n/a	n/a	226.976	n/a
198.655	0.497	happy	Picture	18.593	n/a	2	6	16	n/a	116	67	2	n/a	n/a	n/a	n/a	227.507	BM08HAS.jpg
199.152	0.514	Blank	Blank	18.079	n/a	2	6	16	n/a	116	n/a	2	n/a	n/a	n/a	n/a	228.004	n/a
199.683	0.497	happy	Picture	17.565	n/a	2	6	17	n/a	117	51	2	n/a	n/a	n/a	n/a	228.535	AF20HAS.jpg
200.18	0.514	Blank	Blank	17.051	n/a	2	6	17	n/a	117	n/a	2	n/a	n/a	n/a	n/a	229.032	n/a
200.711	0.497	happy	Picture	16.537	n/a	2	6	18	n/a	118	71	2	n/a	n/a	n/a	n/a	229.562	BM12HAS.jpg
201.208	0.514	Blank	Blank	16.023	n/a	2	6	18	n/a	118	n/a	2	n/a	n/a	n/a	n/a	230.06	n/a
201.739	0.497	happy	Picture	15.509	n/a	2	6	19	n/a	119	69	2	n/a	n/a	n/a	n/a	230.59	AM10HAS.jpg
202.236	0.514	Blank	Blank	14.995	n/a	2	6	19	n/a	119	n/a	2	n/a	n/a	n/a	n/a	231.088	n/a
202.767	0.497	happy	Picture	14.481	n/a	2	6	20	n/a	120	46	2	n/a	n/a	n/a	n/a	231.618	AF09HAS.jpg
203.264	0.514	Blank	Blank	13.967	n/a	2	6	20	n/a	120	n/a	2	n/a	n/a	n/a	n/a	232.115	n/a
203.794	10.014	ITI	Fixation+	3.937	n/a	2	n/a	n/a	n/a	n/a	n/a	n/a	n/a	n/a	n/a	n/a	232.646	n/a
217.745	n/a	ConfirmRating	Rate	n/a	3.929	2	n/a	n/a	0	n/a	n/a	n/a	2	Happy	83	52	246.597	n/a
222.588	n/a	ConfirmRating	Rate	n/a	4.824	2	n/a	n/a	1	n/a	n/a	n/a	3	Happy	14	48	251.44	n/a
222.612	15.004	Rest	Picture	n/a	n/a	n/a	n/a	n/a	n/a	n/a	n/a	n/a	0	n/a	0	0	251.463	n/a
237.632	10.014	ITI	Fixation+	93.537	n/a	3	n/a	n/a	n/a	n/a	n/a	n/a	n/a	n/a	n/a	n/a	266.483	n/a
247.662	0.497	angry	Picture	93.023	n/a	3	7	1	n/a	1	108	3	n/a	n/a	n/a	n/a	276.514	AM09ANS.jpg
248.16	0.514	Blank	Blank	92.509	n/a	3	7	1	n/a	1	n/a	3	n/a	n/a	n/a	n/a	277.011	n/a
248.69	0.497	angry	Picture	91.995	n/a	3	7	2	n/a	2	99	3	n/a	n/a	n/a	n/a	277.542	AF31ANS.jpg
249.188	0.514	Blank	Blank	91.482	n/a	3	7	2	n/a	2	n/a	3	n/a	n/a	n/a	n/a	278.039	n/a
249.718	0.497	angry	Picture	90.968	n/a	3	7	3	n/a	3	98	3	n/a	n/a	n/a	n/a	278.57	BF29ANS.jpg
250.215	0.514	Blank	Blank	90.454	n/a	3	7	3	n/a	3	n/a	3	n/a	n/a	n/a	n/a	279.067	n/a
250.746	0.497	angry	Picture	89.94	n/a	3	7	4	n/a	4	107	3	n/a	n/a	n/a	n/a	279.597	BM08ANS.jpg
251.243	0.514	Blank	Blank	89.426	n/a	3	7	4	n/a	4	n/a	3	n/a	n/a	n/a	n/a	280.095	n/a
251.774	0.497	angry	Picture	88.912	n/a	3	7	5	n/a	5	104	3	n/a	n/a	n/a	n/a	280.625	BM05ANS.jpg
252.271	0.514	Blank	Blank	88.398	n/a	3	7	5	n/a	5	n/a	3	n/a	n/a	n/a	n/a	281.123	n/a
252.802	0.497	angry	Picture	87.884	n/a	3	7	6	n/a	6	101	3	n/a	n/a	n/a	n/a	281.653	AM01ANS.jpg
253.299	0.514	Blank	Blank	87.37	n/a	3	7	6	n/a	6	n/a	3	n/a	n/a	n/a	n/a	282.151	n/a
253.83	0.497	angry	Picture	86.856	n/a	3	7	7	n/a	7	103	3	n/a	n/a	n/a	n/a	282.681	AM04ANS.jpg
254.327	0.514	Blank	Blank	86.342	n/a	3	7	7	n/a	7	n/a	3	n/a	n/a	n/a	n/a	283.178	n/a
254.858	0.497	angry	Picture	85.828	n/a	3	7	8	n/a	8	111	3	n/a	n/a	n/a	n/a	283.709	BM12ANS.jpg
255.355	0.514	Blank	Blank	85.314	n/a	3	7	8	n/a	8	n/a	3	n/a	n/a	n/a	n/a	284.206	n/a
255.885	0.497	angry	Picture	84.8	n/a	3	7	9	n/a	9	110	3	n/a	n/a	n/a	n/a	284.737	AM11ANS.jpg
256.383	0.514	Blank	Blank	84.286	n/a	3	7	9	n/a	9	n/a	3	n/a	n/a	n/a	n/a	285.234	n/a
256.913	0.497	angry	Picture	83.772	n/a	3	7	10	n/a	10	85	3	n/a	n/a	n/a	n/a	285.765	BF07ANS.jpg
257.411	0.514	Blank	Blank	83.258	n/a	3	7	10	n/a	10	n/a	3	n/a	n/a	n/a	n/a	286.262	n/a
257.941	0.497	angry	Picture	82.744	n/a	3	7	11	n/a	11	87	3	n/a	n/a	n/a	n/a	286.793	BF11ANS.jpg
258.439	0.514	Blank	Blank	82.23	n/a	3	7	11	n/a	11	n/a	3	n/a	n/a	n/a	n/a	287.29	n/a
258.969	0.497	angry	Picture	81.717	n/a	3	7	12	n/a	12	91	3	n/a	n/a	n/a	n/a	287.82	AF20ANS.jpg
259.466	0.514	Blank	Blank	81.203	n/a	3	7	12	n/a	12	n/a	3	n/a	n/a	n/a	n/a	288.318	n/a
259.997	0.497	angry	Picture	80.689	n/a	3	7	13	n/a	13	115	3	n/a	n/a	n/a	n/a	288.848	AM23ANS.jpg
260.494	0.514	Blank	Blank	80.175	n/a	3	7	13	n/a	13	n/a	3	n/a	n/a	n/a	n/a	289.346	n/a
261.025	0.497	angry	Picture	79.661	n/a	3	7	14	n/a	14	97	3	n/a	n/a	n/a	n/a	289.876	BF28ANS.jpg
261.522	0.514	Blank	Blank	79.147	n/a	3	7	14	n/a	14	n/a	3	n/a	n/a	n/a	n/a	290.374	n/a
262.053	0.497	angry	Picture	78.633	n/a	3	7	15	n/a	15	82	3	n/a	n/a	n/a	n/a	290.904	AF03ANS.jpg
262.55	0.514	Blank	Blank	78.119	n/a	3	7	15	n/a	15	n/a	3	n/a	n/a	n/a	n/a	291.402	n/a
263.081	0.497	angry	Picture	77.605	n/a	3	7	16	n/a	16	96	3	n/a	n/a	n/a	n/a	291.932	AF26ANS.jpg
263.578	0.514	Blank	Blank	77.091	n/a	3	7	16	n/a	16	n/a	3	n/a	n/a	n/a	n/a	292.43	n/a
264.108	0.497	angry	Picture	76.577	n/a	3	7	17	n/a	17	109	3	n/a	n/a	n/a	n/a	292.96	AM10ANS.jpg
264.606	0.514	Blank	Blank	76.063	n/a	3	7	17	n/a	17	n/a	3	n/a	n/a	n/a	n/a	293.457	n/a
265.136	0.497	angry	Picture	75.549	n/a	3	7	18	n/a	18	114	3	n/a	n/a	n/a	n/a	293.988	AM22ANS.jpg
265.634	0.514	Blank	Blank	75.035	n/a	3	7	18	n/a	18	n/a	3	n/a	n/a	n/a	n/a	294.485	n/a
266.164	0.497	angry	Picture	74.521	n/a	3	7	19	n/a	19	120	3	n/a	n/a	n/a	n/a	295.016	AM35ANS.jpg
266.662	0.514	Blank	Blank	74.007	n/a	3	7	19	n/a	19	n/a	3	n/a	n/a	n/a	n/a	295.513	n/a
267.192	0.497	angry	Picture	73.493	n/a	3	7	20	n/a	20	81	3	n/a	n/a	n/a	n/a	296.044	AF01ANS.jpg
267.69	0.514	Blank	Blank	72.979	n/a	3	7	20	n/a	20	n/a	3	n/a	n/a	n/a	n/a	296.541	n/a
268.22	10.014	ITI	Fixation+	62.949	n/a	3	n/a	n/a	n/a	n/a	n/a	n/a	n/a	n/a	n/a	n/a	297.072	n/a
278.25	0.497	neutral	Picture	62.435	n/a	3	8	1	n/a	21	28	1	n/a	n/a	n/a	n/a	307.102	AM09NES.jpg
278.748	0.514	Blank	Blank	61.921	n/a	3	8	1	n/a	21	n/a	1	n/a	n/a	n/a	n/a	307.599	n/a
279.278	0.497	neutral	Picture	61.407	n/a	3	8	2	n/a	22	27	1	n/a	n/a	n/a	n/a	308.13	BM08NES.jpg
279.776	0.514	Blank	Blank	60.893	n/a	3	8	2	n/a	22	n/a	1	n/a	n/a	n/a	n/a	308.627	n/a
280.306	0.497	neutral	Picture	60.38	n/a	3	8	3	n/a	23	16	1	n/a	n/a	n/a	n/a	309.158	AF26NES.jpg
280.803	0.514	Blank	Blank	59.866	n/a	3	8	3	n/a	23	n/a	1	n/a	n/a	n/a	n/a	309.655	n/a
281.334	0.497	neutral	Picture	59.352	n/a	3	8	4	n/a	24	3	1	n/a	n/a	n/a	n/a	310.185	BF04NES.jpg
281.831	0.514	Blank	Blank	58.838	n/a	3	8	4	n/a	24	n/a	1	n/a	n/a	n/a	n/a	310.683	n/a
282.362	0.497	neutral	Picture	58.324	n/a	3	8	5	n/a	25	32	1	n/a	n/a	n/a	n/a	311.213	AM14NES.jpg
282.859	0.514	Blank	Blank	57.81	n/a	3	8	5	n/a	25	n/a	1	n/a	n/a	n/a	n/a	311.711	n/a
283.39	0.497	neutral	Picture	57.296	n/a	3	8	6	n/a	26	37	1	n/a	n/a	n/a	n/a	312.241	BM25NES.jpg
283.887	0.514	Blank	Blank	56.782	n/a	3	8	6	n/a	26	n/a	1	n/a	n/a	n/a	n/a	312.739	n/a
284.418	0.497	neutral	Picture	56.268	n/a	3	8	7	n/a	27	15	1	n/a	n/a	n/a	n/a	313.269	AF25NES.jpg
284.915	0.514	Blank	Blank	55.754	n/a	3	8	7	n/a	27	n/a	1	n/a	n/a	n/a	n/a	313.767	n/a
285.446	0.497	neutral	Picture	55.24	n/a	3	8	8	n/a	28	23	1	n/a	n/a	n/a	n/a	314.297	AM04NES.jpg
285.943	0.514	Blank	Blank	54.726	n/a	3	8	8	n/a	28	n/a	1	n/a	n/a	n/a	n/a	314.794	n/a
286.473	0.497	neutral	Picture	54.212	n/a	3	8	9	n/a	29	34	1	n/a	n/a	n/a	n/a	315.325	AM22NES.jpg
286.971	0.514	Blank	Blank	53.698	n/a	3	8	9	n/a	29	n/a	1	n/a	n/a	n/a	n/a	315.822	n/a
287.501	0.497	neutral	Picture	53.184	n/a	3	8	10	n/a	30	24	1	n/a	n/a	n/a	n/a	316.353	BM05NES.jpg
287.999	0.514	Blank	Blank	52.67	n/a	3	8	10	n/a	30	n/a	1	n/a	n/a	n/a	n/a	316.85	n/a
288.529	0.497	neutral	Picture	52.156	n/a	3	8	11	n/a	31	12	1	n/a	n/a	n/a	n/a	317.381	AF21NES.jpg
289.026	0.514	Blank	Blank	51.642	n/a	3	8	11	n/a	31	n/a	1	n/a	n/a	n/a	n/a	317.878	n/a
289.557	0.497	neutral	Picture	51.129	n/a	3	8	12	n/a	32	6	1	n/a	n/a	n/a	n/a	318.409	AF09NES.jpg
290.054	0.514	Blank	Blank	50.615	n/a	3	8	12	n/a	32	n/a	1	n/a	n/a	n/a	n/a	318.906	n/a
290.585	0.497	neutral	Picture	50.101	n/a	3	8	13	n/a	33	17	1	n/a	n/a	n/a	n/a	319.437	BF28NES.jpg
291.082	0.514	Blank	Blank	49.587	n/a	3	8	13	n/a	33	n/a	1	n/a	n/a	n/a	n/a	319.934	n/a
291.613	0.497	neutral	Picture	49.073	n/a	3	8	14	n/a	34	2	1	n/a	n/a	n/a	n/a	320.464	AF03NES.jpg
292.11	0.514	Blank	Blank	48.559	n/a	3	8	14	n/a	34	n/a	1	n/a	n/a	n/a	n/a	320.962	n/a
292.641	0.497	neutral	Picture	48.045	n/a	3	8	15	n/a	35	9	1	n/a	n/a	n/a	n/a	321.492	AF17NES.jpg
293.138	0.514	Blank	Blank	47.531	n/a	3	8	15	n/a	35	n/a	1	n/a	n/a	n/a	n/a	321.99	n/a
293.669	0.497	neutral	Picture	47.017	n/a	3	8	16	n/a	36	25	1	n/a	n/a	n/a	n/a	322.52	BM06NES.jpg
294.166	0.514	Blank	Blank	46.503	n/a	3	8	16	n/a	36	n/a	1	n/a	n/a	n/a	n/a	323.017	n/a
294.697	0.497	neutral	Picture	45.989	n/a	3	8	17	n/a	37	8	1	n/a	n/a	n/a	n/a	323.548	AF14NES.jpg
295.194	0.514	Blank	Blank	45.475	n/a	3	8	17	n/a	37	n/a	1	n/a	n/a	n/a	n/a	324.045	n/a
295.724	0.497	neutral	Picture	44.961	n/a	3	8	18	n/a	38	19	1	n/a	n/a	n/a	n/a	324.576	AF31NES.jpg
296.222	0.514	Blank	Blank	44.447	n/a	3	8	18	n/a	38	n/a	1	n/a	n/a	n/a	n/a	325.073	n/a
296.752	0.497	neutral	Picture	43.933	n/a	3	8	19	n/a	39	14	1	n/a	n/a	n/a	n/a	325.604	AF23NES.jpg
297.25	0.514	Blank	Blank	43.419	n/a	3	8	19	n/a	39	n/a	1	n/a	n/a	n/a	n/a	326.101	n/a
297.78	0.497	neutral	Picture	42.905	n/a	3	8	20	n/a	40	4	1	n/a	n/a	n/a	n/a	326.632	AF05NES.jpg
298.278	0.514	Blank	Blank	42.392	n/a	3	8	20	n/a	40	n/a	1	n/a	n/a	n/a	n/a	327.129	n/a
298.808	10.014	ITI	Fixation+	32.361	n/a	3	n/a	n/a	n/a	n/a	n/a	n/a	n/a	n/a	n/a	n/a	327.66	n/a
308.838	0.497	angry	Picture	31.847	n/a	3	9	1	n/a	41	84	3	n/a	n/a	n/a	n/a	337.69	AF05ANS.jpg
309.336	0.514	Blank	Blank	31.333	n/a	3	9	1	n/a	41	n/a	3	n/a	n/a	n/a	n/a	338.187	n/a
309.866	0.497	angry	Picture	30.819	n/a	3	9	2	n/a	42	92	3	n/a	n/a	n/a	n/a	338.718	AF21ANS.jpg
310.364	0.514	Blank	Blank	30.305	n/a	3	9	2	n/a	42	n/a	3	n/a	n/a	n/a	n/a	339.215	n/a
310.894	0.497	angry	Picture	29.792	n/a	3	9	3	n/a	43	86	3	n/a	n/a	n/a	n/a	339.746	AF09ANS.jpg
311.391	0.514	Blank	Blank	29.278	n/a	3	9	3	n/a	43	n/a	3	n/a	n/a	n/a	n/a	340.243	n/a
311.922	0.497	angry	Picture	28.764	n/a	3	9	4	n/a	44	93	3	n/a	n/a	n/a	n/a	340.774	BF22ANS.jpg
312.419	0.514	Blank	Blank	28.25	n/a	3	9	4	n/a	44	n/a	3	n/a	n/a	n/a	n/a	341.271	n/a
312.95	0.497	angry	Picture	27.736	n/a	3	9	5	n/a	45	88	3	n/a	n/a	n/a	n/a	341.801	AF14ANS.jpg
313.447	0.514	Blank	Blank	27.222	n/a	3	9	5	n/a	45	n/a	3	n/a	n/a	n/a	n/a	342.299	n/a
313.978	0.497	angry	Picture	26.708	n/a	3	9	6	n/a	46	113	3	n/a	n/a	n/a	n/a	342.829	AM21ANS.jpg
314.475	0.514	Blank	Blank	26.194	n/a	3	9	6	n/a	46	n/a	3	n/a	n/a	n/a	n/a	343.327	n/a
315.006	0.497	angry	Picture	25.68	n/a	3	9	7	n/a	47	95	3	n/a	n/a	n/a	n/a	343.857	AF25ANS.jpg
315.503	0.514	Blank	Blank	25.166	n/a	3	9	7	n/a	47	n/a	3	n/a	n/a	n/a	n/a	344.354	n/a
316.034	0.497	angry	Picture	24.652	n/a	3	9	8	n/a	48	102	3	n/a	n/a	n/a	n/a	344.885	BM03ANS.jpg
316.531	0.514	Blank	Blank	24.138	n/a	3	9	8	n/a	48	n/a	3	n/a	n/a	n/a	n/a	345.382	n/a
317.061	0.497	angry	Picture	23.624	n/a	3	9	9	n/a	49	112	3	n/a	n/a	n/a	n/a	345.913	AM14ANS.jpg
317.559	0.514	Blank	Blank	23.11	n/a	3	9	9	n/a	49	n/a	3	n/a	n/a	n/a	n/a	346.41	n/a
318.089	0.497	angry	Picture	22.596	n/a	3	9	10	n/a	50	83	3	n/a	n/a	n/a	n/a	346.941	BF04ANS.jpg
318.587	0.514	Blank	Blank	22.082	n/a	3	9	10	n/a	50	n/a	3	n/a	n/a	n/a	n/a	347.438	n/a
319.117	0.497	angry	Picture	21.568	n/a	3	9	11	n/a	51	90	3	n/a	n/a	n/a	n/a	347.969	AF18ANS.jpg
319.615	0.514	Blank	Blank	21.055	n/a	3	9	11	n/a	51	n/a	3	n/a	n/a	n/a	n/a	348.466	n/a
320.145	0.497	angry	Picture	20.54	n/a	3	9	12	n/a	52	117	3	n/a	n/a	n/a	n/a	348.997	BM25ANS.jpg
320.643	0.514	Blank	Blank	20.027	n/a	3	9	12	n/a	52	n/a	3	n/a	n/a	n/a	n/a	349.494	n/a
321.173	0.497	angry	Picture	19.513	n/a	3	9	13	n/a	53	94	3	n/a	n/a	n/a	n/a	350.024	AF23ANS.jpg
321.67	0.514	Blank	Blank	18.999	n/a	3	9	13	n/a	53	n/a	3	n/a	n/a	n/a	n/a	350.522	n/a
322.201	0.497	angry	Picture	18.485	n/a	3	9	14	n/a	54	106	3	n/a	n/a	n/a	n/a	351.052	AM07ANS.jpg
322.698	0.514	Blank	Blank	17.971	n/a	3	9	14	n/a	54	n/a	3	n/a	n/a	n/a	n/a	351.55	n/a
323.229	0.497	angry	Picture	17.457	n/a	3	9	15	n/a	55	105	3	n/a	n/a	n/a	n/a	352.08	BM06ANS.jpg
323.726	0.514	Blank	Blank	16.943	n/a	3	9	15	n/a	55	n/a	3	n/a	n/a	n/a	n/a	352.578	n/a
324.257	0.497	angry	Picture	16.429	n/a	3	9	16	n/a	56	116	3	n/a	n/a	n/a	n/a	353.108	BM24ANS.jpg
324.754	0.514	Blank	Blank	15.915	n/a	3	9	16	n/a	56	n/a	3	n/a	n/a	n/a	n/a	353.606	n/a
325.285	0.497	angry	Picture	15.401	n/a	3	9	17	n/a	57	89	3	n/a	n/a	n/a	n/a	354.136	AF17ANS.jpg
325.782	0.514	Blank	Blank	14.887	n/a	3	9	17	n/a	57	n/a	3	n/a	n/a	n/a	n/a	354.633	n/a
326.312	0.497	angry	Picture	14.373	n/a	3	9	18	n/a	58	118	3	n/a	n/a	n/a	n/a	355.164	BM26ANS.jpg
326.81	0.514	Blank	Blank	13.859	n/a	3	9	18	n/a	58	n/a	3	n/a	n/a	n/a	n/a	355.661	n/a
327.34	0.497	angry	Picture	13.345	n/a	3	9	19	n/a	59	100	3	n/a	n/a	n/a	n/a	356.192	AF32ANS.jpg
327.838	0.514	Blank	Blank	12.831	n/a	3	9	19	n/a	59	n/a	3	n/a	n/a	n/a	n/a	356.689	n/a
328.368	0.497	angry	Picture	12.317	n/a	3	9	20	n/a	60	119	3	n/a	n/a	n/a	n/a	357.22	BM28ANS.jpg
328.866	0.514	Blank	Blank	11.803	n/a	3	9	20	n/a	60	n/a	3	n/a	n/a	n/a	n/a	357.717	n/a
329.396	10.014	ITI	Fixation+	1.773	n/a	3	n/a	n/a	n/a	n/a	n/a	n/a	n/a	n/a	n/a	n/a	358.248	n/a
341.183	n/a	ConfirmRating	Rate	n/a	1.758	3	n/a	n/a	0	n/a	n/a	n/a	2	Angry	50	50	370.034	n/a
347.557	n/a	ConfirmRating	Rate	n/a	6.367	3	n/a	n/a	1	n/a	n/a	n/a	3	Angry	15	47	376.408	n/a
347.583	10.014	ITI	Fixation+	97.232	n/a	4	n/a	n/a	n/a	n/a	n/a	n/a	n/a	n/a	n/a	n/a	376.435	n/a
357.613	0.497	happy	Picture	96.718	n/a	4	10	1	n/a	61	79	2	n/a	n/a	n/a	n/a	386.465	BM28HAS.jpg
358.111	0.514	Blank	Blank	96.204	n/a	4	10	1	n/a	61	n/a	2	n/a	n/a	n/a	n/a	386.962	n/a
358.641	0.497	happy	Picture	95.69	n/a	4	10	2	n/a	62	61	2	n/a	n/a	n/a	n/a	387.493	AM01HAS.jpg
359.139	0.514	Blank	Blank	95.176	n/a	4	10	2	n/a	62	n/a	2	n/a	n/a	n/a	n/a	387.99	n/a
359.669	0.497	happy	Picture	94.662	n/a	4	10	3	n/a	63	57	2	n/a	n/a	n/a	n/a	388.521	BF28HAS.jpg
360.166	0.514	Blank	Blank	94.148	n/a	4	10	3	n/a	63	n/a	2	n/a	n/a	n/a	n/a	389.018	n/a
360.697	0.497	happy	Picture	93.634	n/a	4	10	4	n/a	64	77	2	n/a	n/a	n/a	n/a	389.548	BM25HAS.jpg
361.194	0.514	Blank	Blank	93.12	n/a	4	10	4	n/a	64	n/a	2	n/a	n/a	n/a	n/a	390.046	n/a
361.725	0.497	happy	Picture	92.606	n/a	4	10	5	n/a	65	47	2	n/a	n/a	n/a	n/a	390.576	BF11HAS.jpg
362.222	0.514	Blank	Blank	92.093	n/a	4	10	5	n/a	65	n/a	2	n/a	n/a	n/a	n/a	391.074	n/a
362.753	0.497	happy	Picture	91.579	n/a	4	10	6	n/a	66	50	2	n/a	n/a	n/a	n/a	391.604	AF18HAS.jpg
363.25	0.514	Blank	Blank	91.065	n/a	4	10	6	n/a	66	n/a	2	n/a	n/a	n/a	n/a	392.102	n/a
363.781	0.497	happy	Picture	90.551	n/a	4	10	7	n/a	67	78	2	n/a	n/a	n/a	n/a	392.632	BM26HAS.jpg
364.278	0.514	Blank	Blank	90.037	n/a	4	10	7	n/a	67	n/a	2	n/a	n/a	n/a	n/a	393.13	n/a
364.809	0.497	happy	Picture	89.523	n/a	4	10	8	n/a	68	45	2	n/a	n/a	n/a	n/a	393.66	BF07HAS.jpg
365.306	0.514	Blank	Blank	89.009	n/a	4	10	8	n/a	68	n/a	2	n/a	n/a	n/a	n/a	394.158	n/a
365.837	0.497	happy	Picture	88.495	n/a	4	10	9	n/a	69	56	2	n/a	n/a	n/a	n/a	394.688	AF26HAS.jpg
366.334	0.514	Blank	Blank	87.981	n/a	4	10	9	n/a	69	n/a	2	n/a	n/a	n/a	n/a	395.185	n/a
366.864	0.497	happy	Picture	87.467	n/a	4	10	10	n/a	70	65	2	n/a	n/a	n/a	n/a	395.716	BM06HAS.jpg
367.362	0.514	Blank	Blank	86.953	n/a	4	10	10	n/a	70	n/a	2	n/a	n/a	n/a	n/a	396.213	n/a
367.892	0.497	happy	Picture	86.439	n/a	4	10	11	n/a	71	73	2	n/a	n/a	n/a	n/a	396.744	AM21HAS.jpg
368.39	0.514	Blank	Blank	85.925	n/a	4	10	11	n/a	71	n/a	2	n/a	n/a	n/a	n/a	397.241	n/a
368.92	0.497	happy	Picture	85.411	n/a	4	10	12	n/a	72	41	2	n/a	n/a	n/a	n/a	397.772	AF01HAS.jpg
369.418	0.514	Blank	Blank	84.897	n/a	4	10	12	n/a	72	n/a	2	n/a	n/a	n/a	n/a	398.269	n/a
369.948	0.497	happy	Picture	84.383	n/a	4	10	13	n/a	73	59	2	n/a	n/a	n/a	n/a	398.8	AF31HAS.jpg
370.445	0.514	Blank	Blank	83.869	n/a	4	10	13	n/a	73	n/a	2	n/a	n/a	n/a	n/a	399.297	n/a
370.976	0.497	happy	Picture	83.355	n/a	4	10	14	n/a	74	64	2	n/a	n/a	n/a	n/a	399.827	BM05HAS.jpg
371.473	0.514	Blank	Blank	82.842	n/a	4	10	14	n/a	74	n/a	2	n/a	n/a	n/a	n/a	400.325	n/a
372.004	0.497	happy	Picture	82.328	n/a	4	10	15	n/a	75	68	2	n/a	n/a	n/a	n/a	400.855	AM09HAS.jpg
372.501	0.514	Blank	Blank	81.814	n/a	4	10	15	n/a	75	n/a	2	n/a	n/a	n/a	n/a	401.353	n/a
373.032	0.497	happy	Picture	81.3	n/a	4	10	16	n/a	76	54	2	n/a	n/a	n/a	n/a	401.883	AF23HAS.jpg
373.529	0.514	Blank	Blank	80.786	n/a	4	10	16	n/a	76	n/a	2	n/a	n/a	n/a	n/a	402.381	n/a
374.06	0.497	happy	Picture	80.272	n/a	4	10	17	n/a	77	53	2	n/a	n/a	n/a	n/a	402.911	BF22HAS.jpg
374.557	0.514	Blank	Blank	79.758	n/a	4	10	17	n/a	77	n/a	2	n/a	n/a	n/a	n/a	403.409	n/a
375.088	0.497	happy	Picture	79.244	n/a	4	10	18	n/a	78	44	2	n/a	n/a	n/a	n/a	403.939	AF05HAS.jpg
375.585	0.514	Blank	Blank	78.73	n/a	4	10	18	n/a	78	n/a	2	n/a	n/a	n/a	n/a	404.436	n/a
376.115	0.497	happy	Picture	78.216	n/a	4	10	19	n/a	79	52	2	n/a	n/a	n/a	n/a	404.967	AF21HAS.jpg
376.613	0.514	Blank	Blank	77.702	n/a	4	10	19	n/a	79	n/a	2	n/a	n/a	n/a	n/a	405.464	n/a
377.143	0.497	happy	Picture	77.188	n/a	4	10	20	n/a	80	62	2	n/a	n/a	n/a	n/a	405.995	BM03HAS.jpg
377.641	0.514	Blank	Blank	76.674	n/a	4	10	20	n/a	80	n/a	2	n/a	n/a	n/a	n/a	406.492	n/a
378.171	10.014	ITI	Fixation+	66.644	n/a	4	n/a	n/a	n/a	n/a	n/a	n/a	n/a	n/a	n/a	n/a	407.023	n/a
388.201	0.497	neutral	Picture	66.13	n/a	4	11	1	n/a	81	23	1	n/a	n/a	n/a	n/a	417.053	AM04NES.jpg
388.699	0.514	Blank	Blank	65.616	n/a	4	11	1	n/a	81	n/a	1	n/a	n/a	n/a	n/a	417.55	n/a
389.229	0.497	neutral	Picture	65.102	n/a	4	11	2	n/a	82	29	1	n/a	n/a	n/a	n/a	418.081	AM10NES.jpg
389.727	0.514	Blank	Blank	64.588	n/a	4	11	2	n/a	82	n/a	1	n/a	n/a	n/a	n/a	418.578	n/a
390.257	0.497	neutral	Picture	64.074	n/a	4	11	3	n/a	83	24	1	n/a	n/a	n/a	n/a	419.109	BM05NES.jpg
390.755	0.514	Blank	Blank	63.56	n/a	4	11	3	n/a	83	n/a	1	n/a	n/a	n/a	n/a	419.606	n/a
391.285	0.497	neutral	Picture	63.046	n/a	4	11	4	n/a	84	12	1	n/a	n/a	n/a	n/a	420.137	AF21NES.jpg
391.782	0.514	Blank	Blank	62.532	n/a	4	11	4	n/a	84	n/a	1	n/a	n/a	n/a	n/a	420.634	n/a
392.313	0.497	neutral	Picture	62.018	n/a	4	11	5	n/a	85	13	1	n/a	n/a	n/a	n/a	421.164	BF22NES.jpg
392.81	0.514	Blank	Blank	61.504	n/a	4	11	5	n/a	85	n/a	1	n/a	n/a	n/a	n/a	421.662	n/a
393.341	0.497	neutral	Picture	60.991	n/a	4	11	6	n/a	86	17	1	n/a	n/a	n/a	n/a	422.192	BF28NES.jpg
393.838	0.514	Blank	Blank	60.477	n/a	4	11	6	n/a	86	n/a	1	n/a	n/a	n/a	n/a	422.69	n/a
394.369	0.497	neutral	Picture	59.963	n/a	4	11	7	n/a	87	4	1	n/a	n/a	n/a	n/a	423.22	AF05NES.jpg
394.866	0.514	Blank	Blank	59.449	n/a	4	11	7	n/a	87	n/a	1	n/a	n/a	n/a	n/a	423.718	n/a
395.397	0.497	neutral	Picture	58.935	n/a	4	11	8	n/a	88	11	1	n/a	n/a	n/a	n/a	424.248	AF20NES.jpg
395.894	0.514	Blank	Blank	58.421	n/a	4	11	8	n/a	88	n/a	1	n/a	n/a	n/a	n/a	424.745	n/a
396.425	0.497	neutral	Picture	57.907	n/a	4	11	9	n/a	89	22	1	n/a	n/a	n/a	n/a	425.276	BM03NES.jpg
396.922	0.514	Blank	Blank	57.393	n/a	4	11	9	n/a	89	n/a	1	n/a	n/a	n/a	n/a	425.773	n/a
397.452	0.497	neutral	Picture	56.879	n/a	4	11	10	n/a	90	15	1	n/a	n/a	n/a	n/a	426.304	AF25NES.jpg
397.95	0.514	Blank	Blank	56.365	n/a	4	11	10	n/a	90	n/a	1	n/a	n/a	n/a	n/a	426.801	n/a
398.48	0.497	neutral	Picture	55.851	n/a	4	11	11	n/a	91	19	1	n/a	n/a	n/a	n/a	427.332	AF31NES.jpg
398.978	0.514	Blank	Blank	55.337	n/a	4	11	11	n/a	91	n/a	1	n/a	n/a	n/a	n/a	427.829	n/a
399.508	0.497	neutral	Picture	54.823	n/a	4	11	12	n/a	92	9	1	n/a	n/a	n/a	n/a	428.36	AF17NES.jpg
400.006	0.514	Blank	Blank	54.309	n/a	4	11	12	n/a	92	n/a	1	n/a	n/a	n/a	n/a	428.857	n/a
400.536	0.497	neutral	Picture	53.795	n/a	4	11	13	n/a	93	14	1	n/a	n/a	n/a	n/a	429.388	AF23NES.jpg
401.033	0.514	Blank	Blank	53.281	n/a	4	11	13	n/a	93	n/a	1	n/a	n/a	n/a	n/a	429.885	n/a
401.564	0.497	neutral	Picture	52.767	n/a	4	11	14	n/a	94	36	1	n/a	n/a	n/a	n/a	430.416	BM24NES.jpg
402.061	0.514	Blank	Blank	52.253	n/a	4	11	14	n/a	94	n/a	1	n/a	n/a	n/a	n/a	430.913	n/a
402.592	0.497	neutral	Picture	51.74	n/a	4	11	15	n/a	95	34	1	n/a	n/a	n/a	n/a	431.443	AM22NES.jpg
403.089	0.514	Blank	Blank	51.226	n/a	4	11	15	n/a	95	n/a	1	n/a	n/a	n/a	n/a	431.941	n/a
403.62	0.497	neutral	Picture	50.712	n/a	4	11	16	n/a	96	10	1	n/a	n/a	n/a	n/a	432.471	AF18NES.jpg
404.117	0.514	Blank	Blank	50.198	n/a	4	11	16	n/a	96	n/a	1	n/a	n/a	n/a	n/a	432.969	n/a
404.648	0.497	neutral	Picture	49.684	n/a	4	11	17	n/a	97	5	1	n/a	n/a	n/a	n/a	433.499	BF07NES.jpg
405.145	0.514	Blank	Blank	49.17	n/a	4	11	17	n/a	97	n/a	1	n/a	n/a	n/a	n/a	433.997	n/a
405.675	0.497	neutral	Picture	48.656	n/a	4	11	18	n/a	98	25	1	n/a	n/a	n/a	n/a	434.527	BM06NES.jpg
406.173	0.514	Blank	Blank	48.142	n/a	4	11	18	n/a	98	n/a	1	n/a	n/a	n/a	n/a	435.024	n/a
406.703	0.497	neutral	Picture	47.628	n/a	4	11	19	n/a	99	39	1	n/a	n/a	n/a	n/a	435.555	AM28NES.jpg
407.201	0.514	Blank	Blank	47.114	n/a	4	11	19	n/a	99	n/a	1	n/a	n/a	n/a	n/a	436.052	n/a
407.731	0.497	neutral	Picture	46.6	n/a	4	11	20	n/a	100	33	1	n/a	n/a	n/a	n/a	436.583	AM21NES.jpg
408.229	0.514	Blank	Blank	46.086	n/a	4	11	20	n/a	100	n/a	1	n/a	n/a	n/a	n/a	437.08	n/a
408.759	10.014	ITI	Fixation+	36.056	n/a	4	n/a	n/a	n/a	n/a	n/a	n/a	n/a	n/a	n/a	n/a	437.611	n/a
418.789	0.497	happy	Picture	35.542	n/a	4	12	1	n/a	101	74	2	n/a	n/a	n/a	n/a	447.641	AM22HAS.jpg
419.287	0.514	Blank	Blank	35.028	n/a	4	12	1	n/a	101	n/a	2	n/a	n/a	n/a	n/a	448.138	n/a
419.817	0.497	happy	Picture	34.514	n/a	4	12	2	n/a	102	76	2	n/a	n/a	n/a	n/a	448.669	BM24HAS.jpg
420.315	0.514	Blank	Blank	34.0	n/a	4	12	2	n/a	102	n/a	2	n/a	n/a	n/a	n/a	449.166	n/a
420.845	0.497	happy	Picture	33.486	n/a	4	12	3	n/a	103	80	2	n/a	n/a	n/a	n/a	449.697	BM35HAS.jpg
421.343	0.514	Blank	Blank	32.972	n/a	4	12	3	n/a	103	n/a	2	n/a	n/a	n/a	n/a	450.194	n/a
421.873	0.497	happy	Picture	32.458	n/a	4	12	4	n/a	104	75	2	n/a	n/a	n/a	n/a	450.725	AM23HAS.jpg
422.37	0.514	Blank	Blank	31.944	n/a	4	12	4	n/a	104	n/a	2	n/a	n/a	n/a	n/a	451.222	n/a
422.901	0.497	happy	Picture	31.43	n/a	4	12	5	n/a	105	49	2	n/a	n/a	n/a	n/a	451.752	AF17HAS.jpg
423.398	0.514	Blank	Blank	30.916	n/a	4	12	5	n/a	105	n/a	2	n/a	n/a	n/a	n/a	452.25	n/a
423.929	0.497	happy	Picture	30.403	n/a	4	12	6	n/a	106	43	2	n/a	n/a	n/a	n/a	452.78	BF04HAS.jpg
424.426	0.514	Blank	Blank	29.889	n/a	4	12	6	n/a	106	n/a	2	n/a	n/a	n/a	n/a	453.278	n/a
424.957	0.497	happy	Picture	29.375	n/a	4	12	7	n/a	107	70	2	n/a	n/a	n/a	n/a	453.808	BM11HAS.jpg
425.454	0.514	Blank	Blank	28.861	n/a	4	12	7	n/a	107	n/a	2	n/a	n/a	n/a	n/a	454.306	n/a
425.985	0.497	happy	Picture	28.347	n/a	4	12	8	n/a	108	66	2	n/a	n/a	n/a	n/a	454.836	BM07HAS.jpg
426.482	0.514	Blank	Blank	27.833	n/a	4	12	8	n/a	108	n/a	2	n/a	n/a	n/a	n/a	455.334	n/a
427.012	0.497	happy	Picture	27.319	n/a	4	12	9	n/a	109	48	2	n/a	n/a	n/a	n/a	455.864	AF14HAS.jpg
427.51	0.514	Blank	Blank	26.805	n/a	4	12	9	n/a	109	n/a	2	n/a	n/a	n/a	n/a	456.361	n/a
428.04	0.497	happy	Picture	26.291	n/a	4	12	10	n/a	110	58	2	n/a	n/a	n/a	n/a	456.892	BF29HAS.jpg
428.538	0.514	Blank	Blank	25.777	n/a	4	12	10	n/a	110	n/a	2	n/a	n/a	n/a	n/a	457.389	n/a
429.068	0.497	happy	Picture	25.263	n/a	4	12	11	n/a	111	63	2	n/a	n/a	n/a	n/a	457.92	AM04HAS.jpg
429.566	0.514	Blank	Blank	24.749	n/a	4	12	11	n/a	111	n/a	2	n/a	n/a	n/a	n/a	458.417	n/a
430.096	0.497	happy	Picture	24.235	n/a	4	12	12	n/a	112	72	2	n/a	n/a	n/a	n/a	458.948	AM14HAS.jpg
430.594	0.514	Blank	Blank	23.721	n/a	4	12	12	n/a	112	n/a	2	n/a	n/a	n/a	n/a	459.445	n/a
431.124	0.497	happy	Picture	23.207	n/a	4	12	13	n/a	113	55	2	n/a	n/a	n/a	n/a	459.976	AF25HAS.jpg
431.622	0.514	Blank	Blank	22.693	n/a	4	12	13	n/a	113	n/a	2	n/a	n/a	n/a	n/a	460.473	n/a
432.152	0.497	happy	Picture	22.18	n/a	4	12	14	n/a	114	42	2	n/a	n/a	n/a	n/a	461.003	AF03HAS.jpg
432.649	0.514	Blank	Blank	21.665	n/a	4	12	14	n/a	114	n/a	2	n/a	n/a	n/a	n/a	461.501	n/a
433.18	0.497	happy	Picture	21.152	n/a	4	12	15	n/a	115	60	2	n/a	n/a	n/a	n/a	462.031	AF32HAS.jpg
433.677	0.514	Blank	Blank	20.638	n/a	4	12	15	n/a	115	n/a	2	n/a	n/a	n/a	n/a	462.529	n/a
434.208	0.497	happy	Picture	20.124	n/a	4	12	16	n/a	116	67	2	n/a	n/a	n/a	n/a	463.059	BM08HAS.jpg
434.705	0.514	Blank	Blank	19.61	n/a	4	12	16	n/a	116	n/a	2	n/a	n/a	n/a	n/a	463.557	n/a
435.236	0.497	happy	Picture	19.096	n/a	4	12	17	n/a	117	51	2	n/a	n/a	n/a	n/a	464.087	AF20HAS.jpg
435.733	0.514	Blank	Blank	18.582	n/a	4	12	17	n/a	117	n/a	2	n/a	n/a	n/a	n/a	464.584	n/a
436.264	0.497	happy	Picture	18.068	n/a	4	12	18	n/a	118	71	2	n/a	n/a	n/a	n/a	465.115	BM12HAS.jpg
436.761	0.514	Blank	Blank	17.554	n/a	4	12	18	n/a	118	n/a	2	n/a	n/a	n/a	n/a	465.612	n/a
437.291	0.497	happy	Picture	17.04	n/a	4	12	19	n/a	119	69	2	n/a	n/a	n/a	n/a	466.143	AM10HAS.jpg
437.789	0.514	Blank	Blank	16.526	n/a	4	12	19	n/a	119	n/a	2	n/a	n/a	n/a	n/a	466.64	n/a
438.319	0.497	happy	Picture	16.012	n/a	4	12	20	n/a	120	46	2	n/a	n/a	n/a	n/a	467.171	AF09HAS.jpg
438.817	0.514	Blank	Blank	15.498	n/a	4	12	20	n/a	120	n/a	2	n/a	n/a	n/a	n/a	467.668	n/a
439.347	10.014	ITI	Fixation+	5.468	n/a	4	n/a	n/a	n/a	n/a	n/a	n/a	n/a	n/a	n/a	n/a	468.199	n/a
454.829	n/a	ConfirmRating	Rate	n/a	5.454	4	n/a	n/a	0	n/a	n/a	n/a	2	Happy	82	53	483.68	n/a
461.91	n/a	ConfirmRating	Rate	n/a	7.062	4	n/a	n/a	1	n/a	n/a	n/a	3	Happy	5	47	490.761	n/a
