onset	duration	trial_type	event_type	time_until_response	response_time	trial_number	block_num_within_trial	image_seq_num_within_block	question_seq_num_within_block	image_seq_num	picture_number	condition	question_type	block_type	rating	rating_computed	onset_uncorrected	KDEV_imagefile
0.012	10.014	ITI	Fixation+	98.592	n/a	1	n/a	n/a	n/a	n/a	n/a	n/a	n/a	n/a	n/a	n/a	30.98	n/a
10.042	0.497	happy	Picture	98.078	n/a	1	1	1	n/a	1	46	2	n/a	n/a	n/a	n/a	41.01	AF09HAS.jpg
10.539	0.514	Blank	Blank	97.564	n/a	1	1	1	n/a	1	n/a	2	n/a	n/a	n/a	n/a	41.508	n/a
11.07	0.497	happy	Picture	97.05	n/a	1	1	2	n/a	2	69	2	n/a	n/a	n/a	n/a	42.038	AM10HAS.jpg
11.567	0.514	Blank	Blank	96.536	n/a	1	1	2	n/a	2	n/a	2	n/a	n/a	n/a	n/a	42.536	n/a
12.098	0.497	happy	Picture	96.023	n/a	1	1	3	n/a	3	71	2	n/a	n/a	n/a	n/a	43.066	BM12HAS.jpg
12.594	0.515	Blank	Blank	95.508	n/a	1	1	3	n/a	3	n/a	2	n/a	n/a	n/a	n/a	43.563	n/a
13.126	0.497	happy	Picture	94.995	n/a	1	1	4	n/a	4	51	2	n/a	n/a	n/a	n/a	44.094	AF20HAS.jpg
13.623	0.514	Blank	Blank	94.481	n/a	1	1	4	n/a	4	n/a	2	n/a	n/a	n/a	n/a	44.591	n/a
14.154	0.497	happy	Picture	93.967	n/a	1	1	5	n/a	5	67	2	n/a	n/a	n/a	n/a	45.122	BM08HAS.jpg
14.651	0.514	Blank	Blank	93.453	n/a	1	1	5	n/a	5	n/a	2	n/a	n/a	n/a	n/a	45.619	n/a
15.181	0.497	happy	Picture	92.939	n/a	1	1	6	n/a	6	60	2	n/a	n/a	n/a	n/a	46.15	AF32HAS.jpg
15.679	0.514	Blank	Blank	92.425	n/a	1	1	6	n/a	6	n/a	2	n/a	n/a	n/a	n/a	46.647	n/a
16.209	0.497	happy	Picture	91.911	n/a	1	1	7	n/a	7	42	2	n/a	n/a	n/a	n/a	47.178	AF03HAS.jpg
16.707	0.514	Blank	Blank	91.397	n/a	1	1	7	n/a	7	n/a	2	n/a	n/a	n/a	n/a	47.675	n/a
17.237	0.497	happy	Picture	90.883	n/a	1	1	8	n/a	8	55	2	n/a	n/a	n/a	n/a	48.206	AF25HAS.jpg
17.735	0.514	Blank	Blank	90.369	n/a	1	1	8	n/a	8	n/a	2	n/a	n/a	n/a	n/a	48.703	n/a
18.265	0.497	happy	Picture	89.855	n/a	1	1	9	n/a	9	72	2	n/a	n/a	n/a	n/a	49.233	AM14HAS.jpg
18.762	0.514	Blank	Blank	89.341	n/a	1	1	9	n/a	9	n/a	2	n/a	n/a	n/a	n/a	49.731	n/a
19.293	0.497	happy	Picture	88.827	n/a	1	1	10	n/a	10	63	2	n/a	n/a	n/a	n/a	50.261	AM04HAS.jpg
19.79	0.514	Blank	Blank	88.313	n/a	1	1	10	n/a	10	n/a	2	n/a	n/a	n/a	n/a	50.759	n/a
20.321	0.497	happy	Picture	87.799	n/a	1	1	11	n/a	11	58	2	n/a	n/a	n/a	n/a	51.289	BF29HAS.jpg
20.818	0.514	Blank	Blank	87.285	n/a	1	1	11	n/a	11	n/a	2	n/a	n/a	n/a	n/a	51.786	n/a
21.349	0.497	happy	Picture	86.772	n/a	1	1	12	n/a	12	48	2	n/a	n/a	n/a	n/a	52.317	AF14HAS.jpg
21.846	0.514	Blank	Blank	86.258	n/a	1	1	12	n/a	12	n/a	2	n/a	n/a	n/a	n/a	52.814	n/a
22.377	0.497	happy	Picture	85.744	n/a	1	1	13	n/a	13	66	2	n/a	n/a	n/a	n/a	53.345	BM07HAS.jpg
22.874	0.514	Blank	Blank	85.23	n/a	1	1	13	n/a	13	n/a	2	n/a	n/a	n/a	n/a	53.842	n/a
23.404	0.497	happy	Picture	84.716	n/a	1	1	14	n/a	14	70	2	n/a	n/a	n/a	n/a	54.373	BM11HAS.jpg
23.902	0.514	Blank	Blank	84.202	n/a	1	1	14	n/a	14	n/a	2	n/a	n/a	n/a	n/a	54.87	n/a
24.432	0.497	happy	Picture	83.688	n/a	1	1	15	n/a	15	43	2	n/a	n/a	n/a	n/a	55.401	BF04HAS.jpg
24.93	0.514	Blank	Blank	83.174	n/a	1	1	15	n/a	15	n/a	2	n/a	n/a	n/a	n/a	55.898	n/a
25.46	0.497	happy	Picture	82.66	n/a	1	1	16	n/a	16	49	2	n/a	n/a	n/a	n/a	56.428	AF17HAS.jpg
25.958	0.514	Blank	Blank	82.146	n/a	1	1	16	n/a	16	n/a	2	n/a	n/a	n/a	n/a	56.926	n/a
26.488	0.497	happy	Picture	81.632	n/a	1	1	17	n/a	17	75	2	n/a	n/a	n/a	n/a	57.456	AM23HAS.jpg
26.986	0.514	Blank	Blank	81.118	n/a	1	1	17	n/a	17	n/a	2	n/a	n/a	n/a	n/a	57.954	n/a
27.516	0.497	happy	Picture	80.604	n/a	1	1	18	n/a	18	80	2	n/a	n/a	n/a	n/a	58.484	BM35HAS.jpg
28.013	0.514	Blank	Blank	80.09	n/a	1	1	18	n/a	18	n/a	2	n/a	n/a	n/a	n/a	58.982	n/a
28.544	0.497	happy	Picture	79.576	n/a	1	1	19	n/a	19	76	2	n/a	n/a	n/a	n/a	59.512	BM24HAS.jpg
29.041	0.514	Blank	Blank	79.062	n/a	1	1	19	n/a	19	n/a	2	n/a	n/a	n/a	n/a	60.01	n/a
29.572	0.497	happy	Picture	78.548	n/a	1	1	20	n/a	20	74	2	n/a	n/a	n/a	n/a	60.54	AM22HAS.jpg
30.069	0.514	Blank	Blank	78.034	n/a	1	1	20	n/a	20	n/a	2	n/a	n/a	n/a	n/a	61.037	n/a
30.6	10.014	ITI	Fixation+	68.004	n/a	1	n/a	n/a	n/a	n/a	n/a	n/a	n/a	n/a	n/a	n/a	61.568	n/a
40.63	0.497	neutral	Picture	67.49	n/a	1	2	1	n/a	21	33	1	n/a	n/a	n/a	n/a	71.598	AM21NES.jpg
41.127	0.514	Blank	Blank	66.977	n/a	1	2	1	n/a	21	n/a	1	n/a	n/a	n/a	n/a	72.095	n/a
41.658	0.497	neutral	Picture	66.463	n/a	1	2	2	n/a	22	39	1	n/a	n/a	n/a	n/a	72.626	AM28NES.jpg
42.155	0.514	Blank	Blank	65.949	n/a	1	2	2	n/a	22	n/a	1	n/a	n/a	n/a	n/a	73.123	n/a
42.686	0.497	neutral	Picture	65.435	n/a	1	2	3	n/a	23	25	1	n/a	n/a	n/a	n/a	73.654	BM06NES.jpg
43.183	0.514	Blank	Blank	64.921	n/a	1	2	3	n/a	23	n/a	1	n/a	n/a	n/a	n/a	74.151	n/a
43.713	0.497	neutral	Picture	64.407	n/a	1	2	4	n/a	24	5	1	n/a	n/a	n/a	n/a	74.682	BF07NES.jpg
44.211	0.514	Blank	Blank	63.893	n/a	1	2	4	n/a	24	n/a	1	n/a	n/a	n/a	n/a	75.179	n/a
44.741	0.497	neutral	Picture	63.379	n/a	1	2	5	n/a	25	10	1	n/a	n/a	n/a	n/a	75.71	AF18NES.jpg
45.239	0.514	Blank	Blank	62.865	n/a	1	2	5	n/a	25	n/a	1	n/a	n/a	n/a	n/a	76.207	n/a
45.769	0.497	neutral	Picture	62.351	n/a	1	2	6	n/a	26	34	1	n/a	n/a	n/a	n/a	76.737	AM22NES.jpg
46.267	0.514	Blank	Blank	61.837	n/a	1	2	6	n/a	26	n/a	1	n/a	n/a	n/a	n/a	77.235	n/a
46.797	0.497	neutral	Picture	61.323	n/a	1	2	7	n/a	27	36	1	n/a	n/a	n/a	n/a	77.765	BM24NES.jpg
47.294	0.514	Blank	Blank	60.809	n/a	1	2	7	n/a	27	n/a	1	n/a	n/a	n/a	n/a	78.263	n/a
47.825	0.497	neutral	Picture	60.295	n/a	1	2	8	n/a	28	14	1	n/a	n/a	n/a	n/a	78.793	AF23NES.jpg
48.322	0.514	Blank	Blank	59.781	n/a	1	2	8	n/a	28	n/a	1	n/a	n/a	n/a	n/a	79.291	n/a
48.853	0.497	neutral	Picture	59.267	n/a	1	2	9	n/a	29	9	1	n/a	n/a	n/a	n/a	79.821	AF17NES.jpg
49.35	0.514	Blank	Blank	58.753	n/a	1	2	9	n/a	29	n/a	1	n/a	n/a	n/a	n/a	80.318	n/a
49.881	0.497	neutral	Picture	58.24	n/a	1	2	10	n/a	30	19	1	n/a	n/a	n/a	n/a	80.849	AF31NES.jpg
50.378	0.514	Blank	Blank	57.726	n/a	1	2	10	n/a	30	n/a	1	n/a	n/a	n/a	n/a	81.346	n/a
50.909	0.497	neutral	Picture	57.212	n/a	1	2	11	n/a	31	15	1	n/a	n/a	n/a	n/a	81.877	AF25NES.jpg
51.406	0.514	Blank	Blank	56.698	n/a	1	2	11	n/a	31	n/a	1	n/a	n/a	n/a	n/a	82.374	n/a
51.936	0.497	neutral	Picture	56.184	n/a	1	2	12	n/a	32	22	1	n/a	n/a	n/a	n/a	82.905	BM03NES.jpg
52.434	0.514	Blank	Blank	55.67	n/a	1	2	12	n/a	32	n/a	1	n/a	n/a	n/a	n/a	83.402	n/a
52.964	0.497	neutral	Picture	55.156	n/a	1	2	13	n/a	33	11	1	n/a	n/a	n/a	n/a	83.933	AF20NES.jpg
53.462	0.514	Blank	Blank	54.642	n/a	1	2	13	n/a	33	n/a	1	n/a	n/a	n/a	n/a	84.43	n/a
53.992	0.497	neutral	Picture	54.128	n/a	1	2	14	n/a	34	4	1	n/a	n/a	n/a	n/a	84.96	AF05NES.jpg
54.49	0.514	Blank	Blank	53.614	n/a	1	2	14	n/a	34	n/a	1	n/a	n/a	n/a	n/a	85.458	n/a
55.02	0.497	neutral	Picture	53.1	n/a	1	2	15	n/a	35	17	1	n/a	n/a	n/a	n/a	85.988	BF28NES.jpg
55.517	0.514	Blank	Blank	52.586	n/a	1	2	15	n/a	35	n/a	1	n/a	n/a	n/a	n/a	86.486	n/a
56.048	0.497	neutral	Picture	52.072	n/a	1	2	16	n/a	36	13	1	n/a	n/a	n/a	n/a	87.016	BF22NES.jpg
56.545	0.514	Blank	Blank	51.558	n/a	1	2	16	n/a	36	n/a	1	n/a	n/a	n/a	n/a	87.514	n/a
57.076	0.497	neutral	Picture	51.044	n/a	1	2	17	n/a	37	12	1	n/a	n/a	n/a	n/a	88.044	AF21NES.jpg
57.573	0.514	Blank	Blank	50.53	n/a	1	2	17	n/a	37	n/a	1	n/a	n/a	n/a	n/a	88.541	n/a
58.104	0.497	neutral	Picture	50.017	n/a	1	2	18	n/a	38	24	1	n/a	n/a	n/a	n/a	89.072	BM05NES.jpg
58.601	0.514	Blank	Blank	49.503	n/a	1	2	18	n/a	38	n/a	1	n/a	n/a	n/a	n/a	89.569	n/a
59.132	0.497	neutral	Picture	48.989	n/a	1	2	19	n/a	39	29	1	n/a	n/a	n/a	n/a	90.1	AM10NES.jpg
59.629	0.514	Blank	Blank	48.475	n/a	1	2	19	n/a	39	n/a	1	n/a	n/a	n/a	n/a	90.597	n/a
60.159	0.497	neutral	Picture	47.961	n/a	1	2	20	n/a	40	23	1	n/a	n/a	n/a	n/a	91.128	AM04NES.jpg
60.657	0.514	Blank	Blank	47.447	n/a	1	2	20	n/a	40	n/a	1	n/a	n/a	n/a	n/a	91.625	n/a
61.187	10.014	ITI	Fixation+	37.417	n/a	1	n/a	n/a	n/a	n/a	n/a	n/a	n/a	n/a	n/a	n/a	92.156	n/a
71.217	0.497	happy	Picture	36.903	n/a	1	3	1	n/a	41	62	2	n/a	n/a	n/a	n/a	102.186	BM03HAS.jpg
71.715	0.514	Blank	Blank	36.389	n/a	1	3	1	n/a	41	n/a	2	n/a	n/a	n/a	n/a	102.683	n/a
72.245	0.497	happy	Picture	35.875	n/a	1	3	2	n/a	42	52	2	n/a	n/a	n/a	n/a	103.214	AF21HAS.jpg
72.743	0.514	Blank	Blank	35.361	n/a	1	3	2	n/a	42	n/a	2	n/a	n/a	n/a	n/a	103.711	n/a
73.273	0.497	happy	Picture	34.847	n/a	1	3	3	n/a	43	44	2	n/a	n/a	n/a	n/a	104.242	AF05HAS.jpg
73.771	0.514	Blank	Blank	34.333	n/a	1	3	3	n/a	43	n/a	2	n/a	n/a	n/a	n/a	104.739	n/a
74.301	0.497	happy	Picture	33.819	n/a	1	3	4	n/a	44	53	2	n/a	n/a	n/a	n/a	105.269	BF22HAS.jpg
74.798	0.514	Blank	Blank	33.305	n/a	1	3	4	n/a	44	n/a	2	n/a	n/a	n/a	n/a	105.767	n/a
75.329	0.497	happy	Picture	32.791	n/a	1	3	5	n/a	45	54	2	n/a	n/a	n/a	n/a	106.297	AF23HAS.jpg
75.826	0.514	Blank	Blank	32.277	n/a	1	3	5	n/a	45	n/a	2	n/a	n/a	n/a	n/a	106.795	n/a
76.357	0.497	happy	Picture	31.763	n/a	1	3	6	n/a	46	68	2	n/a	n/a	n/a	n/a	107.325	AM09HAS.jpg
76.854	0.514	Blank	Blank	31.249	n/a	1	3	6	n/a	46	n/a	2	n/a	n/a	n/a	n/a	107.823	n/a
77.385	0.497	happy	Picture	30.735	n/a	1	3	7	n/a	47	64	2	n/a	n/a	n/a	n/a	108.353	BM05HAS.jpg
77.882	0.514	Blank	Blank	30.222	n/a	1	3	7	n/a	47	n/a	2	n/a	n/a	n/a	n/a	108.85	n/a
78.413	0.497	happy	Picture	29.708	n/a	1	3	8	n/a	48	59	2	n/a	n/a	n/a	n/a	109.381	AF31HAS.jpg
78.91	0.514	Blank	Blank	29.194	n/a	1	3	8	n/a	48	n/a	2	n/a	n/a	n/a	n/a	109.878	n/a
79.441	0.497	happy	Picture	28.68	n/a	1	3	9	n/a	49	41	2	n/a	n/a	n/a	n/a	110.409	AF01HAS.jpg
79.938	0.514	Blank	Blank	28.166	n/a	1	3	9	n/a	49	n/a	2	n/a	n/a	n/a	n/a	110.906	n/a
80.468	0.497	happy	Picture	27.652	n/a	1	3	10	n/a	50	73	2	n/a	n/a	n/a	n/a	111.437	AM21HAS.jpg
80.966	0.514	Blank	Blank	27.138	n/a	1	3	10	n/a	50	n/a	2	n/a	n/a	n/a	n/a	111.934	n/a
81.496	0.497	happy	Picture	26.624	n/a	1	3	11	n/a	51	65	2	n/a	n/a	n/a	n/a	112.465	BM06HAS.jpg
81.994	0.514	Blank	Blank	26.11	n/a	1	3	11	n/a	51	n/a	2	n/a	n/a	n/a	n/a	112.962	n/a
82.524	0.497	happy	Picture	25.596	n/a	1	3	12	n/a	52	56	2	n/a	n/a	n/a	n/a	113.492	AF26HAS.jpg
83.022	0.514	Blank	Blank	25.082	n/a	1	3	12	n/a	52	n/a	2	n/a	n/a	n/a	n/a	113.99	n/a
83.552	0.497	happy	Picture	24.568	n/a	1	3	13	n/a	53	45	2	n/a	n/a	n/a	n/a	114.52	BF07HAS.jpg
84.049	0.514	Blank	Blank	24.054	n/a	1	3	13	n/a	53	n/a	2	n/a	n/a	n/a	n/a	115.018	n/a
84.58	0.497	happy	Picture	23.54	n/a	1	3	14	n/a	54	78	2	n/a	n/a	n/a	n/a	115.548	BM26HAS.jpg
85.077	0.513	Blank	Blank	23.027	n/a	1	3	14	n/a	54	n/a	2	n/a	n/a	n/a	n/a	116.046	n/a
85.608	0.497	happy	Picture	22.512	n/a	1	3	15	n/a	55	50	2	n/a	n/a	n/a	n/a	116.576	AF18HAS.jpg
86.105	0.514	Blank	Blank	21.998	n/a	1	3	15	n/a	55	n/a	2	n/a	n/a	n/a	n/a	117.073	n/a
86.636	0.497	happy	Picture	21.485	n/a	1	3	16	n/a	56	47	2	n/a	n/a	n/a	n/a	117.604	BF11HAS.jpg
87.133	0.514	Blank	Blank	20.971	n/a	1	3	16	n/a	56	n/a	2	n/a	n/a	n/a	n/a	118.101	n/a
87.663	0.497	happy	Picture	20.457	n/a	1	3	17	n/a	57	77	2	n/a	n/a	n/a	n/a	118.632	BM25HAS.jpg
88.161	0.514	Blank	Blank	19.943	n/a	1	3	17	n/a	57	n/a	2	n/a	n/a	n/a	n/a	119.129	n/a
88.691	0.497	happy	Picture	19.429	n/a	1	3	18	n/a	58	57	2	n/a	n/a	n/a	n/a	119.66	BF28HAS.jpg
89.189	0.514	Blank	Blank	18.915	n/a	1	3	18	n/a	58	n/a	2	n/a	n/a	n/a	n/a	120.157	n/a
89.719	0.497	happy	Picture	18.401	n/a	1	3	19	n/a	59	61	2	n/a	n/a	n/a	n/a	120.688	AM01HAS.jpg
90.217	0.514	Blank	Blank	17.887	n/a	1	3	19	n/a	59	n/a	2	n/a	n/a	n/a	n/a	121.185	n/a
90.747	0.497	happy	Picture	17.373	n/a	1	3	20	n/a	60	79	2	n/a	n/a	n/a	n/a	121.715	BM28HAS.jpg
91.245	0.514	Blank	Blank	16.859	n/a	1	3	20	n/a	60	n/a	2	n/a	n/a	n/a	n/a	122.213	n/a
91.775	10.014	ITI	Fixation+	6.829	n/a	1	n/a	n/a	n/a	n/a	n/a	n/a	n/a	n/a	n/a	n/a	122.743	n/a
108.618	n/a	ConfirmRating	Rate	n/a	6.797	1	n/a	n/a	0	n/a	n/a	n/a	2	Happy	55	49	139.586	n/a
113.166	n/a	ConfirmRating	Rate	n/a	4.543	1	n/a	n/a	1	n/a	n/a	n/a	3	Happy	0	44	144.135	n/a
113.195	10.014	ITI	Fixation+	97.697	n/a	2	n/a	n/a	n/a	n/a	n/a	n/a	n/a	n/a	n/a	n/a	144.163	n/a
123.225	0.497	angry	Picture	97.183	n/a	2	4	1	n/a	61	119	3	n/a	n/a	n/a	n/a	154.193	BM28ANS.jpg
123.722	0.514	Blank	Blank	96.669	n/a	2	4	1	n/a	61	n/a	3	n/a	n/a	n/a	n/a	154.69	n/a
124.253	0.497	angry	Picture	96.155	n/a	2	4	2	n/a	62	100	3	n/a	n/a	n/a	n/a	155.221	AF32ANS.jpg
124.75	0.514	Blank	Blank	95.641	n/a	2	4	2	n/a	62	n/a	3	n/a	n/a	n/a	n/a	155.718	n/a
125.281	0.497	angry	Picture	95.128	n/a	2	4	3	n/a	63	118	3	n/a	n/a	n/a	n/a	156.249	BM26ANS.jpg
125.778	0.514	Blank	Blank	94.614	n/a	2	4	3	n/a	63	n/a	3	n/a	n/a	n/a	n/a	156.746	n/a
126.308	0.497	angry	Picture	94.1	n/a	2	4	4	n/a	64	89	3	n/a	n/a	n/a	n/a	157.277	AF17ANS.jpg
126.806	0.514	Blank	Blank	93.586	n/a	2	4	4	n/a	64	n/a	3	n/a	n/a	n/a	n/a	157.774	n/a
127.336	0.497	angry	Picture	93.072	n/a	2	4	5	n/a	65	116	3	n/a	n/a	n/a	n/a	158.305	BM24ANS.jpg
127.834	0.514	Blank	Blank	92.558	n/a	2	4	5	n/a	65	n/a	3	n/a	n/a	n/a	n/a	158.802	n/a
128.364	0.497	angry	Picture	92.044	n/a	2	4	6	n/a	66	105	3	n/a	n/a	n/a	n/a	159.333	BM06ANS.jpg
128.862	0.514	Blank	Blank	91.53	n/a	2	4	6	n/a	66	n/a	3	n/a	n/a	n/a	n/a	159.83	n/a
129.392	0.497	angry	Picture	91.016	n/a	2	4	7	n/a	67	106	3	n/a	n/a	n/a	n/a	160.36	AM07ANS.jpg
129.889	0.514	Blank	Blank	90.502	n/a	2	4	7	n/a	67	n/a	3	n/a	n/a	n/a	n/a	160.858	n/a
130.42	0.497	angry	Picture	89.988	n/a	2	4	8	n/a	68	94	3	n/a	n/a	n/a	n/a	161.388	AF23ANS.jpg
130.917	0.514	Blank	Blank	89.474	n/a	2	4	8	n/a	68	n/a	3	n/a	n/a	n/a	n/a	161.886	n/a
131.448	0.497	angry	Picture	88.96	n/a	2	4	9	n/a	69	117	3	n/a	n/a	n/a	n/a	162.416	BM25ANS.jpg
131.945	0.514	Blank	Blank	88.446	n/a	2	4	9	n/a	69	n/a	3	n/a	n/a	n/a	n/a	162.913	n/a
132.476	0.497	angry	Picture	87.932	n/a	2	4	10	n/a	70	90	3	n/a	n/a	n/a	n/a	163.444	AF18ANS.jpg
132.973	0.514	Blank	Blank	87.418	n/a	2	4	10	n/a	70	n/a	3	n/a	n/a	n/a	n/a	163.941	n/a
133.504	0.497	angry	Picture	86.905	n/a	2	4	11	n/a	71	83	3	n/a	n/a	n/a	n/a	164.472	BF04ANS.jpg
134.001	0.514	Blank	Blank	86.391	n/a	2	4	11	n/a	71	n/a	3	n/a	n/a	n/a	n/a	164.969	n/a
134.531	0.497	angry	Picture	85.877	n/a	2	4	12	n/a	72	112	3	n/a	n/a	n/a	n/a	165.5	AM14ANS.jpg
135.029	0.514	Blank	Blank	85.363	n/a	2	4	12	n/a	72	n/a	3	n/a	n/a	n/a	n/a	165.997	n/a
135.559	0.497	angry	Picture	84.849	n/a	2	4	13	n/a	73	102	3	n/a	n/a	n/a	n/a	166.528	BM03ANS.jpg
136.057	0.514	Blank	Blank	84.335	n/a	2	4	13	n/a	73	n/a	3	n/a	n/a	n/a	n/a	167.025	n/a
136.587	0.498	angry	Picture	83.821	n/a	2	4	14	n/a	74	95	3	n/a	n/a	n/a	n/a	167.555	AF25ANS.jpg
137.085	0.514	Blank	Blank	83.307	n/a	2	4	14	n/a	74	n/a	3	n/a	n/a	n/a	n/a	168.053	n/a
137.615	0.497	angry	Picture	82.793	n/a	2	4	15	n/a	75	113	3	n/a	n/a	n/a	n/a	168.583	AM21ANS.jpg
138.113	0.514	Blank	Blank	82.279	n/a	2	4	15	n/a	75	n/a	3	n/a	n/a	n/a	n/a	169.081	n/a
138.643	0.497	angry	Picture	81.765	n/a	2	4	16	n/a	76	88	3	n/a	n/a	n/a	n/a	169.611	AF14ANS.jpg
139.14	0.514	Blank	Blank	81.251	n/a	2	4	16	n/a	76	n/a	3	n/a	n/a	n/a	n/a	170.109	n/a
139.671	0.497	angry	Picture	80.737	n/a	2	4	17	n/a	77	93	3	n/a	n/a	n/a	n/a	170.639	BF22ANS.jpg
140.168	0.514	Blank	Blank	80.223	n/a	2	4	17	n/a	77	n/a	3	n/a	n/a	n/a	n/a	171.137	n/a
140.699	0.497	angry	Picture	79.709	n/a	2	4	18	n/a	78	86	3	n/a	n/a	n/a	n/a	171.667	AF09ANS.jpg
141.196	0.514	Blank	Blank	79.195	n/a	2	4	18	n/a	78	n/a	3	n/a	n/a	n/a	n/a	172.164	n/a
141.727	0.497	angry	Picture	78.681	n/a	2	4	19	n/a	79	92	3	n/a	n/a	n/a	n/a	172.695	AF21ANS.jpg
142.224	0.514	Blank	Blank	78.168	n/a	2	4	19	n/a	79	n/a	3	n/a	n/a	n/a	n/a	173.192	n/a
142.755	0.497	angry	Picture	77.654	n/a	2	4	20	n/a	80	84	3	n/a	n/a	n/a	n/a	173.723	AF05ANS.jpg
143.252	0.514	Blank	Blank	77.14	n/a	2	4	20	n/a	80	n/a	3	n/a	n/a	n/a	n/a	174.22	n/a
143.782	10.014	ITI	Fixation+	67.11	n/a	2	n/a	n/a	n/a	n/a	n/a	n/a	n/a	n/a	n/a	n/a	174.751	n/a
153.813	0.497	neutral	Picture	66.596	n/a	2	5	1	n/a	81	4	1	n/a	n/a	n/a	n/a	184.781	AF05NES.jpg
154.31	0.514	Blank	Blank	66.082	n/a	2	5	1	n/a	81	n/a	1	n/a	n/a	n/a	n/a	185.278	n/a
154.84	0.497	neutral	Picture	65.568	n/a	2	5	2	n/a	82	14	1	n/a	n/a	n/a	n/a	185.809	AF23NES.jpg
155.338	0.514	Blank	Blank	65.054	n/a	2	5	2	n/a	82	n/a	1	n/a	n/a	n/a	n/a	186.306	n/a
155.868	0.497	neutral	Picture	64.54	n/a	2	5	3	n/a	83	19	1	n/a	n/a	n/a	n/a	186.837	AF31NES.jpg
156.366	0.514	Blank	Blank	64.026	n/a	2	5	3	n/a	83	n/a	1	n/a	n/a	n/a	n/a	187.334	n/a
156.896	0.497	neutral	Picture	63.512	n/a	2	5	4	n/a	84	8	1	n/a	n/a	n/a	n/a	187.864	AF14NES.jpg
157.393	0.514	Blank	Blank	62.998	n/a	2	5	4	n/a	84	n/a	1	n/a	n/a	n/a	n/a	188.362	n/a
157.924	0.497	neutral	Picture	62.484	n/a	2	5	5	n/a	85	25	1	n/a	n/a	n/a	n/a	188.892	BM06NES.jpg
158.421	0.514	Blank	Blank	61.97	n/a	2	5	5	n/a	85	n/a	1	n/a	n/a	n/a	n/a	189.39	n/a
158.952	0.497	neutral	Picture	61.456	n/a	2	5	6	n/a	86	9	1	n/a	n/a	n/a	n/a	189.92	AF17NES.jpg
159.449	0.514	Blank	Blank	60.942	n/a	2	5	6	n/a	86	n/a	1	n/a	n/a	n/a	n/a	190.417	n/a
159.98	0.497	neutral	Picture	60.428	n/a	2	5	7	n/a	87	2	1	n/a	n/a	n/a	n/a	190.948	AF03NES.jpg
160.477	0.514	Blank	Blank	59.914	n/a	2	5	7	n/a	87	n/a	1	n/a	n/a	n/a	n/a	191.445	n/a
161.008	0.497	neutral	Picture	59.4	n/a	2	5	8	n/a	88	17	1	n/a	n/a	n/a	n/a	191.976	BF28NES.jpg
161.505	0.514	Blank	Blank	58.887	n/a	2	5	8	n/a	88	n/a	1	n/a	n/a	n/a	n/a	192.473	n/a
162.036	0.497	neutral	Picture	58.373	n/a	2	5	9	n/a	89	6	1	n/a	n/a	n/a	n/a	193.004	AF09NES.jpg
162.533	0.514	Blank	Blank	57.859	n/a	2	5	9	n/a	89	n/a	1	n/a	n/a	n/a	n/a	193.501	n/a
163.063	0.497	neutral	Picture	57.345	n/a	2	5	10	n/a	90	12	1	n/a	n/a	n/a	n/a	194.032	AF21NES.jpg
163.561	0.514	Blank	Blank	56.831	n/a	2	5	10	n/a	90	n/a	1	n/a	n/a	n/a	n/a	194.529	n/a
164.091	0.497	neutral	Picture	56.318	n/a	2	5	11	n/a	91	24	1	n/a	n/a	n/a	n/a	195.06	BM05NES.jpg
164.588	0.515	Blank	Blank	55.803	n/a	2	5	11	n/a	91	n/a	1	n/a	n/a	n/a	n/a	195.556	n/a
165.119	0.497	neutral	Picture	55.289	n/a	2	5	12	n/a	92	34	1	n/a	n/a	n/a	n/a	196.088	AM22NES.jpg
165.617	0.514	Blank	Blank	54.775	n/a	2	5	12	n/a	92	n/a	1	n/a	n/a	n/a	n/a	196.585	n/a
166.147	0.497	neutral	Picture	54.261	n/a	2	5	13	n/a	93	23	1	n/a	n/a	n/a	n/a	197.115	AM04NES.jpg
166.644	0.514	Blank	Blank	53.747	n/a	2	5	13	n/a	93	n/a	1	n/a	n/a	n/a	n/a	197.613	n/a
167.175	0.497	neutral	Picture	53.233	n/a	2	5	14	n/a	94	15	1	n/a	n/a	n/a	n/a	198.143	AF25NES.jpg
167.672	0.514	Blank	Blank	52.719	n/a	2	5	14	n/a	94	n/a	1	n/a	n/a	n/a	n/a	198.641	n/a
168.203	0.497	neutral	Picture	52.205	n/a	2	5	15	n/a	95	37	1	n/a	n/a	n/a	n/a	199.171	BM25NES.jpg
168.7	0.514	Blank	Blank	51.691	n/a	2	5	15	n/a	95	n/a	1	n/a	n/a	n/a	n/a	199.668	n/a
169.231	0.497	neutral	Picture	51.177	n/a	2	5	16	n/a	96	32	1	n/a	n/a	n/a	n/a	200.199	AM14NES.jpg
169.728	0.514	Blank	Blank	50.663	n/a	2	5	16	n/a	96	n/a	1	n/a	n/a	n/a	n/a	200.696	n/a
170.259	0.497	neutral	Picture	50.15	n/a	2	5	17	n/a	97	3	1	n/a	n/a	n/a	n/a	201.227	BF04NES.jpg
170.756	0.514	Blank	Blank	49.636	n/a	2	5	17	n/a	97	n/a	1	n/a	n/a	n/a	n/a	201.724	n/a
171.286	0.497	neutral	Picture	49.122	n/a	2	5	18	n/a	98	16	1	n/a	n/a	n/a	n/a	202.255	AF26NES.jpg
171.784	0.514	Blank	Blank	48.608	n/a	2	5	18	n/a	98	n/a	1	n/a	n/a	n/a	n/a	202.752	n/a
172.314	0.497	neutral	Picture	48.094	n/a	2	5	19	n/a	99	27	1	n/a	n/a	n/a	n/a	203.283	BM08NES.jpg
172.812	0.514	Blank	Blank	47.58	n/a	2	5	19	n/a	99	n/a	1	n/a	n/a	n/a	n/a	203.78	n/a
173.342	0.497	neutral	Picture	47.066	n/a	2	5	20	n/a	100	28	1	n/a	n/a	n/a	n/a	204.31	AM09NES.jpg
173.84	0.514	Blank	Blank	46.552	n/a	2	5	20	n/a	100	n/a	1	n/a	n/a	n/a	n/a	204.808	n/a
174.37	10.014	ITI	Fixation+	36.522	n/a	2	n/a	n/a	n/a	n/a	n/a	n/a	n/a	n/a	n/a	n/a	205.338	n/a
184.4	0.497	angry	Picture	36.008	n/a	2	6	1	n/a	101	81	3	n/a	n/a	n/a	n/a	215.369	AF01ANS.jpg
184.898	0.514	Blank	Blank	35.494	n/a	2	6	1	n/a	101	n/a	3	n/a	n/a	n/a	n/a	215.866	n/a
185.428	0.497	angry	Picture	34.98	n/a	2	6	2	n/a	102	120	3	n/a	n/a	n/a	n/a	216.396	AM35ANS.jpg
185.925	0.514	Blank	Blank	34.466	n/a	2	6	2	n/a	102	n/a	3	n/a	n/a	n/a	n/a	216.894	n/a
186.456	0.497	angry	Picture	33.952	n/a	2	6	3	n/a	103	114	3	n/a	n/a	n/a	n/a	217.424	AM22ANS.jpg
186.953	0.514	Blank	Blank	33.438	n/a	2	6	3	n/a	103	n/a	3	n/a	n/a	n/a	n/a	217.922	n/a
187.484	0.497	angry	Picture	32.924	n/a	2	6	4	n/a	104	109	3	n/a	n/a	n/a	n/a	218.452	AM10ANS.jpg
187.981	0.514	Blank	Blank	32.41	n/a	2	6	4	n/a	104	n/a	3	n/a	n/a	n/a	n/a	218.95	n/a
188.512	0.497	angry	Picture	31.896	n/a	2	6	5	n/a	105	96	3	n/a	n/a	n/a	n/a	219.48	AF26ANS.jpg
189.009	0.514	Blank	Blank	31.382	n/a	2	6	5	n/a	105	n/a	3	n/a	n/a	n/a	n/a	219.977	n/a
189.54	0.497	angry	Picture	30.869	n/a	2	6	6	n/a	106	82	3	n/a	n/a	n/a	n/a	220.508	AF03ANS.jpg
190.037	0.514	Blank	Blank	30.355	n/a	2	6	6	n/a	106	n/a	3	n/a	n/a	n/a	n/a	221.005	n/a
190.567	0.497	angry	Picture	29.841	n/a	2	6	7	n/a	107	97	3	n/a	n/a	n/a	n/a	221.536	BF28ANS.jpg
191.065	0.514	Blank	Blank	29.327	n/a	2	6	7	n/a	107	n/a	3	n/a	n/a	n/a	n/a	222.033	n/a
191.595	0.497	angry	Picture	28.813	n/a	2	6	8	n/a	108	115	3	n/a	n/a	n/a	n/a	222.564	AM23ANS.jpg
192.093	0.514	Blank	Blank	28.299	n/a	2	6	8	n/a	108	n/a	3	n/a	n/a	n/a	n/a	223.061	n/a
192.623	0.497	angry	Picture	27.785	n/a	2	6	9	n/a	109	91	3	n/a	n/a	n/a	n/a	223.591	AF20ANS.jpg
193.121	0.514	Blank	Blank	27.271	n/a	2	6	9	n/a	109	n/a	3	n/a	n/a	n/a	n/a	224.089	n/a
193.651	0.497	angry	Picture	26.757	n/a	2	6	10	n/a	110	87	3	n/a	n/a	n/a	n/a	224.619	BF11ANS.jpg
194.149	0.514	Blank	Blank	26.243	n/a	2	6	10	n/a	110	n/a	3	n/a	n/a	n/a	n/a	225.117	n/a
194.679	0.497	angry	Picture	25.729	n/a	2	6	11	n/a	111	85	3	n/a	n/a	n/a	n/a	225.647	BF07ANS.jpg
195.176	0.514	Blank	Blank	25.215	n/a	2	6	11	n/a	111	n/a	3	n/a	n/a	n/a	n/a	226.145	n/a
195.707	0.497	angry	Picture	24.701	n/a	2	6	12	n/a	112	110	3	n/a	n/a	n/a	n/a	226.675	AM11ANS.jpg
196.204	0.514	Blank	Blank	24.187	n/a	2	6	12	n/a	112	n/a	3	n/a	n/a	n/a	n/a	227.173	n/a
196.735	0.497	angry	Picture	23.673	n/a	2	6	13	n/a	113	111	3	n/a	n/a	n/a	n/a	227.703	BM12ANS.jpg
197.232	0.514	Blank	Blank	23.159	n/a	2	6	13	n/a	113	n/a	3	n/a	n/a	n/a	n/a	228.2	n/a
197.763	0.497	angry	Picture	22.645	n/a	2	6	14	n/a	114	103	3	n/a	n/a	n/a	n/a	228.731	AM04ANS.jpg
198.26	0.514	Blank	Blank	22.132	n/a	2	6	14	n/a	114	n/a	3	n/a	n/a	n/a	n/a	229.228	n/a
198.791	0.497	angry	Picture	21.618	n/a	2	6	15	n/a	115	101	3	n/a	n/a	n/a	n/a	229.759	AM01ANS.jpg
199.288	0.514	Blank	Blank	21.104	n/a	2	6	15	n/a	115	n/a	3	n/a	n/a	n/a	n/a	230.256	n/a
199.818	0.497	angry	Picture	20.59	n/a	2	6	16	n/a	116	104	3	n/a	n/a	n/a	n/a	230.787	BM05ANS.jpg
200.316	0.514	Blank	Blank	20.076	n/a	2	6	16	n/a	116	n/a	3	n/a	n/a	n/a	n/a	231.284	n/a
200.846	0.497	angry	Picture	19.562	n/a	2	6	17	n/a	117	107	3	n/a	n/a	n/a	n/a	231.815	BM08ANS.jpg
201.344	0.514	Blank	Blank	19.048	n/a	2	6	17	n/a	117	n/a	3	n/a	n/a	n/a	n/a	232.312	n/a
201.874	0.497	angry	Picture	18.534	n/a	2	6	18	n/a	118	98	3	n/a	n/a	n/a	n/a	232.842	BF29ANS.jpg
202.371	0.514	Blank	Blank	18.02	n/a	2	6	18	n/a	118	n/a	3	n/a	n/a	n/a	n/a	233.34	n/a
202.902	0.497	angry	Picture	17.506	n/a	2	6	19	n/a	119	99	3	n/a	n/a	n/a	n/a	233.87	AF31ANS.jpg
203.399	0.514	Blank	Blank	16.992	n/a	2	6	19	n/a	119	n/a	3	n/a	n/a	n/a	n/a	234.368	n/a
203.93	0.497	angry	Picture	16.478	n/a	2	6	20	n/a	120	108	3	n/a	n/a	n/a	n/a	234.898	AM09ANS.jpg
204.427	0.514	Blank	Blank	15.964	n/a	2	6	20	n/a	120	n/a	3	n/a	n/a	n/a	n/a	235.395	n/a
204.958	10.014	ITI	Fixation+	5.934	n/a	2	n/a	n/a	n/a	n/a	n/a	n/a	n/a	n/a	n/a	n/a	235.926	n/a
220.905	n/a	ConfirmRating	Rate	n/a	5.918	2	n/a	n/a	0	n/a	n/a	n/a	2	Angry	37	49	251.874	n/a
230.25	n/a	ConfirmRating	Rate	n/a	9.334	2	n/a	n/a	1	n/a	n/a	n/a	3	Angry	57	50	261.219	n/a
230.273	15.004	Rest	Picture	n/a	n/a	n/a	n/a	n/a	n/a	n/a	n/a	n/a	0	n/a	0	0	261.242	n/a
245.294	10.014	ITI	Fixation+	99.168	n/a	3	n/a	n/a	n/a	n/a	n/a	n/a	n/a	n/a	n/a	n/a	276.262	n/a
255.324	0.497	happy	Picture	98.654	n/a	3	7	1	n/a	1	46	2	n/a	n/a	n/a	n/a	286.292	AF09HAS.jpg
255.821	0.514	Blank	Blank	98.14	n/a	3	7	1	n/a	1	n/a	2	n/a	n/a	n/a	n/a	286.789	n/a
256.352	0.497	happy	Picture	97.626	n/a	3	7	2	n/a	2	69	2	n/a	n/a	n/a	n/a	287.32	AM10HAS.jpg
256.849	0.514	Blank	Blank	97.112	n/a	3	7	2	n/a	2	n/a	2	n/a	n/a	n/a	n/a	287.817	n/a
257.38	0.497	happy	Picture	96.598	n/a	3	7	3	n/a	3	71	2	n/a	n/a	n/a	n/a	288.348	BM12HAS.jpg
257.877	0.514	Blank	Blank	96.084	n/a	3	7	3	n/a	3	n/a	2	n/a	n/a	n/a	n/a	288.845	n/a
258.408	0.497	happy	Picture	95.57	n/a	3	7	4	n/a	4	51	2	n/a	n/a	n/a	n/a	289.376	AF20HAS.jpg
258.905	0.514	Blank	Blank	95.056	n/a	3	7	4	n/a	4	n/a	2	n/a	n/a	n/a	n/a	289.873	n/a
259.435	0.497	happy	Picture	94.542	n/a	3	7	5	n/a	5	67	2	n/a	n/a	n/a	n/a	290.404	BM08HAS.jpg
259.933	0.514	Blank	Blank	94.028	n/a	3	7	5	n/a	5	n/a	2	n/a	n/a	n/a	n/a	290.901	n/a
260.463	0.497	happy	Picture	93.514	n/a	3	7	6	n/a	6	60	2	n/a	n/a	n/a	n/a	291.432	AF32HAS.jpg
260.961	0.514	Blank	Blank	93.0	n/a	3	7	6	n/a	6	n/a	2	n/a	n/a	n/a	n/a	291.929	n/a
261.491	0.497	happy	Picture	92.486	n/a	3	7	7	n/a	7	42	2	n/a	n/a	n/a	n/a	292.459	AF03HAS.jpg
261.988	0.514	Blank	Blank	91.973	n/a	3	7	7	n/a	7	n/a	2	n/a	n/a	n/a	n/a	292.957	n/a
262.519	0.497	happy	Picture	91.458	n/a	3	7	8	n/a	8	55	2	n/a	n/a	n/a	n/a	293.487	AF25HAS.jpg
263.016	0.514	Blank	Blank	90.945	n/a	3	7	8	n/a	8	n/a	2	n/a	n/a	n/a	n/a	293.985	n/a
263.547	0.497	happy	Picture	90.431	n/a	3	7	9	n/a	9	72	2	n/a	n/a	n/a	n/a	294.515	AM14HAS.jpg
264.044	0.514	Blank	Blank	89.917	n/a	3	7	9	n/a	9	n/a	2	n/a	n/a	n/a	n/a	295.012	n/a
264.575	0.497	happy	Picture	89.403	n/a	3	7	10	n/a	10	63	2	n/a	n/a	n/a	n/a	295.543	AM04HAS.jpg
265.072	0.514	Blank	Blank	88.889	n/a	3	7	10	n/a	10	n/a	2	n/a	n/a	n/a	n/a	296.04	n/a
265.603	0.497	happy	Picture	88.375	n/a	3	7	11	n/a	11	58	2	n/a	n/a	n/a	n/a	296.571	BF29HAS.jpg
266.1	0.514	Blank	Blank	87.861	n/a	3	7	11	n/a	11	n/a	2	n/a	n/a	n/a	n/a	297.068	n/a
266.63	0.497	happy	Picture	87.347	n/a	3	7	12	n/a	12	48	2	n/a	n/a	n/a	n/a	297.599	AF14HAS.jpg
267.128	0.514	Blank	Blank	86.833	n/a	3	7	12	n/a	12	n/a	2	n/a	n/a	n/a	n/a	298.096	n/a
267.658	0.497	happy	Picture	86.319	n/a	3	7	13	n/a	13	66	2	n/a	n/a	n/a	n/a	298.627	BM07HAS.jpg
268.156	0.514	Blank	Blank	85.805	n/a	3	7	13	n/a	13	n/a	2	n/a	n/a	n/a	n/a	299.124	n/a
268.686	0.497	happy	Picture	85.291	n/a	3	7	14	n/a	14	70	2	n/a	n/a	n/a	n/a	299.655	BM11HAS.jpg
269.184	0.514	Blank	Blank	84.777	n/a	3	7	14	n/a	14	n/a	2	n/a	n/a	n/a	n/a	300.152	n/a
269.714	0.497	happy	Picture	84.263	n/a	3	7	15	n/a	15	43	2	n/a	n/a	n/a	n/a	300.682	BF04HAS.jpg
270.212	0.514	Blank	Blank	83.75	n/a	3	7	15	n/a	15	n/a	2	n/a	n/a	n/a	n/a	301.18	n/a
270.742	0.497	happy	Picture	83.235	n/a	3	7	16	n/a	16	49	2	n/a	n/a	n/a	n/a	301.71	AF17HAS.jpg
271.239	0.514	Blank	Blank	82.722	n/a	3	7	16	n/a	16	n/a	2	n/a	n/a	n/a	n/a	302.208	n/a
271.77	0.497	happy	Picture	82.208	n/a	3	7	17	n/a	17	75	2	n/a	n/a	n/a	n/a	302.738	AM23HAS.jpg
272.267	0.514	Blank	Blank	81.694	n/a	3	7	17	n/a	17	n/a	2	n/a	n/a	n/a	n/a	303.236	n/a
272.798	0.497	happy	Picture	81.18	n/a	3	7	18	n/a	18	80	2	n/a	n/a	n/a	n/a	303.766	BM35HAS.jpg
273.295	0.514	Blank	Blank	80.666	n/a	3	7	18	n/a	18	n/a	2	n/a	n/a	n/a	n/a	304.263	n/a
273.826	0.497	happy	Picture	80.152	n/a	3	7	19	n/a	19	76	2	n/a	n/a	n/a	n/a	304.794	BM24HAS.jpg
274.323	0.514	Blank	Blank	79.638	n/a	3	7	19	n/a	19	n/a	2	n/a	n/a	n/a	n/a	305.291	n/a
274.853	0.497	happy	Picture	79.124	n/a	3	7	20	n/a	20	74	2	n/a	n/a	n/a	n/a	305.822	AM22HAS.jpg
275.351	0.514	Blank	Blank	78.61	n/a	3	7	20	n/a	20	n/a	2	n/a	n/a	n/a	n/a	306.319	n/a
275.881	10.014	ITI	Fixation+	68.58	n/a	3	n/a	n/a	n/a	n/a	n/a	n/a	n/a	n/a	n/a	n/a	306.85	n/a
285.911	0.497	neutral	Picture	68.066	n/a	3	8	1	n/a	21	33	1	n/a	n/a	n/a	n/a	316.88	AM21NES.jpg
286.409	0.514	Blank	Blank	67.552	n/a	3	8	1	n/a	21	n/a	1	n/a	n/a	n/a	n/a	317.377	n/a
286.939	0.497	neutral	Picture	67.038	n/a	3	8	2	n/a	22	39	1	n/a	n/a	n/a	n/a	317.908	AM28NES.jpg
287.437	0.514	Blank	Blank	66.524	n/a	3	8	2	n/a	22	n/a	1	n/a	n/a	n/a	n/a	318.405	n/a
287.967	0.497	neutral	Picture	66.01	n/a	3	8	3	n/a	23	25	1	n/a	n/a	n/a	n/a	318.936	BM06NES.jpg
288.465	0.514	Blank	Blank	65.496	n/a	3	8	3	n/a	23	n/a	1	n/a	n/a	n/a	n/a	319.433	n/a
288.995	0.497	neutral	Picture	64.982	n/a	3	8	4	n/a	24	5	1	n/a	n/a	n/a	n/a	319.964	BF07NES.jpg
289.493	0.514	Blank	Blank	64.468	n/a	3	8	4	n/a	24	n/a	1	n/a	n/a	n/a	n/a	320.461	n/a
290.023	0.497	neutral	Picture	63.954	n/a	3	8	5	n/a	25	10	1	n/a	n/a	n/a	n/a	320.991	AF18NES.jpg
290.52	0.514	Blank	Blank	63.441	n/a	3	8	5	n/a	25	n/a	1	n/a	n/a	n/a	n/a	321.489	n/a
291.051	0.497	neutral	Picture	62.927	n/a	3	8	6	n/a	26	34	1	n/a	n/a	n/a	n/a	322.019	AM22NES.jpg
291.548	0.514	Blank	Blank	62.413	n/a	3	8	6	n/a	26	n/a	1	n/a	n/a	n/a	n/a	322.517	n/a
292.079	0.497	neutral	Picture	61.899	n/a	3	8	7	n/a	27	36	1	n/a	n/a	n/a	n/a	323.047	BM24NES.jpg
292.576	0.514	Blank	Blank	61.385	n/a	3	8	7	n/a	27	n/a	1	n/a	n/a	n/a	n/a	323.545	n/a
293.107	0.497	neutral	Picture	60.871	n/a	3	8	8	n/a	28	14	1	n/a	n/a	n/a	n/a	324.075	AF23NES.jpg
293.604	0.514	Blank	Blank	60.357	n/a	3	8	8	n/a	28	n/a	1	n/a	n/a	n/a	n/a	324.572	n/a
294.135	0.497	neutral	Picture	59.843	n/a	3	8	9	n/a	29	9	1	n/a	n/a	n/a	n/a	325.103	AF17NES.jpg
294.632	0.514	Blank	Blank	59.329	n/a	3	8	9	n/a	29	n/a	1	n/a	n/a	n/a	n/a	325.6	n/a
295.162	0.497	neutral	Picture	58.815	n/a	3	8	10	n/a	30	19	1	n/a	n/a	n/a	n/a	326.131	AF31NES.jpg
295.66	0.514	Blank	Blank	58.301	n/a	3	8	10	n/a	30	n/a	1	n/a	n/a	n/a	n/a	326.628	n/a
296.19	0.497	neutral	Picture	57.787	n/a	3	8	11	n/a	31	15	1	n/a	n/a	n/a	n/a	327.159	AF25NES.jpg
296.688	0.514	Blank	Blank	57.273	n/a	3	8	11	n/a	31	n/a	1	n/a	n/a	n/a	n/a	327.656	n/a
297.218	0.497	neutral	Picture	56.759	n/a	3	8	12	n/a	32	22	1	n/a	n/a	n/a	n/a	328.187	BM03NES.jpg
297.716	0.514	Blank	Blank	56.245	n/a	3	8	12	n/a	32	n/a	1	n/a	n/a	n/a	n/a	328.684	n/a
298.246	0.497	neutral	Picture	55.731	n/a	3	8	13	n/a	33	11	1	n/a	n/a	n/a	n/a	329.214	AF20NES.jpg
298.743	0.514	Blank	Blank	55.217	n/a	3	8	13	n/a	33	n/a	1	n/a	n/a	n/a	n/a	329.712	n/a
299.274	0.497	neutral	Picture	54.704	n/a	3	8	14	n/a	34	4	1	n/a	n/a	n/a	n/a	330.242	AF05NES.jpg
299.771	0.514	Blank	Blank	54.19	n/a	3	8	14	n/a	34	n/a	1	n/a	n/a	n/a	n/a	330.74	n/a
300.302	0.497	neutral	Picture	53.676	n/a	3	8	15	n/a	35	17	1	n/a	n/a	n/a	n/a	331.27	BF28NES.jpg
300.799	0.514	Blank	Blank	53.162	n/a	3	8	15	n/a	35	n/a	1	n/a	n/a	n/a	n/a	331.767	n/a
301.33	0.497	neutral	Picture	52.648	n/a	3	8	16	n/a	36	13	1	n/a	n/a	n/a	n/a	332.298	BF22NES.jpg
301.827	0.514	Blank	Blank	52.134	n/a	3	8	16	n/a	36	n/a	1	n/a	n/a	n/a	n/a	332.795	n/a
302.358	0.497	neutral	Picture	51.62	n/a	3	8	17	n/a	37	12	1	n/a	n/a	n/a	n/a	333.326	AF21NES.jpg
302.855	0.514	Blank	Blank	51.106	n/a	3	8	17	n/a	37	n/a	1	n/a	n/a	n/a	n/a	333.823	n/a
303.385	0.497	neutral	Picture	50.592	n/a	3	8	18	n/a	38	24	1	n/a	n/a	n/a	n/a	334.354	BM05NES.jpg
303.883	0.514	Blank	Blank	50.078	n/a	3	8	18	n/a	38	n/a	1	n/a	n/a	n/a	n/a	334.851	n/a
304.413	0.497	neutral	Picture	49.564	n/a	3	8	19	n/a	39	29	1	n/a	n/a	n/a	n/a	335.382	AM10NES.jpg
304.911	0.514	Blank	Blank	49.05	n/a	3	8	19	n/a	39	n/a	1	n/a	n/a	n/a	n/a	335.879	n/a
305.441	0.497	neutral	Picture	48.536	n/a	3	8	20	n/a	40	23	1	n/a	n/a	n/a	n/a	336.409	AM04NES.jpg
305.939	0.514	Blank	Blank	48.022	n/a	3	8	20	n/a	40	n/a	1	n/a	n/a	n/a	n/a	336.907	n/a
306.469	10.014	ITI	Fixation+	37.992	n/a	3	n/a	n/a	n/a	n/a	n/a	n/a	n/a	n/a	n/a	n/a	337.437	n/a
316.499	0.497	happy	Picture	37.478	n/a	3	9	1	n/a	41	62	2	n/a	n/a	n/a	n/a	347.467	BM03HAS.jpg
316.997	0.514	Blank	Blank	36.964	n/a	3	9	1	n/a	41	n/a	2	n/a	n/a	n/a	n/a	347.965	n/a
317.527	0.497	happy	Picture	36.45	n/a	3	9	2	n/a	42	52	2	n/a	n/a	n/a	n/a	348.495	AF21HAS.jpg
318.024	0.514	Blank	Blank	35.937	n/a	3	9	2	n/a	42	n/a	2	n/a	n/a	n/a	n/a	348.993	n/a
318.555	0.497	happy	Picture	35.423	n/a	3	9	3	n/a	43	44	2	n/a	n/a	n/a	n/a	349.523	AF05HAS.jpg
319.052	0.514	Blank	Blank	34.909	n/a	3	9	3	n/a	43	n/a	2	n/a	n/a	n/a	n/a	350.021	n/a
319.582	0.498	happy	Picture	34.395	n/a	3	9	4	n/a	44	53	2	n/a	n/a	n/a	n/a	350.55	BF22HAS.jpg
320.08	0.514	Blank	Blank	33.881	n/a	3	9	4	n/a	44	n/a	2	n/a	n/a	n/a	n/a	351.048	n/a
320.611	0.497	happy	Picture	33.367	n/a	3	9	5	n/a	45	54	2	n/a	n/a	n/a	n/a	351.579	AF23HAS.jpg
321.108	0.514	Blank	Blank	32.853	n/a	3	9	5	n/a	45	n/a	2	n/a	n/a	n/a	n/a	352.076	n/a
321.639	0.497	happy	Picture	32.339	n/a	3	9	6	n/a	46	68	2	n/a	n/a	n/a	n/a	352.607	AM09HAS.jpg
322.136	0.514	Blank	Blank	31.825	n/a	3	9	6	n/a	46	n/a	2	n/a	n/a	n/a	n/a	353.104	n/a
322.666	0.497	happy	Picture	31.311	n/a	3	9	7	n/a	47	64	2	n/a	n/a	n/a	n/a	353.635	BM05HAS.jpg
323.164	0.514	Blank	Blank	30.797	n/a	3	9	7	n/a	47	n/a	2	n/a	n/a	n/a	n/a	354.132	n/a
323.694	0.497	happy	Picture	30.283	n/a	3	9	8	n/a	48	59	2	n/a	n/a	n/a	n/a	354.663	AF31HAS.jpg
324.192	0.514	Blank	Blank	29.769	n/a	3	9	8	n/a	48	n/a	2	n/a	n/a	n/a	n/a	355.16	n/a
324.722	0.497	happy	Picture	29.255	n/a	3	9	9	n/a	49	41	2	n/a	n/a	n/a	n/a	355.691	AF01HAS.jpg
325.22	0.514	Blank	Blank	28.741	n/a	3	9	9	n/a	49	n/a	2	n/a	n/a	n/a	n/a	356.188	n/a
325.75	0.497	happy	Picture	28.227	n/a	3	9	10	n/a	50	73	2	n/a	n/a	n/a	n/a	356.718	AM21HAS.jpg
326.248	0.514	Blank	Blank	27.714	n/a	3	9	10	n/a	50	n/a	2	n/a	n/a	n/a	n/a	357.216	n/a
326.778	0.497	happy	Picture	27.199	n/a	3	9	11	n/a	51	65	2	n/a	n/a	n/a	n/a	357.746	BM06HAS.jpg
327.275	0.514	Blank	Blank	26.686	n/a	3	9	11	n/a	51	n/a	2	n/a	n/a	n/a	n/a	358.244	n/a
327.806	0.497	happy	Picture	26.172	n/a	3	9	12	n/a	52	56	2	n/a	n/a	n/a	n/a	358.774	AF26HAS.jpg
328.303	0.514	Blank	Blank	25.658	n/a	3	9	12	n/a	52	n/a	2	n/a	n/a	n/a	n/a	359.272	n/a
328.834	0.497	happy	Picture	25.144	n/a	3	9	13	n/a	53	45	2	n/a	n/a	n/a	n/a	359.802	BF07HAS.jpg
329.331	0.514	Blank	Blank	24.63	n/a	3	9	13	n/a	53	n/a	2	n/a	n/a	n/a	n/a	360.299	n/a
329.862	0.497	happy	Picture	24.116	n/a	3	9	14	n/a	54	78	2	n/a	n/a	n/a	n/a	360.83	BM26HAS.jpg
330.359	0.514	Blank	Blank	23.602	n/a	3	9	14	n/a	54	n/a	2	n/a	n/a	n/a	n/a	361.327	n/a
330.889	0.497	happy	Picture	23.088	n/a	3	9	15	n/a	55	50	2	n/a	n/a	n/a	n/a	361.858	AF18HAS.jpg
331.387	0.514	Blank	Blank	22.574	n/a	3	9	15	n/a	55	n/a	2	n/a	n/a	n/a	n/a	362.355	n/a
331.917	0.497	happy	Picture	22.06	n/a	3	9	16	n/a	56	47	2	n/a	n/a	n/a	n/a	362.886	BF11HAS.jpg
332.415	0.514	Blank	Blank	21.546	n/a	3	9	16	n/a	56	n/a	2	n/a	n/a	n/a	n/a	363.383	n/a
332.945	0.497	happy	Picture	21.032	n/a	3	9	17	n/a	57	77	2	n/a	n/a	n/a	n/a	363.914	BM25HAS.jpg
333.443	0.514	Blank	Blank	20.518	n/a	3	9	17	n/a	57	n/a	2	n/a	n/a	n/a	n/a	364.411	n/a
333.973	0.497	happy	Picture	20.004	n/a	3	9	18	n/a	58	57	2	n/a	n/a	n/a	n/a	364.942	BF28HAS.jpg
334.471	0.514	Blank	Blank	19.49	n/a	3	9	18	n/a	58	n/a	2	n/a	n/a	n/a	n/a	365.439	n/a
335.001	0.497	happy	Picture	18.976	n/a	3	9	19	n/a	59	61	2	n/a	n/a	n/a	n/a	365.969	AM01HAS.jpg
335.498	0.514	Blank	Blank	18.463	n/a	3	9	19	n/a	59	n/a	2	n/a	n/a	n/a	n/a	366.467	n/a
336.029	0.497	happy	Picture	17.949	n/a	3	9	20	n/a	60	79	2	n/a	n/a	n/a	n/a	366.997	BM28HAS.jpg
336.526	0.514	Blank	Blank	17.435	n/a	3	9	20	n/a	60	n/a	2	n/a	n/a	n/a	n/a	367.495	n/a
337.057	10.014	ITI	Fixation+	7.405	n/a	3	n/a	n/a	n/a	n/a	n/a	n/a	n/a	n/a	n/a	n/a	368.025	n/a
354.475	n/a	ConfirmRating	Rate	n/a	7.394	3	n/a	n/a	0	n/a	n/a	n/a	2	Happy	28	48	385.443	n/a
359.841	n/a	ConfirmRating	Rate	n/a	5.355	3	n/a	n/a	1	n/a	n/a	n/a	3	Happy	0	43	390.809	n/a
359.869	10.014	ITI	Fixation+	101.886	n/a	4	n/a	n/a	n/a	n/a	n/a	n/a	n/a	n/a	n/a	n/a	390.837	n/a
369.899	0.497	angry	Picture	101.372	n/a	4	10	1	n/a	61	119	3	n/a	n/a	n/a	n/a	400.868	BM28ANS.jpg
370.397	0.514	Blank	Blank	100.858	n/a	4	10	1	n/a	61	n/a	3	n/a	n/a	n/a	n/a	401.365	n/a
370.927	0.497	angry	Picture	100.344	n/a	4	10	2	n/a	62	100	3	n/a	n/a	n/a	n/a	401.895	AF32ANS.jpg
371.424	0.514	Blank	Blank	99.83	n/a	4	10	2	n/a	62	n/a	3	n/a	n/a	n/a	n/a	402.393	n/a
371.955	0.497	angry	Picture	99.317	n/a	4	10	3	n/a	63	118	3	n/a	n/a	n/a	n/a	402.923	BM26ANS.jpg
372.452	0.514	Blank	Blank	98.803	n/a	4	10	3	n/a	63	n/a	3	n/a	n/a	n/a	n/a	403.421	n/a
372.983	0.497	angry	Picture	98.289	n/a	4	10	4	n/a	64	89	3	n/a	n/a	n/a	n/a	403.951	AF17ANS.jpg
373.48	0.514	Blank	Blank	97.775	n/a	4	10	4	n/a	64	n/a	3	n/a	n/a	n/a	n/a	404.449	n/a
374.011	0.497	angry	Picture	97.261	n/a	4	10	5	n/a	65	116	3	n/a	n/a	n/a	n/a	404.979	BM24ANS.jpg
374.508	0.514	Blank	Blank	96.747	n/a	4	10	5	n/a	65	n/a	3	n/a	n/a	n/a	n/a	405.476	n/a
375.039	0.497	angry	Picture	96.233	n/a	4	10	6	n/a	66	105	3	n/a	n/a	n/a	n/a	406.007	BM06ANS.jpg
375.536	0.514	Blank	Blank	95.719	n/a	4	10	6	n/a	66	n/a	3	n/a	n/a	n/a	n/a	406.504	n/a
376.067	0.497	angry	Picture	95.205	n/a	4	10	7	n/a	67	106	3	n/a	n/a	n/a	n/a	407.035	AM07ANS.jpg
376.564	0.514	Blank	Blank	94.691	n/a	4	10	7	n/a	67	n/a	3	n/a	n/a	n/a	n/a	407.532	n/a
377.094	0.497	angry	Picture	94.177	n/a	4	10	8	n/a	68	94	3	n/a	n/a	n/a	n/a	408.063	AF23ANS.jpg
377.592	0.514	Blank	Blank	93.663	n/a	4	10	8	n/a	68	n/a	3	n/a	n/a	n/a	n/a	408.56	n/a
378.122	0.497	angry	Picture	93.149	n/a	4	10	9	n/a	69	117	3	n/a	n/a	n/a	n/a	409.091	BM25ANS.jpg
378.62	0.514	Blank	Blank	92.635	n/a	4	10	9	n/a	69	n/a	3	n/a	n/a	n/a	n/a	409.588	n/a
379.15	0.497	angry	Picture	92.121	n/a	4	10	10	n/a	70	90	3	n/a	n/a	n/a	n/a	410.118	AF18ANS.jpg
379.647	0.514	Blank	Blank	91.607	n/a	4	10	10	n/a	70	n/a	3	n/a	n/a	n/a	n/a	410.616	n/a
380.178	0.497	angry	Picture	91.094	n/a	4	10	11	n/a	71	83	3	n/a	n/a	n/a	n/a	411.146	BF04ANS.jpg
380.675	0.514	Blank	Blank	90.579	n/a	4	10	11	n/a	71	n/a	3	n/a	n/a	n/a	n/a	411.644	n/a
381.206	0.497	angry	Picture	90.066	n/a	4	10	12	n/a	72	112	3	n/a	n/a	n/a	n/a	412.174	AM14ANS.jpg
381.703	0.514	Blank	Blank	89.552	n/a	4	10	12	n/a	72	n/a	3	n/a	n/a	n/a	n/a	412.671	n/a
382.234	0.497	angry	Picture	89.038	n/a	4	10	13	n/a	73	102	3	n/a	n/a	n/a	n/a	413.202	BM03ANS.jpg
382.731	0.514	Blank	Blank	88.524	n/a	4	10	13	n/a	73	n/a	3	n/a	n/a	n/a	n/a	413.699	n/a
383.262	0.497	angry	Picture	88.01	n/a	4	10	14	n/a	74	95	3	n/a	n/a	n/a	n/a	414.23	AF25ANS.jpg
383.759	0.514	Blank	Blank	87.496	n/a	4	10	14	n/a	74	n/a	3	n/a	n/a	n/a	n/a	414.727	n/a
384.289	0.497	angry	Picture	86.982	n/a	4	10	15	n/a	75	113	3	n/a	n/a	n/a	n/a	415.258	AM21ANS.jpg
384.787	0.514	Blank	Blank	86.468	n/a	4	10	15	n/a	75	n/a	3	n/a	n/a	n/a	n/a	415.755	n/a
385.317	0.497	angry	Picture	85.954	n/a	4	10	16	n/a	76	88	3	n/a	n/a	n/a	n/a	416.286	AF14ANS.jpg
385.815	0.514	Blank	Blank	85.44	n/a	4	10	16	n/a	76	n/a	3	n/a	n/a	n/a	n/a	416.783	n/a
386.345	0.497	angry	Picture	84.926	n/a	4	10	17	n/a	77	93	3	n/a	n/a	n/a	n/a	417.314	BF22ANS.jpg
386.843	0.514	Blank	Blank	84.412	n/a	4	10	17	n/a	77	n/a	3	n/a	n/a	n/a	n/a	417.811	n/a
387.373	0.497	angry	Picture	83.898	n/a	4	10	18	n/a	78	86	3	n/a	n/a	n/a	n/a	418.341	AF09ANS.jpg
387.87	0.514	Blank	Blank	83.384	n/a	4	10	18	n/a	78	n/a	3	n/a	n/a	n/a	n/a	418.839	n/a
388.401	0.497	angry	Picture	82.87	n/a	4	10	19	n/a	79	92	3	n/a	n/a	n/a	n/a	419.369	AF21ANS.jpg
388.898	0.514	Blank	Blank	82.357	n/a	4	10	19	n/a	79	n/a	3	n/a	n/a	n/a	n/a	419.867	n/a
389.429	0.497	angry	Picture	81.842	n/a	4	10	20	n/a	80	84	3	n/a	n/a	n/a	n/a	420.397	AF05ANS.jpg
389.926	0.514	Blank	Blank	81.329	n/a	4	10	20	n/a	80	n/a	3	n/a	n/a	n/a	n/a	420.895	n/a
390.457	10.014	ITI	Fixation+	71.298	n/a	4	n/a	n/a	n/a	n/a	n/a	n/a	n/a	n/a	n/a	n/a	421.425	n/a
400.487	0.497	neutral	Picture	70.784	n/a	4	11	1	n/a	81	4	1	n/a	n/a	n/a	n/a	431.455	AF05NES.jpg
400.984	0.514	Blank	Blank	70.271	n/a	4	11	1	n/a	81	n/a	1	n/a	n/a	n/a	n/a	431.953	n/a
401.515	0.497	neutral	Picture	69.757	n/a	4	11	2	n/a	82	14	1	n/a	n/a	n/a	n/a	432.483	AF23NES.jpg
402.012	0.514	Blank	Blank	69.243	n/a	4	11	2	n/a	82	n/a	1	n/a	n/a	n/a	n/a	432.98	n/a
402.543	0.497	neutral	Picture	68.729	n/a	4	11	3	n/a	83	19	1	n/a	n/a	n/a	n/a	433.511	AF31NES.jpg
403.04	0.514	Blank	Blank	68.215	n/a	4	11	3	n/a	83	n/a	1	n/a	n/a	n/a	n/a	434.008	n/a
403.57	0.497	neutral	Picture	67.701	n/a	4	11	4	n/a	84	8	1	n/a	n/a	n/a	n/a	434.539	AF14NES.jpg
404.068	0.514	Blank	Blank	67.187	n/a	4	11	4	n/a	84	n/a	1	n/a	n/a	n/a	n/a	435.036	n/a
404.598	0.497	neutral	Picture	66.673	n/a	4	11	5	n/a	85	25	1	n/a	n/a	n/a	n/a	435.567	BM06NES.jpg
405.096	0.514	Blank	Blank	66.159	n/a	4	11	5	n/a	85	n/a	1	n/a	n/a	n/a	n/a	436.064	n/a
405.626	0.497	neutral	Picture	65.645	n/a	4	11	6	n/a	86	9	1	n/a	n/a	n/a	n/a	436.595	AF17NES.jpg
406.124	0.514	Blank	Blank	65.131	n/a	4	11	6	n/a	86	n/a	1	n/a	n/a	n/a	n/a	437.092	n/a
406.654	0.497	neutral	Picture	64.617	n/a	4	11	7	n/a	87	2	1	n/a	n/a	n/a	n/a	437.623	AF03NES.jpg
407.151	0.514	Blank	Blank	64.103	n/a	4	11	7	n/a	87	n/a	1	n/a	n/a	n/a	n/a	438.12	n/a
407.682	0.497	neutral	Picture	63.589	n/a	4	11	8	n/a	88	17	1	n/a	n/a	n/a	n/a	438.65	BF28NES.jpg
408.179	0.514	Blank	Blank	63.076	n/a	4	11	8	n/a	88	n/a	1	n/a	n/a	n/a	n/a	439.148	n/a
408.71	0.497	neutral	Picture	62.561	n/a	4	11	9	n/a	89	6	1	n/a	n/a	n/a	n/a	439.678	AF09NES.jpg
409.207	0.514	Blank	Blank	62.048	n/a	4	11	9	n/a	89	n/a	1	n/a	n/a	n/a	n/a	440.176	n/a
409.738	0.497	neutral	Picture	61.534	n/a	4	11	10	n/a	90	12	1	n/a	n/a	n/a	n/a	440.706	AF21NES.jpg
410.235	0.514	Blank	Blank	61.02	n/a	4	11	10	n/a	90	n/a	1	n/a	n/a	n/a	n/a	441.204	n/a
410.766	0.497	neutral	Picture	60.506	n/a	4	11	11	n/a	91	24	1	n/a	n/a	n/a	n/a	441.734	BM05NES.jpg
411.263	0.514	Blank	Blank	59.992	n/a	4	11	11	n/a	91	n/a	1	n/a	n/a	n/a	n/a	442.231	n/a
411.794	0.497	neutral	Picture	59.478	n/a	4	11	12	n/a	92	34	1	n/a	n/a	n/a	n/a	442.762	AM22NES.jpg
412.291	0.514	Blank	Blank	58.964	n/a	4	11	12	n/a	92	n/a	1	n/a	n/a	n/a	n/a	443.259	n/a
412.821	0.497	neutral	Picture	58.45	n/a	4	11	13	n/a	93	23	1	n/a	n/a	n/a	n/a	443.79	AM04NES.jpg
413.319	0.514	Blank	Blank	57.936	n/a	4	11	13	n/a	93	n/a	1	n/a	n/a	n/a	n/a	444.287	n/a
413.849	0.497	neutral	Picture	57.422	n/a	4	11	14	n/a	94	15	1	n/a	n/a	n/a	n/a	444.818	AF25NES.jpg
414.347	0.514	Blank	Blank	56.908	n/a	4	11	14	n/a	94	n/a	1	n/a	n/a	n/a	n/a	445.315	n/a
414.877	0.497	neutral	Picture	56.394	n/a	4	11	15	n/a	95	37	1	n/a	n/a	n/a	n/a	445.846	BM25NES.jpg
415.375	0.514	Blank	Blank	55.88	n/a	4	11	15	n/a	95	n/a	1	n/a	n/a	n/a	n/a	446.343	n/a
415.905	0.497	neutral	Picture	55.366	n/a	4	11	16	n/a	96	32	1	n/a	n/a	n/a	n/a	446.873	AM14NES.jpg
416.402	0.514	Blank	Blank	54.852	n/a	4	11	16	n/a	96	n/a	1	n/a	n/a	n/a	n/a	447.371	n/a
416.933	0.497	neutral	Picture	54.339	n/a	4	11	17	n/a	97	3	1	n/a	n/a	n/a	n/a	447.901	BF04NES.jpg
417.43	0.514	Blank	Blank	53.825	n/a	4	11	17	n/a	97	n/a	1	n/a	n/a	n/a	n/a	448.399	n/a
417.961	0.497	neutral	Picture	53.311	n/a	4	11	18	n/a	98	16	1	n/a	n/a	n/a	n/a	448.929	AF26NES.jpg
418.458	0.514	Blank	Blank	52.797	n/a	4	11	18	n/a	98	n/a	1	n/a	n/a	n/a	n/a	449.426	n/a
418.989	0.497	neutral	Picture	52.283	n/a	4	11	19	n/a	99	27	1	n/a	n/a	n/a	n/a	449.957	BM08NES.jpg
419.486	0.514	Blank	Blank	51.769	n/a	4	11	19	n/a	99	n/a	1	n/a	n/a	n/a	n/a	450.454	n/a
420.017	0.497	neutral	Picture	51.255	n/a	4	11	20	n/a	100	28	1	n/a	n/a	n/a	n/a	450.985	AM09NES.jpg
420.514	0.514	Blank	Blank	50.741	n/a	4	11	20	n/a	100	n/a	1	n/a	n/a	n/a	n/a	451.482	n/a
421.045	10.014	ITI	Fixation+	40.711	n/a	4	n/a	n/a	n/a	n/a	n/a	n/a	n/a	n/a	n/a	n/a	452.013	n/a
431.075	0.497	angry	Picture	40.197	n/a	4	12	1	n/a	101	81	3	n/a	n/a	n/a	n/a	462.043	AF01ANS.jpg
431.572	0.514	Blank	Blank	39.683	n/a	4	12	1	n/a	101	n/a	3	n/a	n/a	n/a	n/a	462.54	n/a
432.103	0.497	angry	Picture	39.169	n/a	4	12	2	n/a	102	120	3	n/a	n/a	n/a	n/a	463.071	AM35ANS.jpg
432.6	0.514	Blank	Blank	38.655	n/a	4	12	2	n/a	102	n/a	3	n/a	n/a	n/a	n/a	463.568	n/a
433.13	0.497	angry	Picture	38.141	n/a	4	12	3	n/a	103	114	3	n/a	n/a	n/a	n/a	464.099	AM22ANS.jpg
433.628	0.514	Blank	Blank	37.627	n/a	4	12	3	n/a	103	n/a	3	n/a	n/a	n/a	n/a	464.596	n/a
434.158	0.497	angry	Picture	37.113	n/a	4	12	4	n/a	104	109	3	n/a	n/a	n/a	n/a	465.127	AM10ANS.jpg
434.656	0.514	Blank	Blank	36.599	n/a	4	12	4	n/a	104	n/a	3	n/a	n/a	n/a	n/a	465.624	n/a
435.186	0.497	angry	Picture	36.085	n/a	4	12	5	n/a	105	96	3	n/a	n/a	n/a	n/a	466.154	AF26ANS.jpg
435.683	0.514	Blank	Blank	35.571	n/a	4	12	5	n/a	105	n/a	3	n/a	n/a	n/a	n/a	466.652	n/a
436.214	0.497	angry	Picture	35.058	n/a	4	12	6	n/a	106	82	3	n/a	n/a	n/a	n/a	467.182	AF03ANS.jpg
436.711	0.514	Blank	Blank	34.543	n/a	4	12	6	n/a	106	n/a	3	n/a	n/a	n/a	n/a	467.68	n/a
437.242	0.497	angry	Picture	34.03	n/a	4	12	7	n/a	107	97	3	n/a	n/a	n/a	n/a	468.21	BF28ANS.jpg
437.739	0.514	Blank	Blank	33.516	n/a	4	12	7	n/a	107	n/a	3	n/a	n/a	n/a	n/a	468.707	n/a
438.27	0.497	angry	Picture	33.002	n/a	4	12	8	n/a	108	115	3	n/a	n/a	n/a	n/a	469.238	AM23ANS.jpg
438.767	0.514	Blank	Blank	32.488	n/a	4	12	8	n/a	108	n/a	3	n/a	n/a	n/a	n/a	469.735	n/a
439.298	0.497	angry	Picture	31.974	n/a	4	12	9	n/a	109	91	3	n/a	n/a	n/a	n/a	470.266	AF20ANS.jpg
439.795	0.514	Blank	Blank	31.46	n/a	4	12	9	n/a	109	n/a	3	n/a	n/a	n/a	n/a	470.763	n/a
440.325	0.497	angry	Picture	30.946	n/a	4	12	10	n/a	110	87	3	n/a	n/a	n/a	n/a	471.294	BF11ANS.jpg
440.823	0.514	Blank	Blank	30.432	n/a	4	12	10	n/a	110	n/a	3	n/a	n/a	n/a	n/a	471.791	n/a
441.353	0.497	angry	Picture	29.918	n/a	4	12	11	n/a	111	85	3	n/a	n/a	n/a	n/a	472.322	BF07ANS.jpg
441.851	0.514	Blank	Blank	29.404	n/a	4	12	11	n/a	111	n/a	3	n/a	n/a	n/a	n/a	472.819	n/a
442.381	0.497	angry	Picture	28.89	n/a	4	12	12	n/a	112	110	3	n/a	n/a	n/a	n/a	473.35	AM11ANS.jpg
442.879	0.514	Blank	Blank	28.376	n/a	4	12	12	n/a	112	n/a	3	n/a	n/a	n/a	n/a	473.847	n/a
443.409	0.497	angry	Picture	27.862	n/a	4	12	13	n/a	113	111	3	n/a	n/a	n/a	n/a	474.377	BM12ANS.jpg
443.906	0.514	Blank	Blank	27.348	n/a	4	12	13	n/a	113	n/a	3	n/a	n/a	n/a	n/a	474.875	n/a
444.437	0.497	angry	Picture	26.834	n/a	4	12	14	n/a	114	103	3	n/a	n/a	n/a	n/a	475.405	AM04ANS.jpg
444.934	0.514	Blank	Blank	26.321	n/a	4	12	14	n/a	114	n/a	3	n/a	n/a	n/a	n/a	475.903	n/a
445.465	0.497	angry	Picture	25.807	n/a	4	12	15	n/a	115	101	3	n/a	n/a	n/a	n/a	476.433	AM01ANS.jpg
445.962	0.514	Blank	Blank	25.293	n/a	4	12	15	n/a	115	n/a	3	n/a	n/a	n/a	n/a	476.93	n/a
446.493	0.497	angry	Picture	24.779	n/a	4	12	16	n/a	116	104	3	n/a	n/a	n/a	n/a	477.461	BM05ANS.jpg
446.99	0.514	Blank	Blank	24.265	n/a	4	12	16	n/a	116	n/a	3	n/a	n/a	n/a	n/a	477.958	n/a
447.521	0.497	angry	Picture	23.751	n/a	4	12	17	n/a	117	107	3	n/a	n/a	n/a	n/a	478.489	BM08ANS.jpg
448.018	0.514	Blank	Blank	23.237	n/a	4	12	17	n/a	117	n/a	3	n/a	n/a	n/a	n/a	478.986	n/a
448.548	0.497	angry	Picture	22.723	n/a	4	12	18	n/a	118	98	3	n/a	n/a	n/a	n/a	479.517	BF29ANS.jpg
449.046	0.514	Blank	Blank	22.209	n/a	4	12	18	n/a	118	n/a	3	n/a	n/a	n/a	n/a	480.014	n/a
449.576	0.498	angry	Picture	21.695	n/a	4	12	19	n/a	119	99	3	n/a	n/a	n/a	n/a	480.544	AF31ANS.jpg
450.074	0.514	Blank	Blank	21.181	n/a	4	12	19	n/a	119	n/a	3	n/a	n/a	n/a	n/a	481.042	n/a
450.604	0.497	angry	Picture	20.667	n/a	4	12	20	n/a	120	108	3	n/a	n/a	n/a	n/a	481.573	AM09ANS.jpg
451.102	0.514	Blank	Blank	20.153	n/a	4	12	20	n/a	120	n/a	3	n/a	n/a	n/a	n/a	482.07	n/a
451.632	10.014	ITI	Fixation+	10.123	n/a	4	n/a	n/a	n/a	n/a	n/a	n/a	n/a	n/a	n/a	n/a	482.601	n/a
471.769	n/a	ConfirmRating	Rate	n/a	10.113	4	n/a	n/a	0	n/a	n/a	n/a	2	Angry	22	48	502.737	n/a
475.884	n/a	ConfirmRating	Rate	n/a	4.095	4	n/a	n/a	1	n/a	n/a	n/a	3	Angry	14	47	506.852	n/a
