onset	duration	trial_type	event_type	time_until_response	response_time	trial_number	block_num_within_trial	image_seq_num_within_block	question_seq_num_within_block	image_seq_num	picture_number	condition	question_type	block_type	rating	rating_computed	onset_uncorrected	KDEV_imagefile
0.002	10.014	ITI	Fixation+	99.277	n/a	1	n/a	n/a	n/a	n/a	n/a	n/a	n/a	n/a	n/a	n/a	31.213	n/a
10.032	0.497	angry	Picture	98.763	n/a	1	1	1	n/a	1	108	3	n/a	n/a	n/a	n/a	41.243	AM09ANS.jpg
10.53	0.514	Blank	Blank	98.249	n/a	1	1	1	n/a	1	n/a	3	n/a	n/a	n/a	n/a	41.74	n/a
11.06	0.497	angry	Picture	97.735	n/a	1	1	2	n/a	2	99	3	n/a	n/a	n/a	n/a	42.271	AF31ANS.jpg
11.558	0.514	Blank	Blank	97.221	n/a	1	1	2	n/a	2	n/a	3	n/a	n/a	n/a	n/a	42.768	n/a
12.088	0.497	angry	Picture	96.707	n/a	1	1	3	n/a	3	98	3	n/a	n/a	n/a	n/a	43.299	BF29ANS.jpg
12.586	0.514	Blank	Blank	96.193	n/a	1	1	3	n/a	3	n/a	3	n/a	n/a	n/a	n/a	43.796	n/a
13.116	0.497	angry	Picture	95.679	n/a	1	1	4	n/a	4	107	3	n/a	n/a	n/a	n/a	44.327	BM08ANS.jpg
13.614	0.514	Blank	Blank	95.165	n/a	1	1	4	n/a	4	n/a	3	n/a	n/a	n/a	n/a	44.824	n/a
14.144	0.497	angry	Picture	94.651	n/a	1	1	5	n/a	5	104	3	n/a	n/a	n/a	n/a	45.355	BM05ANS.jpg
14.641	0.514	Blank	Blank	94.137	n/a	1	1	5	n/a	5	n/a	3	n/a	n/a	n/a	n/a	45.852	n/a
15.172	0.497	angry	Picture	93.623	n/a	1	1	6	n/a	6	101	3	n/a	n/a	n/a	n/a	46.382	AM01ANS.jpg
15.669	0.514	Blank	Blank	93.109	n/a	1	1	6	n/a	6	n/a	3	n/a	n/a	n/a	n/a	46.88	n/a
16.2	0.497	angry	Picture	92.595	n/a	1	1	7	n/a	7	103	3	n/a	n/a	n/a	n/a	47.41	AM04ANS.jpg
16.697	0.514	Blank	Blank	92.081	n/a	1	1	7	n/a	7	n/a	3	n/a	n/a	n/a	n/a	47.908	n/a
17.228	0.497	angry	Picture	91.567	n/a	1	1	8	n/a	8	111	3	n/a	n/a	n/a	n/a	48.438	BM12ANS.jpg
17.725	0.514	Blank	Blank	91.053	n/a	1	1	8	n/a	8	n/a	3	n/a	n/a	n/a	n/a	48.935	n/a
18.256	0.497	angry	Picture	90.539	n/a	1	1	9	n/a	9	110	3	n/a	n/a	n/a	n/a	49.466	AM11ANS.jpg
18.753	0.514	Blank	Blank	90.026	n/a	1	1	9	n/a	9	n/a	3	n/a	n/a	n/a	n/a	49.963	n/a
19.283	0.497	angry	Picture	89.512	n/a	1	1	10	n/a	10	85	3	n/a	n/a	n/a	n/a	50.494	BF07ANS.jpg
19.781	0.514	Blank	Blank	88.998	n/a	1	1	10	n/a	10	n/a	3	n/a	n/a	n/a	n/a	50.991	n/a
20.311	0.497	angry	Picture	88.484	n/a	1	1	11	n/a	11	87	3	n/a	n/a	n/a	n/a	51.522	BF11ANS.jpg
20.809	0.514	Blank	Blank	87.97	n/a	1	1	11	n/a	11	n/a	3	n/a	n/a	n/a	n/a	52.019	n/a
21.339	0.497	angry	Picture	87.456	n/a	1	1	12	n/a	12	91	3	n/a	n/a	n/a	n/a	52.55	AF20ANS.jpg
21.837	0.514	Blank	Blank	86.942	n/a	1	1	12	n/a	12	n/a	3	n/a	n/a	n/a	n/a	53.047	n/a
22.367	0.497	angry	Picture	86.428	n/a	1	1	13	n/a	13	115	3	n/a	n/a	n/a	n/a	53.578	AM23ANS.jpg
22.865	0.514	Blank	Blank	85.914	n/a	1	1	13	n/a	13	n/a	3	n/a	n/a	n/a	n/a	54.075	n/a
23.395	0.497	angry	Picture	85.4	n/a	1	1	14	n/a	14	97	3	n/a	n/a	n/a	n/a	54.605	BF28ANS.jpg
23.892	0.514	Blank	Blank	84.886	n/a	1	1	14	n/a	14	n/a	3	n/a	n/a	n/a	n/a	55.103	n/a
24.423	0.497	angry	Picture	84.372	n/a	1	1	15	n/a	15	82	3	n/a	n/a	n/a	n/a	55.633	AF03ANS.jpg
24.92	0.514	Blank	Blank	83.858	n/a	1	1	15	n/a	15	n/a	3	n/a	n/a	n/a	n/a	56.131	n/a
25.451	0.497	angry	Picture	83.344	n/a	1	1	16	n/a	16	96	3	n/a	n/a	n/a	n/a	56.661	AF26ANS.jpg
25.948	0.514	Blank	Blank	82.83	n/a	1	1	16	n/a	16	n/a	3	n/a	n/a	n/a	n/a	57.159	n/a
26.479	0.497	angry	Picture	82.316	n/a	1	1	17	n/a	17	109	3	n/a	n/a	n/a	n/a	57.689	AM10ANS.jpg
26.976	0.514	Blank	Blank	81.802	n/a	1	1	17	n/a	17	n/a	3	n/a	n/a	n/a	n/a	58.187	n/a
27.507	0.497	angry	Picture	81.288	n/a	1	1	18	n/a	18	114	3	n/a	n/a	n/a	n/a	58.717	AM22ANS.jpg
28.004	0.514	Blank	Blank	80.775	n/a	1	1	18	n/a	18	n/a	3	n/a	n/a	n/a	n/a	59.214	n/a
28.535	0.497	angry	Picture	80.261	n/a	1	1	19	n/a	19	120	3	n/a	n/a	n/a	n/a	59.745	AM35ANS.jpg
29.032	0.514	Blank	Blank	79.747	n/a	1	1	19	n/a	19	n/a	3	n/a	n/a	n/a	n/a	60.242	n/a
29.562	0.497	angry	Picture	79.233	n/a	1	1	20	n/a	20	81	3	n/a	n/a	n/a	n/a	60.773	AF01ANS.jpg
30.06	0.514	Blank	Blank	78.719	n/a	1	1	20	n/a	20	n/a	3	n/a	n/a	n/a	n/a	61.27	n/a
30.59	10.014	ITI	Fixation+	68.689	n/a	1	n/a	n/a	n/a	n/a	n/a	n/a	n/a	n/a	n/a	n/a	61.801	n/a
40.62	0.497	neutral	Picture	68.175	n/a	1	2	1	n/a	21	28	1	n/a	n/a	n/a	n/a	71.831	AM09NES.jpg
41.118	0.514	Blank	Blank	67.661	n/a	1	2	1	n/a	21	n/a	1	n/a	n/a	n/a	n/a	72.328	n/a
41.648	0.497	neutral	Picture	67.147	n/a	1	2	2	n/a	22	27	1	n/a	n/a	n/a	n/a	72.859	BM08NES.jpg
42.146	0.514	Blank	Blank	66.633	n/a	1	2	2	n/a	22	n/a	1	n/a	n/a	n/a	n/a	73.356	n/a
42.676	0.497	neutral	Picture	66.119	n/a	1	2	3	n/a	23	16	1	n/a	n/a	n/a	n/a	73.887	AF26NES.jpg
43.174	0.514	Blank	Blank	65.605	n/a	1	2	3	n/a	23	n/a	1	n/a	n/a	n/a	n/a	74.384	n/a
43.704	0.497	neutral	Picture	65.091	n/a	1	2	4	n/a	24	3	1	n/a	n/a	n/a	n/a	74.915	BF04NES.jpg
44.202	0.514	Blank	Blank	64.577	n/a	1	2	4	n/a	24	n/a	1	n/a	n/a	n/a	n/a	75.412	n/a
44.732	0.497	neutral	Picture	64.063	n/a	1	2	5	n/a	25	32	1	n/a	n/a	n/a	n/a	75.942	AM14NES.jpg
45.229	0.514	Blank	Blank	63.549	n/a	1	2	5	n/a	25	n/a	1	n/a	n/a	n/a	n/a	76.44	n/a
45.76	0.497	neutral	Picture	63.035	n/a	1	2	6	n/a	26	37	1	n/a	n/a	n/a	n/a	76.97	BM25NES.jpg
46.257	0.514	Blank	Blank	62.521	n/a	1	2	6	n/a	26	n/a	1	n/a	n/a	n/a	n/a	77.468	n/a
46.788	0.497	neutral	Picture	62.007	n/a	1	2	7	n/a	27	15	1	n/a	n/a	n/a	n/a	77.998	AF25NES.jpg
47.285	0.514	Blank	Blank	61.493	n/a	1	2	7	n/a	27	n/a	1	n/a	n/a	n/a	n/a	78.496	n/a
47.816	0.497	neutral	Picture	60.979	n/a	1	2	8	n/a	28	23	1	n/a	n/a	n/a	n/a	79.026	AM04NES.jpg
48.313	0.514	Blank	Blank	60.465	n/a	1	2	8	n/a	28	n/a	1	n/a	n/a	n/a	n/a	79.523	n/a
48.844	0.497	neutral	Picture	59.951	n/a	1	2	9	n/a	29	34	1	n/a	n/a	n/a	n/a	80.054	AM22NES.jpg
49.341	0.514	Blank	Blank	59.437	n/a	1	2	9	n/a	29	n/a	1	n/a	n/a	n/a	n/a	80.551	n/a
49.872	0.497	neutral	Picture	58.924	n/a	1	2	10	n/a	30	24	1	n/a	n/a	n/a	n/a	81.082	BM05NES.jpg
50.369	0.514	Blank	Blank	58.41	n/a	1	2	10	n/a	30	n/a	1	n/a	n/a	n/a	n/a	81.579	n/a
50.899	0.497	neutral	Picture	57.896	n/a	1	2	11	n/a	31	12	1	n/a	n/a	n/a	n/a	82.11	AF21NES.jpg
51.397	0.514	Blank	Blank	57.382	n/a	1	2	11	n/a	31	n/a	1	n/a	n/a	n/a	n/a	82.607	n/a
51.927	0.497	neutral	Picture	56.868	n/a	1	2	12	n/a	32	6	1	n/a	n/a	n/a	n/a	83.138	AF09NES.jpg
52.425	0.514	Blank	Blank	56.354	n/a	1	2	12	n/a	32	n/a	1	n/a	n/a	n/a	n/a	83.635	n/a
52.955	0.497	neutral	Picture	55.84	n/a	1	2	13	n/a	33	17	1	n/a	n/a	n/a	n/a	84.166	BF28NES.jpg
53.453	0.514	Blank	Blank	55.326	n/a	1	2	13	n/a	33	n/a	1	n/a	n/a	n/a	n/a	84.663	n/a
53.983	0.497	neutral	Picture	54.812	n/a	1	2	14	n/a	34	2	1	n/a	n/a	n/a	n/a	85.194	AF03NES.jpg
54.48	0.514	Blank	Blank	54.298	n/a	1	2	14	n/a	34	n/a	1	n/a	n/a	n/a	n/a	85.691	n/a
55.011	0.497	neutral	Picture	53.784	n/a	1	2	15	n/a	35	9	1	n/a	n/a	n/a	n/a	86.221	AF17NES.jpg
55.508	0.514	Blank	Blank	53.27	n/a	1	2	15	n/a	35	n/a	1	n/a	n/a	n/a	n/a	86.719	n/a
56.039	0.497	neutral	Picture	52.756	n/a	1	2	16	n/a	36	25	1	n/a	n/a	n/a	n/a	87.249	BM06NES.jpg
56.536	0.514	Blank	Blank	52.242	n/a	1	2	16	n/a	36	n/a	1	n/a	n/a	n/a	n/a	87.747	n/a
57.067	0.497	neutral	Picture	51.728	n/a	1	2	17	n/a	37	8	1	n/a	n/a	n/a	n/a	88.277	AF14NES.jpg
57.564	0.514	Blank	Blank	51.214	n/a	1	2	17	n/a	37	n/a	1	n/a	n/a	n/a	n/a	88.775	n/a
58.095	0.497	neutral	Picture	50.7	n/a	1	2	18	n/a	38	19	1	n/a	n/a	n/a	n/a	89.305	AF31NES.jpg
58.592	0.514	Blank	Blank	50.186	n/a	1	2	18	n/a	38	n/a	1	n/a	n/a	n/a	n/a	89.802	n/a
59.122	0.497	neutral	Picture	49.673	n/a	1	2	19	n/a	39	14	1	n/a	n/a	n/a	n/a	90.333	AF23NES.jpg
59.62	0.514	Blank	Blank	49.159	n/a	1	2	19	n/a	39	n/a	1	n/a	n/a	n/a	n/a	90.83	n/a
60.15	0.497	neutral	Picture	48.645	n/a	1	2	20	n/a	40	4	1	n/a	n/a	n/a	n/a	91.361	AF05NES.jpg
60.648	0.514	Blank	Blank	48.131	n/a	1	2	20	n/a	40	n/a	1	n/a	n/a	n/a	n/a	91.858	n/a
61.178	10.014	ITI	Fixation+	38.1	n/a	1	n/a	n/a	n/a	n/a	n/a	n/a	n/a	n/a	n/a	n/a	92.389	n/a
71.208	0.497	angry	Picture	37.587	n/a	1	3	1	n/a	41	84	3	n/a	n/a	n/a	n/a	102.419	AF05ANS.jpg
71.706	0.514	Blank	Blank	37.073	n/a	1	3	1	n/a	41	n/a	3	n/a	n/a	n/a	n/a	102.916	n/a
72.236	0.497	angry	Picture	36.559	n/a	1	3	2	n/a	42	92	3	n/a	n/a	n/a	n/a	103.447	AF21ANS.jpg
72.734	0.514	Blank	Blank	36.045	n/a	1	3	2	n/a	42	n/a	3	n/a	n/a	n/a	n/a	103.944	n/a
73.264	0.497	angry	Picture	35.531	n/a	1	3	3	n/a	43	86	3	n/a	n/a	n/a	n/a	104.475	AF09ANS.jpg
73.762	0.514	Blank	Blank	35.017	n/a	1	3	3	n/a	43	n/a	3	n/a	n/a	n/a	n/a	104.972	n/a
74.292	0.497	angry	Picture	34.503	n/a	1	3	4	n/a	44	93	3	n/a	n/a	n/a	n/a	105.503	BF22ANS.jpg
74.79	0.514	Blank	Blank	33.989	n/a	1	3	4	n/a	44	n/a	3	n/a	n/a	n/a	n/a	106.0	n/a
75.32	0.497	angry	Picture	33.475	n/a	1	3	5	n/a	45	88	3	n/a	n/a	n/a	n/a	106.531	AF14ANS.jpg
75.817	0.514	Blank	Blank	32.961	n/a	1	3	5	n/a	45	n/a	3	n/a	n/a	n/a	n/a	107.028	n/a
76.348	0.497	angry	Picture	32.447	n/a	1	3	6	n/a	46	113	3	n/a	n/a	n/a	n/a	107.558	AM21ANS.jpg
76.845	0.514	Blank	Blank	31.933	n/a	1	3	6	n/a	46	n/a	3	n/a	n/a	n/a	n/a	108.056	n/a
77.376	0.497	angry	Picture	31.419	n/a	1	3	7	n/a	47	95	3	n/a	n/a	n/a	n/a	108.586	AF25ANS.jpg
77.873	0.514	Blank	Blank	30.905	n/a	1	3	7	n/a	47	n/a	3	n/a	n/a	n/a	n/a	109.084	n/a
78.404	0.497	angry	Picture	30.391	n/a	1	3	8	n/a	48	102	3	n/a	n/a	n/a	n/a	109.614	BM03ANS.jpg
78.901	0.514	Blank	Blank	29.877	n/a	1	3	8	n/a	48	n/a	3	n/a	n/a	n/a	n/a	110.112	n/a
79.432	0.497	angry	Picture	29.363	n/a	1	3	9	n/a	49	112	3	n/a	n/a	n/a	n/a	110.642	AM14ANS.jpg
79.929	0.514	Blank	Blank	28.849	n/a	1	3	9	n/a	49	n/a	3	n/a	n/a	n/a	n/a	111.139	n/a
80.46	0.497	angry	Picture	28.336	n/a	1	3	10	n/a	50	83	3	n/a	n/a	n/a	n/a	111.67	BF04ANS.jpg
80.957	0.514	Blank	Blank	27.822	n/a	1	3	10	n/a	50	n/a	3	n/a	n/a	n/a	n/a	112.167	n/a
81.488	0.497	angry	Picture	27.308	n/a	1	3	11	n/a	51	90	3	n/a	n/a	n/a	n/a	112.698	AF18ANS.jpg
81.985	0.514	Blank	Blank	26.794	n/a	1	3	11	n/a	51	n/a	3	n/a	n/a	n/a	n/a	113.195	n/a
82.515	0.497	angry	Picture	26.28	n/a	1	3	12	n/a	52	117	3	n/a	n/a	n/a	n/a	113.726	BM25ANS.jpg
83.013	0.514	Blank	Blank	25.766	n/a	1	3	12	n/a	52	n/a	3	n/a	n/a	n/a	n/a	114.223	n/a
83.543	0.497	angry	Picture	25.252	n/a	1	3	13	n/a	53	94	3	n/a	n/a	n/a	n/a	114.754	AF23ANS.jpg
84.041	0.514	Blank	Blank	24.738	n/a	1	3	13	n/a	53	n/a	3	n/a	n/a	n/a	n/a	115.251	n/a
84.571	0.497	angry	Picture	24.224	n/a	1	3	14	n/a	54	106	3	n/a	n/a	n/a	n/a	115.781	AM07ANS.jpg
85.069	0.514	Blank	Blank	23.71	n/a	1	3	14	n/a	54	n/a	3	n/a	n/a	n/a	n/a	116.279	n/a
85.599	0.497	angry	Picture	23.196	n/a	1	3	15	n/a	55	105	3	n/a	n/a	n/a	n/a	116.809	BM06ANS.jpg
86.096	0.514	Blank	Blank	22.682	n/a	1	3	15	n/a	55	n/a	3	n/a	n/a	n/a	n/a	117.307	n/a
86.627	0.497	angry	Picture	22.168	n/a	1	3	16	n/a	56	116	3	n/a	n/a	n/a	n/a	117.837	BM24ANS.jpg
87.124	0.514	Blank	Blank	21.654	n/a	1	3	16	n/a	56	n/a	3	n/a	n/a	n/a	n/a	118.335	n/a
87.655	0.497	angry	Picture	21.14	n/a	1	3	17	n/a	57	89	3	n/a	n/a	n/a	n/a	118.865	AF17ANS.jpg
88.152	0.514	Blank	Blank	20.626	n/a	1	3	17	n/a	57	n/a	3	n/a	n/a	n/a	n/a	119.363	n/a
88.683	0.497	angry	Picture	20.112	n/a	1	3	18	n/a	58	118	3	n/a	n/a	n/a	n/a	119.893	BM26ANS.jpg
89.18	0.514	Blank	Blank	19.598	n/a	1	3	18	n/a	58	n/a	3	n/a	n/a	n/a	n/a	120.39	n/a
89.711	0.497	angry	Picture	19.085	n/a	1	3	19	n/a	59	100	3	n/a	n/a	n/a	n/a	120.921	AF32ANS.jpg
90.208	0.514	Blank	Blank	18.571	n/a	1	3	19	n/a	59	n/a	3	n/a	n/a	n/a	n/a	121.418	n/a
90.738	0.497	angry	Picture	18.057	n/a	1	3	20	n/a	60	119	3	n/a	n/a	n/a	n/a	121.949	BM28ANS.jpg
91.236	0.514	Blank	Blank	17.543	n/a	1	3	20	n/a	60	n/a	3	n/a	n/a	n/a	n/a	122.446	n/a
91.766	10.014	ITI	Fixation+	7.512	n/a	1	n/a	n/a	n/a	n/a	n/a	n/a	n/a	n/a	n/a	n/a	122.977	n/a
109.292	n/a	ConfirmRating	Rate	n/a	7.51	1	n/a	n/a	0	n/a	n/a	n/a	2	Angry	71	51	140.503	n/a
112.043	n/a	ConfirmRating	Rate	n/a	2.736	1	n/a	n/a	1	n/a	n/a	n/a	3	Angry	70	52	143.254	n/a
112.076	10.014	ITI	Fixation+	100.162	n/a	2	n/a	n/a	n/a	n/a	n/a	n/a	n/a	n/a	n/a	n/a	143.286	n/a
122.106	0.497	happy	Picture	99.648	n/a	2	4	1	n/a	61	79	2	n/a	n/a	n/a	n/a	153.316	BM28HAS.jpg
122.603	0.514	Blank	Blank	99.134	n/a	2	4	1	n/a	61	n/a	2	n/a	n/a	n/a	n/a	153.814	n/a
123.134	0.497	happy	Picture	98.62	n/a	2	4	2	n/a	62	61	2	n/a	n/a	n/a	n/a	154.344	AM01HAS.jpg
123.631	0.514	Blank	Blank	98.106	n/a	2	4	2	n/a	62	n/a	2	n/a	n/a	n/a	n/a	154.841	n/a
124.162	0.497	happy	Picture	97.592	n/a	2	4	3	n/a	63	57	2	n/a	n/a	n/a	n/a	155.372	BF28HAS.jpg
124.659	0.514	Blank	Blank	97.078	n/a	2	4	3	n/a	63	n/a	2	n/a	n/a	n/a	n/a	155.869	n/a
125.189	0.497	happy	Picture	96.565	n/a	2	4	4	n/a	64	77	2	n/a	n/a	n/a	n/a	156.4	BM25HAS.jpg
125.687	0.514	Blank	Blank	96.051	n/a	2	4	4	n/a	64	n/a	2	n/a	n/a	n/a	n/a	156.897	n/a
126.217	0.497	happy	Picture	95.537	n/a	2	4	5	n/a	65	47	2	n/a	n/a	n/a	n/a	157.428	BF11HAS.jpg
126.715	0.514	Blank	Blank	95.023	n/a	2	4	5	n/a	65	n/a	2	n/a	n/a	n/a	n/a	157.925	n/a
127.245	0.497	happy	Picture	94.509	n/a	2	4	6	n/a	66	50	2	n/a	n/a	n/a	n/a	158.456	AF18HAS.jpg
127.743	0.514	Blank	Blank	93.995	n/a	2	4	6	n/a	66	n/a	2	n/a	n/a	n/a	n/a	158.953	n/a
128.273	0.497	happy	Picture	93.481	n/a	2	4	7	n/a	67	78	2	n/a	n/a	n/a	n/a	159.483	BM26HAS.jpg
128.77	0.514	Blank	Blank	92.967	n/a	2	4	7	n/a	67	n/a	2	n/a	n/a	n/a	n/a	159.981	n/a
129.301	0.497	happy	Picture	92.453	n/a	2	4	8	n/a	68	45	2	n/a	n/a	n/a	n/a	160.511	BF07HAS.jpg
129.798	0.514	Blank	Blank	91.939	n/a	2	4	8	n/a	68	n/a	2	n/a	n/a	n/a	n/a	161.009	n/a
130.329	0.497	happy	Picture	91.425	n/a	2	4	9	n/a	69	56	2	n/a	n/a	n/a	n/a	161.539	AF26HAS.jpg
130.826	0.514	Blank	Blank	90.911	n/a	2	4	9	n/a	69	n/a	2	n/a	n/a	n/a	n/a	162.037	n/a
131.357	0.497	happy	Picture	90.397	n/a	2	4	10	n/a	70	65	2	n/a	n/a	n/a	n/a	162.567	BM06HAS.jpg
131.854	0.514	Blank	Blank	89.883	n/a	2	4	10	n/a	70	n/a	2	n/a	n/a	n/a	n/a	163.065	n/a
132.385	0.497	happy	Picture	89.369	n/a	2	4	11	n/a	71	73	2	n/a	n/a	n/a	n/a	163.595	AM21HAS.jpg
132.882	0.514	Blank	Blank	88.855	n/a	2	4	11	n/a	71	n/a	2	n/a	n/a	n/a	n/a	164.092	n/a
133.412	0.497	happy	Picture	88.341	n/a	2	4	12	n/a	72	41	2	n/a	n/a	n/a	n/a	164.623	AF01HAS.jpg
133.91	0.514	Blank	Blank	87.827	n/a	2	4	12	n/a	72	n/a	2	n/a	n/a	n/a	n/a	165.12	n/a
134.44	0.497	happy	Picture	87.314	n/a	2	4	13	n/a	73	59	2	n/a	n/a	n/a	n/a	165.651	AF31HAS.jpg
134.938	0.514	Blank	Blank	86.799	n/a	2	4	13	n/a	73	n/a	2	n/a	n/a	n/a	n/a	166.148	n/a
135.468	0.497	happy	Picture	86.286	n/a	2	4	14	n/a	74	64	2	n/a	n/a	n/a	n/a	166.679	BM05HAS.jpg
135.966	0.514	Blank	Blank	85.772	n/a	2	4	14	n/a	74	n/a	2	n/a	n/a	n/a	n/a	167.176	n/a
136.496	0.497	happy	Picture	85.258	n/a	2	4	15	n/a	75	68	2	n/a	n/a	n/a	n/a	167.707	AM09HAS.jpg
136.994	0.514	Blank	Blank	84.744	n/a	2	4	15	n/a	75	n/a	2	n/a	n/a	n/a	n/a	168.204	n/a
137.524	0.497	happy	Picture	84.23	n/a	2	4	16	n/a	76	54	2	n/a	n/a	n/a	n/a	168.734	AF23HAS.jpg
138.021	0.514	Blank	Blank	83.716	n/a	2	4	16	n/a	76	n/a	2	n/a	n/a	n/a	n/a	169.232	n/a
138.552	0.497	happy	Picture	83.202	n/a	2	4	17	n/a	77	53	2	n/a	n/a	n/a	n/a	169.762	BF22HAS.jpg
139.049	0.514	Blank	Blank	82.688	n/a	2	4	17	n/a	77	n/a	2	n/a	n/a	n/a	n/a	170.26	n/a
139.58	0.497	happy	Picture	82.174	n/a	2	4	18	n/a	78	44	2	n/a	n/a	n/a	n/a	170.79	AF05HAS.jpg
140.077	0.514	Blank	Blank	81.66	n/a	2	4	18	n/a	78	n/a	2	n/a	n/a	n/a	n/a	171.288	n/a
140.608	0.497	happy	Picture	81.146	n/a	2	4	19	n/a	79	52	2	n/a	n/a	n/a	n/a	171.818	AF21HAS.jpg
141.105	0.514	Blank	Blank	80.632	n/a	2	4	19	n/a	79	n/a	2	n/a	n/a	n/a	n/a	172.315	n/a
141.636	0.497	happy	Picture	80.118	n/a	2	4	20	n/a	80	62	2	n/a	n/a	n/a	n/a	172.846	BM03HAS.jpg
142.133	0.514	Blank	Blank	79.604	n/a	2	4	20	n/a	80	n/a	2	n/a	n/a	n/a	n/a	173.343	n/a
142.663	10.014	ITI	Fixation+	69.574	n/a	2	n/a	n/a	n/a	n/a	n/a	n/a	n/a	n/a	n/a	n/a	173.874	n/a
152.694	0.497	neutral	Picture	69.06	n/a	2	5	1	n/a	81	23	1	n/a	n/a	n/a	n/a	183.904	AM04NES.jpg
153.191	0.514	Blank	Blank	68.546	n/a	2	5	1	n/a	81	n/a	1	n/a	n/a	n/a	n/a	184.401	n/a
153.722	0.497	neutral	Picture	68.032	n/a	2	5	2	n/a	82	29	1	n/a	n/a	n/a	n/a	184.932	AM10NES.jpg
154.219	0.514	Blank	Blank	67.518	n/a	2	5	2	n/a	82	n/a	1	n/a	n/a	n/a	n/a	185.429	n/a
154.75	0.497	neutral	Picture	67.004	n/a	2	5	3	n/a	83	24	1	n/a	n/a	n/a	n/a	185.96	BM05NES.jpg
155.247	0.514	Blank	Blank	66.49	n/a	2	5	3	n/a	83	n/a	1	n/a	n/a	n/a	n/a	186.457	n/a
155.777	0.497	neutral	Picture	65.976	n/a	2	5	4	n/a	84	12	1	n/a	n/a	n/a	n/a	186.988	AF21NES.jpg
156.275	0.514	Blank	Blank	65.463	n/a	2	5	4	n/a	84	n/a	1	n/a	n/a	n/a	n/a	187.485	n/a
156.805	0.497	neutral	Picture	64.949	n/a	2	5	5	n/a	85	13	1	n/a	n/a	n/a	n/a	188.016	BF22NES.jpg
157.303	0.514	Blank	Blank	64.435	n/a	2	5	5	n/a	85	n/a	1	n/a	n/a	n/a	n/a	188.513	n/a
157.833	0.497	neutral	Picture	63.921	n/a	2	5	6	n/a	86	17	1	n/a	n/a	n/a	n/a	189.044	BF28NES.jpg
158.331	0.514	Blank	Blank	63.407	n/a	2	5	6	n/a	86	n/a	1	n/a	n/a	n/a	n/a	189.541	n/a
158.861	0.497	neutral	Picture	62.893	n/a	2	5	7	n/a	87	4	1	n/a	n/a	n/a	n/a	190.071	AF05NES.jpg
159.358	0.514	Blank	Blank	62.379	n/a	2	5	7	n/a	87	n/a	1	n/a	n/a	n/a	n/a	190.569	n/a
159.889	0.497	neutral	Picture	61.865	n/a	2	5	8	n/a	88	11	1	n/a	n/a	n/a	n/a	191.099	AF20NES.jpg
160.386	0.514	Blank	Blank	61.351	n/a	2	5	8	n/a	88	n/a	1	n/a	n/a	n/a	n/a	191.597	n/a
160.917	0.497	neutral	Picture	60.837	n/a	2	5	9	n/a	89	22	1	n/a	n/a	n/a	n/a	192.127	BM03NES.jpg
161.414	0.514	Blank	Blank	60.323	n/a	2	5	9	n/a	89	n/a	1	n/a	n/a	n/a	n/a	192.625	n/a
161.945	0.497	neutral	Picture	59.809	n/a	2	5	10	n/a	90	15	1	n/a	n/a	n/a	n/a	193.155	AF25NES.jpg
162.442	0.514	Blank	Blank	59.295	n/a	2	5	10	n/a	90	n/a	1	n/a	n/a	n/a	n/a	193.653	n/a
162.973	0.497	neutral	Picture	58.781	n/a	2	5	11	n/a	91	19	1	n/a	n/a	n/a	n/a	194.183	AF31NES.jpg
163.47	0.514	Blank	Blank	58.267	n/a	2	5	11	n/a	91	n/a	1	n/a	n/a	n/a	n/a	194.68	n/a
164.001	0.497	neutral	Picture	57.753	n/a	2	5	12	n/a	92	9	1	n/a	n/a	n/a	n/a	195.211	AF17NES.jpg
164.498	0.514	Blank	Blank	57.239	n/a	2	5	12	n/a	92	n/a	1	n/a	n/a	n/a	n/a	195.708	n/a
165.028	0.497	neutral	Picture	56.725	n/a	2	5	13	n/a	93	14	1	n/a	n/a	n/a	n/a	196.239	AF23NES.jpg
165.526	0.514	Blank	Blank	56.212	n/a	2	5	13	n/a	93	n/a	1	n/a	n/a	n/a	n/a	196.736	n/a
166.056	0.497	neutral	Picture	55.698	n/a	2	5	14	n/a	94	36	1	n/a	n/a	n/a	n/a	197.267	BM24NES.jpg
166.554	0.514	Blank	Blank	55.184	n/a	2	5	14	n/a	94	n/a	1	n/a	n/a	n/a	n/a	197.764	n/a
167.084	0.497	neutral	Picture	54.67	n/a	2	5	15	n/a	95	34	1	n/a	n/a	n/a	n/a	198.295	AM22NES.jpg
167.582	0.514	Blank	Blank	54.156	n/a	2	5	15	n/a	95	n/a	1	n/a	n/a	n/a	n/a	198.792	n/a
168.112	0.497	neutral	Picture	53.642	n/a	2	5	16	n/a	96	10	1	n/a	n/a	n/a	n/a	199.322	AF18NES.jpg
168.609	0.514	Blank	Blank	53.128	n/a	2	5	16	n/a	96	n/a	1	n/a	n/a	n/a	n/a	199.82	n/a
169.14	0.497	neutral	Picture	52.614	n/a	2	5	17	n/a	97	5	1	n/a	n/a	n/a	n/a	200.35	BF07NES.jpg
169.637	0.514	Blank	Blank	52.1	n/a	2	5	17	n/a	97	n/a	1	n/a	n/a	n/a	n/a	200.848	n/a
170.168	0.497	neutral	Picture	51.586	n/a	2	5	18	n/a	98	25	1	n/a	n/a	n/a	n/a	201.378	BM06NES.jpg
170.665	0.514	Blank	Blank	51.072	n/a	2	5	18	n/a	98	n/a	1	n/a	n/a	n/a	n/a	201.876	n/a
171.196	0.497	neutral	Picture	50.558	n/a	2	5	19	n/a	99	39	1	n/a	n/a	n/a	n/a	202.406	AM28NES.jpg
171.693	0.514	Blank	Blank	50.044	n/a	2	5	19	n/a	99	n/a	1	n/a	n/a	n/a	n/a	202.904	n/a
172.224	0.497	neutral	Picture	49.53	n/a	2	5	20	n/a	100	33	1	n/a	n/a	n/a	n/a	203.434	AM21NES.jpg
172.721	0.514	Blank	Blank	49.016	n/a	2	5	20	n/a	100	n/a	1	n/a	n/a	n/a	n/a	203.931	n/a
173.252	10.014	ITI	Fixation+	38.986	n/a	2	n/a	n/a	n/a	n/a	n/a	n/a	n/a	n/a	n/a	n/a	204.462	n/a
183.282	0.497	happy	Picture	38.472	n/a	2	6	1	n/a	101	74	2	n/a	n/a	n/a	n/a	214.492	AM22HAS.jpg
183.779	0.514	Blank	Blank	37.958	n/a	2	6	1	n/a	101	n/a	2	n/a	n/a	n/a	n/a	214.989	n/a
184.31	0.497	happy	Picture	37.444	n/a	2	6	2	n/a	102	76	2	n/a	n/a	n/a	n/a	215.52	BM24HAS.jpg
184.807	0.514	Blank	Blank	36.93	n/a	2	6	2	n/a	102	n/a	2	n/a	n/a	n/a	n/a	216.017	n/a
185.338	0.497	happy	Picture	36.416	n/a	2	6	3	n/a	103	80	2	n/a	n/a	n/a	n/a	216.548	BM35HAS.jpg
185.835	0.514	Blank	Blank	35.902	n/a	2	6	3	n/a	103	n/a	2	n/a	n/a	n/a	n/a	217.045	n/a
186.365	0.497	happy	Picture	35.388	n/a	2	6	4	n/a	104	75	2	n/a	n/a	n/a	n/a	217.576	AM23HAS.jpg
186.863	0.514	Blank	Blank	34.874	n/a	2	6	4	n/a	104	n/a	2	n/a	n/a	n/a	n/a	218.073	n/a
187.393	0.497	happy	Picture	34.361	n/a	2	6	5	n/a	105	49	2	n/a	n/a	n/a	n/a	218.604	AF17HAS.jpg
187.891	0.514	Blank	Blank	33.847	n/a	2	6	5	n/a	105	n/a	2	n/a	n/a	n/a	n/a	219.101	n/a
188.421	0.497	happy	Picture	33.333	n/a	2	6	6	n/a	106	43	2	n/a	n/a	n/a	n/a	219.632	BF04HAS.jpg
188.919	0.514	Blank	Blank	32.819	n/a	2	6	6	n/a	106	n/a	2	n/a	n/a	n/a	n/a	220.129	n/a
189.449	0.497	happy	Picture	32.305	n/a	2	6	7	n/a	107	70	2	n/a	n/a	n/a	n/a	220.66	BM11HAS.jpg
189.946	0.514	Blank	Blank	31.791	n/a	2	6	7	n/a	107	n/a	2	n/a	n/a	n/a	n/a	221.157	n/a
190.477	0.497	happy	Picture	31.277	n/a	2	6	8	n/a	108	66	2	n/a	n/a	n/a	n/a	221.687	BM07HAS.jpg
190.974	0.514	Blank	Blank	30.763	n/a	2	6	8	n/a	108	n/a	2	n/a	n/a	n/a	n/a	222.185	n/a
191.505	0.497	happy	Picture	30.249	n/a	2	6	9	n/a	109	48	2	n/a	n/a	n/a	n/a	222.715	AF14HAS.jpg
192.002	0.514	Blank	Blank	29.735	n/a	2	6	9	n/a	109	n/a	2	n/a	n/a	n/a	n/a	223.213	n/a
192.533	0.497	happy	Picture	29.221	n/a	2	6	10	n/a	110	58	2	n/a	n/a	n/a	n/a	223.743	BF29HAS.jpg
193.03	0.514	Blank	Blank	28.707	n/a	2	6	10	n/a	110	n/a	2	n/a	n/a	n/a	n/a	224.24	n/a
193.561	0.497	happy	Picture	28.193	n/a	2	6	11	n/a	111	63	2	n/a	n/a	n/a	n/a	224.771	AM04HAS.jpg
194.058	0.514	Blank	Blank	27.679	n/a	2	6	11	n/a	111	n/a	2	n/a	n/a	n/a	n/a	225.268	n/a
194.589	0.497	happy	Picture	27.165	n/a	2	6	12	n/a	112	72	2	n/a	n/a	n/a	n/a	225.799	AM14HAS.jpg
195.086	0.514	Blank	Blank	26.651	n/a	2	6	12	n/a	112	n/a	2	n/a	n/a	n/a	n/a	226.296	n/a
195.616	0.497	happy	Picture	26.137	n/a	2	6	13	n/a	113	55	2	n/a	n/a	n/a	n/a	226.827	AF25HAS.jpg
196.114	0.514	Blank	Blank	25.624	n/a	2	6	13	n/a	113	n/a	2	n/a	n/a	n/a	n/a	227.324	n/a
196.644	0.497	happy	Picture	25.109	n/a	2	6	14	n/a	114	42	2	n/a	n/a	n/a	n/a	227.855	AF03HAS.jpg
197.142	0.514	Blank	Blank	24.596	n/a	2	6	14	n/a	114	n/a	2	n/a	n/a	n/a	n/a	228.352	n/a
197.672	0.497	happy	Picture	24.082	n/a	2	6	15	n/a	115	60	2	n/a	n/a	n/a	n/a	228.883	AF32HAS.jpg
198.17	0.514	Blank	Blank	23.568	n/a	2	6	15	n/a	115	n/a	2	n/a	n/a	n/a	n/a	229.38	n/a
198.7	0.497	happy	Picture	23.054	n/a	2	6	16	n/a	116	67	2	n/a	n/a	n/a	n/a	229.911	BM08HAS.jpg
199.198	0.514	Blank	Blank	22.54	n/a	2	6	16	n/a	116	n/a	2	n/a	n/a	n/a	n/a	230.408	n/a
199.728	0.497	happy	Picture	22.026	n/a	2	6	17	n/a	117	51	2	n/a	n/a	n/a	n/a	230.938	AF20HAS.jpg
200.225	0.514	Blank	Blank	21.512	n/a	2	6	17	n/a	117	n/a	2	n/a	n/a	n/a	n/a	231.436	n/a
200.756	0.497	happy	Picture	20.998	n/a	2	6	18	n/a	118	71	2	n/a	n/a	n/a	n/a	231.966	BM12HAS.jpg
201.253	0.514	Blank	Blank	20.484	n/a	2	6	18	n/a	118	n/a	2	n/a	n/a	n/a	n/a	232.464	n/a
201.784	0.497	happy	Picture	19.97	n/a	2	6	19	n/a	119	69	2	n/a	n/a	n/a	n/a	232.994	AM10HAS.jpg
202.281	0.514	Blank	Blank	19.456	n/a	2	6	19	n/a	119	n/a	2	n/a	n/a	n/a	n/a	233.492	n/a
202.812	0.497	happy	Picture	18.942	n/a	2	6	20	n/a	120	46	2	n/a	n/a	n/a	n/a	234.022	AF09HAS.jpg
203.309	0.514	Blank	Blank	18.428	n/a	2	6	20	n/a	120	n/a	2	n/a	n/a	n/a	n/a	234.519	n/a
203.84	10.014	ITI	Fixation+	8.398	n/a	2	n/a	n/a	n/a	n/a	n/a	n/a	n/a	n/a	n/a	n/a	235.05	n/a
222.251	n/a	ConfirmRating	Rate	n/a	8.389	2	n/a	n/a	0	n/a	n/a	n/a	2	Happy	90	52	253.462	n/a
227.64	n/a	ConfirmRating	Rate	n/a	5.372	2	n/a	n/a	1	n/a	n/a	n/a	3	Happy	85	52	258.851	n/a
227.663	15.004	Rest	Picture	n/a	n/a	n/a	n/a	n/a	n/a	n/a	n/a	n/a	0	n/a	0	0	258.874	n/a
242.684	10.014	ITI	Fixation+	98.056	n/a	3	n/a	n/a	n/a	n/a	n/a	n/a	n/a	n/a	n/a	n/a	273.894	n/a
252.714	0.497	angry	Picture	97.542	n/a	3	7	1	n/a	1	108	3	n/a	n/a	n/a	n/a	283.925	AM09ANS.jpg
253.211	0.514	Blank	Blank	97.028	n/a	3	7	1	n/a	1	n/a	3	n/a	n/a	n/a	n/a	284.422	n/a
253.742	0.497	angry	Picture	96.515	n/a	3	7	2	n/a	2	99	3	n/a	n/a	n/a	n/a	284.952	AF31ANS.jpg
254.239	0.514	Blank	Blank	96.001	n/a	3	7	2	n/a	2	n/a	3	n/a	n/a	n/a	n/a	285.45	n/a
254.77	0.497	angry	Picture	95.487	n/a	3	7	3	n/a	3	98	3	n/a	n/a	n/a	n/a	285.98	BF29ANS.jpg
255.267	0.514	Blank	Blank	94.973	n/a	3	7	3	n/a	3	n/a	3	n/a	n/a	n/a	n/a	286.478	n/a
255.798	0.497	angry	Picture	94.459	n/a	3	7	4	n/a	4	107	3	n/a	n/a	n/a	n/a	287.008	BM08ANS.jpg
256.295	0.514	Blank	Blank	93.945	n/a	3	7	4	n/a	4	n/a	3	n/a	n/a	n/a	n/a	287.505	n/a
256.826	0.497	angry	Picture	93.431	n/a	3	7	5	n/a	5	104	3	n/a	n/a	n/a	n/a	288.036	BM05ANS.jpg
257.323	0.514	Blank	Blank	92.917	n/a	3	7	5	n/a	5	n/a	3	n/a	n/a	n/a	n/a	288.533	n/a
257.853	0.497	angry	Picture	92.403	n/a	3	7	6	n/a	6	101	3	n/a	n/a	n/a	n/a	289.064	AM01ANS.jpg
258.351	0.514	Blank	Blank	91.889	n/a	3	7	6	n/a	6	n/a	3	n/a	n/a	n/a	n/a	289.561	n/a
258.881	0.497	angry	Picture	91.375	n/a	3	7	7	n/a	7	103	3	n/a	n/a	n/a	n/a	290.092	AM04ANS.jpg
259.379	0.514	Blank	Blank	90.861	n/a	3	7	7	n/a	7	n/a	3	n/a	n/a	n/a	n/a	290.589	n/a
259.909	0.497	angry	Picture	90.347	n/a	3	7	8	n/a	8	111	3	n/a	n/a	n/a	n/a	291.12	BM12ANS.jpg
260.407	0.514	Blank	Blank	89.833	n/a	3	7	8	n/a	8	n/a	3	n/a	n/a	n/a	n/a	291.617	n/a
260.937	0.497	angry	Picture	89.319	n/a	3	7	9	n/a	9	110	3	n/a	n/a	n/a	n/a	292.148	AM11ANS.jpg
261.435	0.514	Blank	Blank	88.805	n/a	3	7	9	n/a	9	n/a	3	n/a	n/a	n/a	n/a	292.645	n/a
261.965	0.497	angry	Picture	88.291	n/a	3	7	10	n/a	10	85	3	n/a	n/a	n/a	n/a	293.175	BF07ANS.jpg
262.462	0.514	Blank	Blank	87.777	n/a	3	7	10	n/a	10	n/a	3	n/a	n/a	n/a	n/a	293.673	n/a
262.993	0.497	angry	Picture	87.264	n/a	3	7	11	n/a	11	87	3	n/a	n/a	n/a	n/a	294.203	BF11ANS.jpg
263.49	0.514	Blank	Blank	86.75	n/a	3	7	11	n/a	11	n/a	3	n/a	n/a	n/a	n/a	294.701	n/a
264.021	0.497	angry	Picture	86.236	n/a	3	7	12	n/a	12	91	3	n/a	n/a	n/a	n/a	295.231	AF20ANS.jpg
264.518	0.514	Blank	Blank	85.722	n/a	3	7	12	n/a	12	n/a	3	n/a	n/a	n/a	n/a	295.729	n/a
265.049	0.497	angry	Picture	85.208	n/a	3	7	13	n/a	13	115	3	n/a	n/a	n/a	n/a	296.259	AM23ANS.jpg
265.546	0.514	Blank	Blank	84.694	n/a	3	7	13	n/a	13	n/a	3	n/a	n/a	n/a	n/a	296.757	n/a
266.077	0.497	angry	Picture	84.18	n/a	3	7	14	n/a	14	97	3	n/a	n/a	n/a	n/a	297.287	BF28ANS.jpg
266.574	0.514	Blank	Blank	83.666	n/a	3	7	14	n/a	14	n/a	3	n/a	n/a	n/a	n/a	297.784	n/a
267.105	0.497	angry	Picture	83.152	n/a	3	7	15	n/a	15	82	3	n/a	n/a	n/a	n/a	298.315	AF03ANS.jpg
267.602	0.514	Blank	Blank	82.638	n/a	3	7	15	n/a	15	n/a	3	n/a	n/a	n/a	n/a	298.812	n/a
268.132	0.497	angry	Picture	82.124	n/a	3	7	16	n/a	16	96	3	n/a	n/a	n/a	n/a	299.343	AF26ANS.jpg
268.63	0.514	Blank	Blank	81.61	n/a	3	7	16	n/a	16	n/a	3	n/a	n/a	n/a	n/a	299.84	n/a
269.16	0.497	angry	Picture	81.096	n/a	3	7	17	n/a	17	109	3	n/a	n/a	n/a	n/a	300.371	AM10ANS.jpg
269.658	0.514	Blank	Blank	80.582	n/a	3	7	17	n/a	17	n/a	3	n/a	n/a	n/a	n/a	300.868	n/a
270.188	0.497	angry	Picture	80.068	n/a	3	7	18	n/a	18	114	3	n/a	n/a	n/a	n/a	301.399	AM22ANS.jpg
270.686	0.514	Blank	Blank	79.554	n/a	3	7	18	n/a	18	n/a	3	n/a	n/a	n/a	n/a	301.896	n/a
271.216	0.497	angry	Picture	79.041	n/a	3	7	19	n/a	19	120	3	n/a	n/a	n/a	n/a	302.426	AM35ANS.jpg
271.713	0.514	Blank	Blank	78.526	n/a	3	7	19	n/a	19	n/a	3	n/a	n/a	n/a	n/a	302.924	n/a
272.244	0.497	angry	Picture	78.013	n/a	3	7	20	n/a	20	81	3	n/a	n/a	n/a	n/a	303.454	AF01ANS.jpg
272.741	0.514	Blank	Blank	77.499	n/a	3	7	20	n/a	20	n/a	3	n/a	n/a	n/a	n/a	303.952	n/a
273.272	10.014	ITI	Fixation+	67.468	n/a	3	n/a	n/a	n/a	n/a	n/a	n/a	n/a	n/a	n/a	n/a	304.482	n/a
283.302	0.497	neutral	Picture	66.954	n/a	3	8	1	n/a	21	28	1	n/a	n/a	n/a	n/a	314.512	AM09NES.jpg
283.799	0.514	Blank	Blank	66.44	n/a	3	8	1	n/a	21	n/a	1	n/a	n/a	n/a	n/a	315.01	n/a
284.33	0.497	neutral	Picture	65.927	n/a	3	8	2	n/a	22	27	1	n/a	n/a	n/a	n/a	315.54	BM08NES.jpg
284.827	0.514	Blank	Blank	65.413	n/a	3	8	2	n/a	22	n/a	1	n/a	n/a	n/a	n/a	316.038	n/a
285.358	0.497	neutral	Picture	64.899	n/a	3	8	3	n/a	23	16	1	n/a	n/a	n/a	n/a	316.568	AF26NES.jpg
285.855	0.514	Blank	Blank	64.385	n/a	3	8	3	n/a	23	n/a	1	n/a	n/a	n/a	n/a	317.066	n/a
286.386	0.497	neutral	Picture	63.871	n/a	3	8	4	n/a	24	3	1	n/a	n/a	n/a	n/a	317.596	BF04NES.jpg
286.883	0.514	Blank	Blank	63.357	n/a	3	8	4	n/a	24	n/a	1	n/a	n/a	n/a	n/a	318.094	n/a
287.414	0.497	neutral	Picture	62.843	n/a	3	8	5	n/a	25	32	1	n/a	n/a	n/a	n/a	318.624	AM14NES.jpg
287.911	0.514	Blank	Blank	62.329	n/a	3	8	5	n/a	25	n/a	1	n/a	n/a	n/a	n/a	319.121	n/a
288.442	0.497	neutral	Picture	61.815	n/a	3	8	6	n/a	26	37	1	n/a	n/a	n/a	n/a	319.652	BM25NES.jpg
288.939	0.514	Blank	Blank	61.301	n/a	3	8	6	n/a	26	n/a	1	n/a	n/a	n/a	n/a	320.149	n/a
289.469	0.497	neutral	Picture	60.787	n/a	3	8	7	n/a	27	15	1	n/a	n/a	n/a	n/a	320.68	AF25NES.jpg
289.967	0.514	Blank	Blank	60.273	n/a	3	8	7	n/a	27	n/a	1	n/a	n/a	n/a	n/a	321.177	n/a
290.497	0.497	neutral	Picture	59.759	n/a	3	8	8	n/a	28	23	1	n/a	n/a	n/a	n/a	321.708	AM04NES.jpg
290.995	0.514	Blank	Blank	59.245	n/a	3	8	8	n/a	28	n/a	1	n/a	n/a	n/a	n/a	322.205	n/a
291.525	0.497	neutral	Picture	58.731	n/a	3	8	9	n/a	29	34	1	n/a	n/a	n/a	n/a	322.736	AM22NES.jpg
292.023	0.514	Blank	Blank	58.217	n/a	3	8	9	n/a	29	n/a	1	n/a	n/a	n/a	n/a	323.233	n/a
292.553	0.497	neutral	Picture	57.703	n/a	3	8	10	n/a	30	24	1	n/a	n/a	n/a	n/a	323.764	BM05NES.jpg
293.05	0.514	Blank	Blank	57.19	n/a	3	8	10	n/a	30	n/a	1	n/a	n/a	n/a	n/a	324.261	n/a
293.581	0.497	neutral	Picture	56.676	n/a	3	8	11	n/a	31	12	1	n/a	n/a	n/a	n/a	324.791	AF21NES.jpg
294.078	0.514	Blank	Blank	56.162	n/a	3	8	11	n/a	31	n/a	1	n/a	n/a	n/a	n/a	325.289	n/a
294.609	0.497	neutral	Picture	55.648	n/a	3	8	12	n/a	32	6	1	n/a	n/a	n/a	n/a	325.819	AF09NES.jpg
295.106	0.514	Blank	Blank	55.134	n/a	3	8	12	n/a	32	n/a	1	n/a	n/a	n/a	n/a	326.317	n/a
295.637	0.497	neutral	Picture	54.62	n/a	3	8	13	n/a	33	17	1	n/a	n/a	n/a	n/a	326.847	BF28NES.jpg
296.134	0.514	Blank	Blank	54.106	n/a	3	8	13	n/a	33	n/a	1	n/a	n/a	n/a	n/a	327.344	n/a
296.665	0.497	neutral	Picture	53.592	n/a	3	8	14	n/a	34	2	1	n/a	n/a	n/a	n/a	327.875	AF03NES.jpg
297.162	0.514	Blank	Blank	53.078	n/a	3	8	14	n/a	34	n/a	1	n/a	n/a	n/a	n/a	328.372	n/a
297.692	0.497	neutral	Picture	52.564	n/a	3	8	15	n/a	35	9	1	n/a	n/a	n/a	n/a	328.903	AF17NES.jpg
298.19	0.514	Blank	Blank	52.05	n/a	3	8	15	n/a	35	n/a	1	n/a	n/a	n/a	n/a	329.4	n/a
298.72	0.497	neutral	Picture	51.536	n/a	3	8	16	n/a	36	25	1	n/a	n/a	n/a	n/a	329.931	BM06NES.jpg
299.218	0.514	Blank	Blank	51.022	n/a	3	8	16	n/a	36	n/a	1	n/a	n/a	n/a	n/a	330.428	n/a
299.748	0.497	neutral	Picture	50.508	n/a	3	8	17	n/a	37	8	1	n/a	n/a	n/a	n/a	330.959	AF14NES.jpg
300.246	0.514	Blank	Blank	49.994	n/a	3	8	17	n/a	37	n/a	1	n/a	n/a	n/a	n/a	331.456	n/a
300.776	0.497	neutral	Picture	49.48	n/a	3	8	18	n/a	38	19	1	n/a	n/a	n/a	n/a	331.987	AF31NES.jpg
301.274	0.514	Blank	Blank	48.966	n/a	3	8	18	n/a	38	n/a	1	n/a	n/a	n/a	n/a	332.484	n/a
301.804	0.497	neutral	Picture	48.452	n/a	3	8	19	n/a	39	14	1	n/a	n/a	n/a	n/a	333.014	AF23NES.jpg
302.302	0.514	Blank	Blank	47.938	n/a	3	8	19	n/a	39	n/a	1	n/a	n/a	n/a	n/a	333.512	n/a
302.832	0.497	neutral	Picture	47.424	n/a	3	8	20	n/a	40	4	1	n/a	n/a	n/a	n/a	334.042	AF05NES.jpg
303.329	0.514	Blank	Blank	46.911	n/a	3	8	20	n/a	40	n/a	1	n/a	n/a	n/a	n/a	334.54	n/a
303.86	10.014	ITI	Fixation+	36.88	n/a	3	n/a	n/a	n/a	n/a	n/a	n/a	n/a	n/a	n/a	n/a	335.07	n/a
313.89	0.497	angry	Picture	36.366	n/a	3	9	1	n/a	41	84	3	n/a	n/a	n/a	n/a	345.101	AF05ANS.jpg
314.387	0.514	Blank	Blank	35.853	n/a	3	9	1	n/a	41	n/a	3	n/a	n/a	n/a	n/a	345.598	n/a
314.918	0.497	angry	Picture	35.338	n/a	3	9	2	n/a	42	92	3	n/a	n/a	n/a	n/a	346.128	AF21ANS.jpg
315.415	0.514	Blank	Blank	34.825	n/a	3	9	2	n/a	42	n/a	3	n/a	n/a	n/a	n/a	346.626	n/a
315.946	0.497	angry	Picture	34.311	n/a	3	9	3	n/a	43	86	3	n/a	n/a	n/a	n/a	347.156	AF09ANS.jpg
316.443	0.514	Blank	Blank	33.797	n/a	3	9	3	n/a	43	n/a	3	n/a	n/a	n/a	n/a	347.654	n/a
316.974	0.497	angry	Picture	33.283	n/a	3	9	4	n/a	44	93	3	n/a	n/a	n/a	n/a	348.184	BF22ANS.jpg
317.471	0.514	Blank	Blank	32.769	n/a	3	9	4	n/a	44	n/a	3	n/a	n/a	n/a	n/a	348.682	n/a
318.002	0.497	angry	Picture	32.255	n/a	3	9	5	n/a	45	88	3	n/a	n/a	n/a	n/a	349.212	AF14ANS.jpg
318.499	0.514	Blank	Blank	31.741	n/a	3	9	5	n/a	45	n/a	3	n/a	n/a	n/a	n/a	349.709	n/a
319.029	0.497	angry	Picture	31.227	n/a	3	9	6	n/a	46	113	3	n/a	n/a	n/a	n/a	350.24	AM21ANS.jpg
319.527	0.514	Blank	Blank	30.713	n/a	3	9	6	n/a	46	n/a	3	n/a	n/a	n/a	n/a	350.737	n/a
320.057	0.497	angry	Picture	30.199	n/a	3	9	7	n/a	47	95	3	n/a	n/a	n/a	n/a	351.268	AF25ANS.jpg
320.555	0.514	Blank	Blank	29.685	n/a	3	9	7	n/a	47	n/a	3	n/a	n/a	n/a	n/a	351.765	n/a
321.085	0.497	angry	Picture	29.171	n/a	3	9	8	n/a	48	102	3	n/a	n/a	n/a	n/a	352.296	BM03ANS.jpg
321.583	0.514	Blank	Blank	28.657	n/a	3	9	8	n/a	48	n/a	3	n/a	n/a	n/a	n/a	352.793	n/a
322.113	0.497	angry	Picture	28.143	n/a	3	9	9	n/a	49	112	3	n/a	n/a	n/a	n/a	353.324	AM14ANS.jpg
322.611	0.514	Blank	Blank	27.629	n/a	3	9	9	n/a	49	n/a	3	n/a	n/a	n/a	n/a	353.821	n/a
323.141	0.497	angry	Picture	27.115	n/a	3	9	10	n/a	50	83	3	n/a	n/a	n/a	n/a	354.351	BF04ANS.jpg
323.639	0.514	Blank	Blank	26.601	n/a	3	9	10	n/a	50	n/a	3	n/a	n/a	n/a	n/a	354.849	n/a
324.169	0.497	angry	Picture	26.087	n/a	3	9	11	n/a	51	90	3	n/a	n/a	n/a	n/a	355.379	AF18ANS.jpg
324.666	0.514	Blank	Blank	25.574	n/a	3	9	11	n/a	51	n/a	3	n/a	n/a	n/a	n/a	355.877	n/a
325.197	0.497	angry	Picture	25.06	n/a	3	9	12	n/a	52	117	3	n/a	n/a	n/a	n/a	356.407	BM25ANS.jpg
325.694	0.514	Blank	Blank	24.546	n/a	3	9	12	n/a	52	n/a	3	n/a	n/a	n/a	n/a	356.905	n/a
326.225	0.497	angry	Picture	24.032	n/a	3	9	13	n/a	53	94	3	n/a	n/a	n/a	n/a	357.435	AF23ANS.jpg
326.722	0.514	Blank	Blank	23.518	n/a	3	9	13	n/a	53	n/a	3	n/a	n/a	n/a	n/a	357.933	n/a
327.253	0.497	angry	Picture	23.004	n/a	3	9	14	n/a	54	106	3	n/a	n/a	n/a	n/a	358.463	AM07ANS.jpg
327.75	0.514	Blank	Blank	22.49	n/a	3	9	14	n/a	54	n/a	3	n/a	n/a	n/a	n/a	358.96	n/a
328.281	0.497	angry	Picture	21.976	n/a	3	9	15	n/a	55	105	3	n/a	n/a	n/a	n/a	359.491	BM06ANS.jpg
328.778	0.514	Blank	Blank	21.462	n/a	3	9	15	n/a	55	n/a	3	n/a	n/a	n/a	n/a	359.988	n/a
329.308	0.497	angry	Picture	20.948	n/a	3	9	16	n/a	56	116	3	n/a	n/a	n/a	n/a	360.519	BM24ANS.jpg
329.806	0.514	Blank	Blank	20.434	n/a	3	9	16	n/a	56	n/a	3	n/a	n/a	n/a	n/a	361.016	n/a
330.336	0.497	angry	Picture	19.92	n/a	3	9	17	n/a	57	89	3	n/a	n/a	n/a	n/a	361.547	AF17ANS.jpg
330.834	0.514	Blank	Blank	19.406	n/a	3	9	17	n/a	57	n/a	3	n/a	n/a	n/a	n/a	362.044	n/a
331.364	0.497	angry	Picture	18.892	n/a	3	9	18	n/a	58	118	3	n/a	n/a	n/a	n/a	362.575	BM26ANS.jpg
331.862	0.514	Blank	Blank	18.378	n/a	3	9	18	n/a	58	n/a	3	n/a	n/a	n/a	n/a	363.072	n/a
332.392	0.497	angry	Picture	17.864	n/a	3	9	19	n/a	59	100	3	n/a	n/a	n/a	n/a	363.603	AF32ANS.jpg
332.889	0.514	Blank	Blank	17.351	n/a	3	9	19	n/a	59	n/a	3	n/a	n/a	n/a	n/a	364.1	n/a
333.42	0.497	angry	Picture	16.836	n/a	3	9	20	n/a	60	119	3	n/a	n/a	n/a	n/a	364.63	BM28ANS.jpg
333.917	0.514	Blank	Blank	16.323	n/a	3	9	20	n/a	60	n/a	3	n/a	n/a	n/a	n/a	365.128	n/a
334.448	10.014	ITI	Fixation+	6.292	n/a	3	n/a	n/a	n/a	n/a	n/a	n/a	n/a	n/a	n/a	n/a	365.658	n/a
350.754	n/a	ConfirmRating	Rate	n/a	6.283	3	n/a	n/a	0	n/a	n/a	n/a	2	Angry	94	52	381.964	n/a
360.717	n/a	ConfirmRating	Rate	n/a	9.947	3	n/a	n/a	1	n/a	n/a	n/a	3	Angry	88	53	391.927	n/a
360.742	10.014	ITI	Fixation+	96.874	n/a	4	n/a	n/a	n/a	n/a	n/a	n/a	n/a	n/a	n/a	n/a	391.952	n/a
370.772	0.497	happy	Picture	96.36	n/a	4	10	1	n/a	61	79	2	n/a	n/a	n/a	n/a	401.983	BM28HAS.jpg
371.27	0.514	Blank	Blank	95.846	n/a	4	10	1	n/a	61	n/a	2	n/a	n/a	n/a	n/a	402.48	n/a
371.8	0.497	happy	Picture	95.332	n/a	4	10	2	n/a	62	61	2	n/a	n/a	n/a	n/a	403.01	AM01HAS.jpg
372.298	0.514	Blank	Blank	94.818	n/a	4	10	2	n/a	62	n/a	2	n/a	n/a	n/a	n/a	403.508	n/a
372.828	0.497	happy	Picture	94.304	n/a	4	10	3	n/a	63	57	2	n/a	n/a	n/a	n/a	404.038	BF28HAS.jpg
373.325	0.514	Blank	Blank	93.79	n/a	4	10	3	n/a	63	n/a	2	n/a	n/a	n/a	n/a	404.536	n/a
373.856	0.497	happy	Picture	93.276	n/a	4	10	4	n/a	64	77	2	n/a	n/a	n/a	n/a	405.066	BM25HAS.jpg
374.353	0.514	Blank	Blank	92.762	n/a	4	10	4	n/a	64	n/a	2	n/a	n/a	n/a	n/a	405.564	n/a
374.884	0.497	happy	Picture	92.248	n/a	4	10	5	n/a	65	47	2	n/a	n/a	n/a	n/a	406.094	BF11HAS.jpg
375.381	0.514	Blank	Blank	91.734	n/a	4	10	5	n/a	65	n/a	2	n/a	n/a	n/a	n/a	406.591	n/a
375.912	0.497	happy	Picture	91.221	n/a	4	10	6	n/a	66	50	2	n/a	n/a	n/a	n/a	407.122	AF18HAS.jpg
376.409	0.514	Blank	Blank	90.707	n/a	4	10	6	n/a	66	n/a	2	n/a	n/a	n/a	n/a	407.619	n/a
376.94	0.497	happy	Picture	90.193	n/a	4	10	7	n/a	67	78	2	n/a	n/a	n/a	n/a	408.15	BM26HAS.jpg
377.437	0.514	Blank	Blank	89.679	n/a	4	10	7	n/a	67	n/a	2	n/a	n/a	n/a	n/a	408.647	n/a
377.967	0.497	happy	Picture	89.165	n/a	4	10	8	n/a	68	45	2	n/a	n/a	n/a	n/a	409.178	BF07HAS.jpg
378.465	0.514	Blank	Blank	88.651	n/a	4	10	8	n/a	68	n/a	2	n/a	n/a	n/a	n/a	409.675	n/a
378.995	0.497	happy	Picture	88.137	n/a	4	10	9	n/a	69	56	2	n/a	n/a	n/a	n/a	410.206	AF26HAS.jpg
379.493	0.514	Blank	Blank	87.623	n/a	4	10	9	n/a	69	n/a	2	n/a	n/a	n/a	n/a	410.703	n/a
380.023	0.497	happy	Picture	87.109	n/a	4	10	10	n/a	70	65	2	n/a	n/a	n/a	n/a	411.234	BM06HAS.jpg
380.521	0.514	Blank	Blank	86.595	n/a	4	10	10	n/a	70	n/a	2	n/a	n/a	n/a	n/a	411.731	n/a
381.051	0.497	happy	Picture	86.081	n/a	4	10	11	n/a	71	73	2	n/a	n/a	n/a	n/a	412.262	AM21HAS.jpg
381.548	0.514	Blank	Blank	85.567	n/a	4	10	11	n/a	71	n/a	2	n/a	n/a	n/a	n/a	412.759	n/a
382.079	0.497	happy	Picture	85.053	n/a	4	10	12	n/a	72	41	2	n/a	n/a	n/a	n/a	413.289	AF01HAS.jpg
382.576	0.514	Blank	Blank	84.539	n/a	4	10	12	n/a	72	n/a	2	n/a	n/a	n/a	n/a	413.787	n/a
383.107	0.497	happy	Picture	84.025	n/a	4	10	13	n/a	73	59	2	n/a	n/a	n/a	n/a	414.317	AF31HAS.jpg
383.604	0.514	Blank	Blank	83.511	n/a	4	10	13	n/a	73	n/a	2	n/a	n/a	n/a	n/a	414.815	n/a
384.135	0.497	happy	Picture	82.997	n/a	4	10	14	n/a	74	64	2	n/a	n/a	n/a	n/a	415.345	BM05HAS.jpg
384.632	0.514	Blank	Blank	82.483	n/a	4	10	14	n/a	74	n/a	2	n/a	n/a	n/a	n/a	415.843	n/a
385.163	0.497	happy	Picture	81.97	n/a	4	10	15	n/a	75	68	2	n/a	n/a	n/a	n/a	416.373	AM09HAS.jpg
385.66	0.514	Blank	Blank	81.456	n/a	4	10	15	n/a	75	n/a	2	n/a	n/a	n/a	n/a	416.87	n/a
386.191	0.497	happy	Picture	80.942	n/a	4	10	16	n/a	76	54	2	n/a	n/a	n/a	n/a	417.401	AF23HAS.jpg
386.688	0.514	Blank	Blank	80.428	n/a	4	10	16	n/a	76	n/a	2	n/a	n/a	n/a	n/a	417.898	n/a
387.219	0.497	happy	Picture	79.914	n/a	4	10	17	n/a	77	53	2	n/a	n/a	n/a	n/a	418.429	BF22HAS.jpg
387.716	0.514	Blank	Blank	79.4	n/a	4	10	17	n/a	77	n/a	2	n/a	n/a	n/a	n/a	418.926	n/a
388.246	0.497	happy	Picture	78.886	n/a	4	10	18	n/a	78	44	2	n/a	n/a	n/a	n/a	419.457	AF05HAS.jpg
388.744	0.514	Blank	Blank	78.372	n/a	4	10	18	n/a	78	n/a	2	n/a	n/a	n/a	n/a	419.954	n/a
389.274	0.497	happy	Picture	77.858	n/a	4	10	19	n/a	79	52	2	n/a	n/a	n/a	n/a	420.485	AF21HAS.jpg
389.772	0.514	Blank	Blank	77.344	n/a	4	10	19	n/a	79	n/a	2	n/a	n/a	n/a	n/a	420.982	n/a
390.302	0.497	happy	Picture	76.83	n/a	4	10	20	n/a	80	62	2	n/a	n/a	n/a	n/a	421.512	BM03HAS.jpg
390.8	0.514	Blank	Blank	76.316	n/a	4	10	20	n/a	80	n/a	2	n/a	n/a	n/a	n/a	422.01	n/a
391.33	10.014	ITI	Fixation+	66.286	n/a	4	n/a	n/a	n/a	n/a	n/a	n/a	n/a	n/a	n/a	n/a	422.54	n/a
401.36	0.497	neutral	Picture	65.772	n/a	4	11	1	n/a	81	23	1	n/a	n/a	n/a	n/a	432.571	AM04NES.jpg
401.858	0.514	Blank	Blank	65.258	n/a	4	11	1	n/a	81	n/a	1	n/a	n/a	n/a	n/a	433.068	n/a
402.388	0.497	neutral	Picture	64.744	n/a	4	11	2	n/a	82	29	1	n/a	n/a	n/a	n/a	433.599	AM10NES.jpg
402.885	0.514	Blank	Blank	64.23	n/a	4	11	2	n/a	82	n/a	1	n/a	n/a	n/a	n/a	434.096	n/a
403.416	0.497	neutral	Picture	63.716	n/a	4	11	3	n/a	83	24	1	n/a	n/a	n/a	n/a	434.626	BM05NES.jpg
403.913	0.514	Blank	Blank	63.202	n/a	4	11	3	n/a	83	n/a	1	n/a	n/a	n/a	n/a	435.124	n/a
404.444	0.497	neutral	Picture	62.688	n/a	4	11	4	n/a	84	12	1	n/a	n/a	n/a	n/a	435.654	AF21NES.jpg
404.941	0.514	Blank	Blank	62.174	n/a	4	11	4	n/a	84	n/a	1	n/a	n/a	n/a	n/a	436.152	n/a
405.472	0.497	neutral	Picture	61.66	n/a	4	11	5	n/a	85	13	1	n/a	n/a	n/a	n/a	436.682	BF22NES.jpg
405.969	0.514	Blank	Blank	61.147	n/a	4	11	5	n/a	85	n/a	1	n/a	n/a	n/a	n/a	437.18	n/a
406.5	0.497	neutral	Picture	60.632	n/a	4	11	6	n/a	86	17	1	n/a	n/a	n/a	n/a	437.71	BF28NES.jpg
406.997	0.514	Blank	Blank	60.119	n/a	4	11	6	n/a	86	n/a	1	n/a	n/a	n/a	n/a	438.207	n/a
407.528	0.497	neutral	Picture	59.605	n/a	4	11	7	n/a	87	4	1	n/a	n/a	n/a	n/a	438.738	AF05NES.jpg
408.025	0.514	Blank	Blank	59.091	n/a	4	11	7	n/a	87	n/a	1	n/a	n/a	n/a	n/a	439.235	n/a
408.555	0.497	neutral	Picture	58.577	n/a	4	11	8	n/a	88	11	1	n/a	n/a	n/a	n/a	439.766	AF20NES.jpg
409.053	0.514	Blank	Blank	58.063	n/a	4	11	8	n/a	88	n/a	1	n/a	n/a	n/a	n/a	440.263	n/a
409.583	0.497	neutral	Picture	57.549	n/a	4	11	9	n/a	89	22	1	n/a	n/a	n/a	n/a	440.794	BM03NES.jpg
410.081	0.514	Blank	Blank	57.035	n/a	4	11	9	n/a	89	n/a	1	n/a	n/a	n/a	n/a	441.291	n/a
410.611	0.497	neutral	Picture	56.521	n/a	4	11	10	n/a	90	15	1	n/a	n/a	n/a	n/a	441.822	AF25NES.jpg
411.109	0.514	Blank	Blank	56.007	n/a	4	11	10	n/a	90	n/a	1	n/a	n/a	n/a	n/a	442.319	n/a
411.639	0.497	neutral	Picture	55.493	n/a	4	11	11	n/a	91	19	1	n/a	n/a	n/a	n/a	442.849	AF31NES.jpg
412.137	0.514	Blank	Blank	54.979	n/a	4	11	11	n/a	91	n/a	1	n/a	n/a	n/a	n/a	443.347	n/a
412.667	0.497	neutral	Picture	54.465	n/a	4	11	12	n/a	92	9	1	n/a	n/a	n/a	n/a	443.877	AF17NES.jpg
413.164	0.514	Blank	Blank	53.951	n/a	4	11	12	n/a	92	n/a	1	n/a	n/a	n/a	n/a	444.375	n/a
413.695	0.497	neutral	Picture	53.437	n/a	4	11	13	n/a	93	14	1	n/a	n/a	n/a	n/a	444.905	AF23NES.jpg
414.192	0.514	Blank	Blank	52.923	n/a	4	11	13	n/a	93	n/a	1	n/a	n/a	n/a	n/a	445.403	n/a
414.723	0.497	neutral	Picture	52.409	n/a	4	11	14	n/a	94	36	1	n/a	n/a	n/a	n/a	445.933	BM24NES.jpg
415.22	0.514	Blank	Blank	51.895	n/a	4	11	14	n/a	94	n/a	1	n/a	n/a	n/a	n/a	446.431	n/a
415.751	0.497	neutral	Picture	51.381	n/a	4	11	15	n/a	95	34	1	n/a	n/a	n/a	n/a	446.961	AM22NES.jpg
416.248	0.514	Blank	Blank	50.868	n/a	4	11	15	n/a	95	n/a	1	n/a	n/a	n/a	n/a	447.459	n/a
416.779	0.497	neutral	Picture	50.354	n/a	4	11	16	n/a	96	10	1	n/a	n/a	n/a	n/a	447.989	AF18NES.jpg
417.276	0.514	Blank	Blank	49.84	n/a	4	11	16	n/a	96	n/a	1	n/a	n/a	n/a	n/a	448.486	n/a
417.807	0.497	neutral	Picture	49.326	n/a	4	11	17	n/a	97	5	1	n/a	n/a	n/a	n/a	449.017	BF07NES.jpg
418.304	0.514	Blank	Blank	48.812	n/a	4	11	17	n/a	97	n/a	1	n/a	n/a	n/a	n/a	449.514	n/a
418.834	0.497	neutral	Picture	48.298	n/a	4	11	18	n/a	98	25	1	n/a	n/a	n/a	n/a	450.045	BM06NES.jpg
419.332	0.514	Blank	Blank	47.784	n/a	4	11	18	n/a	98	n/a	1	n/a	n/a	n/a	n/a	450.542	n/a
419.862	0.497	neutral	Picture	47.27	n/a	4	11	19	n/a	99	39	1	n/a	n/a	n/a	n/a	451.073	AM28NES.jpg
420.36	0.514	Blank	Blank	46.756	n/a	4	11	19	n/a	99	n/a	1	n/a	n/a	n/a	n/a	451.57	n/a
420.89	0.497	neutral	Picture	46.242	n/a	4	11	20	n/a	100	33	1	n/a	n/a	n/a	n/a	452.101	AM21NES.jpg
421.387	0.514	Blank	Blank	45.728	n/a	4	11	20	n/a	100	n/a	1	n/a	n/a	n/a	n/a	452.598	n/a
421.918	10.014	ITI	Fixation+	35.698	n/a	4	n/a	n/a	n/a	n/a	n/a	n/a	n/a	n/a	n/a	n/a	453.128	n/a
431.948	0.497	happy	Picture	35.184	n/a	4	12	1	n/a	101	74	2	n/a	n/a	n/a	n/a	463.159	AM22HAS.jpg
432.446	0.514	Blank	Blank	34.67	n/a	4	12	1	n/a	101	n/a	2	n/a	n/a	n/a	n/a	463.656	n/a
432.976	0.497	happy	Picture	34.156	n/a	4	12	2	n/a	102	76	2	n/a	n/a	n/a	n/a	464.187	BM24HAS.jpg
433.474	0.514	Blank	Blank	33.642	n/a	4	12	2	n/a	102	n/a	2	n/a	n/a	n/a	n/a	464.684	n/a
434.004	0.497	happy	Picture	33.128	n/a	4	12	3	n/a	103	80	2	n/a	n/a	n/a	n/a	465.214	BM35HAS.jpg
434.501	0.514	Blank	Blank	32.614	n/a	4	12	3	n/a	103	n/a	2	n/a	n/a	n/a	n/a	465.712	n/a
435.032	0.497	happy	Picture	32.1	n/a	4	12	4	n/a	104	75	2	n/a	n/a	n/a	n/a	466.242	AM23HAS.jpg
435.529	0.514	Blank	Blank	31.586	n/a	4	12	4	n/a	104	n/a	2	n/a	n/a	n/a	n/a	466.74	n/a
436.06	0.497	happy	Picture	31.072	n/a	4	12	5	n/a	105	49	2	n/a	n/a	n/a	n/a	467.27	AF17HAS.jpg
436.557	0.514	Blank	Blank	30.558	n/a	4	12	5	n/a	105	n/a	2	n/a	n/a	n/a	n/a	467.768	n/a
437.088	0.497	happy	Picture	30.044	n/a	4	12	6	n/a	106	43	2	n/a	n/a	n/a	n/a	468.298	BF04HAS.jpg
437.585	0.514	Blank	Blank	29.531	n/a	4	12	6	n/a	106	n/a	2	n/a	n/a	n/a	n/a	468.796	n/a
438.116	0.497	happy	Picture	29.017	n/a	4	12	7	n/a	107	70	2	n/a	n/a	n/a	n/a	469.326	BM11HAS.jpg
438.613	0.514	Blank	Blank	28.503	n/a	4	12	7	n/a	107	n/a	2	n/a	n/a	n/a	n/a	469.823	n/a
439.144	0.497	happy	Picture	27.989	n/a	4	12	8	n/a	108	66	2	n/a	n/a	n/a	n/a	470.354	BM07HAS.jpg
439.641	0.514	Blank	Blank	27.475	n/a	4	12	8	n/a	108	n/a	2	n/a	n/a	n/a	n/a	470.851	n/a
440.171	0.497	happy	Picture	26.961	n/a	4	12	9	n/a	109	48	2	n/a	n/a	n/a	n/a	471.382	AF14HAS.jpg
440.669	0.514	Blank	Blank	26.447	n/a	4	12	9	n/a	109	n/a	2	n/a	n/a	n/a	n/a	471.879	n/a
441.199	0.497	happy	Picture	25.933	n/a	4	12	10	n/a	110	58	2	n/a	n/a	n/a	n/a	472.41	BF29HAS.jpg
441.697	0.514	Blank	Blank	25.419	n/a	4	12	10	n/a	110	n/a	2	n/a	n/a	n/a	n/a	472.907	n/a
442.227	0.497	happy	Picture	24.905	n/a	4	12	11	n/a	111	63	2	n/a	n/a	n/a	n/a	473.438	AM04HAS.jpg
442.725	0.514	Blank	Blank	24.391	n/a	4	12	11	n/a	111	n/a	2	n/a	n/a	n/a	n/a	473.935	n/a
443.255	0.497	happy	Picture	23.877	n/a	4	12	12	n/a	112	72	2	n/a	n/a	n/a	n/a	474.466	AM14HAS.jpg
443.752	0.514	Blank	Blank	23.363	n/a	4	12	12	n/a	112	n/a	2	n/a	n/a	n/a	n/a	474.963	n/a
444.283	0.497	happy	Picture	22.849	n/a	4	12	13	n/a	113	55	2	n/a	n/a	n/a	n/a	475.493	AF25HAS.jpg
444.78	0.514	Blank	Blank	22.335	n/a	4	12	13	n/a	113	n/a	2	n/a	n/a	n/a	n/a	475.991	n/a
445.311	0.497	happy	Picture	21.821	n/a	4	12	14	n/a	114	42	2	n/a	n/a	n/a	n/a	476.521	AF03HAS.jpg
445.808	0.514	Blank	Blank	21.308	n/a	4	12	14	n/a	114	n/a	2	n/a	n/a	n/a	n/a	477.019	n/a
446.339	0.497	happy	Picture	20.793	n/a	4	12	15	n/a	115	60	2	n/a	n/a	n/a	n/a	477.549	AF32HAS.jpg
446.836	0.514	Blank	Blank	20.28	n/a	4	12	15	n/a	115	n/a	2	n/a	n/a	n/a	n/a	478.046	n/a
447.367	0.497	happy	Picture	19.766	n/a	4	12	16	n/a	116	67	2	n/a	n/a	n/a	n/a	478.577	BM08HAS.jpg
447.864	0.514	Blank	Blank	19.252	n/a	4	12	16	n/a	116	n/a	2	n/a	n/a	n/a	n/a	479.074	n/a
448.394	0.497	happy	Picture	18.738	n/a	4	12	17	n/a	117	51	2	n/a	n/a	n/a	n/a	479.605	AF20HAS.jpg
448.892	0.514	Blank	Blank	18.224	n/a	4	12	17	n/a	117	n/a	2	n/a	n/a	n/a	n/a	480.102	n/a
449.422	0.497	happy	Picture	17.71	n/a	4	12	18	n/a	118	71	2	n/a	n/a	n/a	n/a	480.633	BM12HAS.jpg
449.92	0.514	Blank	Blank	17.196	n/a	4	12	18	n/a	118	n/a	2	n/a	n/a	n/a	n/a	481.13	n/a
450.45	0.497	happy	Picture	16.682	n/a	4	12	19	n/a	119	69	2	n/a	n/a	n/a	n/a	481.661	AM10HAS.jpg
450.948	0.514	Blank	Blank	16.168	n/a	4	12	19	n/a	119	n/a	2	n/a	n/a	n/a	n/a	482.158	n/a
451.478	0.497	happy	Picture	15.654	n/a	4	12	20	n/a	120	46	2	n/a	n/a	n/a	n/a	482.689	AF09HAS.jpg
451.976	0.514	Blank	Blank	15.14	n/a	4	12	20	n/a	120	n/a	2	n/a	n/a	n/a	n/a	483.186	n/a
452.506	10.014	ITI	Fixation+	5.11	n/a	4	n/a	n/a	n/a	n/a	n/a	n/a	n/a	n/a	n/a	n/a	483.716	n/a
467.63	n/a	ConfirmRating	Rate	n/a	5.107	4	n/a	n/a	0	n/a	n/a	n/a	2	Happy	84	52	498.84	n/a
473.969	n/a	ConfirmRating	Rate	n/a	6.317	4	n/a	n/a	1	n/a	n/a	n/a	3	Happy	85	52	505.179	n/a
