onset	duration	trial_type	event_type	time_until_response	response_time	trial_number	block_num_within_trial	image_seq_num_within_block	question_seq_num_within_block	image_seq_num	picture_number	condition	question_type	block_type	rating	rating_computed	onset_uncorrected	KDEV_imagefile
0.005	10.014	ITI	Fixation+	98.217	n/a	1	n/a	n/a	n/a	n/a	n/a	n/a	n/a	n/a	n/a	n/a	32.34	n/a
10.035	0.497	happy	Picture	97.703	n/a	1	1	1	n/a	1	46	2	n/a	n/a	n/a	n/a	42.37	AF09HAS.jpg
10.532	0.514	Blank	Blank	97.189	n/a	1	1	1	n/a	1	n/a	2	n/a	n/a	n/a	n/a	42.867	n/a
11.063	0.497	happy	Picture	96.675	n/a	1	1	2	n/a	2	69	2	n/a	n/a	n/a	n/a	43.398	AM10HAS.jpg
11.56	0.514	Blank	Blank	96.161	n/a	1	1	2	n/a	2	n/a	2	n/a	n/a	n/a	n/a	43.895	n/a
12.091	0.497	happy	Picture	95.647	n/a	1	1	3	n/a	3	71	2	n/a	n/a	n/a	n/a	44.426	BM12HAS.jpg
12.588	0.514	Blank	Blank	95.133	n/a	1	1	3	n/a	3	n/a	2	n/a	n/a	n/a	n/a	44.923	n/a
13.119	0.497	happy	Picture	94.619	n/a	1	1	4	n/a	4	51	2	n/a	n/a	n/a	n/a	45.454	AF20HAS.jpg
13.616	0.514	Blank	Blank	94.105	n/a	1	1	4	n/a	4	n/a	2	n/a	n/a	n/a	n/a	45.951	n/a
14.146	0.497	happy	Picture	93.591	n/a	1	1	5	n/a	5	67	2	n/a	n/a	n/a	n/a	46.481	BM08HAS.jpg
14.644	0.514	Blank	Blank	93.077	n/a	1	1	5	n/a	5	n/a	2	n/a	n/a	n/a	n/a	46.979	n/a
15.174	0.497	happy	Picture	92.563	n/a	1	1	6	n/a	6	60	2	n/a	n/a	n/a	n/a	47.509	AF32HAS.jpg
15.672	0.514	Blank	Blank	92.049	n/a	1	1	6	n/a	6	n/a	2	n/a	n/a	n/a	n/a	48.007	n/a
16.202	0.497	happy	Picture	91.535	n/a	1	1	7	n/a	7	42	2	n/a	n/a	n/a	n/a	48.537	AF03HAS.jpg
16.7	0.514	Blank	Blank	91.021	n/a	1	1	7	n/a	7	n/a	2	n/a	n/a	n/a	n/a	49.035	n/a
17.23	0.497	happy	Picture	90.507	n/a	1	1	8	n/a	8	55	2	n/a	n/a	n/a	n/a	49.565	AF25HAS.jpg
17.727	0.514	Blank	Blank	89.993	n/a	1	1	8	n/a	8	n/a	2	n/a	n/a	n/a	n/a	50.063	n/a
18.258	0.497	happy	Picture	89.48	n/a	1	1	9	n/a	9	72	2	n/a	n/a	n/a	n/a	50.593	AM14HAS.jpg
18.755	0.514	Blank	Blank	88.966	n/a	1	1	9	n/a	9	n/a	2	n/a	n/a	n/a	n/a	51.09	n/a
19.286	0.497	happy	Picture	88.452	n/a	1	1	10	n/a	10	63	2	n/a	n/a	n/a	n/a	51.621	AM04HAS.jpg
19.783	0.514	Blank	Blank	87.938	n/a	1	1	10	n/a	10	n/a	2	n/a	n/a	n/a	n/a	52.118	n/a
20.314	0.497	happy	Picture	87.424	n/a	1	1	11	n/a	11	58	2	n/a	n/a	n/a	n/a	52.649	BF29HAS.jpg
20.811	0.514	Blank	Blank	86.91	n/a	1	1	11	n/a	11	n/a	2	n/a	n/a	n/a	n/a	53.146	n/a
21.342	0.497	happy	Picture	86.396	n/a	1	1	12	n/a	12	48	2	n/a	n/a	n/a	n/a	53.677	AF14HAS.jpg
21.839	0.514	Blank	Blank	85.882	n/a	1	1	12	n/a	12	n/a	2	n/a	n/a	n/a	n/a	54.174	n/a
22.37	0.497	happy	Picture	85.368	n/a	1	1	13	n/a	13	66	2	n/a	n/a	n/a	n/a	54.705	BM07HAS.jpg
22.867	0.514	Blank	Blank	84.854	n/a	1	1	13	n/a	13	n/a	2	n/a	n/a	n/a	n/a	55.202	n/a
23.397	0.497	happy	Picture	84.34	n/a	1	1	14	n/a	14	70	2	n/a	n/a	n/a	n/a	55.732	BM11HAS.jpg
23.895	0.514	Blank	Blank	83.826	n/a	1	1	14	n/a	14	n/a	2	n/a	n/a	n/a	n/a	56.23	n/a
24.425	0.497	happy	Picture	83.312	n/a	1	1	15	n/a	15	43	2	n/a	n/a	n/a	n/a	56.76	BF04HAS.jpg
24.923	0.514	Blank	Blank	82.798	n/a	1	1	15	n/a	15	n/a	2	n/a	n/a	n/a	n/a	57.258	n/a
25.453	0.497	happy	Picture	82.284	n/a	1	1	16	n/a	16	49	2	n/a	n/a	n/a	n/a	57.788	AF17HAS.jpg
25.95	0.514	Blank	Blank	81.77	n/a	1	1	16	n/a	16	n/a	2	n/a	n/a	n/a	n/a	58.285	n/a
26.481	0.497	happy	Picture	81.256	n/a	1	1	17	n/a	17	75	2	n/a	n/a	n/a	n/a	58.816	AM23HAS.jpg
26.978	0.514	Blank	Blank	80.743	n/a	1	1	17	n/a	17	n/a	2	n/a	n/a	n/a	n/a	59.313	n/a
27.509	0.497	happy	Picture	80.229	n/a	1	1	18	n/a	18	80	2	n/a	n/a	n/a	n/a	59.844	BM35HAS.jpg
28.006	0.514	Blank	Blank	79.715	n/a	1	1	18	n/a	18	n/a	2	n/a	n/a	n/a	n/a	60.341	n/a
28.537	0.497	happy	Picture	79.201	n/a	1	1	19	n/a	19	76	2	n/a	n/a	n/a	n/a	60.872	BM24HAS.jpg
29.034	0.514	Blank	Blank	78.687	n/a	1	1	19	n/a	19	n/a	2	n/a	n/a	n/a	n/a	61.369	n/a
29.565	0.497	happy	Picture	78.173	n/a	1	1	20	n/a	20	74	2	n/a	n/a	n/a	n/a	61.9	AM22HAS.jpg
30.062	0.514	Blank	Blank	77.659	n/a	1	1	20	n/a	20	n/a	2	n/a	n/a	n/a	n/a	62.397	n/a
30.593	10.014	ITI	Fixation+	67.629	n/a	1	n/a	n/a	n/a	n/a	n/a	n/a	n/a	n/a	n/a	n/a	62.928	n/a
40.623	0.497	neutral	Picture	67.115	n/a	1	2	1	n/a	21	33	1	n/a	n/a	n/a	n/a	72.958	AM21NES.jpg
41.12	0.514	Blank	Blank	66.601	n/a	1	2	1	n/a	21	n/a	1	n/a	n/a	n/a	n/a	73.455	n/a
41.651	0.497	neutral	Picture	66.087	n/a	1	2	2	n/a	22	39	1	n/a	n/a	n/a	n/a	73.986	AM28NES.jpg
42.148	0.514	Blank	Blank	65.573	n/a	1	2	2	n/a	22	n/a	1	n/a	n/a	n/a	n/a	74.483	n/a
42.678	0.497	neutral	Picture	65.059	n/a	1	2	3	n/a	23	25	1	n/a	n/a	n/a	n/a	75.013	BM06NES.jpg
43.176	0.514	Blank	Blank	64.545	n/a	1	2	3	n/a	23	n/a	1	n/a	n/a	n/a	n/a	75.511	n/a
43.706	0.497	neutral	Picture	64.031	n/a	1	2	4	n/a	24	5	1	n/a	n/a	n/a	n/a	76.041	BF07NES.jpg
44.204	0.514	Blank	Blank	63.517	n/a	1	2	4	n/a	24	n/a	1	n/a	n/a	n/a	n/a	76.539	n/a
44.734	0.497	neutral	Picture	63.003	n/a	1	2	5	n/a	25	10	1	n/a	n/a	n/a	n/a	77.069	AF18NES.jpg
45.232	0.514	Blank	Blank	62.489	n/a	1	2	5	n/a	25	n/a	1	n/a	n/a	n/a	n/a	77.567	n/a
45.762	0.497	neutral	Picture	61.975	n/a	1	2	6	n/a	26	34	1	n/a	n/a	n/a	n/a	78.097	AM22NES.jpg
46.259	0.514	Blank	Blank	61.461	n/a	1	2	6	n/a	26	n/a	1	n/a	n/a	n/a	n/a	78.594	n/a
46.79	0.497	neutral	Picture	60.947	n/a	1	2	7	n/a	27	36	1	n/a	n/a	n/a	n/a	79.125	BM24NES.jpg
47.287	0.514	Blank	Blank	60.434	n/a	1	2	7	n/a	27	n/a	1	n/a	n/a	n/a	n/a	79.622	n/a
47.818	0.497	neutral	Picture	59.92	n/a	1	2	8	n/a	28	14	1	n/a	n/a	n/a	n/a	80.153	AF23NES.jpg
48.315	0.514	Blank	Blank	59.406	n/a	1	2	8	n/a	28	n/a	1	n/a	n/a	n/a	n/a	80.65	n/a
48.846	0.497	neutral	Picture	58.892	n/a	1	2	9	n/a	29	9	1	n/a	n/a	n/a	n/a	81.181	AF17NES.jpg
49.343	0.514	Blank	Blank	58.378	n/a	1	2	9	n/a	29	n/a	1	n/a	n/a	n/a	n/a	81.678	n/a
49.874	0.497	neutral	Picture	57.864	n/a	1	2	10	n/a	30	19	1	n/a	n/a	n/a	n/a	82.209	AF31NES.jpg
50.371	0.514	Blank	Blank	57.35	n/a	1	2	10	n/a	30	n/a	1	n/a	n/a	n/a	n/a	82.706	n/a
50.902	0.497	neutral	Picture	56.836	n/a	1	2	11	n/a	31	15	1	n/a	n/a	n/a	n/a	83.237	AF25NES.jpg
51.399	0.514	Blank	Blank	56.322	n/a	1	2	11	n/a	31	n/a	1	n/a	n/a	n/a	n/a	83.734	n/a
51.929	0.497	neutral	Picture	55.808	n/a	1	2	12	n/a	32	22	1	n/a	n/a	n/a	n/a	84.264	BM03NES.jpg
52.427	0.514	Blank	Blank	55.294	n/a	1	2	12	n/a	32	n/a	1	n/a	n/a	n/a	n/a	84.762	n/a
52.957	0.497	neutral	Picture	54.78	n/a	1	2	13	n/a	33	11	1	n/a	n/a	n/a	n/a	85.292	AF20NES.jpg
53.455	0.514	Blank	Blank	54.266	n/a	1	2	13	n/a	33	n/a	1	n/a	n/a	n/a	n/a	85.79	n/a
53.985	0.497	neutral	Picture	53.752	n/a	1	2	14	n/a	34	4	1	n/a	n/a	n/a	n/a	86.32	AF05NES.jpg
54.482	0.514	Blank	Blank	53.238	n/a	1	2	14	n/a	34	n/a	1	n/a	n/a	n/a	n/a	86.817	n/a
55.013	0.497	neutral	Picture	52.724	n/a	1	2	15	n/a	35	17	1	n/a	n/a	n/a	n/a	87.348	BF28NES.jpg
55.51	0.514	Blank	Blank	52.211	n/a	1	2	15	n/a	35	n/a	1	n/a	n/a	n/a	n/a	87.845	n/a
56.041	0.497	neutral	Picture	51.697	n/a	1	2	16	n/a	36	13	1	n/a	n/a	n/a	n/a	88.376	BF22NES.jpg
56.538	0.514	Blank	Blank	51.183	n/a	1	2	16	n/a	36	n/a	1	n/a	n/a	n/a	n/a	88.873	n/a
57.069	0.497	neutral	Picture	50.669	n/a	1	2	17	n/a	37	12	1	n/a	n/a	n/a	n/a	89.404	AF21NES.jpg
57.566	0.514	Blank	Blank	50.155	n/a	1	2	17	n/a	37	n/a	1	n/a	n/a	n/a	n/a	89.901	n/a
58.097	0.497	neutral	Picture	49.641	n/a	1	2	18	n/a	38	24	1	n/a	n/a	n/a	n/a	90.432	BM05NES.jpg
58.594	0.514	Blank	Blank	49.127	n/a	1	2	18	n/a	38	n/a	1	n/a	n/a	n/a	n/a	90.929	n/a
59.125	0.497	neutral	Picture	48.613	n/a	1	2	19	n/a	39	29	1	n/a	n/a	n/a	n/a	91.46	AM10NES.jpg
59.622	0.514	Blank	Blank	48.099	n/a	1	2	19	n/a	39	n/a	1	n/a	n/a	n/a	n/a	91.957	n/a
60.152	0.497	neutral	Picture	47.585	n/a	1	2	20	n/a	40	23	1	n/a	n/a	n/a	n/a	92.487	AM04NES.jpg
60.65	0.514	Blank	Blank	47.071	n/a	1	2	20	n/a	40	n/a	1	n/a	n/a	n/a	n/a	92.985	n/a
61.18	10.014	ITI	Fixation+	37.041	n/a	1	n/a	n/a	n/a	n/a	n/a	n/a	n/a	n/a	n/a	n/a	93.515	n/a
71.21	0.497	happy	Picture	36.527	n/a	1	3	1	n/a	41	62	2	n/a	n/a	n/a	n/a	103.546	BM03HAS.jpg
71.708	0.514	Blank	Blank	36.013	n/a	1	3	1	n/a	41	n/a	2	n/a	n/a	n/a	n/a	104.043	n/a
72.238	0.497	happy	Picture	35.499	n/a	1	3	2	n/a	42	52	2	n/a	n/a	n/a	n/a	104.573	AF21HAS.jpg
72.736	0.514	Blank	Blank	34.985	n/a	1	3	2	n/a	42	n/a	2	n/a	n/a	n/a	n/a	105.071	n/a
73.266	0.497	happy	Picture	34.471	n/a	1	3	3	n/a	43	44	2	n/a	n/a	n/a	n/a	105.601	AF05HAS.jpg
73.764	0.514	Blank	Blank	33.957	n/a	1	3	3	n/a	43	n/a	2	n/a	n/a	n/a	n/a	106.099	n/a
74.294	0.497	happy	Picture	33.443	n/a	1	3	4	n/a	44	53	2	n/a	n/a	n/a	n/a	106.629	BF22HAS.jpg
74.791	0.514	Blank	Blank	32.929	n/a	1	3	4	n/a	44	n/a	2	n/a	n/a	n/a	n/a	107.126	n/a
75.322	0.497	happy	Picture	32.415	n/a	1	3	5	n/a	45	54	2	n/a	n/a	n/a	n/a	107.657	AF23HAS.jpg
75.819	0.514	Blank	Blank	31.902	n/a	1	3	5	n/a	45	n/a	2	n/a	n/a	n/a	n/a	108.154	n/a
76.35	0.497	happy	Picture	31.388	n/a	1	3	6	n/a	46	68	2	n/a	n/a	n/a	n/a	108.685	AM09HAS.jpg
76.847	0.514	Blank	Blank	30.874	n/a	1	3	6	n/a	46	n/a	2	n/a	n/a	n/a	n/a	109.182	n/a
77.378	0.497	happy	Picture	30.36	n/a	1	3	7	n/a	47	64	2	n/a	n/a	n/a	n/a	109.713	BM05HAS.jpg
77.875	0.514	Blank	Blank	29.846	n/a	1	3	7	n/a	47	n/a	2	n/a	n/a	n/a	n/a	110.21	n/a
78.406	0.497	happy	Picture	29.332	n/a	1	3	8	n/a	48	59	2	n/a	n/a	n/a	n/a	110.741	AF31HAS.jpg
78.903	0.514	Blank	Blank	28.818	n/a	1	3	8	n/a	48	n/a	2	n/a	n/a	n/a	n/a	111.238	n/a
79.434	0.497	happy	Picture	28.304	n/a	1	3	9	n/a	49	41	2	n/a	n/a	n/a	n/a	111.769	AF01HAS.jpg
79.931	0.514	Blank	Blank	27.79	n/a	1	3	9	n/a	49	n/a	2	n/a	n/a	n/a	n/a	112.266	n/a
80.461	0.497	happy	Picture	27.276	n/a	1	3	10	n/a	50	73	2	n/a	n/a	n/a	n/a	112.796	AM21HAS.jpg
80.959	0.514	Blank	Blank	26.762	n/a	1	3	10	n/a	50	n/a	2	n/a	n/a	n/a	n/a	113.294	n/a
81.489	0.497	happy	Picture	26.248	n/a	1	3	11	n/a	51	65	2	n/a	n/a	n/a	n/a	113.824	BM06HAS.jpg
81.987	0.514	Blank	Blank	25.734	n/a	1	3	11	n/a	51	n/a	2	n/a	n/a	n/a	n/a	114.322	n/a
82.517	0.497	happy	Picture	25.22	n/a	1	3	12	n/a	52	56	2	n/a	n/a	n/a	n/a	114.852	AF26HAS.jpg
83.014	0.514	Blank	Blank	24.706	n/a	1	3	12	n/a	52	n/a	2	n/a	n/a	n/a	n/a	115.35	n/a
83.545	0.497	happy	Picture	24.192	n/a	1	3	13	n/a	53	45	2	n/a	n/a	n/a	n/a	115.88	BF07HAS.jpg
84.042	0.514	Blank	Blank	23.678	n/a	1	3	13	n/a	53	n/a	2	n/a	n/a	n/a	n/a	116.377	n/a
84.573	0.497	happy	Picture	23.165	n/a	1	3	14	n/a	54	78	2	n/a	n/a	n/a	n/a	116.908	BM26HAS.jpg
85.07	0.514	Blank	Blank	22.651	n/a	1	3	14	n/a	54	n/a	2	n/a	n/a	n/a	n/a	117.405	n/a
85.601	0.497	happy	Picture	22.137	n/a	1	3	15	n/a	55	50	2	n/a	n/a	n/a	n/a	117.936	AF18HAS.jpg
86.098	0.513	Blank	Blank	21.623	n/a	1	3	15	n/a	55	n/a	2	n/a	n/a	n/a	n/a	118.433	n/a
86.629	0.497	happy	Picture	21.109	n/a	1	3	16	n/a	56	47	2	n/a	n/a	n/a	n/a	118.964	BF11HAS.jpg
87.126	0.514	Blank	Blank	20.595	n/a	1	3	16	n/a	56	n/a	2	n/a	n/a	n/a	n/a	119.461	n/a
87.657	0.497	happy	Picture	20.081	n/a	1	3	17	n/a	57	77	2	n/a	n/a	n/a	n/a	119.992	BM25HAS.jpg
88.154	0.514	Blank	Blank	19.567	n/a	1	3	17	n/a	57	n/a	2	n/a	n/a	n/a	n/a	120.489	n/a
88.684	0.497	happy	Picture	19.053	n/a	1	3	18	n/a	58	57	2	n/a	n/a	n/a	n/a	121.019	BF28HAS.jpg
89.182	0.514	Blank	Blank	18.539	n/a	1	3	18	n/a	58	n/a	2	n/a	n/a	n/a	n/a	121.517	n/a
89.712	0.497	happy	Picture	18.025	n/a	1	3	19	n/a	59	61	2	n/a	n/a	n/a	n/a	122.047	AM01HAS.jpg
90.21	0.514	Blank	Blank	17.511	n/a	1	3	19	n/a	59	n/a	2	n/a	n/a	n/a	n/a	122.545	n/a
90.74	0.497	happy	Picture	16.997	n/a	1	3	20	n/a	60	79	2	n/a	n/a	n/a	n/a	123.075	BM28HAS.jpg
91.238	0.514	Blank	Blank	16.483	n/a	1	3	20	n/a	60	n/a	2	n/a	n/a	n/a	n/a	123.573	n/a
91.768	10.014	ITI	Fixation+	6.453	n/a	1	n/a	n/a	n/a	n/a	n/a	n/a	n/a	n/a	n/a	n/a	124.103	n/a
108.235	n/a	ConfirmRating	Rate	n/a	6.433	1	n/a	n/a	0	n/a	n/a	n/a	2	Happy	76	51	140.57	n/a
115.609	n/a	ConfirmRating	Rate	n/a	7.36	1	n/a	n/a	1	n/a	n/a	n/a	3	Happy	13	48	147.944	n/a
115.641	10.014	ITI	Fixation+	95.55	n/a	2	n/a	n/a	n/a	n/a	n/a	n/a	n/a	n/a	n/a	n/a	147.976	n/a
125.672	0.497	angry	Picture	95.036	n/a	2	4	1	n/a	61	119	3	n/a	n/a	n/a	n/a	158.007	BM28ANS.jpg
126.169	0.514	Blank	Blank	94.522	n/a	2	4	1	n/a	61	n/a	3	n/a	n/a	n/a	n/a	158.504	n/a
126.7	0.497	angry	Picture	94.008	n/a	2	4	2	n/a	62	100	3	n/a	n/a	n/a	n/a	159.035	AF32ANS.jpg
127.197	0.514	Blank	Blank	93.494	n/a	2	4	2	n/a	62	n/a	3	n/a	n/a	n/a	n/a	159.532	n/a
127.727	0.497	angry	Picture	92.98	n/a	2	4	3	n/a	63	118	3	n/a	n/a	n/a	n/a	160.062	BM26ANS.jpg
128.225	0.514	Blank	Blank	92.466	n/a	2	4	3	n/a	63	n/a	3	n/a	n/a	n/a	n/a	160.56	n/a
128.755	0.497	angry	Picture	91.952	n/a	2	4	4	n/a	64	89	3	n/a	n/a	n/a	n/a	161.09	AF17ANS.jpg
129.253	0.514	Blank	Blank	91.438	n/a	2	4	4	n/a	64	n/a	3	n/a	n/a	n/a	n/a	161.588	n/a
129.783	0.497	angry	Picture	90.924	n/a	2	4	5	n/a	65	116	3	n/a	n/a	n/a	n/a	162.118	BM24ANS.jpg
130.28	0.514	Blank	Blank	90.41	n/a	2	4	5	n/a	65	n/a	3	n/a	n/a	n/a	n/a	162.615	n/a
130.811	0.497	angry	Picture	89.896	n/a	2	4	6	n/a	66	105	3	n/a	n/a	n/a	n/a	163.146	BM06ANS.jpg
131.308	0.514	Blank	Blank	89.382	n/a	2	4	6	n/a	66	n/a	3	n/a	n/a	n/a	n/a	163.643	n/a
131.839	0.497	angry	Picture	88.869	n/a	2	4	7	n/a	67	106	3	n/a	n/a	n/a	n/a	164.174	AM07ANS.jpg
132.336	0.514	Blank	Blank	88.355	n/a	2	4	7	n/a	67	n/a	3	n/a	n/a	n/a	n/a	164.671	n/a
132.867	0.497	angry	Picture	87.841	n/a	2	4	8	n/a	68	94	3	n/a	n/a	n/a	n/a	165.202	AF23ANS.jpg
133.364	0.514	Blank	Blank	87.327	n/a	2	4	8	n/a	68	n/a	3	n/a	n/a	n/a	n/a	165.699	n/a
133.895	0.497	angry	Picture	86.813	n/a	2	4	9	n/a	69	117	3	n/a	n/a	n/a	n/a	166.23	BM25ANS.jpg
134.392	0.514	Blank	Blank	86.299	n/a	2	4	9	n/a	69	n/a	3	n/a	n/a	n/a	n/a	166.727	n/a
134.923	0.497	angry	Picture	85.785	n/a	2	4	10	n/a	70	90	3	n/a	n/a	n/a	n/a	167.258	AF18ANS.jpg
135.42	0.514	Blank	Blank	85.271	n/a	2	4	10	n/a	70	n/a	3	n/a	n/a	n/a	n/a	167.755	n/a
135.951	0.497	angry	Picture	84.757	n/a	2	4	11	n/a	71	83	3	n/a	n/a	n/a	n/a	168.286	BF04ANS.jpg
136.448	0.514	Blank	Blank	84.243	n/a	2	4	11	n/a	71	n/a	3	n/a	n/a	n/a	n/a	168.783	n/a
136.978	0.497	angry	Picture	83.729	n/a	2	4	12	n/a	72	112	3	n/a	n/a	n/a	n/a	169.313	AM14ANS.jpg
137.476	0.514	Blank	Blank	83.215	n/a	2	4	12	n/a	72	n/a	3	n/a	n/a	n/a	n/a	169.811	n/a
138.006	0.497	angry	Picture	82.701	n/a	2	4	13	n/a	73	102	3	n/a	n/a	n/a	n/a	170.341	BM03ANS.jpg
138.504	0.514	Blank	Blank	82.187	n/a	2	4	13	n/a	73	n/a	3	n/a	n/a	n/a	n/a	170.839	n/a
139.034	0.497	angry	Picture	81.673	n/a	2	4	14	n/a	74	95	3	n/a	n/a	n/a	n/a	171.369	AF25ANS.jpg
139.531	0.514	Blank	Blank	81.159	n/a	2	4	14	n/a	74	n/a	3	n/a	n/a	n/a	n/a	171.867	n/a
140.062	0.497	angry	Picture	80.645	n/a	2	4	15	n/a	75	113	3	n/a	n/a	n/a	n/a	172.397	AM21ANS.jpg
140.559	0.514	Blank	Blank	80.132	n/a	2	4	15	n/a	75	n/a	3	n/a	n/a	n/a	n/a	172.894	n/a
141.09	0.497	angry	Picture	79.618	n/a	2	4	16	n/a	76	88	3	n/a	n/a	n/a	n/a	173.425	AF14ANS.jpg
141.587	0.514	Blank	Blank	79.104	n/a	2	4	16	n/a	76	n/a	3	n/a	n/a	n/a	n/a	173.922	n/a
142.118	0.497	angry	Picture	78.59	n/a	2	4	17	n/a	77	93	3	n/a	n/a	n/a	n/a	174.453	BF22ANS.jpg
142.615	0.514	Blank	Blank	78.076	n/a	2	4	17	n/a	77	n/a	3	n/a	n/a	n/a	n/a	174.95	n/a
143.146	0.497	angry	Picture	77.562	n/a	2	4	18	n/a	78	86	3	n/a	n/a	n/a	n/a	175.481	AF09ANS.jpg
143.643	0.514	Blank	Blank	77.048	n/a	2	4	18	n/a	78	n/a	3	n/a	n/a	n/a	n/a	175.978	n/a
144.173	0.497	angry	Picture	76.534	n/a	2	4	19	n/a	79	92	3	n/a	n/a	n/a	n/a	176.508	AF21ANS.jpg
144.671	0.514	Blank	Blank	76.02	n/a	2	4	19	n/a	79	n/a	3	n/a	n/a	n/a	n/a	177.006	n/a
145.201	0.497	angry	Picture	75.506	n/a	2	4	20	n/a	80	84	3	n/a	n/a	n/a	n/a	177.536	AF05ANS.jpg
145.699	0.514	Blank	Blank	74.992	n/a	2	4	20	n/a	80	n/a	3	n/a	n/a	n/a	n/a	178.034	n/a
146.229	10.014	ITI	Fixation+	64.962	n/a	2	n/a	n/a	n/a	n/a	n/a	n/a	n/a	n/a	n/a	n/a	178.564	n/a
156.259	0.497	neutral	Picture	64.448	n/a	2	5	1	n/a	81	4	1	n/a	n/a	n/a	n/a	188.594	AF05NES.jpg
156.757	0.514	Blank	Blank	63.934	n/a	2	5	1	n/a	81	n/a	1	n/a	n/a	n/a	n/a	189.092	n/a
157.287	0.497	neutral	Picture	63.42	n/a	2	5	2	n/a	82	14	1	n/a	n/a	n/a	n/a	189.622	AF23NES.jpg
157.785	0.514	Blank	Blank	62.906	n/a	2	5	2	n/a	82	n/a	1	n/a	n/a	n/a	n/a	190.12	n/a
158.315	0.497	neutral	Picture	62.392	n/a	2	5	3	n/a	83	19	1	n/a	n/a	n/a	n/a	190.65	AF31NES.jpg
158.813	0.514	Blank	Blank	61.878	n/a	2	5	3	n/a	83	n/a	1	n/a	n/a	n/a	n/a	191.148	n/a
159.343	0.497	neutral	Picture	61.364	n/a	2	5	4	n/a	84	8	1	n/a	n/a	n/a	n/a	191.678	AF14NES.jpg
159.84	0.514	Blank	Blank	60.85	n/a	2	5	4	n/a	84	n/a	1	n/a	n/a	n/a	n/a	192.175	n/a
160.371	0.497	neutral	Picture	60.337	n/a	2	5	5	n/a	85	25	1	n/a	n/a	n/a	n/a	192.706	BM06NES.jpg
160.868	0.514	Blank	Blank	59.823	n/a	2	5	5	n/a	85	n/a	1	n/a	n/a	n/a	n/a	193.203	n/a
161.399	0.497	neutral	Picture	59.309	n/a	2	5	6	n/a	86	9	1	n/a	n/a	n/a	n/a	193.734	AF17NES.jpg
161.896	0.514	Blank	Blank	58.795	n/a	2	5	6	n/a	86	n/a	1	n/a	n/a	n/a	n/a	194.231	n/a
162.427	0.497	neutral	Picture	58.281	n/a	2	5	7	n/a	87	2	1	n/a	n/a	n/a	n/a	194.762	AF03NES.jpg
162.924	0.514	Blank	Blank	57.767	n/a	2	5	7	n/a	87	n/a	1	n/a	n/a	n/a	n/a	195.259	n/a
163.455	0.497	neutral	Picture	57.253	n/a	2	5	8	n/a	88	17	1	n/a	n/a	n/a	n/a	195.79	BF28NES.jpg
163.952	0.514	Blank	Blank	56.739	n/a	2	5	8	n/a	88	n/a	1	n/a	n/a	n/a	n/a	196.287	n/a
164.482	0.497	neutral	Picture	56.225	n/a	2	5	9	n/a	89	6	1	n/a	n/a	n/a	n/a	196.817	AF09NES.jpg
164.98	0.514	Blank	Blank	55.711	n/a	2	5	9	n/a	89	n/a	1	n/a	n/a	n/a	n/a	197.315	n/a
165.51	0.497	neutral	Picture	55.197	n/a	2	5	10	n/a	90	12	1	n/a	n/a	n/a	n/a	197.845	AF21NES.jpg
166.008	0.514	Blank	Blank	54.683	n/a	2	5	10	n/a	90	n/a	1	n/a	n/a	n/a	n/a	198.343	n/a
166.538	0.497	neutral	Picture	54.169	n/a	2	5	11	n/a	91	24	1	n/a	n/a	n/a	n/a	198.873	BM05NES.jpg
167.036	0.514	Blank	Blank	53.655	n/a	2	5	11	n/a	91	n/a	1	n/a	n/a	n/a	n/a	199.371	n/a
167.566	0.497	neutral	Picture	53.141	n/a	2	5	12	n/a	92	34	1	n/a	n/a	n/a	n/a	199.901	AM22NES.jpg
168.064	0.514	Blank	Blank	52.627	n/a	2	5	12	n/a	92	n/a	1	n/a	n/a	n/a	n/a	200.399	n/a
168.594	0.497	neutral	Picture	52.113	n/a	2	5	13	n/a	93	23	1	n/a	n/a	n/a	n/a	200.929	AM04NES.jpg
169.091	0.514	Blank	Blank	51.6	n/a	2	5	13	n/a	93	n/a	1	n/a	n/a	n/a	n/a	201.426	n/a
169.622	0.497	neutral	Picture	51.086	n/a	2	5	14	n/a	94	15	1	n/a	n/a	n/a	n/a	201.957	AF25NES.jpg
170.119	0.514	Blank	Blank	50.572	n/a	2	5	14	n/a	94	n/a	1	n/a	n/a	n/a	n/a	202.454	n/a
170.65	0.497	neutral	Picture	50.058	n/a	2	5	15	n/a	95	37	1	n/a	n/a	n/a	n/a	202.985	BM25NES.jpg
171.147	0.514	Blank	Blank	49.544	n/a	2	5	15	n/a	95	n/a	1	n/a	n/a	n/a	n/a	203.482	n/a
171.678	0.497	neutral	Picture	49.03	n/a	2	5	16	n/a	96	32	1	n/a	n/a	n/a	n/a	204.013	AM14NES.jpg
172.175	0.514	Blank	Blank	48.516	n/a	2	5	16	n/a	96	n/a	1	n/a	n/a	n/a	n/a	204.51	n/a
172.706	0.497	neutral	Picture	48.002	n/a	2	5	17	n/a	97	3	1	n/a	n/a	n/a	n/a	205.041	BF04NES.jpg
173.203	0.514	Blank	Blank	47.488	n/a	2	5	17	n/a	97	n/a	1	n/a	n/a	n/a	n/a	205.538	n/a
173.733	0.497	neutral	Picture	46.974	n/a	2	5	18	n/a	98	16	1	n/a	n/a	n/a	n/a	206.068	AF26NES.jpg
174.231	0.514	Blank	Blank	46.46	n/a	2	5	18	n/a	98	n/a	1	n/a	n/a	n/a	n/a	206.566	n/a
174.761	0.497	neutral	Picture	45.946	n/a	2	5	19	n/a	99	27	1	n/a	n/a	n/a	n/a	207.096	BM08NES.jpg
175.259	0.514	Blank	Blank	45.432	n/a	2	5	19	n/a	99	n/a	1	n/a	n/a	n/a	n/a	207.594	n/a
175.789	0.497	neutral	Picture	44.918	n/a	2	5	20	n/a	100	28	1	n/a	n/a	n/a	n/a	208.124	AM09NES.jpg
176.286	0.514	Blank	Blank	44.404	n/a	2	5	20	n/a	100	n/a	1	n/a	n/a	n/a	n/a	208.621	n/a
176.817	10.014	ITI	Fixation+	34.374	n/a	2	n/a	n/a	n/a	n/a	n/a	n/a	n/a	n/a	n/a	n/a	209.152	n/a
186.847	0.497	angry	Picture	33.86	n/a	2	6	1	n/a	101	81	3	n/a	n/a	n/a	n/a	219.182	AF01ANS.jpg
187.345	0.514	Blank	Blank	33.346	n/a	2	6	1	n/a	101	n/a	3	n/a	n/a	n/a	n/a	219.68	n/a
187.875	0.497	angry	Picture	32.832	n/a	2	6	2	n/a	102	120	3	n/a	n/a	n/a	n/a	220.21	AM35ANS.jpg
188.372	0.514	Blank	Blank	32.318	n/a	2	6	2	n/a	102	n/a	3	n/a	n/a	n/a	n/a	220.707	n/a
188.903	0.497	angry	Picture	31.805	n/a	2	6	3	n/a	103	114	3	n/a	n/a	n/a	n/a	221.238	AM22ANS.jpg
189.4	0.514	Blank	Blank	31.291	n/a	2	6	3	n/a	103	n/a	3	n/a	n/a	n/a	n/a	221.735	n/a
189.931	0.497	angry	Picture	30.777	n/a	2	6	4	n/a	104	109	3	n/a	n/a	n/a	n/a	222.266	AM10ANS.jpg
190.428	0.514	Blank	Blank	30.263	n/a	2	6	4	n/a	104	n/a	3	n/a	n/a	n/a	n/a	222.763	n/a
190.959	0.497	angry	Picture	29.749	n/a	2	6	5	n/a	105	96	3	n/a	n/a	n/a	n/a	223.294	AF26ANS.jpg
191.456	0.514	Blank	Blank	29.235	n/a	2	6	5	n/a	105	n/a	3	n/a	n/a	n/a	n/a	223.791	n/a
191.987	0.497	angry	Picture	28.721	n/a	2	6	6	n/a	106	82	3	n/a	n/a	n/a	n/a	224.322	AF03ANS.jpg
192.484	0.514	Blank	Blank	28.207	n/a	2	6	6	n/a	106	n/a	3	n/a	n/a	n/a	n/a	224.819	n/a
193.014	0.497	angry	Picture	27.693	n/a	2	6	7	n/a	107	97	3	n/a	n/a	n/a	n/a	225.35	BF28ANS.jpg
193.512	0.514	Blank	Blank	27.179	n/a	2	6	7	n/a	107	n/a	3	n/a	n/a	n/a	n/a	225.847	n/a
194.042	0.497	angry	Picture	26.665	n/a	2	6	8	n/a	108	115	3	n/a	n/a	n/a	n/a	226.377	AM23ANS.jpg
194.54	0.514	Blank	Blank	26.151	n/a	2	6	8	n/a	108	n/a	3	n/a	n/a	n/a	n/a	226.875	n/a
195.07	0.497	angry	Picture	25.637	n/a	2	6	9	n/a	109	91	3	n/a	n/a	n/a	n/a	227.405	AF20ANS.jpg
195.568	0.514	Blank	Blank	25.123	n/a	2	6	9	n/a	109	n/a	3	n/a	n/a	n/a	n/a	227.903	n/a
196.098	0.497	angry	Picture	24.609	n/a	2	6	10	n/a	110	87	3	n/a	n/a	n/a	n/a	228.433	BF11ANS.jpg
196.595	0.514	Blank	Blank	24.095	n/a	2	6	10	n/a	110	n/a	3	n/a	n/a	n/a	n/a	228.93	n/a
197.126	0.497	angry	Picture	23.581	n/a	2	6	11	n/a	111	85	3	n/a	n/a	n/a	n/a	229.461	BF07ANS.jpg
197.623	0.514	Blank	Blank	23.067	n/a	2	6	11	n/a	111	n/a	3	n/a	n/a	n/a	n/a	229.958	n/a
198.154	0.497	angry	Picture	22.554	n/a	2	6	12	n/a	112	110	3	n/a	n/a	n/a	n/a	230.489	AM11ANS.jpg
198.651	0.514	Blank	Blank	22.04	n/a	2	6	12	n/a	112	n/a	3	n/a	n/a	n/a	n/a	230.986	n/a
199.182	0.497	angry	Picture	21.526	n/a	2	6	13	n/a	113	111	3	n/a	n/a	n/a	n/a	231.517	BM12ANS.jpg
199.679	0.514	Blank	Blank	21.012	n/a	2	6	13	n/a	113	n/a	3	n/a	n/a	n/a	n/a	232.014	n/a
200.21	0.497	angry	Picture	20.498	n/a	2	6	14	n/a	114	103	3	n/a	n/a	n/a	n/a	232.545	AM04ANS.jpg
200.707	0.514	Blank	Blank	19.984	n/a	2	6	14	n/a	114	n/a	3	n/a	n/a	n/a	n/a	233.042	n/a
201.237	0.497	angry	Picture	19.47	n/a	2	6	15	n/a	115	101	3	n/a	n/a	n/a	n/a	233.572	AM01ANS.jpg
201.735	0.514	Blank	Blank	18.956	n/a	2	6	15	n/a	115	n/a	3	n/a	n/a	n/a	n/a	234.07	n/a
202.265	0.497	angry	Picture	18.442	n/a	2	6	16	n/a	116	104	3	n/a	n/a	n/a	n/a	234.6	BM05ANS.jpg
202.763	0.514	Blank	Blank	17.928	n/a	2	6	16	n/a	116	n/a	3	n/a	n/a	n/a	n/a	235.098	n/a
203.293	0.497	angry	Picture	17.414	n/a	2	6	17	n/a	117	107	3	n/a	n/a	n/a	n/a	235.628	BM08ANS.jpg
203.791	0.514	Blank	Blank	16.9	n/a	2	6	17	n/a	117	n/a	3	n/a	n/a	n/a	n/a	236.126	n/a
204.321	0.497	angry	Picture	16.386	n/a	2	6	18	n/a	118	98	3	n/a	n/a	n/a	n/a	236.656	BF29ANS.jpg
204.819	0.514	Blank	Blank	15.872	n/a	2	6	18	n/a	118	n/a	3	n/a	n/a	n/a	n/a	237.154	n/a
205.349	0.497	angry	Picture	15.358	n/a	2	6	19	n/a	119	99	3	n/a	n/a	n/a	n/a	237.684	AF31ANS.jpg
205.846	0.514	Blank	Blank	14.844	n/a	2	6	19	n/a	119	n/a	3	n/a	n/a	n/a	n/a	238.181	n/a
206.377	0.497	angry	Picture	14.331	n/a	2	6	20	n/a	120	108	3	n/a	n/a	n/a	n/a	238.712	AM09ANS.jpg
206.874	0.514	Blank	Blank	13.816	n/a	2	6	20	n/a	120	n/a	3	n/a	n/a	n/a	n/a	239.209	n/a
207.405	10.014	ITI	Fixation+	3.786	n/a	2	n/a	n/a	n/a	n/a	n/a	n/a	n/a	n/a	n/a	n/a	239.74	n/a
221.205	n/a	ConfirmRating	Rate	n/a	3.779	2	n/a	n/a	0	n/a	n/a	n/a	2	Angry	70	51	253.54	n/a
226.217	n/a	ConfirmRating	Rate	n/a	4.99	2	n/a	n/a	1	n/a	n/a	n/a	3	Angry	79	51	258.552	n/a
226.238	15.004	Rest	Picture	n/a	n/a	n/a	n/a	n/a	n/a	n/a	n/a	n/a	0	n/a	0	0	258.573	n/a
241.259	10.014	ITI	Fixation+	96.142	n/a	3	n/a	n/a	n/a	n/a	n/a	n/a	n/a	n/a	n/a	n/a	273.594	n/a
251.289	0.497	happy	Picture	95.628	n/a	3	7	1	n/a	1	46	2	n/a	n/a	n/a	n/a	283.624	AF09HAS.jpg
251.786	0.514	Blank	Blank	95.114	n/a	3	7	1	n/a	1	n/a	2	n/a	n/a	n/a	n/a	284.121	n/a
252.317	0.497	happy	Picture	94.601	n/a	3	7	2	n/a	2	69	2	n/a	n/a	n/a	n/a	284.652	AM10HAS.jpg
252.814	0.514	Blank	Blank	94.087	n/a	3	7	2	n/a	2	n/a	2	n/a	n/a	n/a	n/a	285.149	n/a
253.345	0.497	happy	Picture	93.573	n/a	3	7	3	n/a	3	71	2	n/a	n/a	n/a	n/a	285.68	BM12HAS.jpg
253.842	0.514	Blank	Blank	93.059	n/a	3	7	3	n/a	3	n/a	2	n/a	n/a	n/a	n/a	286.177	n/a
254.372	0.497	happy	Picture	92.545	n/a	3	7	4	n/a	4	51	2	n/a	n/a	n/a	n/a	286.707	AF20HAS.jpg
254.87	0.514	Blank	Blank	92.031	n/a	3	7	4	n/a	4	n/a	2	n/a	n/a	n/a	n/a	287.205	n/a
255.4	0.497	happy	Picture	91.517	n/a	3	7	5	n/a	5	67	2	n/a	n/a	n/a	n/a	287.735	BM08HAS.jpg
255.898	0.514	Blank	Blank	91.003	n/a	3	7	5	n/a	5	n/a	2	n/a	n/a	n/a	n/a	288.233	n/a
256.428	0.497	happy	Picture	90.489	n/a	3	7	6	n/a	6	60	2	n/a	n/a	n/a	n/a	288.763	AF32HAS.jpg
256.925	0.514	Blank	Blank	89.975	n/a	3	7	6	n/a	6	n/a	2	n/a	n/a	n/a	n/a	289.26	n/a
257.456	0.497	happy	Picture	89.461	n/a	3	7	7	n/a	7	42	2	n/a	n/a	n/a	n/a	289.791	AF03HAS.jpg
257.953	0.514	Blank	Blank	88.947	n/a	3	7	7	n/a	7	n/a	2	n/a	n/a	n/a	n/a	290.288	n/a
258.484	0.497	happy	Picture	88.433	n/a	3	7	8	n/a	8	55	2	n/a	n/a	n/a	n/a	290.819	AF25HAS.jpg
258.981	0.514	Blank	Blank	87.919	n/a	3	7	8	n/a	8	n/a	2	n/a	n/a	n/a	n/a	291.316	n/a
259.512	0.497	happy	Picture	87.405	n/a	3	7	9	n/a	9	72	2	n/a	n/a	n/a	n/a	291.847	AM14HAS.jpg
260.009	0.514	Blank	Blank	86.891	n/a	3	7	9	n/a	9	n/a	2	n/a	n/a	n/a	n/a	292.344	n/a
260.54	0.497	happy	Picture	86.377	n/a	3	7	10	n/a	10	63	2	n/a	n/a	n/a	n/a	292.875	AM04HAS.jpg
261.037	0.514	Blank	Blank	85.864	n/a	3	7	10	n/a	10	n/a	2	n/a	n/a	n/a	n/a	293.372	n/a
261.568	0.497	happy	Picture	85.35	n/a	3	7	11	n/a	11	58	2	n/a	n/a	n/a	n/a	293.903	BF29HAS.jpg
262.065	0.514	Blank	Blank	84.836	n/a	3	7	11	n/a	11	n/a	2	n/a	n/a	n/a	n/a	294.4	n/a
262.596	0.497	happy	Picture	84.322	n/a	3	7	12	n/a	12	48	2	n/a	n/a	n/a	n/a	294.93	AF14HAS.jpg
263.093	0.514	Blank	Blank	83.808	n/a	3	7	12	n/a	12	n/a	2	n/a	n/a	n/a	n/a	295.428	n/a
263.623	0.497	happy	Picture	83.294	n/a	3	7	13	n/a	13	66	2	n/a	n/a	n/a	n/a	295.958	BM07HAS.jpg
264.121	0.514	Blank	Blank	82.78	n/a	3	7	13	n/a	13	n/a	2	n/a	n/a	n/a	n/a	296.456	n/a
264.651	0.497	happy	Picture	82.266	n/a	3	7	14	n/a	14	70	2	n/a	n/a	n/a	n/a	296.986	BM11HAS.jpg
265.149	0.514	Blank	Blank	81.752	n/a	3	7	14	n/a	14	n/a	2	n/a	n/a	n/a	n/a	297.484	n/a
265.679	0.497	happy	Picture	81.238	n/a	3	7	15	n/a	15	43	2	n/a	n/a	n/a	n/a	298.014	BF04HAS.jpg
266.177	0.514	Blank	Blank	80.724	n/a	3	7	15	n/a	15	n/a	2	n/a	n/a	n/a	n/a	298.512	n/a
266.707	0.497	happy	Picture	80.21	n/a	3	7	16	n/a	16	49	2	n/a	n/a	n/a	n/a	299.042	AF17HAS.jpg
267.204	0.514	Blank	Blank	79.696	n/a	3	7	16	n/a	16	n/a	2	n/a	n/a	n/a	n/a	299.539	n/a
267.735	0.497	happy	Picture	79.182	n/a	3	7	17	n/a	17	75	2	n/a	n/a	n/a	n/a	300.07	AM23HAS.jpg
268.232	0.514	Blank	Blank	78.668	n/a	3	7	17	n/a	17	n/a	2	n/a	n/a	n/a	n/a	300.567	n/a
268.763	0.497	happy	Picture	78.154	n/a	3	7	18	n/a	18	80	2	n/a	n/a	n/a	n/a	301.098	BM35HAS.jpg
269.26	0.514	Blank	Blank	77.64	n/a	3	7	18	n/a	18	n/a	2	n/a	n/a	n/a	n/a	301.595	n/a
269.791	0.497	happy	Picture	77.126	n/a	3	7	19	n/a	19	76	2	n/a	n/a	n/a	n/a	302.126	BM24HAS.jpg
270.288	0.514	Blank	Blank	76.613	n/a	3	7	19	n/a	19	n/a	2	n/a	n/a	n/a	n/a	302.623	n/a
270.819	0.497	happy	Picture	76.099	n/a	3	7	20	n/a	20	74	2	n/a	n/a	n/a	n/a	303.154	AM22HAS.jpg
271.316	0.514	Blank	Blank	75.585	n/a	3	7	20	n/a	20	n/a	2	n/a	n/a	n/a	n/a	303.651	n/a
271.846	10.014	ITI	Fixation+	65.555	n/a	3	n/a	n/a	n/a	n/a	n/a	n/a	n/a	n/a	n/a	n/a	304.181	n/a
281.877	0.497	neutral	Picture	65.041	n/a	3	8	1	n/a	21	33	1	n/a	n/a	n/a	n/a	314.212	AM21NES.jpg
282.374	0.514	Blank	Blank	64.527	n/a	3	8	1	n/a	21	n/a	1	n/a	n/a	n/a	n/a	314.709	n/a
282.904	0.497	neutral	Picture	64.013	n/a	3	8	2	n/a	22	39	1	n/a	n/a	n/a	n/a	315.239	AM28NES.jpg
283.402	0.514	Blank	Blank	63.499	n/a	3	8	2	n/a	22	n/a	1	n/a	n/a	n/a	n/a	315.737	n/a
283.932	0.497	neutral	Picture	62.985	n/a	3	8	3	n/a	23	25	1	n/a	n/a	n/a	n/a	316.267	BM06NES.jpg
284.43	0.514	Blank	Blank	62.471	n/a	3	8	3	n/a	23	n/a	1	n/a	n/a	n/a	n/a	316.765	n/a
284.96	0.497	neutral	Picture	61.957	n/a	3	8	4	n/a	24	5	1	n/a	n/a	n/a	n/a	317.295	BF07NES.jpg
285.458	0.514	Blank	Blank	61.443	n/a	3	8	4	n/a	24	n/a	1	n/a	n/a	n/a	n/a	317.793	n/a
285.988	0.497	neutral	Picture	60.929	n/a	3	8	5	n/a	25	10	1	n/a	n/a	n/a	n/a	318.323	AF18NES.jpg
286.485	0.514	Blank	Blank	60.415	n/a	3	8	5	n/a	25	n/a	1	n/a	n/a	n/a	n/a	318.82	n/a
287.016	0.497	neutral	Picture	59.901	n/a	3	8	6	n/a	26	34	1	n/a	n/a	n/a	n/a	319.351	AM22NES.jpg
287.513	0.514	Blank	Blank	59.387	n/a	3	8	6	n/a	26	n/a	1	n/a	n/a	n/a	n/a	319.848	n/a
288.044	0.497	neutral	Picture	58.873	n/a	3	8	7	n/a	27	36	1	n/a	n/a	n/a	n/a	320.379	BM24NES.jpg
288.541	0.514	Blank	Blank	58.359	n/a	3	8	7	n/a	27	n/a	1	n/a	n/a	n/a	n/a	320.876	n/a
289.072	0.497	neutral	Picture	57.845	n/a	3	8	8	n/a	28	14	1	n/a	n/a	n/a	n/a	321.407	AF23NES.jpg
289.569	0.514	Blank	Blank	57.332	n/a	3	8	8	n/a	28	n/a	1	n/a	n/a	n/a	n/a	321.904	n/a
290.1	0.497	neutral	Picture	56.817	n/a	3	8	9	n/a	29	9	1	n/a	n/a	n/a	n/a	322.435	AF17NES.jpg
290.597	0.514	Blank	Blank	56.304	n/a	3	8	9	n/a	29	n/a	1	n/a	n/a	n/a	n/a	322.932	n/a
291.127	0.497	neutral	Picture	55.79	n/a	3	8	10	n/a	30	19	1	n/a	n/a	n/a	n/a	323.462	AF31NES.jpg
291.625	0.514	Blank	Blank	55.276	n/a	3	8	10	n/a	30	n/a	1	n/a	n/a	n/a	n/a	323.96	n/a
292.155	0.497	neutral	Picture	54.762	n/a	3	8	11	n/a	31	15	1	n/a	n/a	n/a	n/a	324.49	AF25NES.jpg
292.653	0.514	Blank	Blank	54.248	n/a	3	8	11	n/a	31	n/a	1	n/a	n/a	n/a	n/a	324.988	n/a
293.183	0.497	neutral	Picture	53.734	n/a	3	8	12	n/a	32	22	1	n/a	n/a	n/a	n/a	325.518	BM03NES.jpg
293.681	0.514	Blank	Blank	53.22	n/a	3	8	12	n/a	32	n/a	1	n/a	n/a	n/a	n/a	326.016	n/a
294.211	0.497	neutral	Picture	52.706	n/a	3	8	13	n/a	33	11	1	n/a	n/a	n/a	n/a	326.546	AF20NES.jpg
294.709	0.514	Blank	Blank	52.192	n/a	3	8	13	n/a	33	n/a	1	n/a	n/a	n/a	n/a	327.043	n/a
295.239	0.497	neutral	Picture	51.678	n/a	3	8	14	n/a	34	4	1	n/a	n/a	n/a	n/a	327.574	AF05NES.jpg
295.736	0.514	Blank	Blank	51.164	n/a	3	8	14	n/a	34	n/a	1	n/a	n/a	n/a	n/a	328.071	n/a
296.267	0.497	neutral	Picture	50.65	n/a	3	8	15	n/a	35	17	1	n/a	n/a	n/a	n/a	328.602	BF28NES.jpg
296.764	0.514	Blank	Blank	50.136	n/a	3	8	15	n/a	35	n/a	1	n/a	n/a	n/a	n/a	329.099	n/a
297.295	0.497	neutral	Picture	49.622	n/a	3	8	16	n/a	36	13	1	n/a	n/a	n/a	n/a	329.63	BF22NES.jpg
297.792	0.514	Blank	Blank	49.108	n/a	3	8	16	n/a	36	n/a	1	n/a	n/a	n/a	n/a	330.127	n/a
298.323	0.497	neutral	Picture	48.594	n/a	3	8	17	n/a	37	12	1	n/a	n/a	n/a	n/a	330.658	AF21NES.jpg
298.82	0.514	Blank	Blank	48.081	n/a	3	8	17	n/a	37	n/a	1	n/a	n/a	n/a	n/a	331.155	n/a
299.351	0.497	neutral	Picture	47.567	n/a	3	8	18	n/a	38	24	1	n/a	n/a	n/a	n/a	331.685	BM05NES.jpg
299.848	0.514	Blank	Blank	47.053	n/a	3	8	18	n/a	38	n/a	1	n/a	n/a	n/a	n/a	332.183	n/a
300.378	0.497	neutral	Picture	46.539	n/a	3	8	19	n/a	39	29	1	n/a	n/a	n/a	n/a	332.713	AM10NES.jpg
300.876	0.514	Blank	Blank	46.025	n/a	3	8	19	n/a	39	n/a	1	n/a	n/a	n/a	n/a	333.211	n/a
301.406	0.497	neutral	Picture	45.511	n/a	3	8	20	n/a	40	23	1	n/a	n/a	n/a	n/a	333.741	AM04NES.jpg
301.904	0.514	Blank	Blank	44.997	n/a	3	8	20	n/a	40	n/a	1	n/a	n/a	n/a	n/a	334.239	n/a
302.434	10.014	ITI	Fixation+	34.967	n/a	3	n/a	n/a	n/a	n/a	n/a	n/a	n/a	n/a	n/a	n/a	334.769	n/a
312.464	0.497	happy	Picture	34.453	n/a	3	9	1	n/a	41	62	2	n/a	n/a	n/a	n/a	344.799	BM03HAS.jpg
312.962	0.514	Blank	Blank	33.939	n/a	3	9	1	n/a	41	n/a	2	n/a	n/a	n/a	n/a	345.297	n/a
313.492	0.497	happy	Picture	33.425	n/a	3	9	2	n/a	42	52	2	n/a	n/a	n/a	n/a	345.827	AF21HAS.jpg
313.99	0.514	Blank	Blank	32.911	n/a	3	9	2	n/a	42	n/a	2	n/a	n/a	n/a	n/a	346.325	n/a
314.52	0.497	happy	Picture	32.397	n/a	3	9	3	n/a	43	44	2	n/a	n/a	n/a	n/a	346.855	AF05HAS.jpg
315.017	0.514	Blank	Blank	31.883	n/a	3	9	3	n/a	43	n/a	2	n/a	n/a	n/a	n/a	347.352	n/a
315.548	0.497	happy	Picture	31.369	n/a	3	9	4	n/a	44	53	2	n/a	n/a	n/a	n/a	347.883	BF22HAS.jpg
316.045	0.514	Blank	Blank	30.855	n/a	3	9	4	n/a	44	n/a	2	n/a	n/a	n/a	n/a	348.38	n/a
316.576	0.497	happy	Picture	30.341	n/a	3	9	5	n/a	45	54	2	n/a	n/a	n/a	n/a	348.911	AF23HAS.jpg
317.073	0.514	Blank	Blank	29.827	n/a	3	9	5	n/a	45	n/a	2	n/a	n/a	n/a	n/a	349.408	n/a
317.604	0.497	happy	Picture	29.313	n/a	3	9	6	n/a	46	68	2	n/a	n/a	n/a	n/a	349.939	AM09HAS.jpg
318.101	0.514	Blank	Blank	28.8	n/a	3	9	6	n/a	46	n/a	2	n/a	n/a	n/a	n/a	350.436	n/a
318.632	0.497	happy	Picture	28.285	n/a	3	9	7	n/a	47	64	2	n/a	n/a	n/a	n/a	350.967	BM05HAS.jpg
319.129	0.514	Blank	Blank	27.772	n/a	3	9	7	n/a	47	n/a	2	n/a	n/a	n/a	n/a	351.464	n/a
319.66	0.497	happy	Picture	27.258	n/a	3	9	8	n/a	48	59	2	n/a	n/a	n/a	n/a	351.995	AF31HAS.jpg
320.157	0.514	Blank	Blank	26.744	n/a	3	9	8	n/a	48	n/a	2	n/a	n/a	n/a	n/a	352.492	n/a
320.687	0.497	happy	Picture	26.23	n/a	3	9	9	n/a	49	41	2	n/a	n/a	n/a	n/a	353.022	AF01HAS.jpg
321.185	0.514	Blank	Blank	25.716	n/a	3	9	9	n/a	49	n/a	2	n/a	n/a	n/a	n/a	353.52	n/a
321.715	0.497	happy	Picture	25.202	n/a	3	9	10	n/a	50	73	2	n/a	n/a	n/a	n/a	354.05	AM21HAS.jpg
322.213	0.514	Blank	Blank	24.688	n/a	3	9	10	n/a	50	n/a	2	n/a	n/a	n/a	n/a	354.548	n/a
322.743	0.497	happy	Picture	24.174	n/a	3	9	11	n/a	51	65	2	n/a	n/a	n/a	n/a	355.078	BM06HAS.jpg
323.24	0.514	Blank	Blank	23.66	n/a	3	9	11	n/a	51	n/a	2	n/a	n/a	n/a	n/a	355.575	n/a
323.771	0.497	happy	Picture	23.146	n/a	3	9	12	n/a	52	56	2	n/a	n/a	n/a	n/a	356.106	AF26HAS.jpg
324.268	0.514	Blank	Blank	22.632	n/a	3	9	12	n/a	52	n/a	2	n/a	n/a	n/a	n/a	356.603	n/a
324.799	0.497	happy	Picture	22.118	n/a	3	9	13	n/a	53	45	2	n/a	n/a	n/a	n/a	357.134	BF07HAS.jpg
325.296	0.514	Blank	Blank	21.604	n/a	3	9	13	n/a	53	n/a	2	n/a	n/a	n/a	n/a	357.631	n/a
325.827	0.497	happy	Picture	21.09	n/a	3	9	14	n/a	54	78	2	n/a	n/a	n/a	n/a	358.162	BM26HAS.jpg
326.324	0.514	Blank	Blank	20.576	n/a	3	9	14	n/a	54	n/a	2	n/a	n/a	n/a	n/a	358.659	n/a
326.855	0.497	happy	Picture	20.063	n/a	3	9	15	n/a	55	50	2	n/a	n/a	n/a	n/a	359.19	AF18HAS.jpg
327.352	0.514	Blank	Blank	19.548	n/a	3	9	15	n/a	55	n/a	2	n/a	n/a	n/a	n/a	359.687	n/a
327.882	0.497	happy	Picture	19.035	n/a	3	9	16	n/a	56	47	2	n/a	n/a	n/a	n/a	360.217	BF11HAS.jpg
328.38	0.514	Blank	Blank	18.521	n/a	3	9	16	n/a	56	n/a	2	n/a	n/a	n/a	n/a	360.715	n/a
328.91	0.497	happy	Picture	18.007	n/a	3	9	17	n/a	57	77	2	n/a	n/a	n/a	n/a	361.245	BM25HAS.jpg
329.408	0.514	Blank	Blank	17.493	n/a	3	9	17	n/a	57	n/a	2	n/a	n/a	n/a	n/a	361.743	n/a
329.938	0.497	happy	Picture	16.979	n/a	3	9	18	n/a	58	57	2	n/a	n/a	n/a	n/a	362.273	BF28HAS.jpg
330.436	0.514	Blank	Blank	16.465	n/a	3	9	18	n/a	58	n/a	2	n/a	n/a	n/a	n/a	362.771	n/a
330.966	0.497	happy	Picture	15.951	n/a	3	9	19	n/a	59	61	2	n/a	n/a	n/a	n/a	363.301	AM01HAS.jpg
331.464	0.514	Blank	Blank	15.437	n/a	3	9	19	n/a	59	n/a	2	n/a	n/a	n/a	n/a	363.799	n/a
331.994	0.497	happy	Picture	14.923	n/a	3	9	20	n/a	60	79	2	n/a	n/a	n/a	n/a	364.329	BM28HAS.jpg
332.491	0.514	Blank	Blank	14.409	n/a	3	9	20	n/a	60	n/a	2	n/a	n/a	n/a	n/a	364.826	n/a
333.022	10.014	ITI	Fixation+	4.379	n/a	3	n/a	n/a	n/a	n/a	n/a	n/a	n/a	n/a	n/a	n/a	365.357	n/a
347.415	n/a	ConfirmRating	Rate	n/a	4.376	3	n/a	n/a	0	n/a	n/a	n/a	2	Happy	69	51	379.75	n/a
352.597	n/a	ConfirmRating	Rate	n/a	5.156	3	n/a	n/a	1	n/a	n/a	n/a	3	Happy	39	49	384.932	n/a
352.618	10.014	ITI	Fixation+	96.83	n/a	4	n/a	n/a	n/a	n/a	n/a	n/a	n/a	n/a	n/a	n/a	384.953	n/a
362.648	0.497	angry	Picture	96.316	n/a	4	10	1	n/a	61	119	3	n/a	n/a	n/a	n/a	394.983	BM28ANS.jpg
363.146	0.514	Blank	Blank	95.802	n/a	4	10	1	n/a	61	n/a	3	n/a	n/a	n/a	n/a	395.481	n/a
363.676	0.497	angry	Picture	95.288	n/a	4	10	2	n/a	62	100	3	n/a	n/a	n/a	n/a	396.011	AF32ANS.jpg
364.173	0.514	Blank	Blank	94.774	n/a	4	10	2	n/a	62	n/a	3	n/a	n/a	n/a	n/a	396.508	n/a
364.704	0.497	angry	Picture	94.26	n/a	4	10	3	n/a	63	118	3	n/a	n/a	n/a	n/a	397.039	BM26ANS.jpg
365.201	0.514	Blank	Blank	93.746	n/a	4	10	3	n/a	63	n/a	3	n/a	n/a	n/a	n/a	397.536	n/a
365.732	0.497	angry	Picture	93.232	n/a	4	10	4	n/a	64	89	3	n/a	n/a	n/a	n/a	398.067	AF17ANS.jpg
366.229	0.514	Blank	Blank	92.718	n/a	4	10	4	n/a	64	n/a	3	n/a	n/a	n/a	n/a	398.564	n/a
366.76	0.497	angry	Picture	92.204	n/a	4	10	5	n/a	65	116	3	n/a	n/a	n/a	n/a	399.095	BM24ANS.jpg
367.257	0.514	Blank	Blank	91.69	n/a	4	10	5	n/a	65	n/a	3	n/a	n/a	n/a	n/a	399.592	n/a
367.788	0.497	angry	Picture	91.177	n/a	4	10	6	n/a	66	105	3	n/a	n/a	n/a	n/a	400.123	BM06ANS.jpg
368.285	0.514	Blank	Blank	90.663	n/a	4	10	6	n/a	66	n/a	3	n/a	n/a	n/a	n/a	400.62	n/a
368.816	0.497	angry	Picture	90.149	n/a	4	10	7	n/a	67	106	3	n/a	n/a	n/a	n/a	401.151	AM07ANS.jpg
369.313	0.514	Blank	Blank	89.635	n/a	4	10	7	n/a	67	n/a	3	n/a	n/a	n/a	n/a	401.648	n/a
369.843	0.497	angry	Picture	89.121	n/a	4	10	8	n/a	68	94	3	n/a	n/a	n/a	n/a	402.178	AF23ANS.jpg
370.341	0.514	Blank	Blank	88.607	n/a	4	10	8	n/a	68	n/a	3	n/a	n/a	n/a	n/a	402.676	n/a
370.871	0.497	angry	Picture	88.093	n/a	4	10	9	n/a	69	117	3	n/a	n/a	n/a	n/a	403.206	BM25ANS.jpg
371.369	0.514	Blank	Blank	87.579	n/a	4	10	9	n/a	69	n/a	3	n/a	n/a	n/a	n/a	403.704	n/a
371.899	0.497	angry	Picture	87.065	n/a	4	10	10	n/a	70	90	3	n/a	n/a	n/a	n/a	404.234	AF18ANS.jpg
372.397	0.514	Blank	Blank	86.551	n/a	4	10	10	n/a	70	n/a	3	n/a	n/a	n/a	n/a	404.731	n/a
372.927	0.497	angry	Picture	86.037	n/a	4	10	11	n/a	71	83	3	n/a	n/a	n/a	n/a	405.262	BF04ANS.jpg
373.424	0.514	Blank	Blank	85.523	n/a	4	10	11	n/a	71	n/a	3	n/a	n/a	n/a	n/a	405.759	n/a
373.955	0.497	angry	Picture	85.009	n/a	4	10	12	n/a	72	112	3	n/a	n/a	n/a	n/a	406.29	AM14ANS.jpg
374.452	0.514	Blank	Blank	84.495	n/a	4	10	12	n/a	72	n/a	3	n/a	n/a	n/a	n/a	406.787	n/a
374.983	0.497	angry	Picture	83.981	n/a	4	10	13	n/a	73	102	3	n/a	n/a	n/a	n/a	407.318	BM03ANS.jpg
375.48	0.514	Blank	Blank	83.467	n/a	4	10	13	n/a	73	n/a	3	n/a	n/a	n/a	n/a	407.815	n/a
376.011	0.497	angry	Picture	82.953	n/a	4	10	14	n/a	74	95	3	n/a	n/a	n/a	n/a	408.346	AF25ANS.jpg
376.508	0.514	Blank	Blank	82.44	n/a	4	10	14	n/a	74	n/a	3	n/a	n/a	n/a	n/a	408.843	n/a
377.038	0.497	angry	Picture	81.925	n/a	4	10	15	n/a	75	113	3	n/a	n/a	n/a	n/a	409.373	AM21ANS.jpg
377.536	0.514	Blank	Blank	81.412	n/a	4	10	15	n/a	75	n/a	3	n/a	n/a	n/a	n/a	409.871	n/a
378.066	0.497	angry	Picture	80.898	n/a	4	10	16	n/a	76	88	3	n/a	n/a	n/a	n/a	410.401	AF14ANS.jpg
378.564	0.514	Blank	Blank	80.384	n/a	4	10	16	n/a	76	n/a	3	n/a	n/a	n/a	n/a	410.899	n/a
379.094	0.497	angry	Picture	79.87	n/a	4	10	17	n/a	77	93	3	n/a	n/a	n/a	n/a	411.429	BF22ANS.jpg
379.592	0.514	Blank	Blank	79.356	n/a	4	10	17	n/a	77	n/a	3	n/a	n/a	n/a	n/a	411.927	n/a
380.122	0.497	angry	Picture	78.842	n/a	4	10	18	n/a	78	86	3	n/a	n/a	n/a	n/a	412.457	AF09ANS.jpg
380.62	0.514	Blank	Blank	78.328	n/a	4	10	18	n/a	78	n/a	3	n/a	n/a	n/a	n/a	412.954	n/a
381.15	0.497	angry	Picture	77.814	n/a	4	10	19	n/a	79	92	3	n/a	n/a	n/a	n/a	413.485	AF21ANS.jpg
381.647	0.514	Blank	Blank	77.3	n/a	4	10	19	n/a	79	n/a	3	n/a	n/a	n/a	n/a	413.982	n/a
382.178	0.497	angry	Picture	76.786	n/a	4	10	20	n/a	80	84	3	n/a	n/a	n/a	n/a	414.513	AF05ANS.jpg
382.675	0.514	Blank	Blank	76.272	n/a	4	10	20	n/a	80	n/a	3	n/a	n/a	n/a	n/a	415.01	n/a
383.206	10.014	ITI	Fixation+	66.242	n/a	4	n/a	n/a	n/a	n/a	n/a	n/a	n/a	n/a	n/a	n/a	415.541	n/a
393.236	0.497	neutral	Picture	65.728	n/a	4	11	1	n/a	81	4	1	n/a	n/a	n/a	n/a	425.571	AF05NES.jpg
393.733	0.514	Blank	Blank	65.214	n/a	4	11	1	n/a	81	n/a	1	n/a	n/a	n/a	n/a	426.068	n/a
394.264	0.497	neutral	Picture	64.7	n/a	4	11	2	n/a	82	14	1	n/a	n/a	n/a	n/a	426.599	AF23NES.jpg
394.761	0.514	Blank	Blank	64.186	n/a	4	11	2	n/a	82	n/a	1	n/a	n/a	n/a	n/a	427.096	n/a
395.292	0.497	neutral	Picture	63.672	n/a	4	11	3	n/a	83	19	1	n/a	n/a	n/a	n/a	427.627	AF31NES.jpg
395.789	0.514	Blank	Blank	63.158	n/a	4	11	3	n/a	83	n/a	1	n/a	n/a	n/a	n/a	428.124	n/a
396.32	0.497	neutral	Picture	62.644	n/a	4	11	4	n/a	84	8	1	n/a	n/a	n/a	n/a	428.655	AF14NES.jpg
396.817	0.514	Blank	Blank	62.131	n/a	4	11	4	n/a	84	n/a	1	n/a	n/a	n/a	n/a	429.152	n/a
397.348	0.497	neutral	Picture	61.617	n/a	4	11	5	n/a	85	25	1	n/a	n/a	n/a	n/a	429.683	BM06NES.jpg
397.845	0.514	Blank	Blank	61.103	n/a	4	11	5	n/a	85	n/a	1	n/a	n/a	n/a	n/a	430.18	n/a
398.375	0.497	neutral	Picture	60.589	n/a	4	11	6	n/a	86	9	1	n/a	n/a	n/a	n/a	430.71	AF17NES.jpg
398.873	0.514	Blank	Blank	60.075	n/a	4	11	6	n/a	86	n/a	1	n/a	n/a	n/a	n/a	431.208	n/a
399.403	0.497	neutral	Picture	59.561	n/a	4	11	7	n/a	87	2	1	n/a	n/a	n/a	n/a	431.738	AF03NES.jpg
399.901	0.514	Blank	Blank	59.047	n/a	4	11	7	n/a	87	n/a	1	n/a	n/a	n/a	n/a	432.236	n/a
400.431	0.497	neutral	Picture	58.533	n/a	4	11	8	n/a	88	17	1	n/a	n/a	n/a	n/a	432.766	BF28NES.jpg
400.929	0.514	Blank	Blank	58.019	n/a	4	11	8	n/a	88	n/a	1	n/a	n/a	n/a	n/a	433.264	n/a
401.459	0.497	neutral	Picture	57.505	n/a	4	11	9	n/a	89	6	1	n/a	n/a	n/a	n/a	433.794	AF09NES.jpg
401.956	0.514	Blank	Blank	56.991	n/a	4	11	9	n/a	89	n/a	1	n/a	n/a	n/a	n/a	434.291	n/a
402.487	0.497	neutral	Picture	56.477	n/a	4	11	10	n/a	90	12	1	n/a	n/a	n/a	n/a	434.822	AF21NES.jpg
402.984	0.514	Blank	Blank	55.963	n/a	4	11	10	n/a	90	n/a	1	n/a	n/a	n/a	n/a	435.319	n/a
403.515	0.497	neutral	Picture	55.449	n/a	4	11	11	n/a	91	24	1	n/a	n/a	n/a	n/a	435.85	BM05NES.jpg
404.012	0.514	Blank	Blank	54.935	n/a	4	11	11	n/a	91	n/a	1	n/a	n/a	n/a	n/a	436.347	n/a
404.543	0.497	neutral	Picture	54.421	n/a	4	11	12	n/a	92	34	1	n/a	n/a	n/a	n/a	436.878	AM22NES.jpg
405.04	0.514	Blank	Blank	53.908	n/a	4	11	12	n/a	92	n/a	1	n/a	n/a	n/a	n/a	437.375	n/a
405.571	0.497	neutral	Picture	53.393	n/a	4	11	13	n/a	93	23	1	n/a	n/a	n/a	n/a	437.906	AM04NES.jpg
406.068	0.514	Blank	Blank	52.88	n/a	4	11	13	n/a	93	n/a	1	n/a	n/a	n/a	n/a	438.403	n/a
406.598	0.497	neutral	Picture	52.366	n/a	4	11	14	n/a	94	15	1	n/a	n/a	n/a	n/a	438.933	AF25NES.jpg
407.096	0.514	Blank	Blank	51.852	n/a	4	11	14	n/a	94	n/a	1	n/a	n/a	n/a	n/a	439.431	n/a
407.626	0.497	neutral	Picture	51.338	n/a	4	11	15	n/a	95	37	1	n/a	n/a	n/a	n/a	439.961	BM25NES.jpg
408.124	0.514	Blank	Blank	50.824	n/a	4	11	15	n/a	95	n/a	1	n/a	n/a	n/a	n/a	440.459	n/a
408.654	0.497	neutral	Picture	50.31	n/a	4	11	16	n/a	96	32	1	n/a	n/a	n/a	n/a	440.989	AM14NES.jpg
409.151	0.514	Blank	Blank	49.796	n/a	4	11	16	n/a	96	n/a	1	n/a	n/a	n/a	n/a	441.486	n/a
409.682	0.497	neutral	Picture	49.282	n/a	4	11	17	n/a	97	3	1	n/a	n/a	n/a	n/a	442.017	BF04NES.jpg
410.179	0.514	Blank	Blank	48.768	n/a	4	11	17	n/a	97	n/a	1	n/a	n/a	n/a	n/a	442.514	n/a
410.71	0.497	neutral	Picture	48.254	n/a	4	11	18	n/a	98	16	1	n/a	n/a	n/a	n/a	443.045	AF26NES.jpg
411.207	0.514	Blank	Blank	47.74	n/a	4	11	18	n/a	98	n/a	1	n/a	n/a	n/a	n/a	443.542	n/a
411.738	0.497	neutral	Picture	47.226	n/a	4	11	19	n/a	99	27	1	n/a	n/a	n/a	n/a	444.073	BM08NES.jpg
412.235	0.514	Blank	Blank	46.712	n/a	4	11	19	n/a	99	n/a	1	n/a	n/a	n/a	n/a	444.57	n/a
412.766	0.497	neutral	Picture	46.198	n/a	4	11	20	n/a	100	28	1	n/a	n/a	n/a	n/a	445.101	AM09NES.jpg
413.263	0.514	Blank	Blank	45.684	n/a	4	11	20	n/a	100	n/a	1	n/a	n/a	n/a	n/a	445.598	n/a
413.794	10.014	ITI	Fixation+	35.654	n/a	4	n/a	n/a	n/a	n/a	n/a	n/a	n/a	n/a	n/a	n/a	446.129	n/a
423.824	0.497	angry	Picture	35.14	n/a	4	12	1	n/a	101	81	3	n/a	n/a	n/a	n/a	456.159	AF01ANS.jpg
424.321	0.514	Blank	Blank	34.626	n/a	4	12	1	n/a	101	n/a	3	n/a	n/a	n/a	n/a	456.656	n/a
424.852	0.497	angry	Picture	34.112	n/a	4	12	2	n/a	102	120	3	n/a	n/a	n/a	n/a	457.187	AM35ANS.jpg
425.349	0.514	Blank	Blank	33.599	n/a	4	12	2	n/a	102	n/a	3	n/a	n/a	n/a	n/a	457.684	n/a
425.88	0.497	angry	Picture	33.085	n/a	4	12	3	n/a	103	114	3	n/a	n/a	n/a	n/a	458.214	AM22ANS.jpg
426.377	0.514	Blank	Blank	32.571	n/a	4	12	3	n/a	103	n/a	3	n/a	n/a	n/a	n/a	458.712	n/a
426.907	0.497	angry	Picture	32.057	n/a	4	12	4	n/a	104	109	3	n/a	n/a	n/a	n/a	459.242	AM10ANS.jpg
427.405	0.514	Blank	Blank	31.543	n/a	4	12	4	n/a	104	n/a	3	n/a	n/a	n/a	n/a	459.74	n/a
427.935	0.497	angry	Picture	31.029	n/a	4	12	5	n/a	105	96	3	n/a	n/a	n/a	n/a	460.27	AF26ANS.jpg
428.433	0.514	Blank	Blank	30.515	n/a	4	12	5	n/a	105	n/a	3	n/a	n/a	n/a	n/a	460.768	n/a
428.963	0.497	angry	Picture	30.001	n/a	4	12	6	n/a	106	82	3	n/a	n/a	n/a	n/a	461.298	AF03ANS.jpg
429.461	0.514	Blank	Blank	29.487	n/a	4	12	6	n/a	106	n/a	3	n/a	n/a	n/a	n/a	461.796	n/a
429.991	0.497	angry	Picture	28.973	n/a	4	12	7	n/a	107	97	3	n/a	n/a	n/a	n/a	462.326	BF28ANS.jpg
430.488	0.514	Blank	Blank	28.459	n/a	4	12	7	n/a	107	n/a	3	n/a	n/a	n/a	n/a	462.823	n/a
431.019	0.497	angry	Picture	27.945	n/a	4	12	8	n/a	108	115	3	n/a	n/a	n/a	n/a	463.354	AM23ANS.jpg
431.516	0.514	Blank	Blank	27.431	n/a	4	12	8	n/a	108	n/a	3	n/a	n/a	n/a	n/a	463.851	n/a
432.047	0.497	angry	Picture	26.917	n/a	4	12	9	n/a	109	91	3	n/a	n/a	n/a	n/a	464.382	AF20ANS.jpg
432.544	0.514	Blank	Blank	26.403	n/a	4	12	9	n/a	109	n/a	3	n/a	n/a	n/a	n/a	464.879	n/a
433.075	0.497	angry	Picture	25.889	n/a	4	12	10	n/a	110	87	3	n/a	n/a	n/a	n/a	465.41	BF11ANS.jpg
433.572	0.514	Blank	Blank	25.375	n/a	4	12	10	n/a	110	n/a	3	n/a	n/a	n/a	n/a	465.907	n/a
434.103	0.497	angry	Picture	24.861	n/a	4	12	11	n/a	111	85	3	n/a	n/a	n/a	n/a	466.438	BF07ANS.jpg
434.6	0.514	Blank	Blank	24.348	n/a	4	12	11	n/a	111	n/a	3	n/a	n/a	n/a	n/a	466.935	n/a
435.13	0.497	angry	Picture	23.834	n/a	4	12	12	n/a	112	110	3	n/a	n/a	n/a	n/a	467.465	AM11ANS.jpg
435.628	0.514	Blank	Blank	23.32	n/a	4	12	12	n/a	112	n/a	3	n/a	n/a	n/a	n/a	467.963	n/a
436.158	0.497	angry	Picture	22.806	n/a	4	12	13	n/a	113	111	3	n/a	n/a	n/a	n/a	468.493	BM12ANS.jpg
436.656	0.514	Blank	Blank	22.292	n/a	4	12	13	n/a	113	n/a	3	n/a	n/a	n/a	n/a	468.991	n/a
437.186	0.497	angry	Picture	21.778	n/a	4	12	14	n/a	114	103	3	n/a	n/a	n/a	n/a	469.521	AM04ANS.jpg
437.684	0.514	Blank	Blank	21.264	n/a	4	12	14	n/a	114	n/a	3	n/a	n/a	n/a	n/a	470.019	n/a
438.214	0.497	angry	Picture	20.75	n/a	4	12	15	n/a	115	101	3	n/a	n/a	n/a	n/a	470.549	AM01ANS.jpg
438.711	0.514	Blank	Blank	20.236	n/a	4	12	15	n/a	115	n/a	3	n/a	n/a	n/a	n/a	471.046	n/a
439.242	0.497	angry	Picture	19.722	n/a	4	12	16	n/a	116	104	3	n/a	n/a	n/a	n/a	471.577	BM05ANS.jpg
439.739	0.514	Blank	Blank	19.208	n/a	4	12	16	n/a	116	n/a	3	n/a	n/a	n/a	n/a	472.074	n/a
440.27	0.497	angry	Picture	18.694	n/a	4	12	17	n/a	117	107	3	n/a	n/a	n/a	n/a	472.605	BM08ANS.jpg
440.767	0.514	Blank	Blank	18.18	n/a	4	12	17	n/a	117	n/a	3	n/a	n/a	n/a	n/a	473.102	n/a
441.298	0.497	angry	Picture	17.666	n/a	4	12	18	n/a	118	98	3	n/a	n/a	n/a	n/a	473.633	BF29ANS.jpg
441.795	0.514	Blank	Blank	17.152	n/a	4	12	18	n/a	118	n/a	3	n/a	n/a	n/a	n/a	474.13	n/a
442.326	0.497	angry	Picture	16.638	n/a	4	12	19	n/a	119	99	3	n/a	n/a	n/a	n/a	474.661	AF31ANS.jpg
442.823	0.514	Blank	Blank	16.125	n/a	4	12	19	n/a	119	n/a	3	n/a	n/a	n/a	n/a	475.158	n/a
443.353	0.497	angry	Picture	15.611	n/a	4	12	20	n/a	120	108	3	n/a	n/a	n/a	n/a	475.688	AM09ANS.jpg
443.851	0.514	Blank	Blank	15.097	n/a	4	12	20	n/a	120	n/a	3	n/a	n/a	n/a	n/a	476.186	n/a
444.381	10.014	ITI	Fixation+	5.066	n/a	4	n/a	n/a	n/a	n/a	n/a	n/a	n/a	n/a	n/a	n/a	476.716	n/a
459.461	n/a	ConfirmRating	Rate	n/a	5.057	4	n/a	n/a	0	n/a	n/a	n/a	2	Angry	67	51	491.796	n/a
462.798	n/a	ConfirmRating	Rate	n/a	3.316	4	n/a	n/a	1	n/a	n/a	n/a	3	Angry	61	51	495.133	n/a
