onset	duration	trial_type	event_type	time_until_response	response_time	trial_number	block_num_within_trial	image_seq_num_within_block	question_seq_num_within_block	image_seq_num	picture_number	condition	question_type	block_type	rating	rating_computed	onset_uncorrected	KDEV_imagefile
0.003	10.014	ITI	Fixation+	99.836	n/a	1	n/a	n/a	n/a	n/a	n/a	n/a	n/a	n/a	n/a	n/a	30.831	n/a
10.033	0.497	happy	Picture	99.322	n/a	1	1	1	n/a	1	108	3	n/a	n/a	n/a	n/a	40.861	AM09ANS.jpg
10.53	0.514	Blank	Blank	98.808	n/a	1	1	1	n/a	1	n/a	3	n/a	n/a	n/a	n/a	41.359	n/a
11.061	0.497	happy	Picture	98.295	n/a	1	1	2	n/a	2	99	3	n/a	n/a	n/a	n/a	41.889	AF31ANS.jpg
11.558	0.514	Blank	Blank	97.781	n/a	1	1	2	n/a	2	n/a	3	n/a	n/a	n/a	n/a	42.386	n/a
12.089	0.497	happy	Picture	97.267	n/a	1	1	3	n/a	3	98	3	n/a	n/a	n/a	n/a	42.917	BF29ANS.jpg
12.586	0.514	Blank	Blank	96.753	n/a	1	1	3	n/a	3	n/a	3	n/a	n/a	n/a	n/a	43.414	n/a
13.117	0.497	happy	Picture	96.239	n/a	1	1	4	n/a	4	107	3	n/a	n/a	n/a	n/a	43.945	BM08ANS.jpg
13.614	0.514	Blank	Blank	95.725	n/a	1	1	4	n/a	4	n/a	3	n/a	n/a	n/a	n/a	44.442	n/a
14.145	0.497	happy	Picture	95.211	n/a	1	1	5	n/a	5	104	3	n/a	n/a	n/a	n/a	44.973	BM05ANS.jpg
14.642	0.514	Blank	Blank	94.697	n/a	1	1	5	n/a	5	n/a	3	n/a	n/a	n/a	n/a	45.47	n/a
15.172	0.497	happy	Picture	94.183	n/a	1	1	6	n/a	6	101	3	n/a	n/a	n/a	n/a	46.001	AM01ANS.jpg
15.67	0.514	Blank	Blank	93.669	n/a	1	1	6	n/a	6	n/a	3	n/a	n/a	n/a	n/a	46.498	n/a
16.2	0.497	happy	Picture	93.155	n/a	1	1	7	n/a	7	103	3	n/a	n/a	n/a	n/a	47.029	AM04ANS.jpg
16.698	0.514	Blank	Blank	92.641	n/a	1	1	7	n/a	7	n/a	3	n/a	n/a	n/a	n/a	47.526	n/a
17.228	0.497	happy	Picture	92.127	n/a	1	1	8	n/a	8	111	3	n/a	n/a	n/a	n/a	48.056	BM12ANS.jpg
17.726	0.514	Blank	Blank	91.613	n/a	1	1	8	n/a	8	n/a	3	n/a	n/a	n/a	n/a	48.554	n/a
18.256	0.497	happy	Picture	91.099	n/a	1	1	9	n/a	9	110	3	n/a	n/a	n/a	n/a	49.084	AM11ANS.jpg
18.753	0.514	Blank	Blank	90.585	n/a	1	1	9	n/a	9	n/a	3	n/a	n/a	n/a	n/a	49.582	n/a
19.284	0.497	happy	Picture	90.071	n/a	1	1	10	n/a	10	85	3	n/a	n/a	n/a	n/a	50.112	BF07ANS.jpg
19.781	0.514	Blank	Blank	89.558	n/a	1	1	10	n/a	10	n/a	3	n/a	n/a	n/a	n/a	50.61	n/a
20.312	0.497	happy	Picture	89.044	n/a	1	1	11	n/a	11	87	3	n/a	n/a	n/a	n/a	51.14	BF11ANS.jpg
20.809	0.514	Blank	Blank	88.53	n/a	1	1	11	n/a	11	n/a	3	n/a	n/a	n/a	n/a	51.637	n/a
21.34	0.497	happy	Picture	88.016	n/a	1	1	12	n/a	12	91	3	n/a	n/a	n/a	n/a	52.168	AF20ANS.jpg
21.837	0.514	Blank	Blank	87.502	n/a	1	1	12	n/a	12	n/a	3	n/a	n/a	n/a	n/a	52.665	n/a
22.367	0.497	happy	Picture	86.988	n/a	1	1	13	n/a	13	115	3	n/a	n/a	n/a	n/a	53.196	AM23ANS.jpg
22.865	0.514	Blank	Blank	86.474	n/a	1	1	13	n/a	13	n/a	3	n/a	n/a	n/a	n/a	53.693	n/a
23.395	0.497	happy	Picture	85.96	n/a	1	1	14	n/a	14	97	3	n/a	n/a	n/a	n/a	54.224	BF28ANS.jpg
23.893	0.514	Blank	Blank	85.446	n/a	1	1	14	n/a	14	n/a	3	n/a	n/a	n/a	n/a	54.721	n/a
24.423	0.497	happy	Picture	84.932	n/a	1	1	15	n/a	15	82	3	n/a	n/a	n/a	n/a	55.252	AF03ANS.jpg
24.921	0.514	Blank	Blank	84.418	n/a	1	1	15	n/a	15	n/a	3	n/a	n/a	n/a	n/a	55.749	n/a
25.451	0.497	happy	Picture	83.904	n/a	1	1	16	n/a	16	96	3	n/a	n/a	n/a	n/a	56.279	AF26ANS.jpg
25.949	0.514	Blank	Blank	83.39	n/a	1	1	16	n/a	16	n/a	3	n/a	n/a	n/a	n/a	56.777	n/a
26.479	0.497	happy	Picture	82.876	n/a	1	1	17	n/a	17	109	3	n/a	n/a	n/a	n/a	57.307	AM10ANS.jpg
26.976	0.514	Blank	Blank	82.362	n/a	1	1	17	n/a	17	n/a	3	n/a	n/a	n/a	n/a	57.805	n/a
27.507	0.497	happy	Picture	81.848	n/a	1	1	18	n/a	18	114	3	n/a	n/a	n/a	n/a	58.335	AM22ANS.jpg
28.004	0.514	Blank	Blank	81.334	n/a	1	1	18	n/a	18	n/a	3	n/a	n/a	n/a	n/a	58.833	n/a
28.535	0.497	happy	Picture	80.821	n/a	1	1	19	n/a	19	120	3	n/a	n/a	n/a	n/a	59.363	AM35ANS.jpg
29.032	0.514	Blank	Blank	80.307	n/a	1	1	19	n/a	19	n/a	3	n/a	n/a	n/a	n/a	59.861	n/a
29.563	0.497	happy	Picture	79.793	n/a	1	1	20	n/a	20	81	3	n/a	n/a	n/a	n/a	60.391	AF01ANS.jpg
30.06	0.514	Blank	Blank	79.279	n/a	1	1	20	n/a	20	n/a	3	n/a	n/a	n/a	n/a	60.888	n/a
30.591	10.014	ITI	Fixation+	69.249	n/a	1	n/a	n/a	n/a	n/a	n/a	n/a	n/a	n/a	n/a	n/a	61.419	n/a
40.621	0.497	neutral	Picture	68.735	n/a	1	2	1	n/a	21	28	1	n/a	n/a	n/a	n/a	71.449	AM09NES.jpg
41.118	0.514	Blank	Blank	68.221	n/a	1	2	1	n/a	21	n/a	1	n/a	n/a	n/a	n/a	71.946	n/a
41.649	0.497	neutral	Picture	67.707	n/a	1	2	2	n/a	22	27	1	n/a	n/a	n/a	n/a	72.477	BM08NES.jpg
42.146	0.514	Blank	Blank	67.193	n/a	1	2	2	n/a	22	n/a	1	n/a	n/a	n/a	n/a	72.974	n/a
42.677	0.497	neutral	Picture	66.679	n/a	1	2	3	n/a	23	16	1	n/a	n/a	n/a	n/a	73.505	AF26NES.jpg
43.174	0.514	Blank	Blank	66.165	n/a	1	2	3	n/a	23	n/a	1	n/a	n/a	n/a	n/a	74.002	n/a
43.704	0.497	neutral	Picture	65.651	n/a	1	2	4	n/a	24	3	1	n/a	n/a	n/a	n/a	74.533	BF04NES.jpg
44.202	0.514	Blank	Blank	65.137	n/a	1	2	4	n/a	24	n/a	1	n/a	n/a	n/a	n/a	75.03	n/a
44.732	0.497	neutral	Picture	64.623	n/a	1	2	5	n/a	25	32	1	n/a	n/a	n/a	n/a	75.561	AM14NES.jpg
45.23	0.514	Blank	Blank	64.109	n/a	1	2	5	n/a	25	n/a	1	n/a	n/a	n/a	n/a	76.058	n/a
45.76	0.497	neutral	Picture	63.595	n/a	1	2	6	n/a	26	37	1	n/a	n/a	n/a	n/a	76.588	BM25NES.jpg
46.258	0.514	Blank	Blank	63.081	n/a	1	2	6	n/a	26	n/a	1	n/a	n/a	n/a	n/a	77.086	n/a
46.788	0.497	neutral	Picture	62.567	n/a	1	2	7	n/a	27	15	1	n/a	n/a	n/a	n/a	77.616	AF25NES.jpg
47.285	0.514	Blank	Blank	62.053	n/a	1	2	7	n/a	27	n/a	1	n/a	n/a	n/a	n/a	78.114	n/a
47.816	0.497	neutral	Picture	61.539	n/a	1	2	8	n/a	28	23	1	n/a	n/a	n/a	n/a	78.644	AM04NES.jpg
48.313	0.514	Blank	Blank	61.026	n/a	1	2	8	n/a	28	n/a	1	n/a	n/a	n/a	n/a	79.142	n/a
48.844	0.497	neutral	Picture	60.512	n/a	1	2	9	n/a	29	34	1	n/a	n/a	n/a	n/a	79.672	AM22NES.jpg
49.341	0.514	Blank	Blank	59.998	n/a	1	2	9	n/a	29	n/a	1	n/a	n/a	n/a	n/a	80.169	n/a
49.872	0.497	neutral	Picture	59.484	n/a	1	2	10	n/a	30	24	1	n/a	n/a	n/a	n/a	80.7	BM05NES.jpg
50.369	0.514	Blank	Blank	58.97	n/a	1	2	10	n/a	30	n/a	1	n/a	n/a	n/a	n/a	81.197	n/a
50.9	0.497	neutral	Picture	58.456	n/a	1	2	11	n/a	31	12	1	n/a	n/a	n/a	n/a	81.728	AF21NES.jpg
51.397	0.514	Blank	Blank	57.942	n/a	1	2	11	n/a	31	n/a	1	n/a	n/a	n/a	n/a	82.225	n/a
51.927	0.497	neutral	Picture	57.428	n/a	1	2	12	n/a	32	6	1	n/a	n/a	n/a	n/a	82.756	AF09NES.jpg
52.425	0.514	Blank	Blank	56.914	n/a	1	2	12	n/a	32	n/a	1	n/a	n/a	n/a	n/a	83.253	n/a
52.955	0.497	neutral	Picture	56.4	n/a	1	2	13	n/a	33	17	1	n/a	n/a	n/a	n/a	83.784	BF28NES.jpg
53.453	0.514	Blank	Blank	55.886	n/a	1	2	13	n/a	33	n/a	1	n/a	n/a	n/a	n/a	84.281	n/a
53.983	0.497	neutral	Picture	55.372	n/a	1	2	14	n/a	34	2	1	n/a	n/a	n/a	n/a	84.811	AF03NES.jpg
54.481	0.514	Blank	Blank	54.858	n/a	1	2	14	n/a	34	n/a	1	n/a	n/a	n/a	n/a	85.309	n/a
55.011	0.497	neutral	Picture	54.344	n/a	1	2	15	n/a	35	9	1	n/a	n/a	n/a	n/a	85.839	AF17NES.jpg
55.508	0.514	Blank	Blank	53.83	n/a	1	2	15	n/a	35	n/a	1	n/a	n/a	n/a	n/a	86.337	n/a
56.039	0.497	neutral	Picture	53.316	n/a	1	2	16	n/a	36	25	1	n/a	n/a	n/a	n/a	86.867	BM06NES.jpg
56.536	0.514	Blank	Blank	52.802	n/a	1	2	16	n/a	36	n/a	1	n/a	n/a	n/a	n/a	87.365	n/a
57.067	0.497	neutral	Picture	52.289	n/a	1	2	17	n/a	37	8	1	n/a	n/a	n/a	n/a	87.895	AF14NES.jpg
57.564	0.514	Blank	Blank	51.775	n/a	1	2	17	n/a	37	n/a	1	n/a	n/a	n/a	n/a	88.392	n/a
58.095	0.497	neutral	Picture	51.261	n/a	1	2	18	n/a	38	19	1	n/a	n/a	n/a	n/a	88.923	AF31NES.jpg
58.592	0.514	Blank	Blank	50.747	n/a	1	2	18	n/a	38	n/a	1	n/a	n/a	n/a	n/a	89.42	n/a
59.123	0.497	neutral	Picture	50.233	n/a	1	2	19	n/a	39	14	1	n/a	n/a	n/a	n/a	89.951	AF23NES.jpg
59.62	0.514	Blank	Blank	49.719	n/a	1	2	19	n/a	39	n/a	1	n/a	n/a	n/a	n/a	90.448	n/a
60.151	0.497	neutral	Picture	49.205	n/a	1	2	20	n/a	40	4	1	n/a	n/a	n/a	n/a	90.979	AF05NES.jpg
60.648	0.514	Blank	Blank	48.691	n/a	1	2	20	n/a	40	n/a	1	n/a	n/a	n/a	n/a	91.476	n/a
61.178	10.014	ITI	Fixation+	38.661	n/a	1	n/a	n/a	n/a	n/a	n/a	n/a	n/a	n/a	n/a	n/a	92.007	n/a
71.209	0.497	happy	Picture	38.147	n/a	1	3	1	n/a	41	84	3	n/a	n/a	n/a	n/a	102.037	AF05ANS.jpg
71.706	0.514	Blank	Blank	37.633	n/a	1	3	1	n/a	41	n/a	3	n/a	n/a	n/a	n/a	102.534	n/a
72.236	0.497	happy	Picture	37.119	n/a	1	3	2	n/a	42	92	3	n/a	n/a	n/a	n/a	103.065	AF21ANS.jpg
72.734	0.514	Blank	Blank	36.605	n/a	1	3	2	n/a	42	n/a	3	n/a	n/a	n/a	n/a	103.562	n/a
73.264	0.498	happy	Picture	36.091	n/a	1	3	3	n/a	43	86	3	n/a	n/a	n/a	n/a	104.092	AF09ANS.jpg
73.762	0.514	Blank	Blank	35.577	n/a	1	3	3	n/a	43	n/a	3	n/a	n/a	n/a	n/a	104.59	n/a
74.292	0.497	happy	Picture	35.063	n/a	1	3	4	n/a	44	93	3	n/a	n/a	n/a	n/a	105.121	BF22ANS.jpg
74.79	0.514	Blank	Blank	34.549	n/a	1	3	4	n/a	44	n/a	3	n/a	n/a	n/a	n/a	105.618	n/a
75.32	0.497	happy	Picture	34.035	n/a	1	3	5	n/a	45	88	3	n/a	n/a	n/a	n/a	106.148	AF14ANS.jpg
75.817	0.514	Blank	Blank	33.521	n/a	1	3	5	n/a	45	n/a	3	n/a	n/a	n/a	n/a	106.646	n/a
76.348	0.497	happy	Picture	33.007	n/a	1	3	6	n/a	46	113	3	n/a	n/a	n/a	n/a	107.176	AM21ANS.jpg
76.845	0.514	Blank	Blank	32.494	n/a	1	3	6	n/a	46	n/a	3	n/a	n/a	n/a	n/a	107.674	n/a
77.376	0.497	happy	Picture	31.98	n/a	1	3	7	n/a	47	95	3	n/a	n/a	n/a	n/a	108.204	AF25ANS.jpg
77.873	0.514	Blank	Blank	31.466	n/a	1	3	7	n/a	47	n/a	3	n/a	n/a	n/a	n/a	108.701	n/a
78.404	0.497	happy	Picture	30.952	n/a	1	3	8	n/a	48	102	3	n/a	n/a	n/a	n/a	109.232	BM03ANS.jpg
78.901	0.514	Blank	Blank	30.438	n/a	1	3	8	n/a	48	n/a	3	n/a	n/a	n/a	n/a	109.729	n/a
79.432	0.497	happy	Picture	29.924	n/a	1	3	9	n/a	49	112	3	n/a	n/a	n/a	n/a	110.26	AM14ANS.jpg
79.929	0.514	Blank	Blank	29.41	n/a	1	3	9	n/a	49	n/a	3	n/a	n/a	n/a	n/a	110.757	n/a
80.46	0.497	happy	Picture	28.896	n/a	1	3	10	n/a	50	83	3	n/a	n/a	n/a	n/a	111.288	BF04ANS.jpg
80.957	0.514	Blank	Blank	28.382	n/a	1	3	10	n/a	50	n/a	3	n/a	n/a	n/a	n/a	111.785	n/a
81.487	0.497	happy	Picture	27.868	n/a	1	3	11	n/a	51	90	3	n/a	n/a	n/a	n/a	112.316	AF18ANS.jpg
81.985	0.514	Blank	Blank	27.354	n/a	1	3	11	n/a	51	n/a	3	n/a	n/a	n/a	n/a	112.813	n/a
82.515	0.497	happy	Picture	26.84	n/a	1	3	12	n/a	52	117	3	n/a	n/a	n/a	n/a	113.344	BM25ANS.jpg
83.013	0.514	Blank	Blank	26.326	n/a	1	3	12	n/a	52	n/a	3	n/a	n/a	n/a	n/a	113.841	n/a
83.543	0.497	happy	Picture	25.812	n/a	1	3	13	n/a	53	94	3	n/a	n/a	n/a	n/a	114.371	AF23ANS.jpg
84.04	0.514	Blank	Blank	25.298	n/a	1	3	13	n/a	53	n/a	3	n/a	n/a	n/a	n/a	114.869	n/a
84.571	0.497	happy	Picture	24.784	n/a	1	3	14	n/a	54	106	3	n/a	n/a	n/a	n/a	115.399	AM07ANS.jpg
85.068	0.514	Blank	Blank	24.27	n/a	1	3	14	n/a	54	n/a	3	n/a	n/a	n/a	n/a	115.897	n/a
85.599	0.497	happy	Picture	23.757	n/a	1	3	15	n/a	55	105	3	n/a	n/a	n/a	n/a	116.427	BM06ANS.jpg
86.096	0.514	Blank	Blank	23.243	n/a	1	3	15	n/a	55	n/a	3	n/a	n/a	n/a	n/a	116.924	n/a
86.627	0.497	happy	Picture	22.729	n/a	1	3	16	n/a	56	116	3	n/a	n/a	n/a	n/a	117.455	BM24ANS.jpg
87.124	0.514	Blank	Blank	22.215	n/a	1	3	16	n/a	56	n/a	3	n/a	n/a	n/a	n/a	117.952	n/a
87.655	0.497	happy	Picture	21.701	n/a	1	3	17	n/a	57	89	3	n/a	n/a	n/a	n/a	118.483	AF17ANS.jpg
88.152	0.514	Blank	Blank	21.187	n/a	1	3	17	n/a	57	n/a	3	n/a	n/a	n/a	n/a	118.98	n/a
88.683	0.497	happy	Picture	20.673	n/a	1	3	18	n/a	58	118	3	n/a	n/a	n/a	n/a	119.511	BM26ANS.jpg
89.18	0.514	Blank	Blank	20.159	n/a	1	3	18	n/a	58	n/a	3	n/a	n/a	n/a	n/a	120.008	n/a
89.71	0.497	happy	Picture	19.645	n/a	1	3	19	n/a	59	100	3	n/a	n/a	n/a	n/a	120.539	AF32ANS.jpg
90.208	0.514	Blank	Blank	19.131	n/a	1	3	19	n/a	59	n/a	3	n/a	n/a	n/a	n/a	121.036	n/a
90.738	0.497	happy	Picture	18.617	n/a	1	3	20	n/a	60	119	3	n/a	n/a	n/a	n/a	121.567	BM28ANS.jpg
91.236	0.514	Blank	Blank	18.103	n/a	1	3	20	n/a	60	n/a	3	n/a	n/a	n/a	n/a	122.064	n/a
91.766	10.014	ITI	Fixation+	8.073	n/a	1	n/a	n/a	n/a	n/a	n/a	n/a	n/a	n/a	n/a	n/a	122.594	n/a
109.853	n/a	ConfirmRating	Rate	n/a	8.057	1	n/a	n/a	0	n/a	n/a	n/a	2	Happy	70	52	140.681	n/a
114.08	n/a	ConfirmRating	Rate	n/a	4.211	1	n/a	n/a	1	n/a	n/a	n/a	3	Happy	0	49	144.908	n/a
114.098	10.014	ITI	Fixation+	96.791	n/a	2	n/a	n/a	n/a	n/a	n/a	n/a	n/a	n/a	n/a	n/a	144.926	n/a
124.128	0.497	angry	Picture	96.277	n/a	2	4	1	n/a	61	79	2	n/a	n/a	n/a	n/a	154.956	BM28HAS.jpg
124.625	0.514	Blank	Blank	95.763	n/a	2	4	1	n/a	61	n/a	2	n/a	n/a	n/a	n/a	155.453	n/a
125.156	0.497	angry	Picture	95.25	n/a	2	4	2	n/a	62	61	2	n/a	n/a	n/a	n/a	155.984	AM01HAS.jpg
125.653	0.514	Blank	Blank	94.736	n/a	2	4	2	n/a	62	n/a	2	n/a	n/a	n/a	n/a	156.481	n/a
126.184	0.497	angry	Picture	94.222	n/a	2	4	3	n/a	63	57	2	n/a	n/a	n/a	n/a	157.012	BF28HAS.jpg
126.681	0.514	Blank	Blank	93.708	n/a	2	4	3	n/a	63	n/a	2	n/a	n/a	n/a	n/a	157.509	n/a
127.212	0.497	angry	Picture	93.194	n/a	2	4	4	n/a	64	77	2	n/a	n/a	n/a	n/a	158.04	BM25HAS.jpg
127.709	0.514	Blank	Blank	92.68	n/a	2	4	4	n/a	64	n/a	2	n/a	n/a	n/a	n/a	158.537	n/a
128.239	0.497	angry	Picture	92.166	n/a	2	4	5	n/a	65	47	2	n/a	n/a	n/a	n/a	159.068	BF11HAS.jpg
128.737	0.514	Blank	Blank	91.652	n/a	2	4	5	n/a	65	n/a	2	n/a	n/a	n/a	n/a	159.565	n/a
129.267	0.497	angry	Picture	91.138	n/a	2	4	6	n/a	66	50	2	n/a	n/a	n/a	n/a	160.096	AF18HAS.jpg
129.765	0.514	Blank	Blank	90.624	n/a	2	4	6	n/a	66	n/a	2	n/a	n/a	n/a	n/a	160.593	n/a
130.295	0.497	angry	Picture	90.11	n/a	2	4	7	n/a	67	78	2	n/a	n/a	n/a	n/a	161.124	BM26HAS.jpg
130.793	0.514	Blank	Blank	89.596	n/a	2	4	7	n/a	67	n/a	2	n/a	n/a	n/a	n/a	161.621	n/a
131.323	0.497	angry	Picture	89.082	n/a	2	4	8	n/a	68	45	2	n/a	n/a	n/a	n/a	162.151	BF07HAS.jpg
131.82	0.514	Blank	Blank	88.568	n/a	2	4	8	n/a	68	n/a	2	n/a	n/a	n/a	n/a	162.649	n/a
132.351	0.497	angry	Picture	88.054	n/a	2	4	9	n/a	69	56	2	n/a	n/a	n/a	n/a	163.179	AF26HAS.jpg
132.848	0.514	Blank	Blank	87.54	n/a	2	4	9	n/a	69	n/a	2	n/a	n/a	n/a	n/a	163.677	n/a
133.379	0.497	angry	Picture	87.026	n/a	2	4	10	n/a	70	65	2	n/a	n/a	n/a	n/a	164.207	BM06HAS.jpg
133.876	0.514	Blank	Blank	86.513	n/a	2	4	10	n/a	70	n/a	2	n/a	n/a	n/a	n/a	164.704	n/a
134.407	0.497	angry	Picture	85.999	n/a	2	4	11	n/a	71	73	2	n/a	n/a	n/a	n/a	165.235	AM21HAS.jpg
134.904	0.514	Blank	Blank	85.485	n/a	2	4	11	n/a	71	n/a	2	n/a	n/a	n/a	n/a	165.732	n/a
135.435	0.497	angry	Picture	84.971	n/a	2	4	12	n/a	72	41	2	n/a	n/a	n/a	n/a	166.263	AF01HAS.jpg
135.932	0.514	Blank	Blank	84.457	n/a	2	4	12	n/a	72	n/a	2	n/a	n/a	n/a	n/a	166.76	n/a
136.462	0.497	angry	Picture	83.943	n/a	2	4	13	n/a	73	59	2	n/a	n/a	n/a	n/a	167.291	AF31HAS.jpg
136.96	0.514	Blank	Blank	83.429	n/a	2	4	13	n/a	73	n/a	2	n/a	n/a	n/a	n/a	167.788	n/a
137.49	0.497	angry	Picture	82.915	n/a	2	4	14	n/a	74	64	2	n/a	n/a	n/a	n/a	168.319	BM05HAS.jpg
137.988	0.514	Blank	Blank	82.401	n/a	2	4	14	n/a	74	n/a	2	n/a	n/a	n/a	n/a	168.816	n/a
138.518	0.497	angry	Picture	81.887	n/a	2	4	15	n/a	75	68	2	n/a	n/a	n/a	n/a	169.346	AM09HAS.jpg
139.016	0.514	Blank	Blank	81.373	n/a	2	4	15	n/a	75	n/a	2	n/a	n/a	n/a	n/a	169.844	n/a
139.546	0.497	angry	Picture	80.859	n/a	2	4	16	n/a	76	54	2	n/a	n/a	n/a	n/a	170.374	AF23HAS.jpg
140.043	0.514	Blank	Blank	80.345	n/a	2	4	16	n/a	76	n/a	2	n/a	n/a	n/a	n/a	170.872	n/a
140.574	0.497	angry	Picture	79.831	n/a	2	4	17	n/a	77	53	2	n/a	n/a	n/a	n/a	171.402	BF22HAS.jpg
141.071	0.514	Blank	Blank	79.317	n/a	2	4	17	n/a	77	n/a	2	n/a	n/a	n/a	n/a	171.9	n/a
141.602	0.497	angry	Picture	78.803	n/a	2	4	18	n/a	78	44	2	n/a	n/a	n/a	n/a	172.43	AF05HAS.jpg
142.099	0.514	Blank	Blank	78.289	n/a	2	4	18	n/a	78	n/a	2	n/a	n/a	n/a	n/a	172.928	n/a
142.63	0.497	angry	Picture	77.776	n/a	2	4	19	n/a	79	52	2	n/a	n/a	n/a	n/a	173.458	AF21HAS.jpg
143.127	0.514	Blank	Blank	77.262	n/a	2	4	19	n/a	79	n/a	2	n/a	n/a	n/a	n/a	173.955	n/a
143.658	0.497	angry	Picture	76.748	n/a	2	4	20	n/a	80	62	2	n/a	n/a	n/a	n/a	174.486	BM03HAS.jpg
144.155	0.514	Blank	Blank	76.234	n/a	2	4	20	n/a	80	n/a	2	n/a	n/a	n/a	n/a	174.983	n/a
144.685	10.014	ITI	Fixation+	66.204	n/a	2	n/a	n/a	n/a	n/a	n/a	n/a	n/a	n/a	n/a	n/a	175.514	n/a
154.716	0.497	neutral	Picture	65.69	n/a	2	5	1	n/a	81	23	1	n/a	n/a	n/a	n/a	185.544	AM04NES.jpg
155.213	0.514	Blank	Blank	65.176	n/a	2	5	1	n/a	81	n/a	1	n/a	n/a	n/a	n/a	186.041	n/a
155.743	0.497	neutral	Picture	64.662	n/a	2	5	2	n/a	82	29	1	n/a	n/a	n/a	n/a	186.572	AM10NES.jpg
156.241	0.514	Blank	Blank	64.148	n/a	2	5	2	n/a	82	n/a	1	n/a	n/a	n/a	n/a	187.069	n/a
156.771	0.497	neutral	Picture	63.634	n/a	2	5	3	n/a	83	24	1	n/a	n/a	n/a	n/a	187.6	BM05NES.jpg
157.269	0.514	Blank	Blank	63.12	n/a	2	5	3	n/a	83	n/a	1	n/a	n/a	n/a	n/a	188.097	n/a
157.799	0.497	neutral	Picture	62.606	n/a	2	5	4	n/a	84	12	1	n/a	n/a	n/a	n/a	188.628	AF21NES.jpg
158.297	0.514	Blank	Blank	62.092	n/a	2	5	4	n/a	84	n/a	1	n/a	n/a	n/a	n/a	189.125	n/a
158.827	0.497	neutral	Picture	61.578	n/a	2	5	5	n/a	85	13	1	n/a	n/a	n/a	n/a	189.655	BF22NES.jpg
159.325	0.514	Blank	Blank	61.064	n/a	2	5	5	n/a	85	n/a	1	n/a	n/a	n/a	n/a	190.153	n/a
159.855	0.497	neutral	Picture	60.55	n/a	2	5	6	n/a	86	17	1	n/a	n/a	n/a	n/a	190.683	BF28NES.jpg
160.352	0.514	Blank	Blank	60.036	n/a	2	5	6	n/a	86	n/a	1	n/a	n/a	n/a	n/a	191.181	n/a
160.883	0.497	neutral	Picture	59.522	n/a	2	5	7	n/a	87	4	1	n/a	n/a	n/a	n/a	191.711	AF05NES.jpg
161.38	0.514	Blank	Blank	59.008	n/a	2	5	7	n/a	87	n/a	1	n/a	n/a	n/a	n/a	192.209	n/a
161.911	0.497	neutral	Picture	58.494	n/a	2	5	8	n/a	88	11	1	n/a	n/a	n/a	n/a	192.739	AF20NES.jpg
162.408	0.514	Blank	Blank	57.981	n/a	2	5	8	n/a	88	n/a	1	n/a	n/a	n/a	n/a	193.237	n/a
162.939	0.497	neutral	Picture	57.467	n/a	2	5	9	n/a	89	22	1	n/a	n/a	n/a	n/a	193.767	BM03NES.jpg
163.436	0.514	Blank	Blank	56.953	n/a	2	5	9	n/a	89	n/a	1	n/a	n/a	n/a	n/a	194.264	n/a
163.967	0.497	neutral	Picture	56.439	n/a	2	5	10	n/a	90	15	1	n/a	n/a	n/a	n/a	194.795	AF25NES.jpg
164.464	0.514	Blank	Blank	55.925	n/a	2	5	10	n/a	90	n/a	1	n/a	n/a	n/a	n/a	195.292	n/a
164.995	0.497	neutral	Picture	55.411	n/a	2	5	11	n/a	91	19	1	n/a	n/a	n/a	n/a	195.823	AF31NES.jpg
165.492	0.514	Blank	Blank	54.897	n/a	2	5	11	n/a	91	n/a	1	n/a	n/a	n/a	n/a	196.32	n/a
166.022	0.497	neutral	Picture	54.383	n/a	2	5	12	n/a	92	9	1	n/a	n/a	n/a	n/a	196.851	AF17NES.jpg
166.52	0.514	Blank	Blank	53.869	n/a	2	5	12	n/a	92	n/a	1	n/a	n/a	n/a	n/a	197.348	n/a
167.05	0.497	neutral	Picture	53.355	n/a	2	5	13	n/a	93	14	1	n/a	n/a	n/a	n/a	197.879	AF23NES.jpg
167.548	0.514	Blank	Blank	52.841	n/a	2	5	13	n/a	93	n/a	1	n/a	n/a	n/a	n/a	198.376	n/a
168.078	0.497	neutral	Picture	52.327	n/a	2	5	14	n/a	94	36	1	n/a	n/a	n/a	n/a	198.906	BM24NES.jpg
168.575	0.514	Blank	Blank	51.813	n/a	2	5	14	n/a	94	n/a	1	n/a	n/a	n/a	n/a	199.404	n/a
169.106	0.497	neutral	Picture	51.299	n/a	2	5	15	n/a	95	34	1	n/a	n/a	n/a	n/a	199.934	AM22NES.jpg
169.603	0.514	Blank	Blank	50.785	n/a	2	5	15	n/a	95	n/a	1	n/a	n/a	n/a	n/a	200.432	n/a
170.134	0.497	neutral	Picture	50.272	n/a	2	5	16	n/a	96	10	1	n/a	n/a	n/a	n/a	200.962	AF18NES.jpg
170.631	0.514	Blank	Blank	49.757	n/a	2	5	16	n/a	96	n/a	1	n/a	n/a	n/a	n/a	201.459	n/a
171.162	0.497	neutral	Picture	49.244	n/a	2	5	17	n/a	97	5	1	n/a	n/a	n/a	n/a	201.99	BF07NES.jpg
171.659	0.514	Blank	Blank	48.73	n/a	2	5	17	n/a	97	n/a	1	n/a	n/a	n/a	n/a	202.487	n/a
172.19	0.497	neutral	Picture	48.216	n/a	2	5	18	n/a	98	25	1	n/a	n/a	n/a	n/a	203.018	BM06NES.jpg
172.687	0.514	Blank	Blank	47.702	n/a	2	5	18	n/a	98	n/a	1	n/a	n/a	n/a	n/a	203.515	n/a
173.218	0.497	neutral	Picture	47.188	n/a	2	5	19	n/a	99	39	1	n/a	n/a	n/a	n/a	204.046	AM28NES.jpg
173.715	0.514	Blank	Blank	46.674	n/a	2	5	19	n/a	99	n/a	1	n/a	n/a	n/a	n/a	204.543	n/a
174.245	0.497	neutral	Picture	46.16	n/a	2	5	20	n/a	100	33	1	n/a	n/a	n/a	n/a	205.074	AM21NES.jpg
174.743	0.514	Blank	Blank	45.646	n/a	2	5	20	n/a	100	n/a	1	n/a	n/a	n/a	n/a	205.571	n/a
175.273	10.014	ITI	Fixation+	35.616	n/a	2	n/a	n/a	n/a	n/a	n/a	n/a	n/a	n/a	n/a	n/a	206.102	n/a
185.303	0.497	angry	Picture	35.102	n/a	2	6	1	n/a	101	74	2	n/a	n/a	n/a	n/a	216.132	AM22HAS.jpg
185.801	0.514	Blank	Blank	34.588	n/a	2	6	1	n/a	101	n/a	2	n/a	n/a	n/a	n/a	216.629	n/a
186.331	0.497	angry	Picture	34.074	n/a	2	6	2	n/a	102	76	2	n/a	n/a	n/a	n/a	217.16	BM24HAS.jpg
186.829	0.514	Blank	Blank	33.56	n/a	2	6	2	n/a	102	n/a	2	n/a	n/a	n/a	n/a	217.657	n/a
187.359	0.497	angry	Picture	33.046	n/a	2	6	3	n/a	103	80	2	n/a	n/a	n/a	n/a	218.188	BM35HAS.jpg
187.856	0.514	Blank	Blank	32.532	n/a	2	6	3	n/a	103	n/a	2	n/a	n/a	n/a	n/a	218.685	n/a
188.387	0.497	angry	Picture	32.018	n/a	2	6	4	n/a	104	75	2	n/a	n/a	n/a	n/a	219.215	AM23HAS.jpg
188.884	0.514	Blank	Blank	31.504	n/a	2	6	4	n/a	104	n/a	2	n/a	n/a	n/a	n/a	219.713	n/a
189.415	0.497	angry	Picture	30.99	n/a	2	6	5	n/a	105	49	2	n/a	n/a	n/a	n/a	220.243	AF17HAS.jpg
189.912	0.514	Blank	Blank	30.476	n/a	2	6	5	n/a	105	n/a	2	n/a	n/a	n/a	n/a	220.741	n/a
190.443	0.497	angry	Picture	29.963	n/a	2	6	6	n/a	106	43	2	n/a	n/a	n/a	n/a	221.271	BF04HAS.jpg
190.94	0.514	Blank	Blank	29.449	n/a	2	6	6	n/a	106	n/a	2	n/a	n/a	n/a	n/a	221.768	n/a
191.471	0.497	angry	Picture	28.935	n/a	2	6	7	n/a	107	70	2	n/a	n/a	n/a	n/a	222.299	BM11HAS.jpg
191.968	0.514	Blank	Blank	28.421	n/a	2	6	7	n/a	107	n/a	2	n/a	n/a	n/a	n/a	222.796	n/a
192.499	0.497	angry	Picture	27.907	n/a	2	6	8	n/a	108	66	2	n/a	n/a	n/a	n/a	223.327	BM07HAS.jpg
192.996	0.514	Blank	Blank	27.393	n/a	2	6	8	n/a	108	n/a	2	n/a	n/a	n/a	n/a	223.824	n/a
193.526	0.497	angry	Picture	26.879	n/a	2	6	9	n/a	109	48	2	n/a	n/a	n/a	n/a	224.355	AF14HAS.jpg
194.024	0.514	Blank	Blank	26.365	n/a	2	6	9	n/a	109	n/a	2	n/a	n/a	n/a	n/a	224.852	n/a
194.554	0.497	angry	Picture	25.851	n/a	2	6	10	n/a	110	58	2	n/a	n/a	n/a	n/a	225.383	BF29HAS.jpg
195.052	0.514	Blank	Blank	25.337	n/a	2	6	10	n/a	110	n/a	2	n/a	n/a	n/a	n/a	225.88	n/a
195.582	0.497	angry	Picture	24.823	n/a	2	6	11	n/a	111	63	2	n/a	n/a	n/a	n/a	226.411	AM04HAS.jpg
196.08	0.514	Blank	Blank	24.309	n/a	2	6	11	n/a	111	n/a	2	n/a	n/a	n/a	n/a	226.908	n/a
196.61	0.497	angry	Picture	23.795	n/a	2	6	12	n/a	112	72	2	n/a	n/a	n/a	n/a	227.438	AM14HAS.jpg
197.108	0.514	Blank	Blank	23.281	n/a	2	6	12	n/a	112	n/a	2	n/a	n/a	n/a	n/a	227.936	n/a
197.638	0.497	angry	Picture	22.767	n/a	2	6	13	n/a	113	55	2	n/a	n/a	n/a	n/a	228.466	AF25HAS.jpg
198.135	0.514	Blank	Blank	22.253	n/a	2	6	13	n/a	113	n/a	2	n/a	n/a	n/a	n/a	228.964	n/a
198.666	0.497	angry	Picture	21.739	n/a	2	6	14	n/a	114	42	2	n/a	n/a	n/a	n/a	229.494	AF03HAS.jpg
199.163	0.514	Blank	Blank	21.225	n/a	2	6	14	n/a	114	n/a	2	n/a	n/a	n/a	n/a	229.992	n/a
199.694	0.497	angry	Picture	20.712	n/a	2	6	15	n/a	115	60	2	n/a	n/a	n/a	n/a	230.522	AF32HAS.jpg
200.191	0.514	Blank	Blank	20.198	n/a	2	6	15	n/a	115	n/a	2	n/a	n/a	n/a	n/a	231.019	n/a
200.722	0.497	angry	Picture	19.684	n/a	2	6	16	n/a	116	67	2	n/a	n/a	n/a	n/a	231.55	BM08HAS.jpg
201.219	0.514	Blank	Blank	19.17	n/a	2	6	16	n/a	116	n/a	2	n/a	n/a	n/a	n/a	232.047	n/a
201.75	0.497	angry	Picture	18.656	n/a	2	6	17	n/a	117	51	2	n/a	n/a	n/a	n/a	232.578	AF20HAS.jpg
202.247	0.514	Blank	Blank	18.142	n/a	2	6	17	n/a	117	n/a	2	n/a	n/a	n/a	n/a	233.075	n/a
202.777	0.497	angry	Picture	17.628	n/a	2	6	18	n/a	118	71	2	n/a	n/a	n/a	n/a	233.606	BM12HAS.jpg
203.275	0.514	Blank	Blank	17.114	n/a	2	6	18	n/a	118	n/a	2	n/a	n/a	n/a	n/a	234.103	n/a
203.805	0.497	angry	Picture	16.6	n/a	2	6	19	n/a	119	69	2	n/a	n/a	n/a	n/a	234.634	AM10HAS.jpg
204.303	0.514	Blank	Blank	16.086	n/a	2	6	19	n/a	119	n/a	2	n/a	n/a	n/a	n/a	235.131	n/a
204.833	0.497	angry	Picture	15.572	n/a	2	6	20	n/a	120	46	2	n/a	n/a	n/a	n/a	235.661	AF09HAS.jpg
205.331	0.514	Blank	Blank	15.058	n/a	2	6	20	n/a	120	n/a	2	n/a	n/a	n/a	n/a	236.159	n/a
205.861	10.014	ITI	Fixation+	5.028	n/a	2	n/a	n/a	n/a	n/a	n/a	n/a	n/a	n/a	n/a	n/a	236.689	n/a
220.903	n/a	ConfirmRating	Rate	n/a	5.023	2	n/a	n/a	0	n/a	n/a	n/a	2	Angry	62	51	251.731	n/a
224.968	n/a	ConfirmRating	Rate	n/a	4.045	2	n/a	n/a	1	n/a	n/a	n/a	3	Angry	0	48	255.796	n/a
224.993	15.004	Rest	Picture	n/a	n/a	n/a	n/a	n/a	n/a	n/a	n/a	n/a	0	n/a	0	0	255.821	n/a
240.013	10.014	ITI	Fixation+	96.864	n/a	3	n/a	n/a	n/a	n/a	n/a	n/a	n/a	n/a	n/a	n/a	270.842	n/a
250.043	0.497	happy	Picture	96.35	n/a	3	7	1	n/a	1	108	3	n/a	n/a	n/a	n/a	280.872	AM09ANS.jpg
250.541	0.514	Blank	Blank	95.836	n/a	3	7	1	n/a	1	n/a	3	n/a	n/a	n/a	n/a	281.369	n/a
251.071	0.497	happy	Picture	95.322	n/a	3	7	2	n/a	2	99	3	n/a	n/a	n/a	n/a	281.9	AF31ANS.jpg
251.569	0.514	Blank	Blank	94.808	n/a	3	7	2	n/a	2	n/a	3	n/a	n/a	n/a	n/a	282.397	n/a
252.099	0.497	happy	Picture	94.294	n/a	3	7	3	n/a	3	98	3	n/a	n/a	n/a	n/a	282.928	BF29ANS.jpg
252.596	0.514	Blank	Blank	93.78	n/a	3	7	3	n/a	3	n/a	3	n/a	n/a	n/a	n/a	283.425	n/a
253.127	0.497	happy	Picture	93.266	n/a	3	7	4	n/a	4	107	3	n/a	n/a	n/a	n/a	283.955	BM08ANS.jpg
253.624	0.514	Blank	Blank	92.752	n/a	3	7	4	n/a	4	n/a	3	n/a	n/a	n/a	n/a	284.453	n/a
254.155	0.497	happy	Picture	92.238	n/a	3	7	5	n/a	5	104	3	n/a	n/a	n/a	n/a	284.983	BM05ANS.jpg
254.652	0.514	Blank	Blank	91.724	n/a	3	7	5	n/a	5	n/a	3	n/a	n/a	n/a	n/a	285.481	n/a
255.183	0.497	happy	Picture	91.21	n/a	3	7	6	n/a	6	101	3	n/a	n/a	n/a	n/a	286.011	AM01ANS.jpg
255.68	0.514	Blank	Blank	90.696	n/a	3	7	6	n/a	6	n/a	3	n/a	n/a	n/a	n/a	286.509	n/a
256.211	0.497	happy	Picture	90.182	n/a	3	7	7	n/a	7	103	3	n/a	n/a	n/a	n/a	287.039	AM04ANS.jpg
256.708	0.514	Blank	Blank	89.668	n/a	3	7	7	n/a	7	n/a	3	n/a	n/a	n/a	n/a	287.536	n/a
257.239	0.497	happy	Picture	89.154	n/a	3	7	8	n/a	8	111	3	n/a	n/a	n/a	n/a	288.067	BM12ANS.jpg
257.736	0.514	Blank	Blank	88.641	n/a	3	7	8	n/a	8	n/a	3	n/a	n/a	n/a	n/a	288.564	n/a
258.267	0.497	happy	Picture	88.127	n/a	3	7	9	n/a	9	110	3	n/a	n/a	n/a	n/a	289.095	AM11ANS.jpg
258.764	0.514	Blank	Blank	87.613	n/a	3	7	9	n/a	9	n/a	3	n/a	n/a	n/a	n/a	289.592	n/a
259.294	0.497	happy	Picture	87.099	n/a	3	7	10	n/a	10	85	3	n/a	n/a	n/a	n/a	290.123	BF07ANS.jpg
259.792	0.514	Blank	Blank	86.585	n/a	3	7	10	n/a	10	n/a	3	n/a	n/a	n/a	n/a	290.62	n/a
260.322	0.497	happy	Picture	86.071	n/a	3	7	11	n/a	11	87	3	n/a	n/a	n/a	n/a	291.151	BF11ANS.jpg
260.82	0.514	Blank	Blank	85.557	n/a	3	7	11	n/a	11	n/a	3	n/a	n/a	n/a	n/a	291.648	n/a
261.35	0.497	happy	Picture	85.043	n/a	3	7	12	n/a	12	91	3	n/a	n/a	n/a	n/a	292.178	AF20ANS.jpg
261.847	0.514	Blank	Blank	84.529	n/a	3	7	12	n/a	12	n/a	3	n/a	n/a	n/a	n/a	292.676	n/a
262.378	0.497	happy	Picture	84.015	n/a	3	7	13	n/a	13	115	3	n/a	n/a	n/a	n/a	293.206	AM23ANS.jpg
262.875	0.514	Blank	Blank	83.501	n/a	3	7	13	n/a	13	n/a	3	n/a	n/a	n/a	n/a	293.704	n/a
263.406	0.497	happy	Picture	82.987	n/a	3	7	14	n/a	14	97	3	n/a	n/a	n/a	n/a	294.234	BF28ANS.jpg
263.903	0.514	Blank	Blank	82.473	n/a	3	7	14	n/a	14	n/a	3	n/a	n/a	n/a	n/a	294.731	n/a
264.434	0.497	happy	Picture	81.959	n/a	3	7	15	n/a	15	82	3	n/a	n/a	n/a	n/a	295.262	AF03ANS.jpg
264.931	0.514	Blank	Blank	81.445	n/a	3	7	15	n/a	15	n/a	3	n/a	n/a	n/a	n/a	295.759	n/a
265.462	0.497	happy	Picture	80.931	n/a	3	7	16	n/a	16	96	3	n/a	n/a	n/a	n/a	296.29	AF26ANS.jpg
265.959	0.514	Blank	Blank	80.418	n/a	3	7	16	n/a	16	n/a	3	n/a	n/a	n/a	n/a	296.787	n/a
266.489	0.497	happy	Picture	79.904	n/a	3	7	17	n/a	17	109	3	n/a	n/a	n/a	n/a	297.318	AM10ANS.jpg
266.987	0.514	Blank	Blank	79.39	n/a	3	7	17	n/a	17	n/a	3	n/a	n/a	n/a	n/a	297.815	n/a
267.517	0.497	happy	Picture	78.876	n/a	3	7	18	n/a	18	114	3	n/a	n/a	n/a	n/a	298.346	AM22ANS.jpg
268.015	0.514	Blank	Blank	78.362	n/a	3	7	18	n/a	18	n/a	3	n/a	n/a	n/a	n/a	298.843	n/a
268.545	0.497	happy	Picture	77.848	n/a	3	7	19	n/a	19	120	3	n/a	n/a	n/a	n/a	299.374	AM35ANS.jpg
269.043	0.514	Blank	Blank	77.334	n/a	3	7	19	n/a	19	n/a	3	n/a	n/a	n/a	n/a	299.871	n/a
269.573	0.497	happy	Picture	76.82	n/a	3	7	20	n/a	20	81	3	n/a	n/a	n/a	n/a	300.401	AF01ANS.jpg
270.07	0.514	Blank	Blank	76.306	n/a	3	7	20	n/a	20	n/a	3	n/a	n/a	n/a	n/a	300.899	n/a
270.601	10.014	ITI	Fixation+	66.276	n/a	3	n/a	n/a	n/a	n/a	n/a	n/a	n/a	n/a	n/a	n/a	301.429	n/a
280.631	0.497	neutral	Picture	65.762	n/a	3	8	1	n/a	21	28	1	n/a	n/a	n/a	n/a	311.459	AM09NES.jpg
281.129	0.514	Blank	Blank	65.248	n/a	3	8	1	n/a	21	n/a	1	n/a	n/a	n/a	n/a	311.957	n/a
281.659	0.497	neutral	Picture	64.734	n/a	3	8	2	n/a	22	27	1	n/a	n/a	n/a	n/a	312.487	BM08NES.jpg
282.156	0.514	Blank	Blank	64.22	n/a	3	8	2	n/a	22	n/a	1	n/a	n/a	n/a	n/a	312.985	n/a
282.687	0.497	neutral	Picture	63.706	n/a	3	8	3	n/a	23	16	1	n/a	n/a	n/a	n/a	313.515	AF26NES.jpg
283.184	0.514	Blank	Blank	63.192	n/a	3	8	3	n/a	23	n/a	1	n/a	n/a	n/a	n/a	314.013	n/a
283.715	0.497	neutral	Picture	62.678	n/a	3	8	4	n/a	24	3	1	n/a	n/a	n/a	n/a	314.543	BF04NES.jpg
284.212	0.514	Blank	Blank	62.164	n/a	3	8	4	n/a	24	n/a	1	n/a	n/a	n/a	n/a	315.041	n/a
284.743	0.497	neutral	Picture	61.65	n/a	3	8	5	n/a	25	32	1	n/a	n/a	n/a	n/a	315.571	AM14NES.jpg
285.24	0.514	Blank	Blank	61.136	n/a	3	8	5	n/a	25	n/a	1	n/a	n/a	n/a	n/a	316.068	n/a
285.771	0.497	neutral	Picture	60.622	n/a	3	8	6	n/a	26	37	1	n/a	n/a	n/a	n/a	316.599	BM25NES.jpg
286.268	0.514	Blank	Blank	60.109	n/a	3	8	6	n/a	26	n/a	1	n/a	n/a	n/a	n/a	317.096	n/a
286.798	0.497	neutral	Picture	59.594	n/a	3	8	7	n/a	27	15	1	n/a	n/a	n/a	n/a	317.627	AF25NES.jpg
287.296	0.514	Blank	Blank	59.081	n/a	3	8	7	n/a	27	n/a	1	n/a	n/a	n/a	n/a	318.124	n/a
287.826	0.497	neutral	Picture	58.567	n/a	3	8	8	n/a	28	23	1	n/a	n/a	n/a	n/a	318.655	AM04NES.jpg
288.324	0.514	Blank	Blank	58.053	n/a	3	8	8	n/a	28	n/a	1	n/a	n/a	n/a	n/a	319.152	n/a
288.854	0.497	neutral	Picture	57.539	n/a	3	8	9	n/a	29	34	1	n/a	n/a	n/a	n/a	319.683	AM22NES.jpg
289.352	0.514	Blank	Blank	57.025	n/a	3	8	9	n/a	29	n/a	1	n/a	n/a	n/a	n/a	320.18	n/a
289.882	0.497	neutral	Picture	56.511	n/a	3	8	10	n/a	30	24	1	n/a	n/a	n/a	n/a	320.71	BM05NES.jpg
290.38	0.514	Blank	Blank	55.997	n/a	3	8	10	n/a	30	n/a	1	n/a	n/a	n/a	n/a	321.208	n/a
290.91	0.497	neutral	Picture	55.483	n/a	3	8	11	n/a	31	12	1	n/a	n/a	n/a	n/a	321.738	AF21NES.jpg
291.407	0.514	Blank	Blank	54.969	n/a	3	8	11	n/a	31	n/a	1	n/a	n/a	n/a	n/a	322.236	n/a
291.938	0.497	neutral	Picture	54.455	n/a	3	8	12	n/a	32	6	1	n/a	n/a	n/a	n/a	322.766	AF09NES.jpg
292.435	0.514	Blank	Blank	53.941	n/a	3	8	12	n/a	32	n/a	1	n/a	n/a	n/a	n/a	323.264	n/a
292.966	0.497	neutral	Picture	53.427	n/a	3	8	13	n/a	33	17	1	n/a	n/a	n/a	n/a	323.794	BF28NES.jpg
293.463	0.514	Blank	Blank	52.913	n/a	3	8	13	n/a	33	n/a	1	n/a	n/a	n/a	n/a	324.291	n/a
293.994	0.497	neutral	Picture	52.399	n/a	3	8	14	n/a	34	2	1	n/a	n/a	n/a	n/a	324.822	AF03NES.jpg
294.491	0.514	Blank	Blank	51.885	n/a	3	8	14	n/a	34	n/a	1	n/a	n/a	n/a	n/a	325.319	n/a
295.022	0.497	neutral	Picture	51.371	n/a	3	8	15	n/a	35	9	1	n/a	n/a	n/a	n/a	325.85	AF17NES.jpg
295.519	0.514	Blank	Blank	50.858	n/a	3	8	15	n/a	35	n/a	1	n/a	n/a	n/a	n/a	326.347	n/a
296.049	0.497	neutral	Picture	50.344	n/a	3	8	16	n/a	36	25	1	n/a	n/a	n/a	n/a	326.878	BM06NES.jpg
296.547	0.514	Blank	Blank	49.83	n/a	3	8	16	n/a	36	n/a	1	n/a	n/a	n/a	n/a	327.375	n/a
297.077	0.497	neutral	Picture	49.316	n/a	3	8	17	n/a	37	8	1	n/a	n/a	n/a	n/a	327.906	AF14NES.jpg
297.575	0.514	Blank	Blank	48.802	n/a	3	8	17	n/a	37	n/a	1	n/a	n/a	n/a	n/a	328.403	n/a
298.105	0.497	neutral	Picture	48.288	n/a	3	8	18	n/a	38	19	1	n/a	n/a	n/a	n/a	328.933	AF31NES.jpg
298.603	0.514	Blank	Blank	47.774	n/a	3	8	18	n/a	38	n/a	1	n/a	n/a	n/a	n/a	329.431	n/a
299.133	0.497	neutral	Picture	47.26	n/a	3	8	19	n/a	39	14	1	n/a	n/a	n/a	n/a	329.961	AF23NES.jpg
299.63	0.514	Blank	Blank	46.746	n/a	3	8	19	n/a	39	n/a	1	n/a	n/a	n/a	n/a	330.459	n/a
300.161	0.497	neutral	Picture	46.232	n/a	3	8	20	n/a	40	4	1	n/a	n/a	n/a	n/a	330.989	AF05NES.jpg
300.658	0.514	Blank	Blank	45.718	n/a	3	8	20	n/a	40	n/a	1	n/a	n/a	n/a	n/a	331.487	n/a
301.189	10.014	ITI	Fixation+	35.688	n/a	3	n/a	n/a	n/a	n/a	n/a	n/a	n/a	n/a	n/a	n/a	332.017	n/a
311.219	0.497	happy	Picture	35.174	n/a	3	9	1	n/a	41	84	3	n/a	n/a	n/a	n/a	342.047	AF05ANS.jpg
311.716	0.514	Blank	Blank	34.66	n/a	3	9	1	n/a	41	n/a	3	n/a	n/a	n/a	n/a	342.545	n/a
312.247	0.497	happy	Picture	34.146	n/a	3	9	2	n/a	42	92	3	n/a	n/a	n/a	n/a	343.075	AF21ANS.jpg
312.744	0.514	Blank	Blank	33.632	n/a	3	9	2	n/a	42	n/a	3	n/a	n/a	n/a	n/a	343.572	n/a
313.275	0.497	happy	Picture	33.118	n/a	3	9	3	n/a	43	86	3	n/a	n/a	n/a	n/a	344.103	AF09ANS.jpg
313.772	0.514	Blank	Blank	32.604	n/a	3	9	3	n/a	43	n/a	3	n/a	n/a	n/a	n/a	344.6	n/a
314.303	0.497	happy	Picture	32.09	n/a	3	9	4	n/a	44	93	3	n/a	n/a	n/a	n/a	345.131	BF22ANS.jpg
314.8	0.514	Blank	Blank	31.577	n/a	3	9	4	n/a	44	n/a	3	n/a	n/a	n/a	n/a	345.628	n/a
315.33	0.497	happy	Picture	31.063	n/a	3	9	5	n/a	45	88	3	n/a	n/a	n/a	n/a	346.159	AF14ANS.jpg
315.828	0.514	Blank	Blank	30.549	n/a	3	9	5	n/a	45	n/a	3	n/a	n/a	n/a	n/a	346.656	n/a
316.358	0.497	happy	Picture	30.035	n/a	3	9	6	n/a	46	113	3	n/a	n/a	n/a	n/a	347.187	AM21ANS.jpg
316.856	0.514	Blank	Blank	29.521	n/a	3	9	6	n/a	46	n/a	3	n/a	n/a	n/a	n/a	347.684	n/a
317.386	0.497	happy	Picture	29.007	n/a	3	9	7	n/a	47	95	3	n/a	n/a	n/a	n/a	348.215	AF25ANS.jpg
317.884	0.514	Blank	Blank	28.493	n/a	3	9	7	n/a	47	n/a	3	n/a	n/a	n/a	n/a	348.712	n/a
318.414	0.497	happy	Picture	27.979	n/a	3	9	8	n/a	48	102	3	n/a	n/a	n/a	n/a	349.242	BM03ANS.jpg
318.911	0.514	Blank	Blank	27.465	n/a	3	9	8	n/a	48	n/a	3	n/a	n/a	n/a	n/a	349.74	n/a
319.442	0.497	happy	Picture	26.951	n/a	3	9	9	n/a	49	112	3	n/a	n/a	n/a	n/a	350.27	AM14ANS.jpg
319.939	0.514	Blank	Blank	26.437	n/a	3	9	9	n/a	49	n/a	3	n/a	n/a	n/a	n/a	350.768	n/a
320.47	0.497	happy	Picture	25.923	n/a	3	9	10	n/a	50	83	3	n/a	n/a	n/a	n/a	351.298	BF04ANS.jpg
320.967	0.514	Blank	Blank	25.409	n/a	3	9	10	n/a	50	n/a	3	n/a	n/a	n/a	n/a	351.796	n/a
321.498	0.497	happy	Picture	24.895	n/a	3	9	11	n/a	51	90	3	n/a	n/a	n/a	n/a	352.326	AF18ANS.jpg
321.995	0.514	Blank	Blank	24.381	n/a	3	9	11	n/a	51	n/a	3	n/a	n/a	n/a	n/a	352.824	n/a
322.526	0.497	happy	Picture	23.867	n/a	3	9	12	n/a	52	117	3	n/a	n/a	n/a	n/a	353.354	BM25ANS.jpg
323.023	0.514	Blank	Blank	23.353	n/a	3	9	12	n/a	52	n/a	3	n/a	n/a	n/a	n/a	353.851	n/a
323.554	0.497	happy	Picture	22.84	n/a	3	9	13	n/a	53	94	3	n/a	n/a	n/a	n/a	354.382	AF23ANS.jpg
324.051	0.514	Blank	Blank	22.325	n/a	3	9	13	n/a	53	n/a	3	n/a	n/a	n/a	n/a	354.879	n/a
324.581	0.497	happy	Picture	21.812	n/a	3	9	14	n/a	54	106	3	n/a	n/a	n/a	n/a	355.41	AM07ANS.jpg
325.079	0.514	Blank	Blank	21.298	n/a	3	9	14	n/a	54	n/a	3	n/a	n/a	n/a	n/a	355.907	n/a
325.609	0.497	happy	Picture	20.784	n/a	3	9	15	n/a	55	105	3	n/a	n/a	n/a	n/a	356.438	BM06ANS.jpg
326.107	0.514	Blank	Blank	20.27	n/a	3	9	15	n/a	55	n/a	3	n/a	n/a	n/a	n/a	356.935	n/a
326.637	0.497	happy	Picture	19.756	n/a	3	9	16	n/a	56	116	3	n/a	n/a	n/a	n/a	357.466	BM24ANS.jpg
327.135	0.514	Blank	Blank	19.242	n/a	3	9	16	n/a	56	n/a	3	n/a	n/a	n/a	n/a	357.963	n/a
327.665	0.497	happy	Picture	18.728	n/a	3	9	17	n/a	57	89	3	n/a	n/a	n/a	n/a	358.493	AF17ANS.jpg
328.162	0.514	Blank	Blank	18.214	n/a	3	9	17	n/a	57	n/a	3	n/a	n/a	n/a	n/a	358.991	n/a
328.693	0.497	happy	Picture	17.7	n/a	3	9	18	n/a	58	118	3	n/a	n/a	n/a	n/a	359.521	BM26ANS.jpg
329.19	0.514	Blank	Blank	17.186	n/a	3	9	18	n/a	58	n/a	3	n/a	n/a	n/a	n/a	360.019	n/a
329.721	0.497	happy	Picture	16.672	n/a	3	9	19	n/a	59	100	3	n/a	n/a	n/a	n/a	360.549	AF32ANS.jpg
330.218	0.514	Blank	Blank	16.158	n/a	3	9	19	n/a	59	n/a	3	n/a	n/a	n/a	n/a	361.046	n/a
330.749	0.497	happy	Picture	15.644	n/a	3	9	20	n/a	60	119	3	n/a	n/a	n/a	n/a	361.577	BM28ANS.jpg
331.246	0.514	Blank	Blank	15.13	n/a	3	9	20	n/a	60	n/a	3	n/a	n/a	n/a	n/a	362.074	n/a
331.777	10.014	ITI	Fixation+	5.1	n/a	3	n/a	n/a	n/a	n/a	n/a	n/a	n/a	n/a	n/a	n/a	362.605	n/a
346.89	n/a	ConfirmRating	Rate	n/a	5.089	3	n/a	n/a	0	n/a	n/a	n/a	2	Happy	59	50	377.719	n/a
351.191	n/a	ConfirmRating	Rate	n/a	4.294	3	n/a	n/a	1	n/a	n/a	n/a	3	Happy	2	49	382.02	n/a
351.224	10.014	ITI	Fixation+	96.912	n/a	4	n/a	n/a	n/a	n/a	n/a	n/a	n/a	n/a	n/a	n/a	382.052	n/a
361.254	0.497	angry	Picture	96.398	n/a	4	10	1	n/a	61	79	2	n/a	n/a	n/a	n/a	392.082	BM28HAS.jpg
361.751	0.514	Blank	Blank	95.884	n/a	4	10	1	n/a	61	n/a	2	n/a	n/a	n/a	n/a	392.579	n/a
362.281	0.497	angry	Picture	95.37	n/a	4	10	2	n/a	62	61	2	n/a	n/a	n/a	n/a	393.11	AM01HAS.jpg
362.779	0.514	Blank	Blank	94.857	n/a	4	10	2	n/a	62	n/a	2	n/a	n/a	n/a	n/a	393.607	n/a
363.309	0.497	angry	Picture	94.343	n/a	4	10	3	n/a	63	57	2	n/a	n/a	n/a	n/a	394.138	BF28HAS.jpg
363.807	0.514	Blank	Blank	93.829	n/a	4	10	3	n/a	63	n/a	2	n/a	n/a	n/a	n/a	394.635	n/a
364.337	0.497	angry	Picture	93.315	n/a	4	10	4	n/a	64	77	2	n/a	n/a	n/a	n/a	395.166	BM25HAS.jpg
364.835	0.514	Blank	Blank	92.801	n/a	4	10	4	n/a	64	n/a	2	n/a	n/a	n/a	n/a	395.663	n/a
365.365	0.497	angry	Picture	92.287	n/a	4	10	5	n/a	65	47	2	n/a	n/a	n/a	n/a	396.193	BF11HAS.jpg
365.863	0.514	Blank	Blank	91.773	n/a	4	10	5	n/a	65	n/a	2	n/a	n/a	n/a	n/a	396.691	n/a
366.393	0.497	angry	Picture	91.259	n/a	4	10	6	n/a	66	50	2	n/a	n/a	n/a	n/a	397.221	AF18HAS.jpg
366.89	0.514	Blank	Blank	90.745	n/a	4	10	6	n/a	66	n/a	2	n/a	n/a	n/a	n/a	397.719	n/a
367.421	0.497	angry	Picture	90.231	n/a	4	10	7	n/a	67	78	2	n/a	n/a	n/a	n/a	398.249	BM26HAS.jpg
367.918	0.514	Blank	Blank	89.717	n/a	4	10	7	n/a	67	n/a	2	n/a	n/a	n/a	n/a	398.747	n/a
368.449	0.497	angry	Picture	89.203	n/a	4	10	8	n/a	68	45	2	n/a	n/a	n/a	n/a	399.277	BF07HAS.jpg
368.946	0.514	Blank	Blank	88.689	n/a	4	10	8	n/a	68	n/a	2	n/a	n/a	n/a	n/a	399.774	n/a
369.477	0.497	angry	Picture	88.175	n/a	4	10	9	n/a	69	56	2	n/a	n/a	n/a	n/a	400.305	AF26HAS.jpg
369.974	0.514	Blank	Blank	87.661	n/a	4	10	9	n/a	69	n/a	2	n/a	n/a	n/a	n/a	400.802	n/a
370.505	0.497	angry	Picture	87.147	n/a	4	10	10	n/a	70	65	2	n/a	n/a	n/a	n/a	401.333	BM06HAS.jpg
371.002	0.514	Blank	Blank	86.633	n/a	4	10	10	n/a	70	n/a	2	n/a	n/a	n/a	n/a	401.83	n/a
371.532	0.497	angry	Picture	86.119	n/a	4	10	11	n/a	71	73	2	n/a	n/a	n/a	n/a	402.361	AM21HAS.jpg
372.03	0.514	Blank	Blank	85.606	n/a	4	10	11	n/a	71	n/a	2	n/a	n/a	n/a	n/a	402.858	n/a
372.56	0.497	angry	Picture	85.092	n/a	4	10	12	n/a	72	41	2	n/a	n/a	n/a	n/a	403.389	AF01HAS.jpg
373.058	0.514	Blank	Blank	84.578	n/a	4	10	12	n/a	72	n/a	2	n/a	n/a	n/a	n/a	403.886	n/a
373.588	0.497	angry	Picture	84.064	n/a	4	10	13	n/a	73	59	2	n/a	n/a	n/a	n/a	404.416	AF31HAS.jpg
374.086	0.514	Blank	Blank	83.55	n/a	4	10	13	n/a	73	n/a	2	n/a	n/a	n/a	n/a	404.914	n/a
374.616	0.497	angry	Picture	83.036	n/a	4	10	14	n/a	74	64	2	n/a	n/a	n/a	n/a	405.444	BM05HAS.jpg
375.113	0.514	Blank	Blank	82.522	n/a	4	10	14	n/a	74	n/a	2	n/a	n/a	n/a	n/a	405.942	n/a
375.644	0.497	angry	Picture	82.008	n/a	4	10	15	n/a	75	68	2	n/a	n/a	n/a	n/a	406.472	AM09HAS.jpg
376.141	0.514	Blank	Blank	81.494	n/a	4	10	15	n/a	75	n/a	2	n/a	n/a	n/a	n/a	406.97	n/a
376.672	0.497	angry	Picture	80.98	n/a	4	10	16	n/a	76	54	2	n/a	n/a	n/a	n/a	407.5	AF23HAS.jpg
377.169	0.514	Blank	Blank	80.466	n/a	4	10	16	n/a	76	n/a	2	n/a	n/a	n/a	n/a	407.998	n/a
377.7	0.497	angry	Picture	79.952	n/a	4	10	17	n/a	77	53	2	n/a	n/a	n/a	n/a	408.528	BF22HAS.jpg
378.197	0.514	Blank	Blank	79.438	n/a	4	10	17	n/a	77	n/a	2	n/a	n/a	n/a	n/a	409.025	n/a
378.728	0.497	angry	Picture	78.924	n/a	4	10	18	n/a	78	44	2	n/a	n/a	n/a	n/a	409.556	AF05HAS.jpg
379.225	0.514	Blank	Blank	78.41	n/a	4	10	18	n/a	78	n/a	2	n/a	n/a	n/a	n/a	410.053	n/a
379.755	0.497	angry	Picture	77.896	n/a	4	10	19	n/a	79	52	2	n/a	n/a	n/a	n/a	410.584	AF21HAS.jpg
380.253	0.514	Blank	Blank	77.382	n/a	4	10	19	n/a	79	n/a	2	n/a	n/a	n/a	n/a	411.081	n/a
380.783	0.497	angry	Picture	76.869	n/a	4	10	20	n/a	80	62	2	n/a	n/a	n/a	n/a	411.612	BM03HAS.jpg
381.281	0.514	Blank	Blank	76.355	n/a	4	10	20	n/a	80	n/a	2	n/a	n/a	n/a	n/a	412.109	n/a
381.811	10.014	ITI	Fixation+	66.325	n/a	4	n/a	n/a	n/a	n/a	n/a	n/a	n/a	n/a	n/a	n/a	412.64	n/a
391.841	0.497	neutral	Picture	65.81	n/a	4	11	1	n/a	81	23	1	n/a	n/a	n/a	n/a	422.67	AM04NES.jpg
392.339	0.514	Blank	Blank	65.297	n/a	4	11	1	n/a	81	n/a	1	n/a	n/a	n/a	n/a	423.167	n/a
392.869	0.497	neutral	Picture	64.783	n/a	4	11	2	n/a	82	29	1	n/a	n/a	n/a	n/a	423.698	AM10NES.jpg
393.367	0.514	Blank	Blank	64.269	n/a	4	11	2	n/a	82	n/a	1	n/a	n/a	n/a	n/a	424.195	n/a
393.897	0.497	neutral	Picture	63.755	n/a	4	11	3	n/a	83	24	1	n/a	n/a	n/a	n/a	424.726	BM05NES.jpg
394.394	0.514	Blank	Blank	63.241	n/a	4	11	3	n/a	83	n/a	1	n/a	n/a	n/a	n/a	425.223	n/a
394.925	0.497	neutral	Picture	62.727	n/a	4	11	4	n/a	84	12	1	n/a	n/a	n/a	n/a	425.753	AF21NES.jpg
395.422	0.514	Blank	Blank	62.213	n/a	4	11	4	n/a	84	n/a	1	n/a	n/a	n/a	n/a	426.251	n/a
395.953	0.497	neutral	Picture	61.699	n/a	4	11	5	n/a	85	13	1	n/a	n/a	n/a	n/a	426.781	BF22NES.jpg
396.45	0.514	Blank	Blank	61.185	n/a	4	11	5	n/a	85	n/a	1	n/a	n/a	n/a	n/a	427.279	n/a
396.981	0.497	neutral	Picture	60.671	n/a	4	11	6	n/a	86	17	1	n/a	n/a	n/a	n/a	427.809	BF28NES.jpg
397.478	0.514	Blank	Blank	60.157	n/a	4	11	6	n/a	86	n/a	1	n/a	n/a	n/a	n/a	428.307	n/a
398.009	0.497	neutral	Picture	59.643	n/a	4	11	7	n/a	87	4	1	n/a	n/a	n/a	n/a	428.837	AF05NES.jpg
398.506	0.514	Blank	Blank	59.129	n/a	4	11	7	n/a	87	n/a	1	n/a	n/a	n/a	n/a	429.334	n/a
399.037	0.497	neutral	Picture	58.615	n/a	4	11	8	n/a	88	11	1	n/a	n/a	n/a	n/a	429.865	AF20NES.jpg
399.534	0.514	Blank	Blank	58.101	n/a	4	11	8	n/a	88	n/a	1	n/a	n/a	n/a	n/a	430.362	n/a
400.065	0.497	neutral	Picture	57.587	n/a	4	11	9	n/a	89	22	1	n/a	n/a	n/a	n/a	430.893	BM03NES.jpg
400.562	0.514	Blank	Blank	57.073	n/a	4	11	9	n/a	89	n/a	1	n/a	n/a	n/a	n/a	431.39	n/a
401.092	0.497	neutral	Picture	56.56	n/a	4	11	10	n/a	90	15	1	n/a	n/a	n/a	n/a	431.921	AF25NES.jpg
401.59	0.514	Blank	Blank	56.046	n/a	4	11	10	n/a	90	n/a	1	n/a	n/a	n/a	n/a	432.418	n/a
402.12	0.497	neutral	Picture	55.532	n/a	4	11	11	n/a	91	19	1	n/a	n/a	n/a	n/a	432.949	AF31NES.jpg
402.618	0.514	Blank	Blank	55.018	n/a	4	11	11	n/a	91	n/a	1	n/a	n/a	n/a	n/a	433.446	n/a
403.148	0.497	neutral	Picture	54.504	n/a	4	11	12	n/a	92	9	1	n/a	n/a	n/a	n/a	433.976	AF17NES.jpg
403.645	0.514	Blank	Blank	53.99	n/a	4	11	12	n/a	92	n/a	1	n/a	n/a	n/a	n/a	434.474	n/a
404.176	0.497	neutral	Picture	53.476	n/a	4	11	13	n/a	93	14	1	n/a	n/a	n/a	n/a	435.004	AF23NES.jpg
404.673	0.514	Blank	Blank	52.962	n/a	4	11	13	n/a	93	n/a	1	n/a	n/a	n/a	n/a	435.502	n/a
405.204	0.497	neutral	Picture	52.448	n/a	4	11	14	n/a	94	36	1	n/a	n/a	n/a	n/a	436.032	BM24NES.jpg
405.701	0.514	Blank	Blank	51.934	n/a	4	11	14	n/a	94	n/a	1	n/a	n/a	n/a	n/a	436.529	n/a
406.232	0.497	neutral	Picture	51.42	n/a	4	11	15	n/a	95	34	1	n/a	n/a	n/a	n/a	437.06	AM22NES.jpg
406.729	0.514	Blank	Blank	50.906	n/a	4	11	15	n/a	95	n/a	1	n/a	n/a	n/a	n/a	437.557	n/a
407.26	0.497	neutral	Picture	50.392	n/a	4	11	16	n/a	96	10	1	n/a	n/a	n/a	n/a	438.088	AF18NES.jpg
407.757	0.514	Blank	Blank	49.878	n/a	4	11	16	n/a	96	n/a	1	n/a	n/a	n/a	n/a	438.585	n/a
408.287	0.497	neutral	Picture	49.364	n/a	4	11	17	n/a	97	5	1	n/a	n/a	n/a	n/a	439.116	BF07NES.jpg
408.785	0.514	Blank	Blank	48.851	n/a	4	11	17	n/a	97	n/a	1	n/a	n/a	n/a	n/a	439.613	n/a
409.315	0.497	neutral	Picture	48.336	n/a	4	11	18	n/a	98	25	1	n/a	n/a	n/a	n/a	440.144	BM06NES.jpg
409.813	0.514	Blank	Blank	47.823	n/a	4	11	18	n/a	98	n/a	1	n/a	n/a	n/a	n/a	440.641	n/a
410.343	0.497	neutral	Picture	47.309	n/a	4	11	19	n/a	99	39	1	n/a	n/a	n/a	n/a	441.172	AM28NES.jpg
410.841	0.514	Blank	Blank	46.795	n/a	4	11	19	n/a	99	n/a	1	n/a	n/a	n/a	n/a	441.669	n/a
411.371	0.497	neutral	Picture	46.281	n/a	4	11	20	n/a	100	33	1	n/a	n/a	n/a	n/a	442.2	AM21NES.jpg
411.868	0.514	Blank	Blank	45.767	n/a	4	11	20	n/a	100	n/a	1	n/a	n/a	n/a	n/a	442.697	n/a
412.399	10.014	ITI	Fixation+	35.737	n/a	4	n/a	n/a	n/a	n/a	n/a	n/a	n/a	n/a	n/a	n/a	443.227	n/a
422.429	0.497	angry	Picture	35.223	n/a	4	12	1	n/a	101	74	2	n/a	n/a	n/a	n/a	453.257	AM22HAS.jpg
422.926	0.514	Blank	Blank	34.709	n/a	4	12	1	n/a	101	n/a	2	n/a	n/a	n/a	n/a	453.755	n/a
423.457	0.497	angry	Picture	34.195	n/a	4	12	2	n/a	102	76	2	n/a	n/a	n/a	n/a	454.285	BM24HAS.jpg
423.954	0.514	Blank	Blank	33.681	n/a	4	12	2	n/a	102	n/a	2	n/a	n/a	n/a	n/a	454.783	n/a
424.485	0.497	angry	Picture	33.167	n/a	4	12	3	n/a	103	80	2	n/a	n/a	n/a	n/a	455.313	BM35HAS.jpg
424.982	0.514	Blank	Blank	32.653	n/a	4	12	3	n/a	103	n/a	2	n/a	n/a	n/a	n/a	455.811	n/a
425.513	0.497	angry	Picture	32.139	n/a	4	12	4	n/a	104	75	2	n/a	n/a	n/a	n/a	456.341	AM23HAS.jpg
426.01	0.514	Blank	Blank	31.625	n/a	4	12	4	n/a	104	n/a	2	n/a	n/a	n/a	n/a	456.839	n/a
426.541	0.497	angry	Picture	31.111	n/a	4	12	5	n/a	105	49	2	n/a	n/a	n/a	n/a	457.369	AF17HAS.jpg
427.038	0.514	Blank	Blank	30.597	n/a	4	12	5	n/a	105	n/a	2	n/a	n/a	n/a	n/a	457.866	n/a
427.569	0.497	angry	Picture	30.083	n/a	4	12	6	n/a	106	43	2	n/a	n/a	n/a	n/a	458.397	BF04HAS.jpg
428.066	0.514	Blank	Blank	29.569	n/a	4	12	6	n/a	106	n/a	2	n/a	n/a	n/a	n/a	458.894	n/a
428.596	0.497	angry	Picture	29.055	n/a	4	12	7	n/a	107	70	2	n/a	n/a	n/a	n/a	459.425	BM11HAS.jpg
429.094	0.514	Blank	Blank	28.541	n/a	4	12	7	n/a	107	n/a	2	n/a	n/a	n/a	n/a	459.922	n/a
429.624	0.497	angry	Picture	28.028	n/a	4	12	8	n/a	108	66	2	n/a	n/a	n/a	n/a	460.453	BM07HAS.jpg
430.122	0.514	Blank	Blank	27.514	n/a	4	12	8	n/a	108	n/a	2	n/a	n/a	n/a	n/a	460.95	n/a
430.652	0.497	angry	Picture	27.0	n/a	4	12	9	n/a	109	48	2	n/a	n/a	n/a	n/a	461.481	AF14HAS.jpg
431.15	0.514	Blank	Blank	26.486	n/a	4	12	9	n/a	109	n/a	2	n/a	n/a	n/a	n/a	461.978	n/a
431.68	0.497	angry	Picture	25.972	n/a	4	12	10	n/a	110	58	2	n/a	n/a	n/a	n/a	462.508	BF29HAS.jpg
432.178	0.514	Blank	Blank	25.458	n/a	4	12	10	n/a	110	n/a	2	n/a	n/a	n/a	n/a	463.006	n/a
432.708	0.497	angry	Picture	24.944	n/a	4	12	11	n/a	111	63	2	n/a	n/a	n/a	n/a	463.536	AM04HAS.jpg
433.205	0.514	Blank	Blank	24.43	n/a	4	12	11	n/a	111	n/a	2	n/a	n/a	n/a	n/a	464.034	n/a
433.736	0.497	angry	Picture	23.916	n/a	4	12	12	n/a	112	72	2	n/a	n/a	n/a	n/a	464.564	AM14HAS.jpg
434.233	0.514	Blank	Blank	23.402	n/a	4	12	12	n/a	112	n/a	2	n/a	n/a	n/a	n/a	465.062	n/a
434.764	0.497	angry	Picture	22.888	n/a	4	12	13	n/a	113	55	2	n/a	n/a	n/a	n/a	465.592	AF25HAS.jpg
435.261	0.514	Blank	Blank	22.374	n/a	4	12	13	n/a	113	n/a	2	n/a	n/a	n/a	n/a	466.089	n/a
435.792	0.497	angry	Picture	21.86	n/a	4	12	14	n/a	114	42	2	n/a	n/a	n/a	n/a	466.62	AF03HAS.jpg
436.289	0.514	Blank	Blank	21.346	n/a	4	12	14	n/a	114	n/a	2	n/a	n/a	n/a	n/a	467.117	n/a
436.82	0.497	angry	Picture	20.832	n/a	4	12	15	n/a	115	60	2	n/a	n/a	n/a	n/a	467.648	AF32HAS.jpg
437.317	0.514	Blank	Blank	20.319	n/a	4	12	15	n/a	115	n/a	2	n/a	n/a	n/a	n/a	468.145	n/a
437.847	0.497	angry	Picture	19.804	n/a	4	12	16	n/a	116	67	2	n/a	n/a	n/a	n/a	468.676	BM08HAS.jpg
438.345	0.514	Blank	Blank	19.291	n/a	4	12	16	n/a	116	n/a	2	n/a	n/a	n/a	n/a	469.173	n/a
438.875	0.497	angry	Picture	18.777	n/a	4	12	17	n/a	117	51	2	n/a	n/a	n/a	n/a	469.704	AF20HAS.jpg
439.373	0.514	Blank	Blank	18.263	n/a	4	12	17	n/a	117	n/a	2	n/a	n/a	n/a	n/a	470.201	n/a
439.903	0.497	angry	Picture	17.749	n/a	4	12	18	n/a	118	71	2	n/a	n/a	n/a	n/a	470.731	BM12HAS.jpg
440.4	0.514	Blank	Blank	17.235	n/a	4	12	18	n/a	118	n/a	2	n/a	n/a	n/a	n/a	471.229	n/a
440.931	0.497	angry	Picture	16.721	n/a	4	12	19	n/a	119	69	2	n/a	n/a	n/a	n/a	471.759	AM10HAS.jpg
441.428	0.514	Blank	Blank	16.207	n/a	4	12	19	n/a	119	n/a	2	n/a	n/a	n/a	n/a	472.257	n/a
441.959	0.497	angry	Picture	15.693	n/a	4	12	20	n/a	120	46	2	n/a	n/a	n/a	n/a	472.787	AF09HAS.jpg
442.456	0.514	Blank	Blank	15.179	n/a	4	12	20	n/a	120	n/a	2	n/a	n/a	n/a	n/a	473.285	n/a
442.987	10.014	ITI	Fixation+	5.149	n/a	4	n/a	n/a	n/a	n/a	n/a	n/a	n/a	n/a	n/a	n/a	473.815	n/a
458.149	n/a	ConfirmRating	Rate	n/a	5.139	4	n/a	n/a	0	n/a	n/a	n/a	2	Angry	61	51	488.978	n/a
463.125	n/a	ConfirmRating	Rate	n/a	4.957	4	n/a	n/a	1	n/a	n/a	n/a	3	Angry	2	48	493.954	n/a
