onset	duration	trial_type	event_type	trial_number	condition	picture_number	time_until_response	response_time	unpleasantness_rating	onset_uncorrected
0.004	5.173	ITI	Fixation+	0	Pain	n/a	8.499	n/a	n/a	34.445
5.193	3.498	Pic2	Picture	0	Pain	7	4.984	n/a	n/a	39.635
8.691	2.006	Blank	Blank	0	Pain	n/a	2.978	n/a	n/a	43.133
13.675	n/a	ConfirmRating	Rate	0	Pain	7	n/a	2.461	0	48.117
13.698	4.095	ITI	Fixation+	1	Pain	n/a	7.945	n/a	n/a	48.139
17.809	3.498	Pic2	Picture	1	Pain	15	4.431	n/a	n/a	52.251
21.308	2.006	Blank	Blank	1	Pain	n/a	2.424	n/a	n/a	55.749
25.738	n/a	ConfirmRating	Rate	1	Pain	15	n/a	1.908	0	60.18
25.767	4.808	ITI	Fixation+	2	No_Pain	n/a	9.547	n/a	n/a	60.209
30.592	3.498	Pic2	Picture	2	No_Pain	34	6.032	n/a	n/a	65.033
34.09	2.006	Blank	Blank	2	No_Pain	n/a	4.026	n/a	n/a	68.531
40.122	n/a	ConfirmRating	Rate	2	No_Pain	34	n/a	3.51	0	74.563
40.141	4.509	ITI	Fixation+	3	No_Pain	n/a	7.378	n/a	n/a	74.582
44.667	3.498	Pic2	Picture	3	No_Pain	35	3.864	n/a	n/a	79.109
48.165	2.006	Blank	Blank	3	No_Pain	n/a	1.858	n/a	n/a	82.607
52.029	n/a	ConfirmRating	Rate	3	No_Pain	35	n/a	1.341	0	86.47
52.061	5.852	ITI	Fixation+	4	Pain	n/a	9.349	n/a	n/a	86.503
57.93	3.498	Pic2	Picture	4	Pain	6	5.834	n/a	n/a	92.371
61.428	2.006	Blank	Blank	4	Pain	n/a	3.828	n/a	n/a	95.87
67.262	n/a	ConfirmRating	Rate	4	Pain	6	n/a	3.312	0	101.704
67.28	5.803	ITI	Fixation+	5	No_Pain	n/a	8.928	n/a	n/a	101.722
73.1	3.498	Pic2	Picture	5	No_Pain	29	5.414	n/a	n/a	107.541
76.598	2.006	Blank	Blank	5	No_Pain	n/a	3.408	n/a	n/a	111.039
82.011	n/a	ConfirmRating	Rate	5	No_Pain	29	n/a	2.891	0	116.453
82.036	5.388	ITI	Fixation+	6	No_Pain	n/a	7.885	n/a	n/a	116.477
87.44	3.498	Pic2	Picture	6	No_Pain	39	4.371	n/a	n/a	121.882
90.938	2.006	Blank	Blank	6	No_Pain	n/a	2.365	n/a	n/a	125.38
95.309	n/a	ConfirmRating	Rate	6	No_Pain	39	n/a	1.848	0	129.751
95.332	4.957	ITI	Fixation+	7	Pain	n/a	8.368	n/a	n/a	129.773
100.305	3.498	Pic2	Picture	7	Pain	9	4.853	n/a	n/a	134.747
103.804	2.006	Blank	Blank	7	Pain	n/a	2.847	n/a	n/a	138.245
108.657	n/a	ConfirmRating	Rate	7	Pain	9	n/a	2.331	0	143.098
108.678	4.194	ITI	Fixation+	8	Pain	n/a	7.549	n/a	n/a	143.119
112.889	3.498	Pic2	Picture	8	Pain	14	4.034	n/a	n/a	147.33
116.387	2.006	Blank	Blank	8	Pain	n/a	2.028	n/a	n/a	150.828
120.421	n/a	ConfirmRating	Rate	8	Pain	14	n/a	1.512	0	154.862
120.448	5.007	ITI	Fixation+	9	No_Pain	n/a	7.544	n/a	n/a	154.89
125.472	3.498	Pic2	Picture	9	No_Pain	27	4.03	n/a	n/a	159.913
128.97	2.006	Blank	Blank	9	No_Pain	n/a	2.024	n/a	n/a	163.411
133.0	n/a	ConfirmRating	Rate	9	No_Pain	27	n/a	1.507	0	167.441
133.032	4.311	ITI	Fixation+	10	Pain	n/a	7.46	n/a	n/a	167.473
137.359	3.498	Pic2	Picture	10	Pain	20	3.945	n/a	n/a	171.8
140.857	2.006	Blank	Blank	10	Pain	n/a	1.939	n/a	n/a	175.298
144.802	n/a	ConfirmRating	Rate	10	Pain	20	n/a	1.422	0	179.244
144.819	4.045	ITI	Fixation+	11	No_Pain	n/a	7.828	n/a	n/a	179.261
148.881	3.498	Pic2	Picture	11	No_Pain	40	4.313	n/a	n/a	183.323
152.379	2.006	Blank	Blank	11	No_Pain	n/a	2.307	n/a	n/a	186.821
156.692	n/a	ConfirmRating	Rate	11	No_Pain	40	n/a	1.79	0	191.134
156.723	4.194	ITI	Fixation+	12	No_Pain	n/a	8.602	n/a	n/a	191.164
160.934	3.498	Pic2	Picture	12	No_Pain	33	5.087	n/a	n/a	195.375
164.432	2.006	Blank	Blank	12	No_Pain	n/a	3.081	n/a	n/a	198.874
169.519	n/a	ConfirmRating	Rate	12	No_Pain	33	n/a	2.564	0	203.961
169.538	4.974	ITI	Fixation+	13	Pain	n/a	8.844	n/a	n/a	203.98
174.529	3.498	Pic2	Picture	13	Pain	18	5.329	n/a	n/a	208.97
178.027	2.006	Blank	Blank	13	Pain	n/a	3.323	n/a	n/a	212.468
183.356	n/a	ConfirmRating	Rate	13	Pain	18	n/a	2.807	0	217.797
183.382	5.438	ITI	Fixation+	14	No_Pain	n/a	6.79	n/a	n/a	217.823
188.836	3.498	Pic2	Picture	14	No_Pain	31	3.276	n/a	n/a	223.277
192.334	2.006	Blank	Blank	14	No_Pain	n/a	1.27	n/a	n/a	226.776
195.61	n/a	ConfirmRating	Rate	14	No_Pain	31	n/a	0.753	0	230.051
195.633	4.244	ITI	Fixation+	15	Pain	n/a	8.069	n/a	n/a	230.075
199.894	3.498	Pic2	Picture	15	Pain	17	4.554	n/a	n/a	234.335
203.392	2.006	Blank	Blank	15	Pain	n/a	2.548	n/a	n/a	237.834
207.947	n/a	ConfirmRating	Rate	15	Pain	17	n/a	2.032	0	242.388
207.968	4.708	ITI	Fixation+	16	Pain	n/a	7.857	n/a	n/a	242.409
212.693	3.498	Pic2	Picture	16	Pain	11	4.342	n/a	n/a	247.134
216.191	2.006	Blank	Blank	16	Pain	n/a	2.336	n/a	n/a	250.632
220.533	n/a	ConfirmRating	Rate	16	Pain	11	n/a	1.819	1	254.975
220.551	4.576	ITI	Fixation+	17	No_Pain	n/a	7.809	n/a	n/a	254.993
225.143	3.498	Pic2	Picture	17	No_Pain	36	4.294	n/a	n/a	259.585
228.642	2.006	Blank	Blank	17	No_Pain	n/a	2.288	n/a	n/a	263.083
232.936	n/a	ConfirmRating	Rate	17	No_Pain	36	n/a	1.772	0	267.378
232.969	5.173	ITI	Fixation+	18	Pain	n/a	8.207	n/a	n/a	267.41
238.158	3.498	Pic2	Picture	18	Pain	10	4.692	n/a	n/a	272.599
241.656	2.006	Blank	Blank	18	Pain	n/a	2.686	n/a	n/a	276.097
246.348	n/a	ConfirmRating	Rate	18	Pain	10	n/a	2.169	0	280.789
246.381	5.902	ITI	Fixation+	19	No_Pain	n/a	8.369	n/a	n/a	280.822
252.299	3.498	Pic2	Picture	19	No_Pain	23	4.854	n/a	n/a	286.741
255.798	2.006	Blank	Blank	19	No_Pain	n/a	2.848	n/a	n/a	290.239
260.652	n/a	ConfirmRating	Rate	19	No_Pain	23	n/a	2.332	0	295.093
260.672	15.004	Rest	n/a	19	n/a	n/a	-15.024	n/a	n/a	295.113
275.692	5.885	ITI	Fixation+	20	Pain	n/a	7.477	n/a	n/a	310.134
281.594	3.498	Pic2	Picture	20	Pain	1	3.962	n/a	n/a	316.036
285.092	2.006	Blank	Blank	20	Pain	n/a	1.956	n/a	n/a	319.534
289.054	n/a	ConfirmRating	Rate	20	Pain	1	n/a	1.439	0	323.496
289.067	5.143	ITI	Fixation+	21	Pain	n/a	7.572	n/a	n/a	323.509
294.227	3.498	Pic2	Picture	21	Pain	8	4.058	n/a	n/a	328.669
297.725	2.006	Blank	Blank	21	Pain	n/a	2.052	n/a	n/a	332.167
301.783	n/a	ConfirmRating	Rate	21	Pain	8	n/a	1.535	0	336.225
301.804	4.161	ITI	Fixation+	22	No_Pain	n/a	8.581	n/a	n/a	336.245
305.981	3.498	Pic2	Picture	22	No_Pain	22	5.066	n/a	n/a	340.423
309.48	2.006	Blank	Blank	22	No_Pain	n/a	3.06	n/a	n/a	343.921
314.546	n/a	ConfirmRating	Rate	22	No_Pain	22	n/a	2.544	0	348.988
314.569	5.72	ITI	Fixation+	23	Pain	n/a	7.965	n/a	n/a	349.011
320.305	3.498	Pic2	Picture	23	Pain	16	4.45	n/a	n/a	354.747
323.804	2.006	Blank	Blank	23	Pain	n/a	2.444	n/a	n/a	358.245
328.254	n/a	ConfirmRating	Rate	23	Pain	16	n/a	1.928	0	362.695
328.28	4.095	ITI	Fixation+	24	No_Pain	n/a	7.872	n/a	n/a	362.721
332.392	3.498	Pic2	Picture	24	No_Pain	38	4.357	n/a	n/a	366.833
335.89	2.006	Blank	Blank	24	No_Pain	n/a	2.351	n/a	n/a	370.331
340.247	n/a	ConfirmRating	Rate	24	No_Pain	38	n/a	1.835	0	374.688
340.266	5.902	ITI	Fixation+	25	No_Pain	n/a	9.446	n/a	n/a	374.708
346.185	3.498	Pic2	Picture	25	No_Pain	21	5.931	n/a	n/a	380.627
349.683	2.006	Blank	Blank	25	No_Pain	n/a	3.925	n/a	n/a	384.125
355.614	n/a	ConfirmRating	Rate	25	No_Pain	21	n/a	3.408	0	390.056
355.635	5.488	ITI	Fixation+	26	Pain	n/a	7.389	n/a	n/a	390.076
361.139	3.498	Pic2	Picture	26	Pain	5	3.874	n/a	n/a	395.58
364.637	2.006	Blank	Blank	26	Pain	n/a	1.868	n/a	n/a	399.079
368.511	n/a	ConfirmRating	Rate	26	Pain	5	n/a	1.351	0	402.953
368.533	5.537	ITI	Fixation+	27	No_Pain	n/a	8.868	n/a	n/a	402.975
374.087	3.498	Pic2	Picture	27	No_Pain	32	5.354	n/a	n/a	408.529
377.585	2.006	Blank	Blank	27	No_Pain	n/a	3.348	n/a	n/a	412.027
382.939	n/a	ConfirmRating	Rate	27	No_Pain	32	n/a	2.831	0	417.38
382.957	5.537	ITI	Fixation+	28	Pain	n/a	7.525	n/a	n/a	417.398
388.511	3.498	Pic2	Picture	28	Pain	13	4.01	n/a	n/a	422.952
392.009	2.006	Blank	Blank	28	Pain	n/a	2.004	n/a	n/a	426.45
396.019	n/a	ConfirmRating	Rate	28	Pain	13	n/a	1.488	0	430.46
396.037	5.239	ITI	Fixation+	29	No_Pain	n/a	7.154	n/a	n/a	430.479
401.293	3.498	Pic2	Picture	29	No_Pain	28	3.64	n/a	n/a	435.734
404.791	2.006	Blank	Blank	29	No_Pain	n/a	1.634	n/a	n/a	439.232
408.43	n/a	ConfirmRating	Rate	29	No_Pain	28	n/a	1.117	0	442.872
408.455	5.372	ITI	Fixation+	30	Pain	n/a	9.052	n/a	n/a	442.896
413.843	3.498	Pic2	Picture	30	Pain	4	5.537	n/a	n/a	448.284
417.341	2.006	Blank	Blank	30	Pain	n/a	3.531	n/a	n/a	451.783
422.878	n/a	ConfirmRating	Rate	30	Pain	4	n/a	3.014	0	457.32
422.895	4.427	ITI	Fixation+	31	No_Pain	n/a	8.597	n/a	n/a	457.336
427.338	3.498	Pic2	Picture	31	No_Pain	30	5.082	n/a	n/a	461.779
430.836	2.006	Blank	Blank	31	No_Pain	n/a	3.076	n/a	n/a	465.278
435.918	n/a	ConfirmRating	Rate	31	No_Pain	30	n/a	2.559	0	470.36
435.942	6.002	ITI	Fixation+	32	Pain	n/a	7.539	n/a	n/a	470.384
441.96	3.498	Pic2	Picture	32	Pain	3	4.024	n/a	n/a	476.402
445.459	2.006	Blank	Blank	32	Pain	n/a	2.018	n/a	n/a	479.9
449.483	n/a	ConfirmRating	Rate	32	Pain	3	n/a	1.502	0	483.925
449.504	4.708	ITI	Fixation+	33	Pain	n/a	7.156	n/a	n/a	483.945
454.229	3.498	Pic2	Picture	33	Pain	12	3.641	n/a	n/a	488.67
457.727	2.006	Blank	Blank	33	Pain	n/a	1.635	n/a	n/a	492.168
461.368	n/a	ConfirmRating	Rate	33	Pain	12	n/a	1.118	0	495.809
461.391	4.841	ITI	Fixation+	34	No_Pain	n/a	7.926	n/a	n/a	495.832
466.248	3.498	Pic2	Picture	34	No_Pain	26	4.411	n/a	n/a	500.69
469.746	2.006	Blank	Blank	34	No_Pain	n/a	2.405	n/a	n/a	504.188
474.158	n/a	ConfirmRating	Rate	34	No_Pain	26	n/a	1.889	0	508.599
474.19	4.427	ITI	Fixation+	35	Pain	n/a	6.698	n/a	n/a	508.631
478.633	3.498	Pic2	Picture	35	Pain	2	3.184	n/a	n/a	513.074
482.131	2.006	Blank	Blank	35	Pain	n/a	1.177	n/a	n/a	516.572
485.314	n/a	ConfirmRating	Rate	35	Pain	2	n/a	0.66	0	519.756
485.347	4.808	ITI	Fixation+	36	No_Pain	n/a	7.992	n/a	n/a	519.789
490.172	3.498	Pic2	Picture	36	No_Pain	37	4.477	n/a	n/a	524.613
493.67	2.006	Blank	Blank	36	No_Pain	n/a	2.471	n/a	n/a	528.111
498.147	n/a	ConfirmRating	Rate	36	No_Pain	37	n/a	1.955	0	532.589
498.179	4.609	ITI	Fixation+	37	Pain	n/a	8.834	n/a	n/a	532.621
502.805	3.498	Pic2	Picture	37	Pain	19	5.319	n/a	n/a	537.246
506.303	2.006	Blank	Blank	37	Pain	n/a	3.313	n/a	n/a	540.744
511.622	n/a	ConfirmRating	Rate	37	Pain	19	n/a	2.797	0	546.064
511.641	5.869	ITI	Fixation+	38	No_Pain	n/a	8.666	n/a	n/a	546.082
517.526	3.498	Pic2	Picture	38	No_Pain	25	5.151	n/a	n/a	551.968
521.025	2.006	Blank	Blank	38	No_Pain	n/a	3.145	n/a	n/a	555.466
526.176	n/a	ConfirmRating	Rate	38	No_Pain	25	n/a	2.629	0	560.617
526.197	4.576	ITI	Fixation+	39	No_Pain	n/a	7.072	n/a	n/a	560.639
530.789	3.498	Pic2	Picture	39	No_Pain	24	3.557	n/a	n/a	565.231
534.288	2.006	Blank	Blank	39	No_Pain	n/a	1.551	n/a	n/a	568.729
537.845	n/a	ConfirmRating	Rate	39	No_Pain	24	n/a	1.035	0	572.286
