onset	duration	trial_type	event_type	time_until_response	response_time	trial_number	block_num_within_trial	image_seq_num_within_block	question_seq_num_within_block	image_seq_num	picture_number	condition	question_type	block_type	rating	rating_computed	onset_uncorrected	KDEV_imagefile
0.007	10.014	ITI	Fixation+	99.239	n/a	1	n/a	n/a	n/a	n/a	n/a	n/a	n/a	n/a	n/a	n/a	29.455	n/a
10.037	0.497	happy	Picture	98.725	n/a	1	1	1	n/a	1	46	2	n/a	n/a	n/a	n/a	39.485	AF09HAS.jpg
10.534	0.514	Blank	Blank	98.211	n/a	1	1	1	n/a	1	n/a	2	n/a	n/a	n/a	n/a	39.983	n/a
11.065	0.497	happy	Picture	97.697	n/a	1	1	2	n/a	2	69	2	n/a	n/a	n/a	n/a	40.513	AM10HAS.jpg
11.562	0.514	Blank	Blank	97.183	n/a	1	1	2	n/a	2	n/a	2	n/a	n/a	n/a	n/a	41.011	n/a
12.093	0.497	happy	Picture	96.669	n/a	1	1	3	n/a	3	71	2	n/a	n/a	n/a	n/a	41.541	BM12HAS.jpg
12.59	0.514	Blank	Blank	96.155	n/a	1	1	3	n/a	3	n/a	2	n/a	n/a	n/a	n/a	42.038	n/a
13.121	0.497	happy	Picture	95.641	n/a	1	1	4	n/a	4	51	2	n/a	n/a	n/a	n/a	42.569	AF20HAS.jpg
13.618	0.514	Blank	Blank	95.127	n/a	1	1	4	n/a	4	n/a	2	n/a	n/a	n/a	n/a	43.066	n/a
14.149	0.497	happy	Picture	94.613	n/a	1	1	5	n/a	5	67	2	n/a	n/a	n/a	n/a	43.597	BM08HAS.jpg
14.646	0.514	Blank	Blank	94.099	n/a	1	1	5	n/a	5	n/a	2	n/a	n/a	n/a	n/a	44.094	n/a
15.177	0.497	happy	Picture	93.585	n/a	1	1	6	n/a	6	60	2	n/a	n/a	n/a	n/a	44.625	AF32HAS.jpg
15.674	0.514	Blank	Blank	93.071	n/a	1	1	6	n/a	6	n/a	2	n/a	n/a	n/a	n/a	45.122	n/a
16.204	0.497	happy	Picture	92.557	n/a	1	1	7	n/a	7	42	2	n/a	n/a	n/a	n/a	45.653	AF03HAS.jpg
16.702	0.514	Blank	Blank	92.043	n/a	1	1	7	n/a	7	n/a	2	n/a	n/a	n/a	n/a	46.15	n/a
17.232	0.497	happy	Picture	91.529	n/a	1	1	8	n/a	8	55	2	n/a	n/a	n/a	n/a	46.681	AF25HAS.jpg
17.73	0.514	Blank	Blank	91.016	n/a	1	1	8	n/a	8	n/a	2	n/a	n/a	n/a	n/a	47.178	n/a
18.26	0.497	happy	Picture	90.502	n/a	1	1	9	n/a	9	72	2	n/a	n/a	n/a	n/a	47.709	AM14HAS.jpg
18.758	0.514	Blank	Blank	89.988	n/a	1	1	9	n/a	9	n/a	2	n/a	n/a	n/a	n/a	48.206	n/a
19.288	0.497	happy	Picture	89.474	n/a	1	1	10	n/a	10	63	2	n/a	n/a	n/a	n/a	48.736	AM04HAS.jpg
19.785	0.514	Blank	Blank	88.96	n/a	1	1	10	n/a	10	n/a	2	n/a	n/a	n/a	n/a	49.234	n/a
20.316	0.497	happy	Picture	88.446	n/a	1	1	11	n/a	11	58	2	n/a	n/a	n/a	n/a	49.764	BF29HAS.jpg
20.813	0.514	Blank	Blank	87.932	n/a	1	1	11	n/a	11	n/a	2	n/a	n/a	n/a	n/a	50.262	n/a
21.344	0.497	happy	Picture	87.418	n/a	1	1	12	n/a	12	48	2	n/a	n/a	n/a	n/a	50.792	AF14HAS.jpg
21.841	0.514	Blank	Blank	86.904	n/a	1	1	12	n/a	12	n/a	2	n/a	n/a	n/a	n/a	51.289	n/a
22.372	0.497	happy	Picture	86.39	n/a	1	1	13	n/a	13	66	2	n/a	n/a	n/a	n/a	51.82	BM07HAS.jpg
22.869	0.514	Blank	Blank	85.876	n/a	1	1	13	n/a	13	n/a	2	n/a	n/a	n/a	n/a	52.317	n/a
23.4	0.497	happy	Picture	85.362	n/a	1	1	14	n/a	14	70	2	n/a	n/a	n/a	n/a	52.848	BM11HAS.jpg
23.897	0.514	Blank	Blank	84.848	n/a	1	1	14	n/a	14	n/a	2	n/a	n/a	n/a	n/a	53.345	n/a
24.427	0.497	happy	Picture	84.334	n/a	1	1	15	n/a	15	43	2	n/a	n/a	n/a	n/a	53.876	BF04HAS.jpg
24.925	0.514	Blank	Blank	83.82	n/a	1	1	15	n/a	15	n/a	2	n/a	n/a	n/a	n/a	54.373	n/a
25.455	0.497	happy	Picture	83.306	n/a	1	1	16	n/a	16	49	2	n/a	n/a	n/a	n/a	54.904	AF17HAS.jpg
25.953	0.514	Blank	Blank	82.792	n/a	1	1	16	n/a	16	n/a	2	n/a	n/a	n/a	n/a	55.401	n/a
26.483	0.497	happy	Picture	82.279	n/a	1	1	17	n/a	17	75	2	n/a	n/a	n/a	n/a	55.932	AM23HAS.jpg
26.981	0.514	Blank	Blank	81.764	n/a	1	1	17	n/a	17	n/a	2	n/a	n/a	n/a	n/a	56.429	n/a
27.511	0.497	happy	Picture	81.251	n/a	1	1	18	n/a	18	80	2	n/a	n/a	n/a	n/a	56.959	BM35HAS.jpg
28.009	0.514	Blank	Blank	80.737	n/a	1	1	18	n/a	18	n/a	2	n/a	n/a	n/a	n/a	57.457	n/a
28.539	0.497	happy	Picture	80.223	n/a	1	1	19	n/a	19	76	2	n/a	n/a	n/a	n/a	57.987	BM24HAS.jpg
29.036	0.514	Blank	Blank	79.709	n/a	1	1	19	n/a	19	n/a	2	n/a	n/a	n/a	n/a	58.485	n/a
29.567	0.497	happy	Picture	79.195	n/a	1	1	20	n/a	20	74	2	n/a	n/a	n/a	n/a	59.015	AM22HAS.jpg
30.064	0.514	Blank	Blank	78.681	n/a	1	1	20	n/a	20	n/a	2	n/a	n/a	n/a	n/a	59.513	n/a
30.595	10.014	ITI	Fixation+	68.651	n/a	1	n/a	n/a	n/a	n/a	n/a	n/a	n/a	n/a	n/a	n/a	60.043	n/a
40.625	0.497	neutral	Picture	68.137	n/a	1	2	1	n/a	21	33	1	n/a	n/a	n/a	n/a	70.073	AM21NES.jpg
41.122	0.514	Blank	Blank	67.623	n/a	1	2	1	n/a	21	n/a	1	n/a	n/a	n/a	n/a	70.571	n/a
41.653	0.497	neutral	Picture	67.109	n/a	1	2	2	n/a	22	39	1	n/a	n/a	n/a	n/a	71.101	AM28NES.jpg
42.15	0.514	Blank	Blank	66.595	n/a	1	2	2	n/a	22	n/a	1	n/a	n/a	n/a	n/a	71.599	n/a
42.681	0.497	neutral	Picture	66.081	n/a	1	2	3	n/a	23	25	1	n/a	n/a	n/a	n/a	72.129	BM06NES.jpg
43.178	0.514	Blank	Blank	65.567	n/a	1	2	3	n/a	23	n/a	1	n/a	n/a	n/a	n/a	72.626	n/a
43.709	0.497	neutral	Picture	65.053	n/a	1	2	4	n/a	24	5	1	n/a	n/a	n/a	n/a	73.157	BF07NES.jpg
44.206	0.514	Blank	Blank	64.539	n/a	1	2	4	n/a	24	n/a	1	n/a	n/a	n/a	n/a	73.654	n/a
44.736	0.497	neutral	Picture	64.025	n/a	1	2	5	n/a	25	10	1	n/a	n/a	n/a	n/a	74.185	AF18NES.jpg
45.234	0.514	Blank	Blank	63.511	n/a	1	2	5	n/a	25	n/a	1	n/a	n/a	n/a	n/a	74.682	n/a
45.764	0.497	neutral	Picture	62.997	n/a	1	2	6	n/a	26	34	1	n/a	n/a	n/a	n/a	75.213	AM22NES.jpg
46.262	0.514	Blank	Blank	62.483	n/a	1	2	6	n/a	26	n/a	1	n/a	n/a	n/a	n/a	75.71	n/a
46.792	0.497	neutral	Picture	61.969	n/a	1	2	7	n/a	27	36	1	n/a	n/a	n/a	n/a	76.241	BM24NES.jpg
47.29	0.514	Blank	Blank	61.456	n/a	1	2	7	n/a	27	n/a	1	n/a	n/a	n/a	n/a	76.738	n/a
47.82	0.497	neutral	Picture	60.942	n/a	1	2	8	n/a	28	14	1	n/a	n/a	n/a	n/a	77.269	AF23NES.jpg
48.318	0.514	Blank	Blank	60.428	n/a	1	2	8	n/a	28	n/a	1	n/a	n/a	n/a	n/a	77.766	n/a
48.848	0.497	neutral	Picture	59.914	n/a	1	2	9	n/a	29	9	1	n/a	n/a	n/a	n/a	78.296	AF17NES.jpg
49.345	0.514	Blank	Blank	59.4	n/a	1	2	9	n/a	29	n/a	1	n/a	n/a	n/a	n/a	78.794	n/a
49.876	0.497	neutral	Picture	58.886	n/a	1	2	10	n/a	30	19	1	n/a	n/a	n/a	n/a	79.324	AF31NES.jpg
50.373	0.514	Blank	Blank	58.372	n/a	1	2	10	n/a	30	n/a	1	n/a	n/a	n/a	n/a	79.822	n/a
50.904	0.497	neutral	Picture	57.858	n/a	1	2	11	n/a	31	15	1	n/a	n/a	n/a	n/a	80.352	AF25NES.jpg
51.401	0.514	Blank	Blank	57.344	n/a	1	2	11	n/a	31	n/a	1	n/a	n/a	n/a	n/a	80.85	n/a
51.932	0.497	neutral	Picture	56.83	n/a	1	2	12	n/a	32	22	1	n/a	n/a	n/a	n/a	81.38	BM03NES.jpg
52.429	0.514	Blank	Blank	56.316	n/a	1	2	12	n/a	32	n/a	1	n/a	n/a	n/a	n/a	81.877	n/a
52.96	0.497	neutral	Picture	55.802	n/a	1	2	13	n/a	33	11	1	n/a	n/a	n/a	n/a	82.408	AF20NES.jpg
53.457	0.514	Blank	Blank	55.288	n/a	1	2	13	n/a	33	n/a	1	n/a	n/a	n/a	n/a	82.905	n/a
53.987	0.497	neutral	Picture	54.774	n/a	1	2	14	n/a	34	4	1	n/a	n/a	n/a	n/a	83.436	AF05NES.jpg
54.485	0.514	Blank	Blank	54.26	n/a	1	2	14	n/a	34	n/a	1	n/a	n/a	n/a	n/a	83.933	n/a
55.015	0.497	neutral	Picture	53.746	n/a	1	2	15	n/a	35	17	1	n/a	n/a	n/a	n/a	84.464	BF28NES.jpg
55.513	0.514	Blank	Blank	53.232	n/a	1	2	15	n/a	35	n/a	1	n/a	n/a	n/a	n/a	84.961	n/a
56.043	0.497	neutral	Picture	52.718	n/a	1	2	16	n/a	36	13	1	n/a	n/a	n/a	n/a	85.492	BF22NES.jpg
56.541	0.514	Blank	Blank	52.205	n/a	1	2	16	n/a	36	n/a	1	n/a	n/a	n/a	n/a	85.989	n/a
57.071	0.497	neutral	Picture	51.691	n/a	1	2	17	n/a	37	12	1	n/a	n/a	n/a	n/a	86.519	AF21NES.jpg
57.569	0.514	Blank	Blank	51.177	n/a	1	2	17	n/a	37	n/a	1	n/a	n/a	n/a	n/a	87.017	n/a
58.099	0.497	neutral	Picture	50.663	n/a	1	2	18	n/a	38	24	1	n/a	n/a	n/a	n/a	87.547	BM05NES.jpg
58.596	0.514	Blank	Blank	50.149	n/a	1	2	18	n/a	38	n/a	1	n/a	n/a	n/a	n/a	88.045	n/a
59.127	0.497	neutral	Picture	49.635	n/a	1	2	19	n/a	39	29	1	n/a	n/a	n/a	n/a	88.575	AM10NES.jpg
59.624	0.514	Blank	Blank	49.121	n/a	1	2	19	n/a	39	n/a	1	n/a	n/a	n/a	n/a	89.073	n/a
60.155	0.497	neutral	Picture	48.607	n/a	1	2	20	n/a	40	23	1	n/a	n/a	n/a	n/a	89.603	AM04NES.jpg
60.652	0.514	Blank	Blank	48.093	n/a	1	2	20	n/a	40	n/a	1	n/a	n/a	n/a	n/a	90.1	n/a
61.183	10.014	ITI	Fixation+	38.063	n/a	1	n/a	n/a	n/a	n/a	n/a	n/a	n/a	n/a	n/a	n/a	90.631	n/a
71.213	0.497	happy	Picture	37.549	n/a	1	3	1	n/a	41	62	2	n/a	n/a	n/a	n/a	100.661	BM03HAS.jpg
71.71	0.514	Blank	Blank	37.035	n/a	1	3	1	n/a	41	n/a	2	n/a	n/a	n/a	n/a	101.159	n/a
72.241	0.497	happy	Picture	36.521	n/a	1	3	2	n/a	42	52	2	n/a	n/a	n/a	n/a	101.689	AF21HAS.jpg
72.738	0.514	Blank	Blank	36.007	n/a	1	3	2	n/a	42	n/a	2	n/a	n/a	n/a	n/a	102.186	n/a
73.269	0.497	happy	Picture	35.493	n/a	1	3	3	n/a	43	44	2	n/a	n/a	n/a	n/a	102.717	AF05HAS.jpg
73.766	0.514	Blank	Blank	34.979	n/a	1	3	3	n/a	43	n/a	2	n/a	n/a	n/a	n/a	103.214	n/a
74.297	0.497	happy	Picture	34.465	n/a	1	3	4	n/a	44	53	2	n/a	n/a	n/a	n/a	103.745	BF22HAS.jpg
74.794	0.514	Blank	Blank	33.951	n/a	1	3	4	n/a	44	n/a	2	n/a	n/a	n/a	n/a	104.242	n/a
75.324	0.497	happy	Picture	33.437	n/a	1	3	5	n/a	45	54	2	n/a	n/a	n/a	n/a	104.773	AF23HAS.jpg
75.822	0.514	Blank	Blank	32.923	n/a	1	3	5	n/a	45	n/a	2	n/a	n/a	n/a	n/a	105.27	n/a
76.352	0.497	happy	Picture	32.409	n/a	1	3	6	n/a	46	68	2	n/a	n/a	n/a	n/a	105.801	AM09HAS.jpg
76.85	0.514	Blank	Blank	31.895	n/a	1	3	6	n/a	46	n/a	2	n/a	n/a	n/a	n/a	106.298	n/a
77.38	0.497	happy	Picture	31.382	n/a	1	3	7	n/a	47	64	2	n/a	n/a	n/a	n/a	106.829	BM05HAS.jpg
77.878	0.514	Blank	Blank	30.868	n/a	1	3	7	n/a	47	n/a	2	n/a	n/a	n/a	n/a	107.326	n/a
78.408	0.497	happy	Picture	30.354	n/a	1	3	8	n/a	48	59	2	n/a	n/a	n/a	n/a	107.856	AF31HAS.jpg
78.906	0.514	Blank	Blank	29.84	n/a	1	3	8	n/a	48	n/a	2	n/a	n/a	n/a	n/a	108.354	n/a
79.436	0.497	happy	Picture	29.326	n/a	1	3	9	n/a	49	41	2	n/a	n/a	n/a	n/a	108.884	AF01HAS.jpg
79.933	0.514	Blank	Blank	28.812	n/a	1	3	9	n/a	49	n/a	2	n/a	n/a	n/a	n/a	109.382	n/a
80.464	0.497	happy	Picture	28.298	n/a	1	3	10	n/a	50	73	2	n/a	n/a	n/a	n/a	109.912	AM21HAS.jpg
80.961	0.514	Blank	Blank	27.784	n/a	1	3	10	n/a	50	n/a	2	n/a	n/a	n/a	n/a	110.409	n/a
81.492	0.497	happy	Picture	27.27	n/a	1	3	11	n/a	51	65	2	n/a	n/a	n/a	n/a	110.94	BM06HAS.jpg
81.989	0.514	Blank	Blank	26.756	n/a	1	3	11	n/a	51	n/a	2	n/a	n/a	n/a	n/a	111.437	n/a
82.52	0.497	happy	Picture	26.242	n/a	1	3	12	n/a	52	56	2	n/a	n/a	n/a	n/a	111.968	AF26HAS.jpg
83.017	0.514	Blank	Blank	25.728	n/a	1	3	12	n/a	52	n/a	2	n/a	n/a	n/a	n/a	112.465	n/a
83.547	0.497	happy	Picture	25.214	n/a	1	3	13	n/a	53	45	2	n/a	n/a	n/a	n/a	112.996	BF07HAS.jpg
84.045	0.514	Blank	Blank	24.7	n/a	1	3	13	n/a	53	n/a	2	n/a	n/a	n/a	n/a	113.493	n/a
84.575	0.497	happy	Picture	24.186	n/a	1	3	14	n/a	54	78	2	n/a	n/a	n/a	n/a	114.024	BM26HAS.jpg
85.073	0.514	Blank	Blank	23.672	n/a	1	3	14	n/a	54	n/a	2	n/a	n/a	n/a	n/a	114.521	n/a
85.603	0.497	happy	Picture	23.158	n/a	1	3	15	n/a	55	50	2	n/a	n/a	n/a	n/a	115.052	AF18HAS.jpg
86.101	0.514	Blank	Blank	22.644	n/a	1	3	15	n/a	55	n/a	2	n/a	n/a	n/a	n/a	115.549	n/a
86.631	0.497	happy	Picture	22.131	n/a	1	3	16	n/a	56	47	2	n/a	n/a	n/a	n/a	116.079	BF11HAS.jpg
87.129	0.514	Blank	Blank	21.617	n/a	1	3	16	n/a	56	n/a	2	n/a	n/a	n/a	n/a	116.577	n/a
87.659	0.497	happy	Picture	21.103	n/a	1	3	17	n/a	57	77	2	n/a	n/a	n/a	n/a	117.107	BM25HAS.jpg
88.156	0.514	Blank	Blank	20.589	n/a	1	3	17	n/a	57	n/a	2	n/a	n/a	n/a	n/a	117.605	n/a
88.687	0.497	happy	Picture	20.075	n/a	1	3	18	n/a	58	57	2	n/a	n/a	n/a	n/a	118.135	BF28HAS.jpg
89.184	0.514	Blank	Blank	19.561	n/a	1	3	18	n/a	58	n/a	2	n/a	n/a	n/a	n/a	118.633	n/a
89.715	0.497	happy	Picture	19.047	n/a	1	3	19	n/a	59	61	2	n/a	n/a	n/a	n/a	119.163	AM01HAS.jpg
90.212	0.514	Blank	Blank	18.533	n/a	1	3	19	n/a	59	n/a	2	n/a	n/a	n/a	n/a	119.66	n/a
90.743	0.497	happy	Picture	18.019	n/a	1	3	20	n/a	60	79	2	n/a	n/a	n/a	n/a	120.191	BM28HAS.jpg
91.24	0.514	Blank	Blank	17.505	n/a	1	3	20	n/a	60	n/a	2	n/a	n/a	n/a	n/a	120.688	n/a
91.771	10.014	ITI	Fixation+	7.475	n/a	1	n/a	n/a	n/a	n/a	n/a	n/a	n/a	n/a	n/a	n/a	121.219	n/a
109.259	n/a	ConfirmRating	Rate	n/a	7.444	1	n/a	n/a	0	n/a	n/a	n/a	2	Happy	67	51	138.707	n/a
116.257	n/a	ConfirmRating	Rate	n/a	6.979	1	n/a	n/a	1	n/a	n/a	n/a	3	Happy	20	47	145.705	n/a
116.274	10.014	ITI	Fixation+	96.255	n/a	2	n/a	n/a	n/a	n/a	n/a	n/a	n/a	n/a	n/a	n/a	145.722	n/a
126.304	0.497	angry	Picture	95.741	n/a	2	4	1	n/a	61	119	3	n/a	n/a	n/a	n/a	155.753	BM28ANS.jpg
126.802	0.514	Blank	Blank	95.227	n/a	2	4	1	n/a	61	n/a	3	n/a	n/a	n/a	n/a	156.25	n/a
127.332	0.497	angry	Picture	94.713	n/a	2	4	2	n/a	62	100	3	n/a	n/a	n/a	n/a	156.78	AF32ANS.jpg
127.83	0.514	Blank	Blank	94.199	n/a	2	4	2	n/a	62	n/a	3	n/a	n/a	n/a	n/a	157.278	n/a
128.36	0.497	angry	Picture	93.685	n/a	2	4	3	n/a	63	118	3	n/a	n/a	n/a	n/a	157.808	BM26ANS.jpg
128.857	0.514	Blank	Blank	93.171	n/a	2	4	3	n/a	63	n/a	3	n/a	n/a	n/a	n/a	158.306	n/a
129.388	0.497	angry	Picture	92.657	n/a	2	4	4	n/a	64	89	3	n/a	n/a	n/a	n/a	158.836	AF17ANS.jpg
129.885	0.514	Blank	Blank	92.143	n/a	2	4	4	n/a	64	n/a	3	n/a	n/a	n/a	n/a	159.334	n/a
130.416	0.497	angry	Picture	91.629	n/a	2	4	5	n/a	65	116	3	n/a	n/a	n/a	n/a	159.864	BM24ANS.jpg
130.913	0.514	Blank	Blank	91.115	n/a	2	4	5	n/a	65	n/a	3	n/a	n/a	n/a	n/a	160.362	n/a
131.444	0.497	angry	Picture	90.601	n/a	2	4	6	n/a	66	105	3	n/a	n/a	n/a	n/a	160.892	BM06ANS.jpg
131.941	0.514	Blank	Blank	90.088	n/a	2	4	6	n/a	66	n/a	3	n/a	n/a	n/a	n/a	161.389	n/a
132.472	0.497	angry	Picture	89.573	n/a	2	4	7	n/a	67	106	3	n/a	n/a	n/a	n/a	161.92	AM07ANS.jpg
132.969	0.514	Blank	Blank	89.06	n/a	2	4	7	n/a	67	n/a	3	n/a	n/a	n/a	n/a	162.417	n/a
133.5	0.497	angry	Picture	88.546	n/a	2	4	8	n/a	68	94	3	n/a	n/a	n/a	n/a	162.948	AF23ANS.jpg
133.997	0.514	Blank	Blank	88.032	n/a	2	4	8	n/a	68	n/a	3	n/a	n/a	n/a	n/a	163.445	n/a
134.527	0.497	angry	Picture	87.518	n/a	2	4	9	n/a	69	117	3	n/a	n/a	n/a	n/a	163.976	BM25ANS.jpg
135.025	0.514	Blank	Blank	87.004	n/a	2	4	9	n/a	69	n/a	3	n/a	n/a	n/a	n/a	164.473	n/a
135.555	0.497	angry	Picture	86.49	n/a	2	4	10	n/a	70	90	3	n/a	n/a	n/a	n/a	165.004	AF18ANS.jpg
136.053	0.514	Blank	Blank	85.976	n/a	2	4	10	n/a	70	n/a	3	n/a	n/a	n/a	n/a	165.501	n/a
136.583	0.497	angry	Picture	85.462	n/a	2	4	11	n/a	71	83	3	n/a	n/a	n/a	n/a	166.031	BF04ANS.jpg
137.081	0.514	Blank	Blank	84.948	n/a	2	4	11	n/a	71	n/a	3	n/a	n/a	n/a	n/a	166.529	n/a
137.611	0.497	angry	Picture	84.434	n/a	2	4	12	n/a	72	112	3	n/a	n/a	n/a	n/a	167.059	AM14ANS.jpg
138.108	0.514	Blank	Blank	83.92	n/a	2	4	12	n/a	72	n/a	3	n/a	n/a	n/a	n/a	167.557	n/a
138.639	0.497	angry	Picture	83.406	n/a	2	4	13	n/a	73	102	3	n/a	n/a	n/a	n/a	168.087	BM03ANS.jpg
139.136	0.514	Blank	Blank	82.892	n/a	2	4	13	n/a	73	n/a	3	n/a	n/a	n/a	n/a	168.585	n/a
139.667	0.497	angry	Picture	82.378	n/a	2	4	14	n/a	74	95	3	n/a	n/a	n/a	n/a	169.115	AF25ANS.jpg
140.164	0.514	Blank	Blank	81.864	n/a	2	4	14	n/a	74	n/a	3	n/a	n/a	n/a	n/a	169.613	n/a
140.695	0.497	angry	Picture	81.35	n/a	2	4	15	n/a	75	113	3	n/a	n/a	n/a	n/a	170.143	AM21ANS.jpg
141.192	0.514	Blank	Blank	80.837	n/a	2	4	15	n/a	75	n/a	3	n/a	n/a	n/a	n/a	170.64	n/a
141.723	0.497	angry	Picture	80.323	n/a	2	4	16	n/a	76	88	3	n/a	n/a	n/a	n/a	171.171	AF14ANS.jpg
142.22	0.514	Blank	Blank	79.809	n/a	2	4	16	n/a	76	n/a	3	n/a	n/a	n/a	n/a	171.668	n/a
142.751	0.497	angry	Picture	79.295	n/a	2	4	17	n/a	77	93	3	n/a	n/a	n/a	n/a	172.199	BF22ANS.jpg
143.248	0.514	Blank	Blank	78.781	n/a	2	4	17	n/a	77	n/a	3	n/a	n/a	n/a	n/a	172.696	n/a
143.778	0.497	angry	Picture	78.267	n/a	2	4	18	n/a	78	86	3	n/a	n/a	n/a	n/a	173.227	AF09ANS.jpg
144.276	0.514	Blank	Blank	77.753	n/a	2	4	18	n/a	78	n/a	3	n/a	n/a	n/a	n/a	173.724	n/a
144.806	0.497	angry	Picture	77.239	n/a	2	4	19	n/a	79	92	3	n/a	n/a	n/a	n/a	174.255	AF21ANS.jpg
145.304	0.514	Blank	Blank	76.725	n/a	2	4	19	n/a	79	n/a	3	n/a	n/a	n/a	n/a	174.752	n/a
145.834	0.497	angry	Picture	76.211	n/a	2	4	20	n/a	80	84	3	n/a	n/a	n/a	n/a	175.282	AF05ANS.jpg
146.332	0.514	Blank	Blank	75.697	n/a	2	4	20	n/a	80	n/a	3	n/a	n/a	n/a	n/a	175.78	n/a
146.862	10.014	ITI	Fixation+	65.667	n/a	2	n/a	n/a	n/a	n/a	n/a	n/a	n/a	n/a	n/a	n/a	176.31	n/a
156.892	0.497	neutral	Picture	65.153	n/a	2	5	1	n/a	81	4	1	n/a	n/a	n/a	n/a	186.34	AF05NES.jpg
157.39	0.514	Blank	Blank	64.639	n/a	2	5	1	n/a	81	n/a	1	n/a	n/a	n/a	n/a	186.838	n/a
157.92	0.497	neutral	Picture	64.125	n/a	2	5	2	n/a	82	14	1	n/a	n/a	n/a	n/a	187.368	AF23NES.jpg
158.417	0.514	Blank	Blank	63.611	n/a	2	5	2	n/a	82	n/a	1	n/a	n/a	n/a	n/a	187.866	n/a
158.948	0.497	neutral	Picture	63.097	n/a	2	5	3	n/a	83	19	1	n/a	n/a	n/a	n/a	188.396	AF31NES.jpg
159.445	0.514	Blank	Blank	62.583	n/a	2	5	3	n/a	83	n/a	1	n/a	n/a	n/a	n/a	188.894	n/a
159.976	0.497	neutral	Picture	62.069	n/a	2	5	4	n/a	84	8	1	n/a	n/a	n/a	n/a	189.424	AF14NES.jpg
160.473	0.514	Blank	Blank	61.555	n/a	2	5	4	n/a	84	n/a	1	n/a	n/a	n/a	n/a	189.922	n/a
161.004	0.497	neutral	Picture	61.041	n/a	2	5	5	n/a	85	25	1	n/a	n/a	n/a	n/a	190.452	BM06NES.jpg
161.501	0.514	Blank	Blank	60.528	n/a	2	5	5	n/a	85	n/a	1	n/a	n/a	n/a	n/a	190.949	n/a
162.032	0.497	neutral	Picture	60.014	n/a	2	5	6	n/a	86	9	1	n/a	n/a	n/a	n/a	191.48	AF17NES.jpg
162.529	0.514	Blank	Blank	59.5	n/a	2	5	6	n/a	86	n/a	1	n/a	n/a	n/a	n/a	191.977	n/a
163.06	0.497	neutral	Picture	58.986	n/a	2	5	7	n/a	87	2	1	n/a	n/a	n/a	n/a	192.508	AF03NES.jpg
163.557	0.514	Blank	Blank	58.472	n/a	2	5	7	n/a	87	n/a	1	n/a	n/a	n/a	n/a	193.005	n/a
164.087	0.497	neutral	Picture	57.958	n/a	2	5	8	n/a	88	17	1	n/a	n/a	n/a	n/a	193.536	BF28NES.jpg
164.585	0.514	Blank	Blank	57.444	n/a	2	5	8	n/a	88	n/a	1	n/a	n/a	n/a	n/a	194.033	n/a
165.115	0.497	neutral	Picture	56.93	n/a	2	5	9	n/a	89	6	1	n/a	n/a	n/a	n/a	194.564	AF09NES.jpg
165.613	0.514	Blank	Blank	56.416	n/a	2	5	9	n/a	89	n/a	1	n/a	n/a	n/a	n/a	195.061	n/a
166.143	0.497	neutral	Picture	55.902	n/a	2	5	10	n/a	90	12	1	n/a	n/a	n/a	n/a	195.591	AF21NES.jpg
166.641	0.514	Blank	Blank	55.388	n/a	2	5	10	n/a	90	n/a	1	n/a	n/a	n/a	n/a	196.089	n/a
167.171	0.497	neutral	Picture	54.874	n/a	2	5	11	n/a	91	24	1	n/a	n/a	n/a	n/a	196.619	BM05NES.jpg
167.668	0.514	Blank	Blank	54.36	n/a	2	5	11	n/a	91	n/a	1	n/a	n/a	n/a	n/a	197.117	n/a
168.199	0.497	neutral	Picture	53.846	n/a	2	5	12	n/a	92	34	1	n/a	n/a	n/a	n/a	197.647	AM22NES.jpg
168.696	0.514	Blank	Blank	53.332	n/a	2	5	12	n/a	92	n/a	1	n/a	n/a	n/a	n/a	198.145	n/a
169.227	0.497	neutral	Picture	52.818	n/a	2	5	13	n/a	93	23	1	n/a	n/a	n/a	n/a	198.675	AM04NES.jpg
169.724	0.514	Blank	Blank	52.304	n/a	2	5	13	n/a	93	n/a	1	n/a	n/a	n/a	n/a	199.173	n/a
170.255	0.497	neutral	Picture	51.79	n/a	2	5	14	n/a	94	15	1	n/a	n/a	n/a	n/a	199.703	AF25NES.jpg
170.752	0.514	Blank	Blank	51.276	n/a	2	5	14	n/a	94	n/a	1	n/a	n/a	n/a	n/a	200.2	n/a
171.283	0.497	neutral	Picture	50.763	n/a	2	5	15	n/a	95	37	1	n/a	n/a	n/a	n/a	200.731	BM25NES.jpg
171.78	0.514	Blank	Blank	50.249	n/a	2	5	15	n/a	95	n/a	1	n/a	n/a	n/a	n/a	201.228	n/a
172.311	0.497	neutral	Picture	49.735	n/a	2	5	16	n/a	96	32	1	n/a	n/a	n/a	n/a	201.759	AM14NES.jpg
172.808	0.514	Blank	Blank	49.221	n/a	2	5	16	n/a	96	n/a	1	n/a	n/a	n/a	n/a	202.256	n/a
173.338	0.497	neutral	Picture	48.707	n/a	2	5	17	n/a	97	3	1	n/a	n/a	n/a	n/a	202.787	BF04NES.jpg
173.836	0.514	Blank	Blank	48.193	n/a	2	5	17	n/a	97	n/a	1	n/a	n/a	n/a	n/a	203.284	n/a
174.366	0.497	neutral	Picture	47.679	n/a	2	5	18	n/a	98	16	1	n/a	n/a	n/a	n/a	203.815	AF26NES.jpg
174.864	0.514	Blank	Blank	47.165	n/a	2	5	18	n/a	98	n/a	1	n/a	n/a	n/a	n/a	204.312	n/a
175.394	0.497	neutral	Picture	46.651	n/a	2	5	19	n/a	99	27	1	n/a	n/a	n/a	n/a	204.842	BM08NES.jpg
175.892	0.514	Blank	Blank	46.137	n/a	2	5	19	n/a	99	n/a	1	n/a	n/a	n/a	n/a	205.34	n/a
176.422	0.497	neutral	Picture	45.623	n/a	2	5	20	n/a	100	28	1	n/a	n/a	n/a	n/a	205.87	AM09NES.jpg
176.919	0.514	Blank	Blank	45.109	n/a	2	5	20	n/a	100	n/a	1	n/a	n/a	n/a	n/a	206.368	n/a
177.45	10.014	ITI	Fixation+	35.079	n/a	2	n/a	n/a	n/a	n/a	n/a	n/a	n/a	n/a	n/a	n/a	206.898	n/a
187.48	0.497	angry	Picture	34.565	n/a	2	6	1	n/a	101	81	3	n/a	n/a	n/a	n/a	216.928	AF01ANS.jpg
187.978	0.514	Blank	Blank	34.051	n/a	2	6	1	n/a	101	n/a	3	n/a	n/a	n/a	n/a	217.426	n/a
188.508	0.497	angry	Picture	33.537	n/a	2	6	2	n/a	102	120	3	n/a	n/a	n/a	n/a	217.956	AM35ANS.jpg
189.005	0.514	Blank	Blank	33.023	n/a	2	6	2	n/a	102	n/a	3	n/a	n/a	n/a	n/a	218.454	n/a
189.536	0.497	angry	Picture	32.509	n/a	2	6	3	n/a	103	114	3	n/a	n/a	n/a	n/a	218.984	AM22ANS.jpg
190.033	0.514	Blank	Blank	31.995	n/a	2	6	3	n/a	103	n/a	3	n/a	n/a	n/a	n/a	219.482	n/a
190.564	0.497	angry	Picture	31.481	n/a	2	6	4	n/a	104	109	3	n/a	n/a	n/a	n/a	220.012	AM10ANS.jpg
191.061	0.514	Blank	Blank	30.967	n/a	2	6	4	n/a	104	n/a	3	n/a	n/a	n/a	n/a	220.509	n/a
191.592	0.497	angry	Picture	30.454	n/a	2	6	5	n/a	105	96	3	n/a	n/a	n/a	n/a	221.04	AF26ANS.jpg
192.089	0.514	Blank	Blank	29.94	n/a	2	6	5	n/a	105	n/a	3	n/a	n/a	n/a	n/a	221.537	n/a
192.62	0.497	angry	Picture	29.426	n/a	2	6	6	n/a	106	82	3	n/a	n/a	n/a	n/a	222.068	AF03ANS.jpg
193.117	0.514	Blank	Blank	28.912	n/a	2	6	6	n/a	106	n/a	3	n/a	n/a	n/a	n/a	222.565	n/a
193.647	0.497	angry	Picture	28.398	n/a	2	6	7	n/a	107	97	3	n/a	n/a	n/a	n/a	223.096	BF28ANS.jpg
194.145	0.514	Blank	Blank	27.884	n/a	2	6	7	n/a	107	n/a	3	n/a	n/a	n/a	n/a	223.593	n/a
194.675	0.497	angry	Picture	27.37	n/a	2	6	8	n/a	108	115	3	n/a	n/a	n/a	n/a	224.124	AM23ANS.jpg
195.173	0.514	Blank	Blank	26.856	n/a	2	6	8	n/a	108	n/a	3	n/a	n/a	n/a	n/a	224.621	n/a
195.703	0.497	angry	Picture	26.342	n/a	2	6	9	n/a	109	91	3	n/a	n/a	n/a	n/a	225.151	AF20ANS.jpg
196.201	0.514	Blank	Blank	25.828	n/a	2	6	9	n/a	109	n/a	3	n/a	n/a	n/a	n/a	225.649	n/a
196.731	0.497	angry	Picture	25.314	n/a	2	6	10	n/a	110	87	3	n/a	n/a	n/a	n/a	226.179	BF11ANS.jpg
197.228	0.514	Blank	Blank	24.8	n/a	2	6	10	n/a	110	n/a	3	n/a	n/a	n/a	n/a	226.677	n/a
197.759	0.497	angry	Picture	24.286	n/a	2	6	11	n/a	111	85	3	n/a	n/a	n/a	n/a	227.207	BF07ANS.jpg
198.256	0.514	Blank	Blank	23.772	n/a	2	6	11	n/a	111	n/a	3	n/a	n/a	n/a	n/a	227.705	n/a
198.787	0.497	angry	Picture	23.258	n/a	2	6	12	n/a	112	110	3	n/a	n/a	n/a	n/a	228.235	AM11ANS.jpg
199.284	0.514	Blank	Blank	22.744	n/a	2	6	12	n/a	112	n/a	3	n/a	n/a	n/a	n/a	228.732	n/a
199.815	0.497	angry	Picture	22.23	n/a	2	6	13	n/a	113	111	3	n/a	n/a	n/a	n/a	229.263	BM12ANS.jpg
200.312	0.514	Blank	Blank	21.716	n/a	2	6	13	n/a	113	n/a	3	n/a	n/a	n/a	n/a	229.76	n/a
200.843	0.497	angry	Picture	21.203	n/a	2	6	14	n/a	114	103	3	n/a	n/a	n/a	n/a	230.291	AM04ANS.jpg
201.34	0.514	Blank	Blank	20.689	n/a	2	6	14	n/a	114	n/a	3	n/a	n/a	n/a	n/a	230.788	n/a
201.871	0.497	angry	Picture	20.175	n/a	2	6	15	n/a	115	101	3	n/a	n/a	n/a	n/a	231.319	AM01ANS.jpg
202.368	0.514	Blank	Blank	19.661	n/a	2	6	15	n/a	115	n/a	3	n/a	n/a	n/a	n/a	231.816	n/a
202.898	0.497	angry	Picture	19.147	n/a	2	6	16	n/a	116	104	3	n/a	n/a	n/a	n/a	232.347	BM05ANS.jpg
203.396	0.514	Blank	Blank	18.633	n/a	2	6	16	n/a	116	n/a	3	n/a	n/a	n/a	n/a	232.844	n/a
203.926	0.497	angry	Picture	18.119	n/a	2	6	17	n/a	117	107	3	n/a	n/a	n/a	n/a	233.375	BM08ANS.jpg
204.424	0.514	Blank	Blank	17.605	n/a	2	6	17	n/a	117	n/a	3	n/a	n/a	n/a	n/a	233.872	n/a
204.954	0.497	angry	Picture	17.091	n/a	2	6	18	n/a	118	98	3	n/a	n/a	n/a	n/a	234.403	BF29ANS.jpg
205.452	0.514	Blank	Blank	16.577	n/a	2	6	18	n/a	118	n/a	3	n/a	n/a	n/a	n/a	234.9	n/a
205.982	0.497	angry	Picture	16.063	n/a	2	6	19	n/a	119	99	3	n/a	n/a	n/a	n/a	235.43	AF31ANS.jpg
206.479	0.514	Blank	Blank	15.549	n/a	2	6	19	n/a	119	n/a	3	n/a	n/a	n/a	n/a	235.928	n/a
207.01	0.497	angry	Picture	15.035	n/a	2	6	20	n/a	120	108	3	n/a	n/a	n/a	n/a	236.458	AM09ANS.jpg
207.507	0.514	Blank	Blank	14.521	n/a	2	6	20	n/a	120	n/a	3	n/a	n/a	n/a	n/a	236.956	n/a
208.038	10.014	ITI	Fixation+	4.491	n/a	2	n/a	n/a	n/a	n/a	n/a	n/a	n/a	n/a	n/a	n/a	237.486	n/a
222.543	n/a	ConfirmRating	Rate	n/a	4.476	2	n/a	n/a	0	n/a	n/a	n/a	2	Angry	50	50	251.991	n/a
227.435	n/a	ConfirmRating	Rate	n/a	4.89	2	n/a	n/a	1	n/a	n/a	n/a	3	Angry	19	47	256.884	n/a
227.468	15.004	Rest	Picture	n/a	n/a	n/a	n/a	n/a	n/a	n/a	n/a	n/a	0	n/a	0	0	256.916	n/a
242.489	10.014	ITI	Fixation+	95.535	n/a	3	n/a	n/a	n/a	n/a	n/a	n/a	n/a	n/a	n/a	n/a	271.937	n/a
252.519	0.497	happy	Picture	95.021	n/a	3	7	1	n/a	1	46	2	n/a	n/a	n/a	n/a	281.967	AF09HAS.jpg
253.016	0.514	Blank	Blank	94.507	n/a	3	7	1	n/a	1	n/a	2	n/a	n/a	n/a	n/a	282.464	n/a
253.547	0.497	happy	Picture	93.993	n/a	3	7	2	n/a	2	69	2	n/a	n/a	n/a	n/a	282.995	AM10HAS.jpg
254.044	0.514	Blank	Blank	93.479	n/a	3	7	2	n/a	2	n/a	2	n/a	n/a	n/a	n/a	283.492	n/a
254.575	0.497	happy	Picture	92.965	n/a	3	7	3	n/a	3	71	2	n/a	n/a	n/a	n/a	284.023	BM12HAS.jpg
255.072	0.514	Blank	Blank	92.451	n/a	3	7	3	n/a	3	n/a	2	n/a	n/a	n/a	n/a	284.52	n/a
255.602	0.497	happy	Picture	91.937	n/a	3	7	4	n/a	4	51	2	n/a	n/a	n/a	n/a	285.051	AF20HAS.jpg
256.1	0.514	Blank	Blank	91.423	n/a	3	7	4	n/a	4	n/a	2	n/a	n/a	n/a	n/a	285.548	n/a
256.63	0.497	happy	Picture	90.909	n/a	3	7	5	n/a	5	67	2	n/a	n/a	n/a	n/a	286.079	BM08HAS.jpg
257.128	0.514	Blank	Blank	90.395	n/a	3	7	5	n/a	5	n/a	2	n/a	n/a	n/a	n/a	286.576	n/a
257.658	0.497	happy	Picture	89.881	n/a	3	7	6	n/a	6	60	2	n/a	n/a	n/a	n/a	287.106	AF32HAS.jpg
258.156	0.514	Blank	Blank	89.367	n/a	3	7	6	n/a	6	n/a	2	n/a	n/a	n/a	n/a	287.604	n/a
258.686	0.497	happy	Picture	88.853	n/a	3	7	7	n/a	7	42	2	n/a	n/a	n/a	n/a	288.134	AF03HAS.jpg
259.183	0.514	Blank	Blank	88.339	n/a	3	7	7	n/a	7	n/a	2	n/a	n/a	n/a	n/a	288.632	n/a
259.714	0.497	happy	Picture	87.825	n/a	3	7	8	n/a	8	55	2	n/a	n/a	n/a	n/a	289.162	AF25HAS.jpg
260.211	0.514	Blank	Blank	87.311	n/a	3	7	8	n/a	8	n/a	2	n/a	n/a	n/a	n/a	289.66	n/a
260.742	0.497	happy	Picture	86.798	n/a	3	7	9	n/a	9	72	2	n/a	n/a	n/a	n/a	290.19	AM14HAS.jpg
261.239	0.514	Blank	Blank	86.284	n/a	3	7	9	n/a	9	n/a	2	n/a	n/a	n/a	n/a	290.688	n/a
261.77	0.497	happy	Picture	85.77	n/a	3	7	10	n/a	10	63	2	n/a	n/a	n/a	n/a	291.218	AM04HAS.jpg
262.267	0.514	Blank	Blank	85.256	n/a	3	7	10	n/a	10	n/a	2	n/a	n/a	n/a	n/a	291.715	n/a
262.798	0.497	happy	Picture	84.742	n/a	3	7	11	n/a	11	58	2	n/a	n/a	n/a	n/a	292.246	BF29HAS.jpg
263.295	0.514	Blank	Blank	84.228	n/a	3	7	11	n/a	11	n/a	2	n/a	n/a	n/a	n/a	292.743	n/a
263.825	0.497	happy	Picture	83.714	n/a	3	7	12	n/a	12	48	2	n/a	n/a	n/a	n/a	293.274	AF14HAS.jpg
264.323	0.514	Blank	Blank	83.2	n/a	3	7	12	n/a	12	n/a	2	n/a	n/a	n/a	n/a	293.771	n/a
264.853	0.497	happy	Picture	82.686	n/a	3	7	13	n/a	13	66	2	n/a	n/a	n/a	n/a	294.302	BM07HAS.jpg
265.351	0.514	Blank	Blank	82.172	n/a	3	7	13	n/a	13	n/a	2	n/a	n/a	n/a	n/a	294.799	n/a
265.881	0.497	happy	Picture	81.658	n/a	3	7	14	n/a	14	70	2	n/a	n/a	n/a	n/a	295.33	BM11HAS.jpg
266.379	0.514	Blank	Blank	81.144	n/a	3	7	14	n/a	14	n/a	2	n/a	n/a	n/a	n/a	295.827	n/a
266.909	0.497	happy	Picture	80.63	n/a	3	7	15	n/a	15	43	2	n/a	n/a	n/a	n/a	296.358	BF04HAS.jpg
267.406	0.514	Blank	Blank	80.116	n/a	3	7	15	n/a	15	n/a	2	n/a	n/a	n/a	n/a	296.855	n/a
267.937	0.497	happy	Picture	79.602	n/a	3	7	16	n/a	16	49	2	n/a	n/a	n/a	n/a	297.385	AF17HAS.jpg
268.434	0.514	Blank	Blank	79.088	n/a	3	7	16	n/a	16	n/a	2	n/a	n/a	n/a	n/a	297.883	n/a
268.965	0.497	happy	Picture	78.574	n/a	3	7	17	n/a	17	75	2	n/a	n/a	n/a	n/a	298.413	AM23HAS.jpg
269.462	0.514	Blank	Blank	78.06	n/a	3	7	17	n/a	17	n/a	2	n/a	n/a	n/a	n/a	298.911	n/a
269.993	0.497	happy	Picture	77.546	n/a	3	7	18	n/a	18	80	2	n/a	n/a	n/a	n/a	299.441	BM35HAS.jpg
270.49	0.514	Blank	Blank	77.033	n/a	3	7	18	n/a	18	n/a	2	n/a	n/a	n/a	n/a	299.938	n/a
271.021	0.497	happy	Picture	76.519	n/a	3	7	19	n/a	19	76	2	n/a	n/a	n/a	n/a	300.469	BM24HAS.jpg
271.518	0.514	Blank	Blank	76.005	n/a	3	7	19	n/a	19	n/a	2	n/a	n/a	n/a	n/a	300.966	n/a
272.049	0.497	happy	Picture	75.491	n/a	3	7	20	n/a	20	74	2	n/a	n/a	n/a	n/a	301.497	AM22HAS.jpg
272.546	0.514	Blank	Blank	74.977	n/a	3	7	20	n/a	20	n/a	2	n/a	n/a	n/a	n/a	301.994	n/a
273.077	10.014	ITI	Fixation+	64.947	n/a	3	n/a	n/a	n/a	n/a	n/a	n/a	n/a	n/a	n/a	n/a	302.525	n/a
283.107	0.497	neutral	Picture	64.433	n/a	3	8	1	n/a	21	33	1	n/a	n/a	n/a	n/a	312.555	AM21NES.jpg
283.604	0.514	Blank	Blank	63.919	n/a	3	8	1	n/a	21	n/a	1	n/a	n/a	n/a	n/a	313.052	n/a
284.135	0.497	neutral	Picture	63.405	n/a	3	8	2	n/a	22	39	1	n/a	n/a	n/a	n/a	313.583	AM28NES.jpg
284.632	0.514	Blank	Blank	62.891	n/a	3	8	2	n/a	22	n/a	1	n/a	n/a	n/a	n/a	314.08	n/a
285.162	0.497	neutral	Picture	62.377	n/a	3	8	3	n/a	23	25	1	n/a	n/a	n/a	n/a	314.611	BM06NES.jpg
285.66	0.514	Blank	Blank	61.863	n/a	3	8	3	n/a	23	n/a	1	n/a	n/a	n/a	n/a	315.108	n/a
286.19	0.497	neutral	Picture	61.349	n/a	3	8	4	n/a	24	5	1	n/a	n/a	n/a	n/a	315.639	BF07NES.jpg
286.688	0.514	Blank	Blank	60.835	n/a	3	8	4	n/a	24	n/a	1	n/a	n/a	n/a	n/a	316.136	n/a
287.218	0.497	neutral	Picture	60.321	n/a	3	8	5	n/a	25	10	1	n/a	n/a	n/a	n/a	316.666	AF18NES.jpg
287.716	0.514	Blank	Blank	59.807	n/a	3	8	5	n/a	25	n/a	1	n/a	n/a	n/a	n/a	317.164	n/a
288.246	0.497	neutral	Picture	59.293	n/a	3	8	6	n/a	26	34	1	n/a	n/a	n/a	n/a	317.694	AM22NES.jpg
288.743	0.514	Blank	Blank	58.779	n/a	3	8	6	n/a	26	n/a	1	n/a	n/a	n/a	n/a	318.192	n/a
289.274	0.497	neutral	Picture	58.265	n/a	3	8	7	n/a	27	36	1	n/a	n/a	n/a	n/a	318.722	BM24NES.jpg
289.771	0.514	Blank	Blank	57.751	n/a	3	8	7	n/a	27	n/a	1	n/a	n/a	n/a	n/a	319.22	n/a
290.302	0.497	neutral	Picture	57.238	n/a	3	8	8	n/a	28	14	1	n/a	n/a	n/a	n/a	319.75	AF23NES.jpg
290.799	0.514	Blank	Blank	56.724	n/a	3	8	8	n/a	28	n/a	1	n/a	n/a	n/a	n/a	320.248	n/a
291.33	0.497	neutral	Picture	56.21	n/a	3	8	9	n/a	29	9	1	n/a	n/a	n/a	n/a	320.778	AF17NES.jpg
291.827	0.514	Blank	Blank	55.696	n/a	3	8	9	n/a	29	n/a	1	n/a	n/a	n/a	n/a	321.275	n/a
292.358	0.497	neutral	Picture	55.182	n/a	3	8	10	n/a	30	19	1	n/a	n/a	n/a	n/a	321.806	AF31NES.jpg
292.855	0.514	Blank	Blank	54.668	n/a	3	8	10	n/a	30	n/a	1	n/a	n/a	n/a	n/a	322.303	n/a
293.385	0.497	neutral	Picture	54.154	n/a	3	8	11	n/a	31	15	1	n/a	n/a	n/a	n/a	322.834	AF25NES.jpg
293.883	0.514	Blank	Blank	53.64	n/a	3	8	11	n/a	31	n/a	1	n/a	n/a	n/a	n/a	323.331	n/a
294.413	0.497	neutral	Picture	53.126	n/a	3	8	12	n/a	32	22	1	n/a	n/a	n/a	n/a	323.862	BM03NES.jpg
294.911	0.514	Blank	Blank	52.612	n/a	3	8	12	n/a	32	n/a	1	n/a	n/a	n/a	n/a	324.359	n/a
295.441	0.497	neutral	Picture	52.098	n/a	3	8	13	n/a	33	11	1	n/a	n/a	n/a	n/a	324.89	AF20NES.jpg
295.939	0.514	Blank	Blank	51.584	n/a	3	8	13	n/a	33	n/a	1	n/a	n/a	n/a	n/a	325.387	n/a
296.469	0.497	neutral	Picture	51.07	n/a	3	8	14	n/a	34	4	1	n/a	n/a	n/a	n/a	325.918	AF05NES.jpg
296.967	0.514	Blank	Blank	50.556	n/a	3	8	14	n/a	34	n/a	1	n/a	n/a	n/a	n/a	326.415	n/a
297.497	0.497	neutral	Picture	50.042	n/a	3	8	15	n/a	35	17	1	n/a	n/a	n/a	n/a	326.945	BF28NES.jpg
297.994	0.514	Blank	Blank	49.528	n/a	3	8	15	n/a	35	n/a	1	n/a	n/a	n/a	n/a	327.443	n/a
298.525	0.497	neutral	Picture	49.014	n/a	3	8	16	n/a	36	13	1	n/a	n/a	n/a	n/a	327.973	BF22NES.jpg
299.022	0.514	Blank	Blank	48.5	n/a	3	8	16	n/a	36	n/a	1	n/a	n/a	n/a	n/a	328.471	n/a
299.553	0.497	neutral	Picture	47.987	n/a	3	8	17	n/a	37	12	1	n/a	n/a	n/a	n/a	329.001	AF21NES.jpg
300.05	0.514	Blank	Blank	47.473	n/a	3	8	17	n/a	37	n/a	1	n/a	n/a	n/a	n/a	329.498	n/a
300.581	0.497	neutral	Picture	46.959	n/a	3	8	18	n/a	38	24	1	n/a	n/a	n/a	n/a	330.029	BM05NES.jpg
301.078	0.514	Blank	Blank	46.445	n/a	3	8	18	n/a	38	n/a	1	n/a	n/a	n/a	n/a	330.526	n/a
301.609	0.497	neutral	Picture	45.931	n/a	3	8	19	n/a	39	29	1	n/a	n/a	n/a	n/a	331.057	AM10NES.jpg
302.106	0.514	Blank	Blank	45.417	n/a	3	8	19	n/a	39	n/a	1	n/a	n/a	n/a	n/a	331.554	n/a
302.636	0.497	neutral	Picture	44.903	n/a	3	8	20	n/a	40	23	1	n/a	n/a	n/a	n/a	332.085	AM04NES.jpg
303.134	0.514	Blank	Blank	44.389	n/a	3	8	20	n/a	40	n/a	1	n/a	n/a	n/a	n/a	332.582	n/a
303.664	10.014	ITI	Fixation+	34.359	n/a	3	n/a	n/a	n/a	n/a	n/a	n/a	n/a	n/a	n/a	n/a	333.113	n/a
313.695	0.497	happy	Picture	33.845	n/a	3	9	1	n/a	41	62	2	n/a	n/a	n/a	n/a	343.143	BM03HAS.jpg
314.192	0.514	Blank	Blank	33.331	n/a	3	9	1	n/a	41	n/a	2	n/a	n/a	n/a	n/a	343.64	n/a
314.722	0.497	happy	Picture	32.817	n/a	3	9	2	n/a	42	52	2	n/a	n/a	n/a	n/a	344.171	AF21HAS.jpg
315.22	0.514	Blank	Blank	32.303	n/a	3	9	2	n/a	42	n/a	2	n/a	n/a	n/a	n/a	344.668	n/a
315.75	0.497	happy	Picture	31.789	n/a	3	9	3	n/a	43	44	2	n/a	n/a	n/a	n/a	345.199	AF05HAS.jpg
316.248	0.514	Blank	Blank	31.275	n/a	3	9	3	n/a	43	n/a	2	n/a	n/a	n/a	n/a	345.696	n/a
316.778	0.497	happy	Picture	30.761	n/a	3	9	4	n/a	44	53	2	n/a	n/a	n/a	n/a	346.226	BF22HAS.jpg
317.276	0.514	Blank	Blank	30.247	n/a	3	9	4	n/a	44	n/a	2	n/a	n/a	n/a	n/a	346.724	n/a
317.806	0.497	happy	Picture	29.733	n/a	3	9	5	n/a	45	54	2	n/a	n/a	n/a	n/a	347.254	AF23HAS.jpg
318.303	0.514	Blank	Blank	29.219	n/a	3	9	5	n/a	45	n/a	2	n/a	n/a	n/a	n/a	347.752	n/a
318.834	0.497	happy	Picture	28.705	n/a	3	9	6	n/a	46	68	2	n/a	n/a	n/a	n/a	348.282	AM09HAS.jpg
319.331	0.514	Blank	Blank	28.191	n/a	3	9	6	n/a	46	n/a	2	n/a	n/a	n/a	n/a	348.78	n/a
319.862	0.497	happy	Picture	27.677	n/a	3	9	7	n/a	47	64	2	n/a	n/a	n/a	n/a	349.31	BM05HAS.jpg
320.359	0.514	Blank	Blank	27.164	n/a	3	9	7	n/a	47	n/a	2	n/a	n/a	n/a	n/a	349.808	n/a
320.89	0.497	happy	Picture	26.649	n/a	3	9	8	n/a	48	59	2	n/a	n/a	n/a	n/a	350.338	AF31HAS.jpg
321.387	0.514	Blank	Blank	26.136	n/a	3	9	8	n/a	48	n/a	2	n/a	n/a	n/a	n/a	350.836	n/a
321.918	0.497	happy	Picture	25.622	n/a	3	9	9	n/a	49	41	2	n/a	n/a	n/a	n/a	351.366	AF01HAS.jpg
322.415	0.514	Blank	Blank	25.108	n/a	3	9	9	n/a	49	n/a	2	n/a	n/a	n/a	n/a	351.863	n/a
322.946	0.497	happy	Picture	24.594	n/a	3	9	10	n/a	50	73	2	n/a	n/a	n/a	n/a	352.394	AM21HAS.jpg
323.443	0.514	Blank	Blank	24.08	n/a	3	9	10	n/a	50	n/a	2	n/a	n/a	n/a	n/a	352.891	n/a
323.973	0.497	happy	Picture	23.566	n/a	3	9	11	n/a	51	65	2	n/a	n/a	n/a	n/a	353.422	BM06HAS.jpg
324.471	0.514	Blank	Blank	23.052	n/a	3	9	11	n/a	51	n/a	2	n/a	n/a	n/a	n/a	353.919	n/a
325.001	0.497	happy	Picture	22.538	n/a	3	9	12	n/a	52	56	2	n/a	n/a	n/a	n/a	354.45	AF26HAS.jpg
325.499	0.514	Blank	Blank	22.024	n/a	3	9	12	n/a	52	n/a	2	n/a	n/a	n/a	n/a	354.947	n/a
326.029	0.497	happy	Picture	21.51	n/a	3	9	13	n/a	53	45	2	n/a	n/a	n/a	n/a	355.478	BF07HAS.jpg
326.527	0.514	Blank	Blank	20.996	n/a	3	9	13	n/a	53	n/a	2	n/a	n/a	n/a	n/a	355.975	n/a
327.057	0.497	happy	Picture	20.482	n/a	3	9	14	n/a	54	78	2	n/a	n/a	n/a	n/a	356.505	BM26HAS.jpg
327.554	0.514	Blank	Blank	19.968	n/a	3	9	14	n/a	54	n/a	2	n/a	n/a	n/a	n/a	357.003	n/a
328.085	0.497	happy	Picture	19.454	n/a	3	9	15	n/a	55	50	2	n/a	n/a	n/a	n/a	357.533	AF18HAS.jpg
328.582	0.514	Blank	Blank	18.94	n/a	3	9	15	n/a	55	n/a	2	n/a	n/a	n/a	n/a	358.031	n/a
329.113	0.497	happy	Picture	18.427	n/a	3	9	16	n/a	56	47	2	n/a	n/a	n/a	n/a	358.561	BF11HAS.jpg
329.61	0.514	Blank	Blank	17.913	n/a	3	9	16	n/a	56	n/a	2	n/a	n/a	n/a	n/a	359.058	n/a
330.141	0.497	happy	Picture	17.399	n/a	3	9	17	n/a	57	77	2	n/a	n/a	n/a	n/a	359.589	BM25HAS.jpg
330.638	0.514	Blank	Blank	16.885	n/a	3	9	17	n/a	57	n/a	2	n/a	n/a	n/a	n/a	360.086	n/a
331.169	0.497	happy	Picture	16.371	n/a	3	9	18	n/a	58	57	2	n/a	n/a	n/a	n/a	360.617	BF28HAS.jpg
331.666	0.514	Blank	Blank	15.857	n/a	3	9	18	n/a	58	n/a	2	n/a	n/a	n/a	n/a	361.114	n/a
332.196	0.497	happy	Picture	15.343	n/a	3	9	19	n/a	59	61	2	n/a	n/a	n/a	n/a	361.645	AM01HAS.jpg
332.694	0.514	Blank	Blank	14.829	n/a	3	9	19	n/a	59	n/a	2	n/a	n/a	n/a	n/a	362.142	n/a
333.224	0.497	happy	Picture	14.315	n/a	3	9	20	n/a	60	79	2	n/a	n/a	n/a	n/a	362.673	BM28HAS.jpg
333.722	0.514	Blank	Blank	13.801	n/a	3	9	20	n/a	60	n/a	2	n/a	n/a	n/a	n/a	363.17	n/a
334.252	10.014	ITI	Fixation+	3.771	n/a	3	n/a	n/a	n/a	n/a	n/a	n/a	n/a	n/a	n/a	n/a	363.701	n/a
348.037	n/a	ConfirmRating	Rate	n/a	3.764	3	n/a	n/a	0	n/a	n/a	n/a	2	Happy	69	51	377.485	n/a
354.283	n/a	ConfirmRating	Rate	n/a	6.234	3	n/a	n/a	1	n/a	n/a	n/a	3	Happy	1	44	383.731	n/a
354.313	10.014	ITI	Fixation+	96.298	n/a	4	n/a	n/a	n/a	n/a	n/a	n/a	n/a	n/a	n/a	n/a	383.761	n/a
364.343	0.497	angry	Picture	95.784	n/a	4	10	1	n/a	61	119	3	n/a	n/a	n/a	n/a	393.791	BM28ANS.jpg
364.84	0.514	Blank	Blank	95.27	n/a	4	10	1	n/a	61	n/a	3	n/a	n/a	n/a	n/a	394.288	n/a
365.371	0.497	angry	Picture	94.756	n/a	4	10	2	n/a	62	100	3	n/a	n/a	n/a	n/a	394.819	AF32ANS.jpg
365.868	0.514	Blank	Blank	94.242	n/a	4	10	2	n/a	62	n/a	3	n/a	n/a	n/a	n/a	395.316	n/a
366.399	0.497	angry	Picture	93.728	n/a	4	10	3	n/a	63	118	3	n/a	n/a	n/a	n/a	395.847	BM26ANS.jpg
366.896	0.514	Blank	Blank	93.214	n/a	4	10	3	n/a	63	n/a	3	n/a	n/a	n/a	n/a	396.344	n/a
367.426	0.497	angry	Picture	92.7	n/a	4	10	4	n/a	64	89	3	n/a	n/a	n/a	n/a	396.875	AF17ANS.jpg
367.924	0.514	Blank	Blank	92.186	n/a	4	10	4	n/a	64	n/a	3	n/a	n/a	n/a	n/a	397.372	n/a
368.454	0.497	angry	Picture	91.672	n/a	4	10	5	n/a	65	116	3	n/a	n/a	n/a	n/a	397.903	BM24ANS.jpg
368.952	0.514	Blank	Blank	91.158	n/a	4	10	5	n/a	65	n/a	3	n/a	n/a	n/a	n/a	398.4	n/a
369.482	0.497	angry	Picture	90.644	n/a	4	10	6	n/a	66	105	3	n/a	n/a	n/a	n/a	398.931	BM06ANS.jpg
369.98	0.514	Blank	Blank	90.13	n/a	4	10	6	n/a	66	n/a	3	n/a	n/a	n/a	n/a	399.428	n/a
370.51	0.497	angry	Picture	89.616	n/a	4	10	7	n/a	67	106	3	n/a	n/a	n/a	n/a	399.959	AM07ANS.jpg
371.007	0.514	Blank	Blank	89.102	n/a	4	10	7	n/a	67	n/a	3	n/a	n/a	n/a	n/a	400.456	n/a
371.538	0.497	angry	Picture	88.589	n/a	4	10	8	n/a	68	94	3	n/a	n/a	n/a	n/a	400.986	AF23ANS.jpg
372.035	0.514	Blank	Blank	88.075	n/a	4	10	8	n/a	68	n/a	3	n/a	n/a	n/a	n/a	401.484	n/a
372.566	0.497	angry	Picture	87.561	n/a	4	10	9	n/a	69	117	3	n/a	n/a	n/a	n/a	402.014	BM25ANS.jpg
373.063	0.514	Blank	Blank	87.047	n/a	4	10	9	n/a	69	n/a	3	n/a	n/a	n/a	n/a	402.512	n/a
373.594	0.497	angry	Picture	86.533	n/a	4	10	10	n/a	70	90	3	n/a	n/a	n/a	n/a	403.042	AF18ANS.jpg
374.091	0.514	Blank	Blank	86.019	n/a	4	10	10	n/a	70	n/a	3	n/a	n/a	n/a	n/a	403.539	n/a
374.622	0.497	angry	Picture	85.505	n/a	4	10	11	n/a	71	83	3	n/a	n/a	n/a	n/a	404.07	BF04ANS.jpg
375.119	0.514	Blank	Blank	84.991	n/a	4	10	11	n/a	71	n/a	3	n/a	n/a	n/a	n/a	404.567	n/a
375.65	0.497	angry	Picture	84.477	n/a	4	10	12	n/a	72	112	3	n/a	n/a	n/a	n/a	405.098	AM14ANS.jpg
376.147	0.514	Blank	Blank	83.963	n/a	4	10	12	n/a	72	n/a	3	n/a	n/a	n/a	n/a	405.595	n/a
376.678	0.497	angry	Picture	83.449	n/a	4	10	13	n/a	73	102	3	n/a	n/a	n/a	n/a	406.126	BM03ANS.jpg
377.175	0.514	Blank	Blank	82.935	n/a	4	10	13	n/a	73	n/a	3	n/a	n/a	n/a	n/a	406.623	n/a
377.705	0.497	angry	Picture	82.421	n/a	4	10	14	n/a	74	95	3	n/a	n/a	n/a	n/a	407.154	AF25ANS.jpg
378.203	0.514	Blank	Blank	81.907	n/a	4	10	14	n/a	74	n/a	3	n/a	n/a	n/a	n/a	407.651	n/a
378.733	0.497	angry	Picture	81.393	n/a	4	10	15	n/a	75	113	3	n/a	n/a	n/a	n/a	408.182	AM21ANS.jpg
379.231	0.514	Blank	Blank	80.879	n/a	4	10	15	n/a	75	n/a	3	n/a	n/a	n/a	n/a	408.679	n/a
379.761	0.497	angry	Picture	80.365	n/a	4	10	16	n/a	76	88	3	n/a	n/a	n/a	n/a	409.209	AF14ANS.jpg
380.258	0.514	Blank	Blank	79.851	n/a	4	10	16	n/a	76	n/a	3	n/a	n/a	n/a	n/a	409.707	n/a
380.789	0.497	angry	Picture	79.338	n/a	4	10	17	n/a	77	93	3	n/a	n/a	n/a	n/a	410.237	BF22ANS.jpg
381.286	0.514	Blank	Blank	78.824	n/a	4	10	17	n/a	77	n/a	3	n/a	n/a	n/a	n/a	410.735	n/a
381.817	0.497	angry	Picture	78.31	n/a	4	10	18	n/a	78	86	3	n/a	n/a	n/a	n/a	411.265	AF09ANS.jpg
382.314	0.514	Blank	Blank	77.796	n/a	4	10	18	n/a	78	n/a	3	n/a	n/a	n/a	n/a	411.763	n/a
382.845	0.497	angry	Picture	77.282	n/a	4	10	19	n/a	79	92	3	n/a	n/a	n/a	n/a	412.293	AF21ANS.jpg
383.342	0.514	Blank	Blank	76.768	n/a	4	10	19	n/a	79	n/a	3	n/a	n/a	n/a	n/a	412.791	n/a
383.873	0.497	angry	Picture	76.254	n/a	4	10	20	n/a	80	84	3	n/a	n/a	n/a	n/a	413.321	AF05ANS.jpg
384.37	0.514	Blank	Blank	75.74	n/a	4	10	20	n/a	80	n/a	3	n/a	n/a	n/a	n/a	413.818	n/a
384.901	10.014	ITI	Fixation+	65.71	n/a	4	n/a	n/a	n/a	n/a	n/a	n/a	n/a	n/a	n/a	n/a	414.349	n/a
394.931	0.497	neutral	Picture	65.196	n/a	4	11	1	n/a	81	4	1	n/a	n/a	n/a	n/a	424.379	AF05NES.jpg
395.428	0.514	Blank	Blank	64.682	n/a	4	11	1	n/a	81	n/a	1	n/a	n/a	n/a	n/a	424.876	n/a
395.959	0.497	neutral	Picture	64.168	n/a	4	11	2	n/a	82	14	1	n/a	n/a	n/a	n/a	425.407	AF23NES.jpg
396.456	0.514	Blank	Blank	63.654	n/a	4	11	2	n/a	82	n/a	1	n/a	n/a	n/a	n/a	425.904	n/a
396.986	0.497	neutral	Picture	63.14	n/a	4	11	3	n/a	83	19	1	n/a	n/a	n/a	n/a	426.435	AF31NES.jpg
397.484	0.514	Blank	Blank	62.626	n/a	4	11	3	n/a	83	n/a	1	n/a	n/a	n/a	n/a	426.932	n/a
398.014	0.497	neutral	Picture	62.112	n/a	4	11	4	n/a	84	8	1	n/a	n/a	n/a	n/a	427.463	AF14NES.jpg
398.512	0.514	Blank	Blank	61.598	n/a	4	11	4	n/a	84	n/a	1	n/a	n/a	n/a	n/a	427.96	n/a
399.042	0.497	neutral	Picture	61.084	n/a	4	11	5	n/a	85	25	1	n/a	n/a	n/a	n/a	428.491	BM06NES.jpg
399.54	0.514	Blank	Blank	60.57	n/a	4	11	5	n/a	85	n/a	1	n/a	n/a	n/a	n/a	428.988	n/a
400.07	0.497	neutral	Picture	60.056	n/a	4	11	6	n/a	86	9	1	n/a	n/a	n/a	n/a	429.519	AF17NES.jpg
400.567	0.514	Blank	Blank	59.542	n/a	4	11	6	n/a	86	n/a	1	n/a	n/a	n/a	n/a	430.016	n/a
401.098	0.497	neutral	Picture	59.029	n/a	4	11	7	n/a	87	2	1	n/a	n/a	n/a	n/a	430.546	AF03NES.jpg
401.595	0.514	Blank	Blank	58.515	n/a	4	11	7	n/a	87	n/a	1	n/a	n/a	n/a	n/a	431.044	n/a
402.126	0.497	neutral	Picture	58.001	n/a	4	11	8	n/a	88	17	1	n/a	n/a	n/a	n/a	431.574	BF28NES.jpg
402.623	0.514	Blank	Blank	57.487	n/a	4	11	8	n/a	88	n/a	1	n/a	n/a	n/a	n/a	432.072	n/a
403.154	0.497	neutral	Picture	56.973	n/a	4	11	9	n/a	89	6	1	n/a	n/a	n/a	n/a	432.602	AF09NES.jpg
403.651	0.514	Blank	Blank	56.459	n/a	4	11	9	n/a	89	n/a	1	n/a	n/a	n/a	n/a	433.099	n/a
404.182	0.497	neutral	Picture	55.945	n/a	4	11	10	n/a	90	12	1	n/a	n/a	n/a	n/a	433.63	AF21NES.jpg
404.679	0.514	Blank	Blank	55.431	n/a	4	11	10	n/a	90	n/a	1	n/a	n/a	n/a	n/a	434.127	n/a
405.21	0.497	neutral	Picture	54.917	n/a	4	11	11	n/a	91	24	1	n/a	n/a	n/a	n/a	434.658	BM05NES.jpg
405.707	0.514	Blank	Blank	54.403	n/a	4	11	11	n/a	91	n/a	1	n/a	n/a	n/a	n/a	435.155	n/a
406.237	0.497	neutral	Picture	53.889	n/a	4	11	12	n/a	92	34	1	n/a	n/a	n/a	n/a	435.686	AM22NES.jpg
406.735	0.514	Blank	Blank	53.375	n/a	4	11	12	n/a	92	n/a	1	n/a	n/a	n/a	n/a	436.183	n/a
407.265	0.497	neutral	Picture	52.861	n/a	4	11	13	n/a	93	23	1	n/a	n/a	n/a	n/a	436.714	AM04NES.jpg
407.763	0.514	Blank	Blank	52.347	n/a	4	11	13	n/a	93	n/a	1	n/a	n/a	n/a	n/a	437.211	n/a
408.293	0.497	neutral	Picture	51.833	n/a	4	11	14	n/a	94	15	1	n/a	n/a	n/a	n/a	437.742	AF25NES.jpg
408.791	0.514	Blank	Blank	51.319	n/a	4	11	14	n/a	94	n/a	1	n/a	n/a	n/a	n/a	438.239	n/a
409.321	0.497	neutral	Picture	50.805	n/a	4	11	15	n/a	95	37	1	n/a	n/a	n/a	n/a	438.769	BM25NES.jpg
409.818	0.514	Blank	Blank	50.291	n/a	4	11	15	n/a	95	n/a	1	n/a	n/a	n/a	n/a	439.267	n/a
410.349	0.497	neutral	Picture	49.778	n/a	4	11	16	n/a	96	32	1	n/a	n/a	n/a	n/a	439.797	AM14NES.jpg
410.846	0.514	Blank	Blank	49.264	n/a	4	11	16	n/a	96	n/a	1	n/a	n/a	n/a	n/a	440.295	n/a
411.377	0.497	neutral	Picture	48.75	n/a	4	11	17	n/a	97	3	1	n/a	n/a	n/a	n/a	440.825	BF04NES.jpg
411.874	0.514	Blank	Blank	48.236	n/a	4	11	17	n/a	97	n/a	1	n/a	n/a	n/a	n/a	441.323	n/a
412.405	0.497	neutral	Picture	47.722	n/a	4	11	18	n/a	98	16	1	n/a	n/a	n/a	n/a	441.853	AF26NES.jpg
412.902	0.514	Blank	Blank	47.208	n/a	4	11	18	n/a	98	n/a	1	n/a	n/a	n/a	n/a	442.351	n/a
413.433	0.497	neutral	Picture	46.694	n/a	4	11	19	n/a	99	27	1	n/a	n/a	n/a	n/a	442.881	BM08NES.jpg
413.93	0.514	Blank	Blank	46.18	n/a	4	11	19	n/a	99	n/a	1	n/a	n/a	n/a	n/a	443.378	n/a
414.461	0.497	neutral	Picture	45.666	n/a	4	11	20	n/a	100	28	1	n/a	n/a	n/a	n/a	443.909	AM09NES.jpg
414.958	0.514	Blank	Blank	45.152	n/a	4	11	20	n/a	100	n/a	1	n/a	n/a	n/a	n/a	444.406	n/a
415.488	10.014	ITI	Fixation+	35.122	n/a	4	n/a	n/a	n/a	n/a	n/a	n/a	n/a	n/a	n/a	n/a	444.937	n/a
425.519	0.497	angry	Picture	34.608	n/a	4	12	1	n/a	101	81	3	n/a	n/a	n/a	n/a	454.967	AF01ANS.jpg
426.016	0.514	Blank	Blank	34.094	n/a	4	12	1	n/a	101	n/a	3	n/a	n/a	n/a	n/a	455.464	n/a
426.546	0.497	angry	Picture	33.58	n/a	4	12	2	n/a	102	120	3	n/a	n/a	n/a	n/a	455.995	AM35ANS.jpg
427.044	0.514	Blank	Blank	33.066	n/a	4	12	2	n/a	102	n/a	3	n/a	n/a	n/a	n/a	456.492	n/a
427.574	0.497	angry	Picture	32.552	n/a	4	12	3	n/a	103	114	3	n/a	n/a	n/a	n/a	457.023	AM22ANS.jpg
428.072	0.514	Blank	Blank	32.038	n/a	4	12	3	n/a	103	n/a	3	n/a	n/a	n/a	n/a	457.52	n/a
428.602	0.497	angry	Picture	31.524	n/a	4	12	4	n/a	104	109	3	n/a	n/a	n/a	n/a	458.051	AM10ANS.jpg
429.1	0.514	Blank	Blank	31.01	n/a	4	12	4	n/a	104	n/a	3	n/a	n/a	n/a	n/a	458.548	n/a
429.63	0.497	angry	Picture	30.496	n/a	4	12	5	n/a	105	96	3	n/a	n/a	n/a	n/a	459.079	AF26ANS.jpg
430.128	0.514	Blank	Blank	29.983	n/a	4	12	5	n/a	105	n/a	3	n/a	n/a	n/a	n/a	459.576	n/a
430.658	0.497	angry	Picture	29.468	n/a	4	12	6	n/a	106	82	3	n/a	n/a	n/a	n/a	460.106	AF03ANS.jpg
431.155	0.514	Blank	Blank	28.955	n/a	4	12	6	n/a	106	n/a	3	n/a	n/a	n/a	n/a	460.604	n/a
431.686	0.497	angry	Picture	28.441	n/a	4	12	7	n/a	107	97	3	n/a	n/a	n/a	n/a	461.134	BF28ANS.jpg
432.183	0.514	Blank	Blank	27.927	n/a	4	12	7	n/a	107	n/a	3	n/a	n/a	n/a	n/a	461.632	n/a
432.714	0.497	angry	Picture	27.413	n/a	4	12	8	n/a	108	115	3	n/a	n/a	n/a	n/a	462.162	AM23ANS.jpg
433.211	0.514	Blank	Blank	26.899	n/a	4	12	8	n/a	108	n/a	3	n/a	n/a	n/a	n/a	462.659	n/a
433.742	0.497	angry	Picture	26.385	n/a	4	12	9	n/a	109	91	3	n/a	n/a	n/a	n/a	463.19	AF20ANS.jpg
434.239	0.514	Blank	Blank	25.871	n/a	4	12	9	n/a	109	n/a	3	n/a	n/a	n/a	n/a	463.687	n/a
434.77	0.497	angry	Picture	25.357	n/a	4	12	10	n/a	110	87	3	n/a	n/a	n/a	n/a	464.218	BF11ANS.jpg
435.267	0.514	Blank	Blank	24.843	n/a	4	12	10	n/a	110	n/a	3	n/a	n/a	n/a	n/a	464.715	n/a
435.797	0.497	angry	Picture	24.329	n/a	4	12	11	n/a	111	85	3	n/a	n/a	n/a	n/a	465.246	BF07ANS.jpg
436.295	0.514	Blank	Blank	23.815	n/a	4	12	11	n/a	111	n/a	3	n/a	n/a	n/a	n/a	465.743	n/a
436.825	0.497	angry	Picture	23.301	n/a	4	12	12	n/a	112	110	3	n/a	n/a	n/a	n/a	466.274	AM11ANS.jpg
437.323	0.514	Blank	Blank	22.787	n/a	4	12	12	n/a	112	n/a	3	n/a	n/a	n/a	n/a	466.771	n/a
437.853	0.497	angry	Picture	22.273	n/a	4	12	13	n/a	113	111	3	n/a	n/a	n/a	n/a	467.302	BM12ANS.jpg
438.351	0.514	Blank	Blank	21.759	n/a	4	12	13	n/a	113	n/a	3	n/a	n/a	n/a	n/a	467.799	n/a
438.881	0.497	angry	Picture	21.245	n/a	4	12	14	n/a	114	103	3	n/a	n/a	n/a	n/a	468.329	AM04ANS.jpg
439.378	0.514	Blank	Blank	20.731	n/a	4	12	14	n/a	114	n/a	3	n/a	n/a	n/a	n/a	468.827	n/a
439.909	0.497	angry	Picture	20.218	n/a	4	12	15	n/a	115	101	3	n/a	n/a	n/a	n/a	469.357	AM01ANS.jpg
440.406	0.514	Blank	Blank	19.704	n/a	4	12	15	n/a	115	n/a	3	n/a	n/a	n/a	n/a	469.855	n/a
440.937	0.497	angry	Picture	19.19	n/a	4	12	16	n/a	116	104	3	n/a	n/a	n/a	n/a	470.385	BM05ANS.jpg
441.434	0.514	Blank	Blank	18.676	n/a	4	12	16	n/a	116	n/a	3	n/a	n/a	n/a	n/a	470.883	n/a
441.965	0.497	angry	Picture	18.162	n/a	4	12	17	n/a	117	107	3	n/a	n/a	n/a	n/a	471.413	BM08ANS.jpg
442.462	0.514	Blank	Blank	17.648	n/a	4	12	17	n/a	117	n/a	3	n/a	n/a	n/a	n/a	471.911	n/a
442.993	0.497	angry	Picture	17.134	n/a	4	12	18	n/a	118	98	3	n/a	n/a	n/a	n/a	472.441	BF29ANS.jpg
443.49	0.514	Blank	Blank	16.62	n/a	4	12	18	n/a	118	n/a	3	n/a	n/a	n/a	n/a	472.938	n/a
444.021	0.497	angry	Picture	16.106	n/a	4	12	19	n/a	119	99	3	n/a	n/a	n/a	n/a	473.469	AF31ANS.jpg
444.518	0.514	Blank	Blank	15.592	n/a	4	12	19	n/a	119	n/a	3	n/a	n/a	n/a	n/a	473.966	n/a
445.048	0.497	angry	Picture	15.078	n/a	4	12	20	n/a	120	108	3	n/a	n/a	n/a	n/a	474.497	AM09ANS.jpg
445.546	0.514	Blank	Blank	14.564	n/a	4	12	20	n/a	120	n/a	3	n/a	n/a	n/a	n/a	474.994	n/a
446.076	10.014	ITI	Fixation+	4.534	n/a	4	n/a	n/a	n/a	n/a	n/a	n/a	n/a	n/a	n/a	n/a	475.525	n/a
460.624	n/a	ConfirmRating	Rate	n/a	4.526	4	n/a	n/a	0	n/a	n/a	n/a	2	Angry	50	50	490.072	n/a
466.72	n/a	ConfirmRating	Rate	n/a	6.084	4	n/a	n/a	1	n/a	n/a	n/a	3	Angry	0	45	496.168	n/a
