onset	duration	trial_type	event_type	time_until_response	response_time	trial_number	block_num_within_trial	image_seq_num_within_block	question_seq_num_within_block	image_seq_num	picture_number	condition	question_type	block_type	rating	rating_computed	onset_uncorrected	KDEV_imagefile
0.016	10.014	ITI	Fixation+	100.757	n/a	1	n/a	n/a	n/a	n/a	n/a	n/a	n/a	n/a	n/a	n/a	34.097	n/a
10.046	0.497	happy	Picture	100.243	n/a	1	1	1	n/a	1	46	2	n/a	n/a	n/a	n/a	44.127	AF09HAS.jpg
10.544	0.514	Blank	Blank	99.729	n/a	1	1	1	n/a	1	n/a	2	n/a	n/a	n/a	n/a	44.625	n/a
11.074	0.497	happy	Picture	99.215	n/a	1	1	2	n/a	2	69	2	n/a	n/a	n/a	n/a	45.155	AM10HAS.jpg
11.572	0.514	Blank	Blank	98.701	n/a	1	1	2	n/a	2	n/a	2	n/a	n/a	n/a	n/a	45.653	n/a
12.102	0.497	happy	Picture	98.187	n/a	1	1	3	n/a	3	71	2	n/a	n/a	n/a	n/a	46.183	BM12HAS.jpg
12.599	0.514	Blank	Blank	97.673	n/a	1	1	3	n/a	3	n/a	2	n/a	n/a	n/a	n/a	46.681	n/a
13.13	0.497	happy	Picture	97.159	n/a	1	1	4	n/a	4	51	2	n/a	n/a	n/a	n/a	47.211	AF20HAS.jpg
13.627	0.514	Blank	Blank	96.645	n/a	1	1	4	n/a	4	n/a	2	n/a	n/a	n/a	n/a	47.708	n/a
14.158	0.497	happy	Picture	96.131	n/a	1	1	5	n/a	5	67	2	n/a	n/a	n/a	n/a	48.239	BM08HAS.jpg
14.655	0.514	Blank	Blank	95.617	n/a	1	1	5	n/a	5	n/a	2	n/a	n/a	n/a	n/a	48.736	n/a
15.186	0.497	happy	Picture	95.103	n/a	1	2	6	n/a	26	34	1	n/a	n/a	n/a	n/a	49.267	AM22NES.jpg
15.683	0.514	Blank	Blank	94.589	n/a	1	2	6	n/a	26	n/a	1	n/a	n/a	n/a	n/a	49.764	n/a
16.214	0.497	happy	Picture	94.075	n/a	1	2	7	n/a	27	36	1	n/a	n/a	n/a	n/a	50.295	BM24NES.jpg
16.711	0.514	Blank	Blank	93.561	n/a	1	2	7	n/a	27	n/a	1	n/a	n/a	n/a	n/a	50.792	n/a
17.241	0.497	happy	Picture	93.047	n/a	1	2	8	n/a	28	14	1	n/a	n/a	n/a	n/a	51.322	AF23NES.jpg
17.739	0.514	Blank	Blank	92.534	n/a	1	2	8	n/a	28	n/a	1	n/a	n/a	n/a	n/a	51.82	n/a
18.269	0.497	happy	Picture	92.02	n/a	1	2	9	n/a	29	9	1	n/a	n/a	n/a	n/a	52.35	AF17NES.jpg
18.767	0.514	Blank	Blank	91.506	n/a	1	2	9	n/a	29	n/a	1	n/a	n/a	n/a	n/a	52.848	n/a
19.297	0.497	happy	Picture	90.992	n/a	1	2	10	n/a	30	19	1	n/a	n/a	n/a	n/a	53.378	AF31NES.jpg
19.794	0.514	Blank	Blank	90.478	n/a	1	2	10	n/a	30	n/a	1	n/a	n/a	n/a	n/a	53.876	n/a
20.325	0.497	happy	Picture	89.964	n/a	1	3	11	n/a	51	65	2	n/a	n/a	n/a	n/a	54.406	BM06HAS.jpg
20.822	0.514	Blank	Blank	89.45	n/a	1	3	11	n/a	51	n/a	2	n/a	n/a	n/a	n/a	54.904	n/a
21.353	0.497	happy	Picture	88.936	n/a	1	3	12	n/a	52	56	2	n/a	n/a	n/a	n/a	55.434	AF26HAS.jpg
21.85	0.514	Blank	Blank	88.422	n/a	1	3	12	n/a	52	n/a	2	n/a	n/a	n/a	n/a	55.931	n/a
22.381	0.497	happy	Picture	87.908	n/a	1	3	13	n/a	53	45	2	n/a	n/a	n/a	n/a	56.462	BF07HAS.jpg
22.878	0.514	Blank	Blank	87.394	n/a	1	3	13	n/a	53	n/a	2	n/a	n/a	n/a	n/a	56.959	n/a
23.409	0.497	happy	Picture	86.88	n/a	1	3	14	n/a	54	78	2	n/a	n/a	n/a	n/a	57.49	BM26HAS.jpg
23.906	0.514	Blank	Blank	86.366	n/a	1	3	14	n/a	54	n/a	2	n/a	n/a	n/a	n/a	57.987	n/a
24.437	0.497	happy	Picture	85.852	n/a	1	3	15	n/a	55	50	2	n/a	n/a	n/a	n/a	58.518	AF18HAS.jpg
24.934	0.514	Blank	Blank	85.338	n/a	1	3	15	n/a	55	n/a	2	n/a	n/a	n/a	n/a	59.015	n/a
25.465	0.497	happy	Picture	89.339	n/a	2	4	16	n/a	76	88	3	n/a	n/a	n/a	n/a	59.546	AF14ANS.jpg
25.962	0.514	Blank	Blank	88.825	n/a	2	4	16	n/a	76	n/a	3	n/a	n/a	n/a	n/a	60.043	n/a
26.492	0.497	happy	Picture	88.311	n/a	2	4	17	n/a	77	93	3	n/a	n/a	n/a	n/a	60.573	BF22ANS.jpg
26.99	0.514	Blank	Blank	87.797	n/a	2	4	17	n/a	77	n/a	3	n/a	n/a	n/a	n/a	61.071	n/a
27.52	0.497	happy	Picture	87.284	n/a	2	4	18	n/a	78	86	3	n/a	n/a	n/a	n/a	61.601	AF09ANS.jpg
28.018	0.514	Blank	Blank	86.77	n/a	2	4	18	n/a	78	n/a	3	n/a	n/a	n/a	n/a	62.099	n/a
28.548	0.497	happy	Picture	86.256	n/a	2	4	19	n/a	79	92	3	n/a	n/a	n/a	n/a	62.629	AF21ANS.jpg
29.046	0.514	Blank	Blank	85.742	n/a	2	4	19	n/a	79	n/a	3	n/a	n/a	n/a	n/a	63.127	n/a
29.576	0.497	happy	Picture	85.228	n/a	2	4	20	n/a	80	84	3	n/a	n/a	n/a	n/a	63.657	AF05ANS.jpg
30.073	0.514	Blank	Blank	84.714	n/a	2	4	20	n/a	80	n/a	3	n/a	n/a	n/a	n/a	64.154	n/a
30.604	10.014	ITI	Fixation+	74.684	n/a	2	n/a	n/a	n/a	n/a	n/a	n/a	n/a	n/a	n/a	n/a	64.685	n/a
40.634	0.497	neutral	Picture	74.17	n/a	2	5	1	n/a	81	4	1	n/a	n/a	n/a	n/a	74.715	AF05NES.jpg
41.131	0.514	Blank	Blank	73.656	n/a	2	5	1	n/a	81	n/a	1	n/a	n/a	n/a	n/a	75.213	n/a
41.662	0.497	neutral	Picture	73.142	n/a	2	5	2	n/a	82	14	1	n/a	n/a	n/a	n/a	75.743	AF23NES.jpg
42.159	0.514	Blank	Blank	72.628	n/a	2	5	2	n/a	82	n/a	1	n/a	n/a	n/a	n/a	76.24	n/a
42.69	0.497	neutral	Picture	72.114	n/a	2	5	3	n/a	83	19	1	n/a	n/a	n/a	n/a	76.771	AF31NES.jpg
43.187	0.514	Blank	Blank	71.6	n/a	2	5	3	n/a	83	n/a	1	n/a	n/a	n/a	n/a	77.268	n/a
43.718	0.497	neutral	Picture	71.086	n/a	2	5	4	n/a	84	8	1	n/a	n/a	n/a	n/a	77.799	AF14NES.jpg
44.215	0.514	Blank	Blank	70.572	n/a	2	5	4	n/a	84	n/a	1	n/a	n/a	n/a	n/a	78.296	n/a
44.746	0.497	neutral	Picture	70.058	n/a	2	5	5	n/a	85	25	1	n/a	n/a	n/a	n/a	78.827	BM06NES.jpg
45.243	0.514	Blank	Blank	69.544	n/a	2	5	5	n/a	85	n/a	1	n/a	n/a	n/a	n/a	79.324	n/a
45.774	0.497	neutral	Picture	69.03	n/a	2	6	6	n/a	106	82	3	n/a	n/a	n/a	n/a	79.855	AF03ANS.jpg
46.271	0.514	Blank	Blank	68.516	n/a	2	6	6	n/a	106	n/a	3	n/a	n/a	n/a	n/a	80.352	n/a
46.801	0.497	neutral	Picture	68.002	n/a	2	6	7	n/a	107	97	3	n/a	n/a	n/a	n/a	80.882	BF28ANS.jpg
47.299	0.514	Blank	Blank	67.489	n/a	2	6	7	n/a	107	n/a	3	n/a	n/a	n/a	n/a	81.38	n/a
47.829	0.497	neutral	Picture	66.975	n/a	2	6	8	n/a	108	115	3	n/a	n/a	n/a	n/a	81.91	AM23ANS.jpg
48.327	0.514	Blank	Blank	66.461	n/a	2	6	8	n/a	108	n/a	3	n/a	n/a	n/a	n/a	82.408	n/a
48.857	0.497	neutral	Picture	65.947	n/a	2	6	9	n/a	109	91	3	n/a	n/a	n/a	n/a	82.938	AF20ANS.jpg
49.354	0.514	Blank	Blank	65.433	n/a	2	6	9	n/a	109	n/a	3	n/a	n/a	n/a	n/a	83.436	n/a
49.885	0.497	neutral	Picture	64.919	n/a	2	6	10	n/a	110	87	3	n/a	n/a	n/a	n/a	83.966	BF11ANS.jpg
50.382	0.514	Blank	Blank	64.405	n/a	2	6	10	n/a	110	n/a	3	n/a	n/a	n/a	n/a	84.463	n/a
50.913	0.497	neutral	Picture	169.791	n/a	3	7	11	n/a	11	58	2	n/a	n/a	n/a	n/a	84.994	BF29HAS.jpg
51.41	0.514	Blank	Blank	169.277	n/a	3	7	11	n/a	11	n/a	2	n/a	n/a	n/a	n/a	85.491	n/a
51.941	0.497	neutral	Picture	168.764	n/a	3	7	12	n/a	12	48	2	n/a	n/a	n/a	n/a	86.022	AF14HAS.jpg
52.438	0.514	Blank	Blank	168.25	n/a	3	7	12	n/a	12	n/a	2	n/a	n/a	n/a	n/a	86.519	n/a
52.969	0.497	neutral	Picture	167.736	n/a	3	7	13	n/a	13	66	2	n/a	n/a	n/a	n/a	87.05	BM07HAS.jpg
53.466	0.514	Blank	Blank	167.222	n/a	3	7	13	n/a	13	n/a	2	n/a	n/a	n/a	n/a	87.547	n/a
53.997	0.497	neutral	Picture	166.708	n/a	3	7	14	n/a	14	70	2	n/a	n/a	n/a	n/a	88.078	BM11HAS.jpg
54.494	0.514	Blank	Blank	166.194	n/a	3	7	14	n/a	14	n/a	2	n/a	n/a	n/a	n/a	88.575	n/a
55.024	0.497	neutral	Picture	165.68	n/a	3	7	15	n/a	15	43	2	n/a	n/a	n/a	n/a	89.106	BF04HAS.jpg
55.522	0.514	Blank	Blank	165.166	n/a	3	7	15	n/a	15	n/a	2	n/a	n/a	n/a	n/a	89.603	n/a
56.052	0.497	neutral	Picture	164.652	n/a	3	8	16	n/a	36	13	1	n/a	n/a	n/a	n/a	90.133	BF22NES.jpg
56.55	0.514	Blank	Blank	164.138	n/a	3	8	16	n/a	36	n/a	1	n/a	n/a	n/a	n/a	90.631	n/a
57.08	0.497	neutral	Picture	163.624	n/a	3	8	17	n/a	37	12	1	n/a	n/a	n/a	n/a	91.161	AF21NES.jpg
57.578	0.514	Blank	Blank	163.11	n/a	3	8	17	n/a	37	n/a	1	n/a	n/a	n/a	n/a	91.659	n/a
58.108	0.497	neutral	Picture	162.596	n/a	3	8	18	n/a	38	24	1	n/a	n/a	n/a	n/a	92.189	BM05NES.jpg
58.605	0.514	Blank	Blank	162.082	n/a	3	8	18	n/a	38	n/a	1	n/a	n/a	n/a	n/a	92.686	n/a
59.136	0.497	neutral	Picture	161.568	n/a	3	8	19	n/a	39	29	1	n/a	n/a	n/a	n/a	93.217	AM10NES.jpg
59.633	0.514	Blank	Blank	161.054	n/a	3	8	19	n/a	39	n/a	1	n/a	n/a	n/a	n/a	93.714	n/a
60.164	0.497	neutral	Picture	160.54	n/a	3	8	20	n/a	40	23	1	n/a	n/a	n/a	n/a	94.245	AM04NES.jpg
60.661	0.514	Blank	Blank	160.026	n/a	3	8	20	n/a	40	n/a	1	n/a	n/a	n/a	n/a	94.742	n/a
61.192	10.014	ITI	Fixation+	149.996	n/a	3	n/a	n/a	n/a	n/a	n/a	n/a	n/a	n/a	n/a	n/a	95.273	n/a
71.222	0.497	happy	Picture	149.482	n/a	3	9	1	n/a	41	62	2	n/a	n/a	n/a	n/a	105.303	BM03HAS.jpg
71.719	0.514	Blank	Blank	148.968	n/a	3	9	1	n/a	41	n/a	2	n/a	n/a	n/a	n/a	105.8	n/a
72.25	0.497	happy	Picture	148.455	n/a	3	9	2	n/a	42	52	2	n/a	n/a	n/a	n/a	106.331	AF21HAS.jpg
72.747	0.514	Blank	Blank	147.941	n/a	3	9	2	n/a	42	n/a	2	n/a	n/a	n/a	n/a	106.828	n/a
73.278	0.497	happy	Picture	147.427	n/a	3	9	3	n/a	43	44	2	n/a	n/a	n/a	n/a	107.359	AF05HAS.jpg
73.775	0.514	Blank	Blank	146.913	n/a	3	9	3	n/a	43	n/a	2	n/a	n/a	n/a	n/a	107.856	n/a
74.305	0.497	happy	Picture	146.399	n/a	3	9	4	n/a	44	53	2	n/a	n/a	n/a	n/a	108.387	BF22HAS.jpg
74.803	0.514	Blank	Blank	145.885	n/a	3	9	4	n/a	44	n/a	2	n/a	n/a	n/a	n/a	108.884	n/a
75.333	0.497	happy	Picture	145.371	n/a	3	9	5	n/a	45	54	2	n/a	n/a	n/a	n/a	109.415	AF23HAS.jpg
75.831	0.514	Blank	Blank	144.857	n/a	3	9	5	n/a	45	n/a	2	n/a	n/a	n/a	n/a	109.912	n/a
76.361	0.497	happy	Picture	148.658	n/a	4	10	6	n/a	66	105	3	n/a	n/a	n/a	n/a	110.442	BM06ANS.jpg
76.859	0.514	Blank	Blank	148.144	n/a	4	10	6	n/a	66	n/a	3	n/a	n/a	n/a	n/a	110.94	n/a
77.389	0.497	happy	Picture	147.63	n/a	4	10	7	n/a	67	106	3	n/a	n/a	n/a	n/a	111.47	AM07ANS.jpg
77.887	0.514	Blank	Blank	147.116	n/a	4	10	7	n/a	67	n/a	3	n/a	n/a	n/a	n/a	111.968	n/a
78.417	0.497	happy	Picture	146.602	n/a	4	10	8	n/a	68	94	3	n/a	n/a	n/a	n/a	112.498	AF23ANS.jpg
78.914	0.514	Blank	Blank	146.088	n/a	4	10	8	n/a	68	n/a	3	n/a	n/a	n/a	n/a	112.996	n/a
79.445	0.497	happy	Picture	145.574	n/a	4	10	9	n/a	69	117	3	n/a	n/a	n/a	n/a	113.526	BM25ANS.jpg
79.942	0.514	Blank	Blank	145.06	n/a	4	10	9	n/a	69	n/a	3	n/a	n/a	n/a	n/a	114.023	n/a
80.473	0.497	happy	Picture	144.546	n/a	4	10	10	n/a	70	90	3	n/a	n/a	n/a	n/a	114.554	AF18ANS.jpg
80.97	0.514	Blank	Blank	144.032	n/a	4	10	10	n/a	70	n/a	3	n/a	n/a	n/a	n/a	115.051	n/a
81.501	0.497	happy	Picture	143.518	n/a	4	11	11	n/a	91	24	1	n/a	n/a	n/a	n/a	115.582	BM05NES.jpg
81.998	0.514	Blank	Blank	143.005	n/a	4	11	11	n/a	91	n/a	1	n/a	n/a	n/a	n/a	116.079	n/a
82.529	0.497	happy	Picture	142.491	n/a	4	11	12	n/a	92	34	1	n/a	n/a	n/a	n/a	116.61	AM22NES.jpg
83.026	0.514	Blank	Blank	141.977	n/a	4	11	12	n/a	92	n/a	1	n/a	n/a	n/a	n/a	117.107	n/a
83.556	0.497	happy	Picture	141.463	n/a	4	11	13	n/a	93	23	1	n/a	n/a	n/a	n/a	117.638	AM04NES.jpg
84.054	0.514	Blank	Blank	140.949	n/a	4	11	13	n/a	93	n/a	1	n/a	n/a	n/a	n/a	118.135	n/a
84.584	0.497	happy	Picture	140.435	n/a	4	11	14	n/a	94	15	1	n/a	n/a	n/a	n/a	118.665	AF25NES.jpg
85.082	0.514	Blank	Blank	139.921	n/a	4	11	14	n/a	94	n/a	1	n/a	n/a	n/a	n/a	119.163	n/a
85.612	0.497	happy	Picture	139.407	n/a	4	11	15	n/a	95	37	1	n/a	n/a	n/a	n/a	119.693	BM25NES.jpg
86.11	0.514	Blank	Blank	138.893	n/a	4	11	15	n/a	95	n/a	1	n/a	n/a	n/a	n/a	120.191	n/a
86.64	0.497	happy	Picture	138.379	n/a	4	12	16	n/a	116	104	3	n/a	n/a	n/a	n/a	120.721	BM05ANS.jpg
87.137	0.514	Blank	Blank	137.865	n/a	4	12	16	n/a	116	n/a	3	n/a	n/a	n/a	n/a	121.219	n/a
87.668	0.497	happy	Picture	137.351	n/a	4	12	17	n/a	117	107	3	n/a	n/a	n/a	n/a	121.749	BM08ANS.jpg
88.165	0.514	Blank	Blank	136.837	n/a	4	12	17	n/a	117	n/a	3	n/a	n/a	n/a	n/a	122.246	n/a
88.696	0.497	happy	Picture	136.323	n/a	4	12	18	n/a	118	98	3	n/a	n/a	n/a	n/a	122.777	BF29ANS.jpg
89.193	0.514	Blank	Blank	135.809	n/a	4	12	18	n/a	118	n/a	3	n/a	n/a	n/a	n/a	123.274	n/a
89.724	0.497	happy	Picture	135.295	n/a	4	12	19	n/a	119	99	3	n/a	n/a	n/a	n/a	123.805	AF31ANS.jpg
90.221	0.514	Blank	Blank	134.781	n/a	4	12	19	n/a	119	n/a	3	n/a	n/a	n/a	n/a	124.302	n/a
90.752	0.497	happy	Picture	134.268	n/a	4	12	20	n/a	120	108	3	n/a	n/a	n/a	n/a	124.833	AM09ANS.jpg
91.249	0.514	Blank	Blank	133.754	n/a	4	12	20	n/a	120	n/a	3	n/a	n/a	n/a	n/a	125.33	n/a
91.78	10.014	ITI	Fixation+	123.723	n/a	4	n/a	n/a	n/a	n/a	n/a	n/a	n/a	n/a	n/a	n/a	125.861	n/a
110.786	n/a	ConfirmRating	Rate	n/a	8.986	1	n/a	n/a	0	n/a	n/a	n/a	2	Happy	36	49	144.867	n/a
110.786	n/a	ConfirmRating	Rate	n/a	4.492	1	n/a	n/a	0	n/a	n/a	n/a	3	Happy	0	49	144.867	n/a
110.786	n/a	ConfirmRating	Rate	n/a	8.986	1	n/a	n/a	1	n/a	n/a	n/a	2	Happy	36	49	144.867	n/a
110.786	n/a	ConfirmRating	Rate	n/a	4.492	1	n/a	n/a	1	n/a	n/a	n/a	3	Happy	0	49	144.867	n/a
115.301	n/a	ConfirmRating	Rate	n/a	4.095	2	n/a	n/a	0	n/a	n/a	n/a	2	Angry	37	49	149.382	n/a
115.301	n/a	ConfirmRating	Rate	n/a	4.294	2	n/a	n/a	0	n/a	n/a	n/a	3	Angry	20	49	149.382	n/a
115.301	n/a	ConfirmRating	Rate	n/a	4.095	2	n/a	n/a	1	n/a	n/a	n/a	2	Angry	37	49	149.382	n/a
115.301	n/a	ConfirmRating	Rate	n/a	4.294	2	n/a	n/a	1	n/a	n/a	n/a	3	Angry	20	49	149.382	n/a
115.321	10.014	ITI	Fixation+	219.434	n/a	5	n/a	n/a	n/a	n/a	n/a	n/a	n/a	n/a	n/a	n/a	149.403	n/a
125.352	0.497	angry	Picture	218.92	n/a	5	13	1	n/a	1	46	2	n/a	n/a	n/a	n/a	159.433	AF09HAS.jpg
125.849	0.514	Blank	Blank	218.406	n/a	5	13	1	n/a	1	n/a	2	n/a	n/a	n/a	n/a	159.93	n/a
126.379	0.497	angry	Picture	217.892	n/a	5	13	2	n/a	2	69	2	n/a	n/a	n/a	n/a	160.46	AM10HAS.jpg
126.877	0.514	Blank	Blank	217.378	n/a	5	13	2	n/a	2	n/a	2	n/a	n/a	n/a	n/a	160.958	n/a
127.407	0.497	angry	Picture	216.864	n/a	5	13	3	n/a	3	71	2	n/a	n/a	n/a	n/a	161.488	BM12HAS.jpg
127.905	0.514	Blank	Blank	216.35	n/a	5	13	3	n/a	3	n/a	2	n/a	n/a	n/a	n/a	161.986	n/a
128.435	0.497	angry	Picture	215.836	n/a	5	13	4	n/a	4	51	2	n/a	n/a	n/a	n/a	162.516	AF20HAS.jpg
128.933	0.514	Blank	Blank	215.322	n/a	5	13	4	n/a	4	n/a	2	n/a	n/a	n/a	n/a	163.014	n/a
129.463	0.497	angry	Picture	214.808	n/a	5	13	5	n/a	5	67	2	n/a	n/a	n/a	n/a	163.544	BM08HAS.jpg
129.96	0.514	Blank	Blank	214.294	n/a	5	13	5	n/a	5	n/a	2	n/a	n/a	n/a	n/a	164.042	n/a
130.491	0.497	angry	Picture	213.78	n/a	5	14	6	n/a	26	34	1	n/a	n/a	n/a	n/a	164.572	AM22NES.jpg
130.988	0.514	Blank	Blank	213.267	n/a	5	14	6	n/a	26	n/a	1	n/a	n/a	n/a	n/a	165.069	n/a
131.519	0.497	angry	Picture	212.753	n/a	5	14	7	n/a	27	36	1	n/a	n/a	n/a	n/a	165.6	BM24NES.jpg
132.016	0.514	Blank	Blank	212.239	n/a	5	14	7	n/a	27	n/a	1	n/a	n/a	n/a	n/a	166.097	n/a
132.547	0.497	angry	Picture	211.725	n/a	5	14	8	n/a	28	14	1	n/a	n/a	n/a	n/a	166.628	AF23NES.jpg
133.044	0.514	Blank	Blank	211.211	n/a	5	14	8	n/a	28	n/a	1	n/a	n/a	n/a	n/a	167.125	n/a
133.575	0.497	angry	Picture	210.697	n/a	5	14	9	n/a	29	9	1	n/a	n/a	n/a	n/a	167.656	AF17NES.jpg
134.072	0.514	Blank	Blank	210.183	n/a	5	14	9	n/a	29	n/a	1	n/a	n/a	n/a	n/a	168.153	n/a
134.603	0.497	angry	Picture	209.669	n/a	5	14	10	n/a	30	19	1	n/a	n/a	n/a	n/a	168.684	AF31NES.jpg
135.1	0.514	Blank	Blank	209.155	n/a	5	14	10	n/a	30	n/a	1	n/a	n/a	n/a	n/a	169.181	n/a
135.63	0.497	angry	Picture	208.641	n/a	5	15	11	n/a	51	65	2	n/a	n/a	n/a	n/a	169.711	BM06HAS.jpg
136.128	0.514	Blank	Blank	208.127	n/a	5	15	11	n/a	51	n/a	2	n/a	n/a	n/a	n/a	170.209	n/a
136.658	0.497	angry	Picture	207.613	n/a	5	15	12	n/a	52	56	2	n/a	n/a	n/a	n/a	170.739	AF26HAS.jpg
137.156	0.514	Blank	Blank	207.099	n/a	5	15	12	n/a	52	n/a	2	n/a	n/a	n/a	n/a	171.237	n/a
137.686	0.497	angry	Picture	206.585	n/a	5	15	13	n/a	53	45	2	n/a	n/a	n/a	n/a	171.767	BF07HAS.jpg
138.184	0.514	Blank	Blank	206.071	n/a	5	15	13	n/a	53	n/a	2	n/a	n/a	n/a	n/a	172.265	n/a
138.714	0.497	angry	Picture	205.557	n/a	5	15	14	n/a	54	78	2	n/a	n/a	n/a	n/a	172.795	BM26HAS.jpg
139.211	0.514	Blank	Blank	205.043	n/a	5	15	14	n/a	54	n/a	2	n/a	n/a	n/a	n/a	173.292	n/a
139.742	0.497	angry	Picture	204.53	n/a	5	15	15	n/a	55	50	2	n/a	n/a	n/a	n/a	173.823	AF18HAS.jpg
140.239	0.514	Blank	Blank	204.016	n/a	5	15	15	n/a	55	n/a	2	n/a	n/a	n/a	n/a	174.32	n/a
140.77	0.497	angry	Picture	207.528	n/a	6	16	16	n/a	76	88	3	n/a	n/a	n/a	n/a	174.851	AF14ANS.jpg
141.267	0.514	Blank	Blank	207.014	n/a	6	16	16	n/a	76	n/a	3	n/a	n/a	n/a	n/a	175.348	n/a
141.798	0.497	angry	Picture	206.5	n/a	6	16	17	n/a	77	93	3	n/a	n/a	n/a	n/a	175.879	BF22ANS.jpg
142.295	0.514	Blank	Blank	205.986	n/a	6	16	17	n/a	77	n/a	3	n/a	n/a	n/a	n/a	176.376	n/a
142.826	0.497	angry	Picture	205.472	n/a	6	16	18	n/a	78	86	3	n/a	n/a	n/a	n/a	176.907	AF09ANS.jpg
143.323	0.514	Blank	Blank	204.958	n/a	6	16	18	n/a	78	n/a	3	n/a	n/a	n/a	n/a	177.404	n/a
143.853	0.497	angry	Picture	204.444	n/a	6	16	19	n/a	79	92	3	n/a	n/a	n/a	n/a	177.935	AF21ANS.jpg
144.351	0.514	Blank	Blank	203.93	n/a	6	16	19	n/a	79	n/a	3	n/a	n/a	n/a	n/a	178.432	n/a
144.881	0.497	angry	Picture	203.416	n/a	6	16	20	n/a	80	84	3	n/a	n/a	n/a	n/a	178.962	AF05ANS.jpg
145.379	0.514	Blank	Blank	202.902	n/a	6	16	20	n/a	80	n/a	3	n/a	n/a	n/a	n/a	179.46	n/a
145.909	10.014	ITI	Fixation+	192.872	n/a	6	n/a	n/a	n/a	n/a	n/a	n/a	n/a	n/a	n/a	n/a	179.99	n/a
155.939	0.497	neutral	Picture	192.358	n/a	6	17	1	n/a	81	4	1	n/a	n/a	n/a	n/a	190.02	AF05NES.jpg
156.437	0.514	Blank	Blank	191.844	n/a	6	17	1	n/a	81	n/a	1	n/a	n/a	n/a	n/a	190.518	n/a
156.967	0.497	neutral	Picture	191.33	n/a	6	17	2	n/a	82	14	1	n/a	n/a	n/a	n/a	191.048	AF23NES.jpg
157.465	0.514	Blank	Blank	190.816	n/a	6	17	2	n/a	82	n/a	1	n/a	n/a	n/a	n/a	191.546	n/a
157.995	0.497	neutral	Picture	190.302	n/a	6	17	3	n/a	83	19	1	n/a	n/a	n/a	n/a	192.076	AF31NES.jpg
158.493	0.514	Blank	Blank	189.788	n/a	6	17	3	n/a	83	n/a	1	n/a	n/a	n/a	n/a	192.574	n/a
159.023	0.497	neutral	Picture	189.274	n/a	6	17	4	n/a	84	8	1	n/a	n/a	n/a	n/a	193.104	AF14NES.jpg
159.52	0.514	Blank	Blank	188.76	n/a	6	17	4	n/a	84	n/a	1	n/a	n/a	n/a	n/a	193.601	n/a
160.051	0.497	neutral	Picture	188.247	n/a	6	17	5	n/a	85	25	1	n/a	n/a	n/a	n/a	194.132	BM06NES.jpg
160.548	0.514	Blank	Blank	187.733	n/a	6	17	5	n/a	85	n/a	1	n/a	n/a	n/a	n/a	194.629	n/a
161.079	0.497	neutral	Picture	187.219	n/a	6	18	6	n/a	106	82	3	n/a	n/a	n/a	n/a	195.16	AF03ANS.jpg
161.576	0.514	Blank	Blank	186.705	n/a	6	18	6	n/a	106	n/a	3	n/a	n/a	n/a	n/a	195.657	n/a
162.107	0.497	neutral	Picture	186.191	n/a	6	18	7	n/a	107	97	3	n/a	n/a	n/a	n/a	196.188	BF28ANS.jpg
162.604	0.514	Blank	Blank	185.677	n/a	6	18	7	n/a	107	n/a	3	n/a	n/a	n/a	n/a	196.685	n/a
163.135	0.497	neutral	Picture	185.163	n/a	6	18	8	n/a	108	115	3	n/a	n/a	n/a	n/a	197.216	AM23ANS.jpg
163.632	0.514	Blank	Blank	184.649	n/a	6	18	8	n/a	108	n/a	3	n/a	n/a	n/a	n/a	197.713	n/a
164.162	0.497	neutral	Picture	184.135	n/a	6	18	9	n/a	109	91	3	n/a	n/a	n/a	n/a	198.244	AF20ANS.jpg
164.66	0.514	Blank	Blank	183.621	n/a	6	18	9	n/a	109	n/a	3	n/a	n/a	n/a	n/a	198.741	n/a
165.19	0.497	neutral	Picture	183.107	n/a	6	18	10	n/a	110	87	3	n/a	n/a	n/a	n/a	199.271	BF11ANS.jpg
165.688	0.514	Blank	Blank	182.593	n/a	6	18	10	n/a	110	n/a	3	n/a	n/a	n/a	n/a	199.769	n/a
166.218	0.497	neutral	Picture	286.492	n/a	7	19	11	n/a	11	58	2	n/a	n/a	n/a	n/a	200.299	BF29HAS.jpg
166.716	0.514	Blank	Blank	285.978	n/a	7	19	11	n/a	11	n/a	2	n/a	n/a	n/a	n/a	200.797	n/a
167.246	0.497	neutral	Picture	285.464	n/a	7	19	12	n/a	12	48	2	n/a	n/a	n/a	n/a	201.327	AF14HAS.jpg
167.743	0.514	Blank	Blank	284.95	n/a	7	19	12	n/a	12	n/a	2	n/a	n/a	n/a	n/a	201.825	n/a
168.274	0.497	neutral	Picture	284.436	n/a	7	19	13	n/a	13	66	2	n/a	n/a	n/a	n/a	202.355	BM07HAS.jpg
168.771	0.514	Blank	Blank	283.922	n/a	7	19	13	n/a	13	n/a	2	n/a	n/a	n/a	n/a	202.852	n/a
169.302	0.497	neutral	Picture	283.408	n/a	7	19	14	n/a	14	70	2	n/a	n/a	n/a	n/a	203.383	BM11HAS.jpg
169.799	0.514	Blank	Blank	282.894	n/a	7	19	14	n/a	14	n/a	2	n/a	n/a	n/a	n/a	203.88	n/a
170.33	0.497	neutral	Picture	282.38	n/a	7	19	15	n/a	15	43	2	n/a	n/a	n/a	n/a	204.411	BF04HAS.jpg
170.827	0.514	Blank	Blank	281.866	n/a	7	19	15	n/a	15	n/a	2	n/a	n/a	n/a	n/a	204.908	n/a
171.358	0.497	neutral	Picture	281.352	n/a	7	20	16	n/a	36	13	1	n/a	n/a	n/a	n/a	205.439	BF22NES.jpg
171.855	0.514	Blank	Blank	280.838	n/a	7	20	16	n/a	36	n/a	1	n/a	n/a	n/a	n/a	205.936	n/a
172.386	0.497	neutral	Picture	280.324	n/a	7	20	17	n/a	37	12	1	n/a	n/a	n/a	n/a	206.467	AF21NES.jpg
172.883	0.514	Blank	Blank	279.81	n/a	7	20	17	n/a	37	n/a	1	n/a	n/a	n/a	n/a	206.964	n/a
173.413	0.497	neutral	Picture	279.296	n/a	7	20	18	n/a	38	24	1	n/a	n/a	n/a	n/a	207.494	BM05NES.jpg
173.911	0.514	Blank	Blank	278.783	n/a	7	20	18	n/a	38	n/a	1	n/a	n/a	n/a	n/a	207.992	n/a
174.441	0.497	neutral	Picture	278.269	n/a	7	20	19	n/a	39	29	1	n/a	n/a	n/a	n/a	208.522	AM10NES.jpg
174.939	0.514	Blank	Blank	277.755	n/a	7	20	19	n/a	39	n/a	1	n/a	n/a	n/a	n/a	209.02	n/a
175.469	0.497	neutral	Picture	277.241	n/a	7	20	20	n/a	40	23	1	n/a	n/a	n/a	n/a	209.55	AM04NES.jpg
175.966	0.514	Blank	Blank	276.727	n/a	7	20	20	n/a	40	n/a	1	n/a	n/a	n/a	n/a	210.048	n/a
176.497	10.014	ITI	Fixation+	266.697	n/a	7	n/a	n/a	n/a	n/a	n/a	n/a	n/a	n/a	n/a	n/a	210.578	n/a
186.527	0.497	angry	Picture	266.183	n/a	7	21	1	n/a	41	62	2	n/a	n/a	n/a	n/a	220.608	BM03HAS.jpg
187.025	0.514	Blank	Blank	265.669	n/a	7	21	1	n/a	41	n/a	2	n/a	n/a	n/a	n/a	221.106	n/a
187.555	0.497	angry	Picture	265.155	n/a	7	21	2	n/a	42	52	2	n/a	n/a	n/a	n/a	221.636	AF21HAS.jpg
188.052	0.514	Blank	Blank	264.641	n/a	7	21	2	n/a	42	n/a	2	n/a	n/a	n/a	n/a	222.133	n/a
188.583	0.497	angry	Picture	264.127	n/a	7	21	3	n/a	43	44	2	n/a	n/a	n/a	n/a	222.664	AF05HAS.jpg
189.08	0.514	Blank	Blank	263.613	n/a	7	21	3	n/a	43	n/a	2	n/a	n/a	n/a	n/a	223.161	n/a
189.611	0.497	angry	Picture	263.099	n/a	7	21	4	n/a	44	53	2	n/a	n/a	n/a	n/a	223.692	BF22HAS.jpg
190.108	0.514	Blank	Blank	262.585	n/a	7	21	4	n/a	44	n/a	2	n/a	n/a	n/a	n/a	224.189	n/a
190.639	0.497	angry	Picture	262.071	n/a	7	21	5	n/a	45	54	2	n/a	n/a	n/a	n/a	224.72	AF23HAS.jpg
191.136	0.514	Blank	Blank	261.557	n/a	7	21	5	n/a	45	n/a	2	n/a	n/a	n/a	n/a	225.217	n/a
191.667	0.497	angry	Picture	264.619	n/a	8	22	6	n/a	66	105	3	n/a	n/a	n/a	n/a	225.748	BM06ANS.jpg
192.164	0.514	Blank	Blank	264.105	n/a	8	22	6	n/a	66	n/a	3	n/a	n/a	n/a	n/a	226.245	n/a
192.694	0.497	angry	Picture	263.591	n/a	8	22	7	n/a	67	106	3	n/a	n/a	n/a	n/a	226.775	AM07ANS.jpg
193.192	0.514	Blank	Blank	263.077	n/a	8	22	7	n/a	67	n/a	3	n/a	n/a	n/a	n/a	227.273	n/a
193.722	0.497	angry	Picture	262.563	n/a	8	22	8	n/a	68	94	3	n/a	n/a	n/a	n/a	227.803	AF23ANS.jpg
194.22	0.514	Blank	Blank	262.05	n/a	8	22	8	n/a	68	n/a	3	n/a	n/a	n/a	n/a	228.301	n/a
194.75	0.497	angry	Picture	261.536	n/a	8	22	9	n/a	69	117	3	n/a	n/a	n/a	n/a	228.831	BM25ANS.jpg
195.248	0.514	Blank	Blank	261.022	n/a	8	22	9	n/a	69	n/a	3	n/a	n/a	n/a	n/a	229.329	n/a
195.778	0.497	angry	Picture	260.508	n/a	8	22	10	n/a	70	90	3	n/a	n/a	n/a	n/a	229.859	AF18ANS.jpg
196.275	0.514	Blank	Blank	259.994	n/a	8	22	10	n/a	70	n/a	3	n/a	n/a	n/a	n/a	230.357	n/a
196.806	0.497	angry	Picture	259.48	n/a	8	23	11	n/a	91	24	1	n/a	n/a	n/a	n/a	230.887	BM05NES.jpg
197.303	0.514	Blank	Blank	258.966	n/a	8	23	11	n/a	91	n/a	1	n/a	n/a	n/a	n/a	231.384	n/a
197.834	0.497	angry	Picture	258.452	n/a	8	23	12	n/a	92	34	1	n/a	n/a	n/a	n/a	231.915	AM22NES.jpg
198.331	0.514	Blank	Blank	257.938	n/a	8	23	12	n/a	92	n/a	1	n/a	n/a	n/a	n/a	232.412	n/a
198.862	0.497	angry	Picture	257.424	n/a	8	23	13	n/a	93	23	1	n/a	n/a	n/a	n/a	232.943	AM04NES.jpg
199.359	0.514	Blank	Blank	256.91	n/a	8	23	13	n/a	93	n/a	1	n/a	n/a	n/a	n/a	233.44	n/a
199.89	0.497	angry	Picture	256.396	n/a	8	23	14	n/a	94	15	1	n/a	n/a	n/a	n/a	233.971	AF25NES.jpg
200.387	0.514	Blank	Blank	255.882	n/a	8	23	14	n/a	94	n/a	1	n/a	n/a	n/a	n/a	234.468	n/a
200.918	0.497	angry	Picture	255.368	n/a	8	23	15	n/a	95	37	1	n/a	n/a	n/a	n/a	234.999	BM25NES.jpg
201.415	0.514	Blank	Blank	254.854	n/a	8	23	15	n/a	95	n/a	1	n/a	n/a	n/a	n/a	235.496	n/a
201.945	0.497	angry	Picture	254.34	n/a	8	24	16	n/a	116	104	3	n/a	n/a	n/a	n/a	236.026	BM05ANS.jpg
202.443	0.514	Blank	Blank	253.827	n/a	8	24	16	n/a	116	n/a	3	n/a	n/a	n/a	n/a	236.524	n/a
202.973	0.497	angry	Picture	253.313	n/a	8	24	17	n/a	117	107	3	n/a	n/a	n/a	n/a	237.054	BM08ANS.jpg
203.471	0.514	Blank	Blank	252.799	n/a	8	24	17	n/a	117	n/a	3	n/a	n/a	n/a	n/a	237.552	n/a
204.001	0.497	angry	Picture	252.285	n/a	8	24	18	n/a	118	98	3	n/a	n/a	n/a	n/a	238.082	BF29ANS.jpg
204.499	0.514	Blank	Blank	251.771	n/a	8	24	18	n/a	118	n/a	3	n/a	n/a	n/a	n/a	238.58	n/a
205.029	0.497	angry	Picture	251.257	n/a	8	24	19	n/a	119	99	3	n/a	n/a	n/a	n/a	239.11	AF31ANS.jpg
205.526	0.514	Blank	Blank	250.743	n/a	8	24	19	n/a	119	n/a	3	n/a	n/a	n/a	n/a	239.607	n/a
206.057	0.497	angry	Picture	250.229	n/a	8	24	20	n/a	120	108	3	n/a	n/a	n/a	n/a	240.138	AM09ANS.jpg
206.554	0.514	Blank	Blank	249.715	n/a	8	24	20	n/a	120	n/a	3	n/a	n/a	n/a	n/a	240.635	n/a
207.085	10.014	ITI	Fixation+	239.685	n/a	8	n/a	n/a	n/a	n/a	n/a	n/a	n/a	n/a	n/a	n/a	241.166	n/a
221.202	n/a	ConfirmRating	Rate	n/a	2.42	3	n/a	n/a	0	n/a	n/a	n/a	2	Happy	26	49	255.283	n/a
221.202	n/a	ConfirmRating	Rate	n/a	4.012	3	n/a	n/a	0	n/a	n/a	n/a	3	Happy	0	49	255.283	n/a
221.202	n/a	ConfirmRating	Rate	n/a	2.42	3	n/a	n/a	1	n/a	n/a	n/a	2	Happy	26	49	255.283	n/a
221.202	n/a	ConfirmRating	Rate	n/a	4.012	3	n/a	n/a	1	n/a	n/a	n/a	3	Happy	0	49	255.283	n/a
225.517	n/a	ConfirmRating	Rate	n/a	2.603	4	n/a	n/a	0	n/a	n/a	n/a	2	Angry	0	49	259.598	n/a
225.517	n/a	ConfirmRating	Rate	n/a	3.565	4	n/a	n/a	0	n/a	n/a	n/a	3	Angry	0	49	259.598	n/a
225.517	n/a	ConfirmRating	Rate	n/a	2.603	4	n/a	n/a	1	n/a	n/a	n/a	2	Angry	0	49	259.598	n/a
225.517	n/a	ConfirmRating	Rate	n/a	3.565	4	n/a	n/a	1	n/a	n/a	n/a	3	Angry	0	49	259.598	n/a
225.537	15.004	Rest	Picture	n/a	n/a	n/a	n/a	n/a	n/a	n/a	n/a	n/a	0	n/a	0	0	259.618	n/a
240.557	10.014	ITI	Fixation+	n/a	n/a	9	n/a	n/a	n/a	n/a	n/a	n/a	n/a	n/a	n/a	n/a	274.638	n/a
250.588	0.497	happy	Picture	n/a	n/a	9	25	1	n/a	1	46	2	n/a	n/a	n/a	n/a	284.669	AF09HAS.jpg
251.085	0.514	Blank	Blank	n/a	n/a	9	25	1	n/a	1	n/a	2	n/a	n/a	n/a	n/a	285.166	n/a
251.615	0.497	happy	Picture	n/a	n/a	9	25	2	n/a	2	69	2	n/a	n/a	n/a	n/a	285.697	AM10HAS.jpg
252.113	0.514	Blank	Blank	n/a	n/a	9	25	2	n/a	2	n/a	2	n/a	n/a	n/a	n/a	286.194	n/a
252.643	0.497	happy	Picture	n/a	n/a	9	25	3	n/a	3	71	2	n/a	n/a	n/a	n/a	286.724	BM12HAS.jpg
253.141	0.514	Blank	Blank	n/a	n/a	9	25	3	n/a	3	n/a	2	n/a	n/a	n/a	n/a	287.222	n/a
253.671	0.497	happy	Picture	n/a	n/a	9	25	4	n/a	4	51	2	n/a	n/a	n/a	n/a	287.752	AF20HAS.jpg
254.168	0.514	Blank	Blank	n/a	n/a	9	25	4	n/a	4	n/a	2	n/a	n/a	n/a	n/a	288.25	n/a
254.699	0.497	happy	Picture	n/a	n/a	9	25	5	n/a	5	67	2	n/a	n/a	n/a	n/a	288.78	BM08HAS.jpg
255.196	0.514	Blank	Blank	n/a	n/a	9	25	5	n/a	5	n/a	2	n/a	n/a	n/a	n/a	289.277	n/a
255.727	0.497	happy	Picture	n/a	n/a	9	26	6	n/a	26	34	1	n/a	n/a	n/a	n/a	289.808	AM22NES.jpg
256.224	0.514	Blank	Blank	n/a	n/a	9	26	6	n/a	26	n/a	1	n/a	n/a	n/a	n/a	290.305	n/a
256.755	0.497	happy	Picture	n/a	n/a	9	26	7	n/a	27	36	1	n/a	n/a	n/a	n/a	290.836	BM24NES.jpg
257.252	0.514	Blank	Blank	n/a	n/a	9	26	7	n/a	27	n/a	1	n/a	n/a	n/a	n/a	291.333	n/a
257.783	0.497	happy	Picture	n/a	n/a	9	26	8	n/a	28	14	1	n/a	n/a	n/a	n/a	291.864	AF23NES.jpg
258.28	0.514	Blank	Blank	n/a	n/a	9	26	8	n/a	28	n/a	1	n/a	n/a	n/a	n/a	292.361	n/a
258.81	0.497	happy	Picture	n/a	n/a	9	26	9	n/a	29	9	1	n/a	n/a	n/a	n/a	292.892	AF17NES.jpg
259.308	0.514	Blank	Blank	n/a	n/a	9	26	9	n/a	29	n/a	1	n/a	n/a	n/a	n/a	293.389	n/a
259.838	0.497	happy	Picture	n/a	n/a	9	26	10	n/a	30	19	1	n/a	n/a	n/a	n/a	293.92	AF31NES.jpg
260.336	0.514	Blank	Blank	n/a	n/a	9	26	10	n/a	30	n/a	1	n/a	n/a	n/a	n/a	294.417	n/a
260.866	0.497	happy	Picture	n/a	n/a	9	27	11	n/a	51	65	2	n/a	n/a	n/a	n/a	294.947	BM06HAS.jpg
261.364	0.514	Blank	Blank	n/a	n/a	9	27	11	n/a	51	n/a	2	n/a	n/a	n/a	n/a	295.445	n/a
261.894	0.497	happy	Picture	n/a	n/a	9	27	12	n/a	52	56	2	n/a	n/a	n/a	n/a	295.975	AF26HAS.jpg
262.392	0.514	Blank	Blank	n/a	n/a	9	27	12	n/a	52	n/a	2	n/a	n/a	n/a	n/a	296.473	n/a
262.922	0.497	happy	Picture	n/a	n/a	9	27	13	n/a	53	45	2	n/a	n/a	n/a	n/a	297.003	BF07HAS.jpg
263.419	0.514	Blank	Blank	n/a	n/a	9	27	13	n/a	53	n/a	2	n/a	n/a	n/a	n/a	297.5	n/a
263.95	0.497	happy	Picture	n/a	n/a	9	27	14	n/a	54	78	2	n/a	n/a	n/a	n/a	298.031	BM26HAS.jpg
264.447	0.514	Blank	Blank	n/a	n/a	9	27	14	n/a	54	n/a	2	n/a	n/a	n/a	n/a	298.528	n/a
264.978	0.497	happy	Picture	n/a	n/a	9	27	15	n/a	55	50	2	n/a	n/a	n/a	n/a	299.059	AF18HAS.jpg
265.475	0.514	Blank	Blank	n/a	n/a	9	27	15	n/a	55	n/a	2	n/a	n/a	n/a	n/a	299.556	n/a
266.006	0.497	happy	Picture	n/a	n/a	10	28	16	n/a	76	88	3	n/a	n/a	n/a	n/a	300.087	AF14ANS.jpg
266.503	0.514	Blank	Blank	n/a	n/a	10	28	16	n/a	76	n/a	3	n/a	n/a	n/a	n/a	300.584	n/a
267.034	0.497	happy	Picture	n/a	n/a	10	28	17	n/a	77	93	3	n/a	n/a	n/a	n/a	301.115	BF22ANS.jpg
267.531	0.514	Blank	Blank	n/a	n/a	10	28	17	n/a	77	n/a	3	n/a	n/a	n/a	n/a	301.612	n/a
268.062	0.497	happy	Picture	n/a	n/a	10	28	18	n/a	78	86	3	n/a	n/a	n/a	n/a	302.143	AF09ANS.jpg
268.559	0.514	Blank	Blank	n/a	n/a	10	28	18	n/a	78	n/a	3	n/a	n/a	n/a	n/a	302.64	n/a
269.089	0.497	happy	Picture	n/a	n/a	10	28	19	n/a	79	92	3	n/a	n/a	n/a	n/a	303.171	AF21ANS.jpg
269.587	0.514	Blank	Blank	n/a	n/a	10	28	19	n/a	79	n/a	3	n/a	n/a	n/a	n/a	303.668	n/a
270.117	0.497	happy	Picture	n/a	n/a	10	28	20	n/a	80	84	3	n/a	n/a	n/a	n/a	304.198	AF05ANS.jpg
270.615	0.514	Blank	Blank	n/a	n/a	10	28	20	n/a	80	n/a	3	n/a	n/a	n/a	n/a	304.696	n/a
271.145	10.014	ITI	Fixation+	n/a	n/a	10	n/a	n/a	n/a	n/a	n/a	n/a	n/a	n/a	n/a	n/a	305.226	n/a
281.175	0.497	neutral	Picture	n/a	n/a	10	29	1	n/a	81	4	1	n/a	n/a	n/a	n/a	315.256	AF05NES.jpg
281.673	0.514	Blank	Blank	n/a	n/a	10	29	1	n/a	81	n/a	1	n/a	n/a	n/a	n/a	315.754	n/a
282.203	0.497	neutral	Picture	n/a	n/a	10	29	2	n/a	82	14	1	n/a	n/a	n/a	n/a	316.284	AF23NES.jpg
282.701	0.514	Blank	Blank	n/a	n/a	10	29	2	n/a	82	n/a	1	n/a	n/a	n/a	n/a	316.782	n/a
283.231	0.497	neutral	Picture	n/a	n/a	10	29	3	n/a	83	19	1	n/a	n/a	n/a	n/a	317.312	AF31NES.jpg
283.728	0.514	Blank	Blank	n/a	n/a	10	29	3	n/a	83	n/a	1	n/a	n/a	n/a	n/a	317.81	n/a
284.259	0.497	neutral	Picture	n/a	n/a	10	29	4	n/a	84	8	1	n/a	n/a	n/a	n/a	318.34	AF14NES.jpg
284.756	0.514	Blank	Blank	n/a	n/a	10	29	4	n/a	84	n/a	1	n/a	n/a	n/a	n/a	318.837	n/a
285.287	0.497	neutral	Picture	n/a	n/a	10	29	5	n/a	85	25	1	n/a	n/a	n/a	n/a	319.368	BM06NES.jpg
285.784	0.514	Blank	Blank	n/a	n/a	10	29	5	n/a	85	n/a	1	n/a	n/a	n/a	n/a	319.865	n/a
286.315	0.497	neutral	Picture	n/a	n/a	10	30	6	n/a	106	82	3	n/a	n/a	n/a	n/a	320.396	AF03ANS.jpg
286.812	0.514	Blank	Blank	n/a	n/a	10	30	6	n/a	106	n/a	3	n/a	n/a	n/a	n/a	320.893	n/a
287.343	0.497	neutral	Picture	n/a	n/a	10	30	7	n/a	107	97	3	n/a	n/a	n/a	n/a	321.424	BF28ANS.jpg
287.84	0.514	Blank	Blank	n/a	n/a	10	30	7	n/a	107	n/a	3	n/a	n/a	n/a	n/a	321.921	n/a
288.37	0.497	neutral	Picture	n/a	n/a	10	30	8	n/a	108	115	3	n/a	n/a	n/a	n/a	322.452	AM23ANS.jpg
288.868	0.514	Blank	Blank	n/a	n/a	10	30	8	n/a	108	n/a	3	n/a	n/a	n/a	n/a	322.949	n/a
289.398	0.497	neutral	Picture	n/a	n/a	10	30	9	n/a	109	91	3	n/a	n/a	n/a	n/a	323.479	AF20ANS.jpg
289.896	0.514	Blank	Blank	n/a	n/a	10	30	9	n/a	109	n/a	3	n/a	n/a	n/a	n/a	323.977	n/a
290.426	0.497	neutral	Picture	n/a	n/a	10	30	10	n/a	110	87	3	n/a	n/a	n/a	n/a	324.507	BF11ANS.jpg
290.924	0.514	Blank	Blank	n/a	n/a	10	30	10	n/a	110	n/a	3	n/a	n/a	n/a	n/a	325.005	n/a
291.454	0.497	neutral	Picture	n/a	n/a	11	31	11	n/a	11	58	2	n/a	n/a	n/a	n/a	325.535	BF29HAS.jpg
291.952	0.514	Blank	Blank	n/a	n/a	11	31	11	n/a	11	n/a	2	n/a	n/a	n/a	n/a	326.033	n/a
292.482	0.497	neutral	Picture	n/a	n/a	11	31	12	n/a	12	48	2	n/a	n/a	n/a	n/a	326.563	AF14HAS.jpg
292.979	0.514	Blank	Blank	n/a	n/a	11	31	12	n/a	12	n/a	2	n/a	n/a	n/a	n/a	327.06	n/a
293.51	0.497	neutral	Picture	n/a	n/a	11	31	13	n/a	13	66	2	n/a	n/a	n/a	n/a	327.591	BM07HAS.jpg
294.007	0.514	Blank	Blank	n/a	n/a	11	31	13	n/a	13	n/a	2	n/a	n/a	n/a	n/a	328.088	n/a
294.538	0.497	neutral	Picture	n/a	n/a	11	31	14	n/a	14	70	2	n/a	n/a	n/a	n/a	328.619	BM11HAS.jpg
295.035	0.514	Blank	Blank	n/a	n/a	11	31	14	n/a	14	n/a	2	n/a	n/a	n/a	n/a	329.116	n/a
295.566	0.497	neutral	Picture	n/a	n/a	11	31	15	n/a	15	43	2	n/a	n/a	n/a	n/a	329.647	BF04HAS.jpg
296.063	0.514	Blank	Blank	n/a	n/a	11	31	15	n/a	15	n/a	2	n/a	n/a	n/a	n/a	330.144	n/a
296.594	0.497	neutral	Picture	n/a	n/a	11	32	16	n/a	36	13	1	n/a	n/a	n/a	n/a	330.675	BF22NES.jpg
297.091	0.514	Blank	Blank	n/a	n/a	11	32	16	n/a	36	n/a	1	n/a	n/a	n/a	n/a	331.172	n/a
297.621	0.497	neutral	Picture	n/a	n/a	11	32	17	n/a	37	12	1	n/a	n/a	n/a	n/a	331.702	AF21NES.jpg
298.119	0.514	Blank	Blank	n/a	n/a	11	32	17	n/a	37	n/a	1	n/a	n/a	n/a	n/a	332.2	n/a
298.649	0.497	neutral	Picture	n/a	n/a	11	32	18	n/a	38	24	1	n/a	n/a	n/a	n/a	332.73	BM05NES.jpg
299.147	0.514	Blank	Blank	n/a	n/a	11	32	18	n/a	38	n/a	1	n/a	n/a	n/a	n/a	333.228	n/a
299.677	0.497	neutral	Picture	n/a	n/a	11	32	19	n/a	39	29	1	n/a	n/a	n/a	n/a	333.758	AM10NES.jpg
300.175	0.514	Blank	Blank	n/a	n/a	11	32	19	n/a	39	n/a	1	n/a	n/a	n/a	n/a	334.256	n/a
300.705	0.497	neutral	Picture	n/a	n/a	11	32	20	n/a	40	23	1	n/a	n/a	n/a	n/a	334.786	AM04NES.jpg
301.202	0.514	Blank	Blank	n/a	n/a	11	32	20	n/a	40	n/a	1	n/a	n/a	n/a	n/a	335.284	n/a
301.733	10.014	ITI	Fixation+	n/a	n/a	11	n/a	n/a	n/a	n/a	n/a	n/a	n/a	n/a	n/a	n/a	335.814	n/a
311.763	0.497	happy	Picture	n/a	n/a	11	33	1	n/a	41	62	2	n/a	n/a	n/a	n/a	345.844	BM03HAS.jpg
312.261	0.514	Blank	Blank	n/a	n/a	11	33	1	n/a	41	n/a	2	n/a	n/a	n/a	n/a	346.342	n/a
312.791	0.497	happy	Picture	n/a	n/a	11	33	2	n/a	42	52	2	n/a	n/a	n/a	n/a	346.872	AF21HAS.jpg
313.288	0.514	Blank	Blank	n/a	n/a	11	33	2	n/a	42	n/a	2	n/a	n/a	n/a	n/a	347.37	n/a
313.819	0.497	happy	Picture	n/a	n/a	11	33	3	n/a	43	44	2	n/a	n/a	n/a	n/a	347.9	AF05HAS.jpg
314.316	0.514	Blank	Blank	n/a	n/a	11	33	3	n/a	43	n/a	2	n/a	n/a	n/a	n/a	348.397	n/a
314.847	0.497	happy	Picture	n/a	n/a	11	33	4	n/a	44	53	2	n/a	n/a	n/a	n/a	348.928	BF22HAS.jpg
315.344	0.514	Blank	Blank	n/a	n/a	11	33	4	n/a	44	n/a	2	n/a	n/a	n/a	n/a	349.425	n/a
315.875	0.497	happy	Picture	n/a	n/a	11	33	5	n/a	45	54	2	n/a	n/a	n/a	n/a	349.956	AF23HAS.jpg
316.372	0.514	Blank	Blank	n/a	n/a	11	33	5	n/a	45	n/a	2	n/a	n/a	n/a	n/a	350.453	n/a
316.903	0.497	happy	Picture	n/a	n/a	12	34	6	n/a	66	105	3	n/a	n/a	n/a	n/a	350.984	BM06ANS.jpg
317.4	0.514	Blank	Blank	n/a	n/a	12	34	6	n/a	66	n/a	3	n/a	n/a	n/a	n/a	351.481	n/a
317.93	0.497	happy	Picture	n/a	n/a	12	34	7	n/a	67	106	3	n/a	n/a	n/a	n/a	352.012	AM07ANS.jpg
318.428	0.514	Blank	Blank	n/a	n/a	12	34	7	n/a	67	n/a	3	n/a	n/a	n/a	n/a	352.509	n/a
318.958	0.497	happy	Picture	n/a	n/a	12	34	8	n/a	68	94	3	n/a	n/a	n/a	n/a	353.039	AF23ANS.jpg
319.456	0.514	Blank	Blank	n/a	n/a	12	34	8	n/a	68	n/a	3	n/a	n/a	n/a	n/a	353.537	n/a
319.986	0.497	happy	Picture	n/a	n/a	12	34	9	n/a	69	117	3	n/a	n/a	n/a	n/a	354.067	BM25ANS.jpg
320.483	0.514	Blank	Blank	n/a	n/a	12	34	9	n/a	69	n/a	3	n/a	n/a	n/a	n/a	354.565	n/a
321.014	0.497	happy	Picture	n/a	n/a	12	34	10	n/a	70	90	3	n/a	n/a	n/a	n/a	355.095	AF18ANS.jpg
321.511	0.514	Blank	Blank	n/a	n/a	12	34	10	n/a	70	n/a	3	n/a	n/a	n/a	n/a	355.592	n/a
322.042	0.497	happy	Picture	n/a	n/a	12	35	11	n/a	91	24	1	n/a	n/a	n/a	n/a	356.123	BM05NES.jpg
322.539	0.514	Blank	Blank	n/a	n/a	12	35	11	n/a	91	n/a	1	n/a	n/a	n/a	n/a	356.62	n/a
323.07	0.497	happy	Picture	n/a	n/a	12	35	12	n/a	92	34	1	n/a	n/a	n/a	n/a	357.151	AM22NES.jpg
323.567	0.514	Blank	Blank	n/a	n/a	12	35	12	n/a	92	n/a	1	n/a	n/a	n/a	n/a	357.648	n/a
324.098	0.497	happy	Picture	n/a	n/a	12	35	13	n/a	93	23	1	n/a	n/a	n/a	n/a	358.179	AM04NES.jpg
324.595	0.514	Blank	Blank	n/a	n/a	12	35	13	n/a	93	n/a	1	n/a	n/a	n/a	n/a	358.676	n/a
325.126	0.497	happy	Picture	n/a	n/a	12	35	14	n/a	94	15	1	n/a	n/a	n/a	n/a	359.207	AF25NES.jpg
325.623	0.514	Blank	Blank	n/a	n/a	12	35	14	n/a	94	n/a	1	n/a	n/a	n/a	n/a	359.704	n/a
326.154	0.497	happy	Picture	n/a	n/a	12	35	15	n/a	95	37	1	n/a	n/a	n/a	n/a	360.235	BM25NES.jpg
326.651	0.514	Blank	Blank	n/a	n/a	12	35	15	n/a	95	n/a	1	n/a	n/a	n/a	n/a	360.732	n/a
327.181	0.497	happy	Picture	n/a	n/a	12	36	16	n/a	116	104	3	n/a	n/a	n/a	n/a	361.262	BM05ANS.jpg
327.679	0.514	Blank	Blank	n/a	n/a	12	36	16	n/a	116	n/a	3	n/a	n/a	n/a	n/a	361.76	n/a
328.209	0.497	happy	Picture	n/a	n/a	12	36	17	n/a	117	107	3	n/a	n/a	n/a	n/a	362.29	BM08ANS.jpg
328.707	0.514	Blank	Blank	n/a	n/a	12	36	17	n/a	117	n/a	3	n/a	n/a	n/a	n/a	362.788	n/a
329.237	0.497	happy	Picture	n/a	n/a	12	36	18	n/a	118	98	3	n/a	n/a	n/a	n/a	363.318	BF29ANS.jpg
329.735	0.514	Blank	Blank	n/a	n/a	12	36	18	n/a	118	n/a	3	n/a	n/a	n/a	n/a	363.816	n/a
330.265	0.497	happy	Picture	n/a	n/a	12	36	19	n/a	119	99	3	n/a	n/a	n/a	n/a	364.346	AF31ANS.jpg
330.762	0.514	Blank	Blank	n/a	n/a	12	36	19	n/a	119	n/a	3	n/a	n/a	n/a	n/a	364.844	n/a
331.293	0.497	happy	Picture	n/a	n/a	12	36	20	n/a	120	108	3	n/a	n/a	n/a	n/a	365.374	AM09ANS.jpg
331.79	0.514	Blank	Blank	n/a	n/a	12	36	20	n/a	120	n/a	3	n/a	n/a	n/a	n/a	365.871	n/a
332.321	10.014	ITI	Fixation+	n/a	n/a	12	n/a	n/a	n/a	n/a	n/a	n/a	n/a	n/a	n/a	n/a	366.402	n/a
344.769	n/a	ConfirmRating	Rate	n/a	n/a	5	n/a	n/a	0	n/a	n/a	n/a	n/a	n/a	n/a	48	378.85	n/a
344.769	n/a	ConfirmRating	Rate	n/a	n/a	5	n/a	n/a	0	n/a	n/a	n/a	n/a	n/a	n/a	48	378.85	n/a
344.769	n/a	ConfirmRating	Rate	n/a	n/a	5	n/a	n/a	1	n/a	n/a	n/a	n/a	n/a	n/a	48	378.85	n/a
344.769	n/a	ConfirmRating	Rate	n/a	n/a	5	n/a	n/a	1	n/a	n/a	n/a	n/a	n/a	n/a	48	378.85	n/a
348.795	n/a	ConfirmRating	Rate	n/a	n/a	6	n/a	n/a	0	n/a	n/a	n/a	n/a	n/a	n/a	46	382.876	n/a
348.795	n/a	ConfirmRating	Rate	n/a	n/a	6	n/a	n/a	0	n/a	n/a	n/a	n/a	n/a	n/a	46	382.876	n/a
348.795	n/a	ConfirmRating	Rate	n/a	n/a	6	n/a	n/a	1	n/a	n/a	n/a	n/a	n/a	n/a	46	382.876	n/a
348.795	n/a	ConfirmRating	Rate	n/a	n/a	6	n/a	n/a	1	n/a	n/a	n/a	n/a	n/a	n/a	46	382.876	n/a
348.817	10.014	ITI	Fixation+	n/a	n/a	13	n/a	n/a	n/a	n/a	n/a	n/a	n/a	n/a	n/a	n/a	382.898	n/a
358.847	0.497	angry	Picture	n/a	n/a	13	37	1	n/a	1	46	2	n/a	n/a	n/a	n/a	392.928	AF09HAS.jpg
359.344	0.514	Blank	Blank	n/a	n/a	13	37	1	n/a	1	n/a	2	n/a	n/a	n/a	n/a	393.425	n/a
359.875	0.497	angry	Picture	n/a	n/a	13	37	2	n/a	2	69	2	n/a	n/a	n/a	n/a	393.956	AM10HAS.jpg
360.372	0.514	Blank	Blank	n/a	n/a	13	37	2	n/a	2	n/a	2	n/a	n/a	n/a	n/a	394.453	n/a
360.903	0.497	angry	Picture	n/a	n/a	13	37	3	n/a	3	71	2	n/a	n/a	n/a	n/a	394.984	BM12HAS.jpg
361.4	0.514	Blank	Blank	n/a	n/a	13	37	3	n/a	3	n/a	2	n/a	n/a	n/a	n/a	395.481	n/a
361.93	0.497	angry	Picture	n/a	n/a	13	37	4	n/a	4	51	2	n/a	n/a	n/a	n/a	396.012	AF20HAS.jpg
362.428	0.514	Blank	Blank	n/a	n/a	13	37	4	n/a	4	n/a	2	n/a	n/a	n/a	n/a	396.509	n/a
362.958	0.497	angry	Picture	n/a	n/a	13	37	5	n/a	5	67	2	n/a	n/a	n/a	n/a	397.039	BM08HAS.jpg
363.456	0.514	Blank	Blank	n/a	n/a	13	37	5	n/a	5	n/a	2	n/a	n/a	n/a	n/a	397.537	n/a
363.986	0.497	angry	Picture	n/a	n/a	13	38	6	n/a	26	34	1	n/a	n/a	n/a	n/a	398.067	AM22NES.jpg
364.484	0.514	Blank	Blank	n/a	n/a	13	38	6	n/a	26	n/a	1	n/a	n/a	n/a	n/a	398.565	n/a
365.014	0.497	angry	Picture	n/a	n/a	13	38	7	n/a	27	36	1	n/a	n/a	n/a	n/a	399.095	BM24NES.jpg
365.512	0.514	Blank	Blank	n/a	n/a	13	38	7	n/a	27	n/a	1	n/a	n/a	n/a	n/a	399.593	n/a
366.042	0.497	angry	Picture	n/a	n/a	13	38	8	n/a	28	14	1	n/a	n/a	n/a	n/a	400.123	AF23NES.jpg
366.539	0.514	Blank	Blank	n/a	n/a	13	38	8	n/a	28	n/a	1	n/a	n/a	n/a	n/a	400.62	n/a
367.069	0.498	angry	Picture	n/a	n/a	13	38	9	n/a	29	9	1	n/a	n/a	n/a	n/a	401.15	AF17NES.jpg
367.567	0.514	Blank	Blank	n/a	n/a	13	38	9	n/a	29	n/a	1	n/a	n/a	n/a	n/a	401.648	n/a
368.098	0.497	angry	Picture	n/a	n/a	13	38	10	n/a	30	19	1	n/a	n/a	n/a	n/a	402.179	AF31NES.jpg
368.595	0.514	Blank	Blank	n/a	n/a	13	38	10	n/a	30	n/a	1	n/a	n/a	n/a	n/a	402.676	n/a
369.126	0.497	angry	Picture	n/a	n/a	13	39	11	n/a	51	65	2	n/a	n/a	n/a	n/a	403.207	BM06HAS.jpg
369.623	0.514	Blank	Blank	n/a	n/a	13	39	11	n/a	51	n/a	2	n/a	n/a	n/a	n/a	403.704	n/a
370.154	0.497	angry	Picture	n/a	n/a	13	39	12	n/a	52	56	2	n/a	n/a	n/a	n/a	404.235	AF26HAS.jpg
370.651	0.514	Blank	Blank	n/a	n/a	13	39	12	n/a	52	n/a	2	n/a	n/a	n/a	n/a	404.732	n/a
371.181	0.497	angry	Picture	n/a	n/a	13	39	13	n/a	53	45	2	n/a	n/a	n/a	n/a	405.262	BF07HAS.jpg
371.679	0.514	Blank	Blank	n/a	n/a	13	39	13	n/a	53	n/a	2	n/a	n/a	n/a	n/a	405.76	n/a
372.209	0.497	angry	Picture	n/a	n/a	13	39	14	n/a	54	78	2	n/a	n/a	n/a	n/a	406.29	BM26HAS.jpg
372.707	0.514	Blank	Blank	n/a	n/a	13	39	14	n/a	54	n/a	2	n/a	n/a	n/a	n/a	406.788	n/a
373.237	0.497	angry	Picture	n/a	n/a	13	39	15	n/a	55	50	2	n/a	n/a	n/a	n/a	407.318	AF18HAS.jpg
373.735	0.514	Blank	Blank	n/a	n/a	13	39	15	n/a	55	n/a	2	n/a	n/a	n/a	n/a	407.816	n/a
374.265	0.497	angry	Picture	n/a	n/a	14	40	16	n/a	76	88	3	n/a	n/a	n/a	n/a	408.346	AF14ANS.jpg
374.762	0.514	Blank	Blank	n/a	n/a	14	40	16	n/a	76	n/a	3	n/a	n/a	n/a	n/a	408.844	n/a
375.293	0.497	angry	Picture	n/a	n/a	14	40	17	n/a	77	93	3	n/a	n/a	n/a	n/a	409.374	BF22ANS.jpg
375.79	0.514	Blank	Blank	n/a	n/a	14	40	17	n/a	77	n/a	3	n/a	n/a	n/a	n/a	409.871	n/a
376.321	0.497	angry	Picture	n/a	n/a	14	40	18	n/a	78	86	3	n/a	n/a	n/a	n/a	410.402	AF09ANS.jpg
376.818	0.514	Blank	Blank	n/a	n/a	14	40	18	n/a	78	n/a	3	n/a	n/a	n/a	n/a	410.899	n/a
377.349	0.497	angry	Picture	n/a	n/a	14	40	19	n/a	79	92	3	n/a	n/a	n/a	n/a	411.43	AF21ANS.jpg
377.846	0.514	Blank	Blank	n/a	n/a	14	40	19	n/a	79	n/a	3	n/a	n/a	n/a	n/a	411.927	n/a
378.377	0.497	angry	Picture	n/a	n/a	14	40	20	n/a	80	84	3	n/a	n/a	n/a	n/a	412.458	AF05ANS.jpg
378.874	0.514	Blank	Blank	n/a	n/a	14	40	20	n/a	80	n/a	3	n/a	n/a	n/a	n/a	412.955	n/a
379.404	10.014	ITI	Fixation+	n/a	n/a	14	n/a	n/a	n/a	n/a	n/a	n/a	n/a	n/a	n/a	n/a	413.486	n/a
389.435	0.497	neutral	Picture	n/a	n/a	14	41	1	n/a	81	4	1	n/a	n/a	n/a	n/a	423.516	AF05NES.jpg
389.932	0.514	Blank	Blank	n/a	n/a	14	41	1	n/a	81	n/a	1	n/a	n/a	n/a	n/a	424.013	n/a
390.463	0.497	neutral	Picture	n/a	n/a	14	41	2	n/a	82	14	1	n/a	n/a	n/a	n/a	424.544	AF23NES.jpg
390.96	0.514	Blank	Blank	n/a	n/a	14	41	2	n/a	82	n/a	1	n/a	n/a	n/a	n/a	425.041	n/a
391.49	0.497	neutral	Picture	n/a	n/a	14	41	3	n/a	83	19	1	n/a	n/a	n/a	n/a	425.572	AF31NES.jpg
391.988	0.514	Blank	Blank	n/a	n/a	14	41	3	n/a	83	n/a	1	n/a	n/a	n/a	n/a	426.069	n/a
392.518	0.497	neutral	Picture	n/a	n/a	14	41	4	n/a	84	8	1	n/a	n/a	n/a	n/a	426.599	AF14NES.jpg
393.016	0.514	Blank	Blank	n/a	n/a	14	41	4	n/a	84	n/a	1	n/a	n/a	n/a	n/a	427.097	n/a
393.546	0.497	neutral	Picture	n/a	n/a	14	41	5	n/a	85	25	1	n/a	n/a	n/a	n/a	427.627	BM06NES.jpg
394.043	0.514	Blank	Blank	n/a	n/a	14	41	5	n/a	85	n/a	1	n/a	n/a	n/a	n/a	428.125	n/a
394.574	0.497	neutral	Picture	n/a	n/a	14	42	6	n/a	106	82	3	n/a	n/a	n/a	n/a	428.655	AF03ANS.jpg
395.071	0.514	Blank	Blank	n/a	n/a	14	42	6	n/a	106	n/a	3	n/a	n/a	n/a	n/a	429.152	n/a
395.602	0.497	neutral	Picture	n/a	n/a	14	42	7	n/a	107	97	3	n/a	n/a	n/a	n/a	429.683	BF28ANS.jpg
396.099	0.514	Blank	Blank	n/a	n/a	14	42	7	n/a	107	n/a	3	n/a	n/a	n/a	n/a	430.18	n/a
396.63	0.497	neutral	Picture	n/a	n/a	14	42	8	n/a	108	115	3	n/a	n/a	n/a	n/a	430.711	AM23ANS.jpg
397.127	0.514	Blank	Blank	n/a	n/a	14	42	8	n/a	108	n/a	3	n/a	n/a	n/a	n/a	431.208	n/a
397.658	0.497	neutral	Picture	n/a	n/a	14	42	9	n/a	109	91	3	n/a	n/a	n/a	n/a	431.739	AF20ANS.jpg
398.155	0.514	Blank	Blank	n/a	n/a	14	42	9	n/a	109	n/a	3	n/a	n/a	n/a	n/a	432.236	n/a
398.686	0.497	neutral	Picture	n/a	n/a	14	42	10	n/a	110	87	3	n/a	n/a	n/a	n/a	432.767	BF11ANS.jpg
399.183	0.514	Blank	Blank	n/a	n/a	14	42	10	n/a	110	n/a	3	n/a	n/a	n/a	n/a	433.264	n/a
399.713	0.497	neutral	Picture	n/a	n/a	15	43	11	n/a	11	58	2	n/a	n/a	n/a	n/a	433.795	BF29HAS.jpg
400.211	0.514	Blank	Blank	n/a	n/a	15	43	11	n/a	11	n/a	2	n/a	n/a	n/a	n/a	434.292	n/a
400.741	0.497	neutral	Picture	n/a	n/a	15	43	12	n/a	12	48	2	n/a	n/a	n/a	n/a	434.822	AF14HAS.jpg
401.239	0.514	Blank	Blank	n/a	n/a	15	43	12	n/a	12	n/a	2	n/a	n/a	n/a	n/a	435.32	n/a
401.769	0.497	neutral	Picture	n/a	n/a	15	43	13	n/a	13	66	2	n/a	n/a	n/a	n/a	435.85	BM07HAS.jpg
402.267	0.514	Blank	Blank	n/a	n/a	15	43	13	n/a	13	n/a	2	n/a	n/a	n/a	n/a	436.348	n/a
402.797	0.497	neutral	Picture	n/a	n/a	15	43	14	n/a	14	70	2	n/a	n/a	n/a	n/a	436.878	BM11HAS.jpg
403.294	0.514	Blank	Blank	n/a	n/a	15	43	14	n/a	14	n/a	2	n/a	n/a	n/a	n/a	437.375	n/a
403.825	0.497	neutral	Picture	n/a	n/a	15	43	15	n/a	15	43	2	n/a	n/a	n/a	n/a	437.906	BF04HAS.jpg
404.322	0.514	Blank	Blank	n/a	n/a	15	43	15	n/a	15	n/a	2	n/a	n/a	n/a	n/a	438.403	n/a
404.853	0.497	neutral	Picture	n/a	n/a	15	44	16	n/a	36	13	1	n/a	n/a	n/a	n/a	438.934	BF22NES.jpg
405.35	0.514	Blank	Blank	n/a	n/a	15	44	16	n/a	36	n/a	1	n/a	n/a	n/a	n/a	439.431	n/a
405.881	0.497	neutral	Picture	n/a	n/a	15	44	17	n/a	37	12	1	n/a	n/a	n/a	n/a	439.962	AF21NES.jpg
406.378	0.514	Blank	Blank	n/a	n/a	15	44	17	n/a	37	n/a	1	n/a	n/a	n/a	n/a	440.459	n/a
406.909	0.497	neutral	Picture	n/a	n/a	15	44	18	n/a	38	24	1	n/a	n/a	n/a	n/a	440.99	BM05NES.jpg
407.406	0.514	Blank	Blank	n/a	n/a	15	44	18	n/a	38	n/a	1	n/a	n/a	n/a	n/a	441.487	n/a
407.937	0.497	neutral	Picture	n/a	n/a	15	44	19	n/a	39	29	1	n/a	n/a	n/a	n/a	442.018	AM10NES.jpg
408.434	0.514	Blank	Blank	n/a	n/a	15	44	19	n/a	39	n/a	1	n/a	n/a	n/a	n/a	442.515	n/a
408.964	0.497	neutral	Picture	n/a	n/a	15	44	20	n/a	40	23	1	n/a	n/a	n/a	n/a	443.046	AM04NES.jpg
409.462	0.514	Blank	Blank	n/a	n/a	15	44	20	n/a	40	n/a	1	n/a	n/a	n/a	n/a	443.543	n/a
409.992	10.014	ITI	Fixation+	n/a	n/a	15	n/a	n/a	n/a	n/a	n/a	n/a	n/a	n/a	n/a	n/a	444.073	n/a
420.022	0.497	angry	Picture	n/a	n/a	15	45	1	n/a	41	62	2	n/a	n/a	n/a	n/a	454.103	BM03HAS.jpg
420.52	0.514	Blank	Blank	n/a	n/a	15	45	1	n/a	41	n/a	2	n/a	n/a	n/a	n/a	454.601	n/a
421.05	0.497	angry	Picture	n/a	n/a	15	45	2	n/a	42	52	2	n/a	n/a	n/a	n/a	455.131	AF21HAS.jpg
421.548	0.514	Blank	Blank	n/a	n/a	15	45	2	n/a	42	n/a	2	n/a	n/a	n/a	n/a	455.629	n/a
422.078	0.497	angry	Picture	n/a	n/a	15	45	3	n/a	43	44	2	n/a	n/a	n/a	n/a	456.159	AF05HAS.jpg
422.576	0.514	Blank	Blank	n/a	n/a	15	45	3	n/a	43	n/a	2	n/a	n/a	n/a	n/a	456.657	n/a
423.106	0.497	angry	Picture	n/a	n/a	15	45	4	n/a	44	53	2	n/a	n/a	n/a	n/a	457.187	BF22HAS.jpg
423.603	0.514	Blank	Blank	n/a	n/a	15	45	4	n/a	44	n/a	2	n/a	n/a	n/a	n/a	457.685	n/a
424.134	0.497	angry	Picture	n/a	n/a	15	45	5	n/a	45	54	2	n/a	n/a	n/a	n/a	458.215	AF23HAS.jpg
424.631	0.514	Blank	Blank	n/a	n/a	15	45	5	n/a	45	n/a	2	n/a	n/a	n/a	n/a	458.712	n/a
425.162	0.497	angry	Picture	n/a	n/a	16	46	6	n/a	66	105	3	n/a	n/a	n/a	n/a	459.243	BM06ANS.jpg
425.659	0.514	Blank	Blank	n/a	n/a	16	46	6	n/a	66	n/a	3	n/a	n/a	n/a	n/a	459.74	n/a
426.19	0.497	angry	Picture	n/a	n/a	16	46	7	n/a	67	106	3	n/a	n/a	n/a	n/a	460.271	AM07ANS.jpg
426.687	0.514	Blank	Blank	n/a	n/a	16	46	7	n/a	67	n/a	3	n/a	n/a	n/a	n/a	460.768	n/a
427.218	0.497	angry	Picture	n/a	n/a	16	46	8	n/a	68	94	3	n/a	n/a	n/a	n/a	461.299	AF23ANS.jpg
427.715	0.514	Blank	Blank	n/a	n/a	16	46	8	n/a	68	n/a	3	n/a	n/a	n/a	n/a	461.796	n/a
428.245	0.497	angry	Picture	n/a	n/a	16	46	9	n/a	69	117	3	n/a	n/a	n/a	n/a	462.327	BM25ANS.jpg
428.743	0.514	Blank	Blank	n/a	n/a	16	46	9	n/a	69	n/a	3	n/a	n/a	n/a	n/a	462.824	n/a
429.273	0.497	angry	Picture	n/a	n/a	16	46	10	n/a	70	90	3	n/a	n/a	n/a	n/a	463.354	AF18ANS.jpg
429.771	0.514	Blank	Blank	n/a	n/a	16	46	10	n/a	70	n/a	3	n/a	n/a	n/a	n/a	463.852	n/a
430.301	0.497	angry	Picture	n/a	n/a	16	47	11	n/a	91	24	1	n/a	n/a	n/a	n/a	464.382	BM05NES.jpg
430.799	0.514	Blank	Blank	n/a	n/a	16	47	11	n/a	91	n/a	1	n/a	n/a	n/a	n/a	464.88	n/a
431.329	0.497	angry	Picture	n/a	n/a	16	47	12	n/a	92	34	1	n/a	n/a	n/a	n/a	465.41	AM22NES.jpg
431.827	0.514	Blank	Blank	n/a	n/a	16	47	12	n/a	92	n/a	1	n/a	n/a	n/a	n/a	465.908	n/a
432.357	0.497	angry	Picture	n/a	n/a	16	47	13	n/a	93	23	1	n/a	n/a	n/a	n/a	466.438	AM04NES.jpg
432.854	0.514	Blank	Blank	n/a	n/a	16	47	13	n/a	93	n/a	1	n/a	n/a	n/a	n/a	466.935	n/a
433.385	0.497	angry	Picture	n/a	n/a	16	47	14	n/a	94	15	1	n/a	n/a	n/a	n/a	467.466	AF25NES.jpg
433.882	0.514	Blank	Blank	n/a	n/a	16	47	14	n/a	94	n/a	1	n/a	n/a	n/a	n/a	467.963	n/a
434.413	0.497	angry	Picture	n/a	n/a	16	47	15	n/a	95	37	1	n/a	n/a	n/a	n/a	468.494	BM25NES.jpg
434.91	0.514	Blank	Blank	n/a	n/a	16	47	15	n/a	95	n/a	1	n/a	n/a	n/a	n/a	468.991	n/a
435.441	0.497	angry	Picture	n/a	n/a	16	48	16	n/a	116	104	3	n/a	n/a	n/a	n/a	469.522	BM05ANS.jpg
435.938	0.514	Blank	Blank	n/a	n/a	16	48	16	n/a	116	n/a	3	n/a	n/a	n/a	n/a	470.019	n/a
436.469	0.497	angry	Picture	n/a	n/a	16	48	17	n/a	117	107	3	n/a	n/a	n/a	n/a	470.55	BM08ANS.jpg
436.966	0.514	Blank	Blank	n/a	n/a	16	48	17	n/a	117	n/a	3	n/a	n/a	n/a	n/a	471.047	n/a
437.496	0.497	angry	Picture	n/a	n/a	16	48	18	n/a	118	98	3	n/a	n/a	n/a	n/a	471.577	BF29ANS.jpg
437.994	0.514	Blank	Blank	n/a	n/a	16	48	18	n/a	118	n/a	3	n/a	n/a	n/a	n/a	472.075	n/a
438.524	0.497	angry	Picture	n/a	n/a	16	48	19	n/a	119	99	3	n/a	n/a	n/a	n/a	472.605	AF31ANS.jpg
439.022	0.514	Blank	Blank	n/a	n/a	16	48	19	n/a	119	n/a	3	n/a	n/a	n/a	n/a	473.103	n/a
439.552	0.497	angry	Picture	n/a	n/a	16	48	20	n/a	120	108	3	n/a	n/a	n/a	n/a	473.633	AM09ANS.jpg
440.05	0.514	Blank	Blank	n/a	n/a	16	48	20	n/a	120	n/a	3	n/a	n/a	n/a	n/a	474.131	n/a
440.58	10.014	ITI	Fixation+	n/a	n/a	16	n/a	n/a	n/a	n/a	n/a	n/a	n/a	n/a	n/a	n/a	474.661	n/a
453.207	n/a	ConfirmRating	Rate	n/a	n/a	7	n/a	n/a	0	n/a	n/a	n/a	n/a	n/a	n/a	49	487.288	n/a
453.207	n/a	ConfirmRating	Rate	n/a	n/a	7	n/a	n/a	0	n/a	n/a	n/a	n/a	n/a	n/a	49	487.288	n/a
453.207	n/a	ConfirmRating	Rate	n/a	n/a	7	n/a	n/a	1	n/a	n/a	n/a	n/a	n/a	n/a	49	487.288	n/a
453.207	n/a	ConfirmRating	Rate	n/a	n/a	7	n/a	n/a	1	n/a	n/a	n/a	n/a	n/a	n/a	49	487.288	n/a
456.783	n/a	ConfirmRating	Rate	n/a	n/a	8	n/a	n/a	0	n/a	n/a	n/a	n/a	n/a	n/a	48	490.864	n/a
456.783	n/a	ConfirmRating	Rate	n/a	n/a	8	n/a	n/a	0	n/a	n/a	n/a	n/a	n/a	n/a	48	490.864	n/a
456.783	n/a	ConfirmRating	Rate	n/a	n/a	8	n/a	n/a	1	n/a	n/a	n/a	n/a	n/a	n/a	48	490.864	n/a
456.783	n/a	ConfirmRating	Rate	n/a	n/a	8	n/a	n/a	1	n/a	n/a	n/a	n/a	n/a	n/a	48	490.864	n/a
