onset	duration	trial_type	event_type	time_until_response	response_time	trial_number	block_num_within_trial	image_seq_num_within_block	question_seq_num_within_block	image_seq_num	picture_number	condition	question_type	block_type	rating	rating_computed	onset_uncorrected	KDEV_imagefile
0.003	10.014	ITI	Fixation+	102.267	n/a	1	n/a	n/a	n/a	n/a	n/a	n/a	n/a	n/a	n/a	n/a	33.467	n/a
10.034	0.497	angry	Picture	101.753	n/a	1	1	1	n/a	1	46	2	n/a	n/a	n/a	n/a	43.498	AF09HAS.jpg
10.531	0.514	Blank	Blank	101.24	n/a	1	1	1	n/a	1	n/a	2	n/a	n/a	n/a	n/a	43.995	n/a
11.062	0.497	angry	Picture	100.726	n/a	1	1	2	n/a	2	69	2	n/a	n/a	n/a	n/a	44.526	AM10HAS.jpg
11.559	0.514	Blank	Blank	100.212	n/a	1	1	2	n/a	2	n/a	2	n/a	n/a	n/a	n/a	45.023	n/a
12.09	0.497	angry	Picture	99.698	n/a	1	1	3	n/a	3	71	2	n/a	n/a	n/a	n/a	45.553	BM12HAS.jpg
12.587	0.514	Blank	Blank	99.184	n/a	1	1	3	n/a	3	n/a	2	n/a	n/a	n/a	n/a	46.051	n/a
13.117	0.497	angry	Picture	98.67	n/a	1	1	4	n/a	4	51	2	n/a	n/a	n/a	n/a	46.581	AF20HAS.jpg
13.615	0.514	Blank	Blank	98.156	n/a	1	1	4	n/a	4	n/a	2	n/a	n/a	n/a	n/a	47.079	n/a
14.145	0.497	angry	Picture	97.642	n/a	1	1	5	n/a	5	67	2	n/a	n/a	n/a	n/a	47.609	BM08HAS.jpg
14.643	0.514	Blank	Blank	97.128	n/a	1	1	5	n/a	5	n/a	2	n/a	n/a	n/a	n/a	48.107	n/a
15.173	0.497	angry	Picture	96.614	n/a	1	1	6	n/a	6	60	2	n/a	n/a	n/a	n/a	48.637	AF32HAS.jpg
15.67	0.514	Blank	Blank	96.1	n/a	1	1	6	n/a	6	n/a	2	n/a	n/a	n/a	n/a	49.134	n/a
16.201	0.497	angry	Picture	95.586	n/a	1	1	7	n/a	7	42	2	n/a	n/a	n/a	n/a	49.665	AF03HAS.jpg
16.698	0.514	Blank	Blank	95.072	n/a	1	1	7	n/a	7	n/a	2	n/a	n/a	n/a	n/a	50.162	n/a
17.229	0.497	angry	Picture	94.558	n/a	1	1	8	n/a	8	55	2	n/a	n/a	n/a	n/a	50.693	AF25HAS.jpg
17.726	0.514	Blank	Blank	94.044	n/a	1	1	8	n/a	8	n/a	2	n/a	n/a	n/a	n/a	51.19	n/a
18.257	0.497	angry	Picture	93.53	n/a	1	1	9	n/a	9	72	2	n/a	n/a	n/a	n/a	51.721	AM14HAS.jpg
18.754	0.514	Blank	Blank	93.016	n/a	1	1	9	n/a	9	n/a	2	n/a	n/a	n/a	n/a	52.218	n/a
19.285	0.497	angry	Picture	92.502	n/a	1	1	10	n/a	10	63	2	n/a	n/a	n/a	n/a	52.749	AM04HAS.jpg
19.782	0.514	Blank	Blank	91.989	n/a	1	1	10	n/a	10	n/a	2	n/a	n/a	n/a	n/a	53.246	n/a
20.313	0.497	angry	Picture	91.475	n/a	1	1	11	n/a	11	58	2	n/a	n/a	n/a	n/a	53.776	BF29HAS.jpg
20.81	0.514	Blank	Blank	90.961	n/a	1	1	11	n/a	11	n/a	2	n/a	n/a	n/a	n/a	54.274	n/a
21.34	0.497	angry	Picture	90.447	n/a	1	1	12	n/a	12	48	2	n/a	n/a	n/a	n/a	54.804	AF14HAS.jpg
21.838	0.514	Blank	Blank	89.933	n/a	1	1	12	n/a	12	n/a	2	n/a	n/a	n/a	n/a	55.302	n/a
22.368	0.497	angry	Picture	89.419	n/a	1	1	13	n/a	13	66	2	n/a	n/a	n/a	n/a	55.832	BM07HAS.jpg
22.866	0.514	Blank	Blank	88.905	n/a	1	1	13	n/a	13	n/a	2	n/a	n/a	n/a	n/a	56.33	n/a
23.396	0.497	angry	Picture	88.391	n/a	1	1	14	n/a	14	70	2	n/a	n/a	n/a	n/a	56.86	BM11HAS.jpg
23.894	0.514	Blank	Blank	87.877	n/a	1	1	14	n/a	14	n/a	2	n/a	n/a	n/a	n/a	57.358	n/a
24.424	0.497	angry	Picture	87.363	n/a	1	1	15	n/a	15	43	2	n/a	n/a	n/a	n/a	57.888	BF04HAS.jpg
24.922	0.514	Blank	Blank	86.849	n/a	1	1	15	n/a	15	n/a	2	n/a	n/a	n/a	n/a	58.386	n/a
25.452	0.497	angry	Picture	86.335	n/a	1	1	16	n/a	16	49	2	n/a	n/a	n/a	n/a	58.916	AF17HAS.jpg
25.949	0.514	Blank	Blank	85.821	n/a	1	1	16	n/a	16	n/a	2	n/a	n/a	n/a	n/a	59.413	n/a
26.48	0.497	angry	Picture	85.307	n/a	1	1	17	n/a	17	75	2	n/a	n/a	n/a	n/a	59.944	AM23HAS.jpg
26.977	0.514	Blank	Blank	84.793	n/a	1	1	17	n/a	17	n/a	2	n/a	n/a	n/a	n/a	60.441	n/a
27.508	0.497	angry	Picture	84.279	n/a	1	1	18	n/a	18	80	2	n/a	n/a	n/a	n/a	60.972	BM35HAS.jpg
28.005	0.514	Blank	Blank	83.765	n/a	1	1	18	n/a	18	n/a	2	n/a	n/a	n/a	n/a	61.469	n/a
28.536	0.497	angry	Picture	83.251	n/a	1	1	19	n/a	19	76	2	n/a	n/a	n/a	n/a	62.0	BM24HAS.jpg
29.033	0.514	Blank	Blank	82.737	n/a	1	1	19	n/a	19	n/a	2	n/a	n/a	n/a	n/a	62.497	n/a
29.564	0.497	angry	Picture	82.224	n/a	1	1	20	n/a	20	74	2	n/a	n/a	n/a	n/a	63.028	AM22HAS.jpg
30.061	0.514	Blank	Blank	81.71	n/a	1	1	20	n/a	20	n/a	2	n/a	n/a	n/a	n/a	63.525	n/a
30.592	10.014	ITI	Fixation+	71.679	n/a	1	n/a	n/a	n/a	n/a	n/a	n/a	n/a	n/a	n/a	n/a	64.055	n/a
40.622	0.497	neutral	Picture	71.165	n/a	1	2	1	n/a	21	33	1	n/a	n/a	n/a	n/a	74.086	AM21NES.jpg
41.119	0.514	Blank	Blank	70.651	n/a	1	2	1	n/a	21	n/a	1	n/a	n/a	n/a	n/a	74.583	n/a
41.65	0.497	neutral	Picture	70.138	n/a	1	2	2	n/a	22	39	1	n/a	n/a	n/a	n/a	75.114	AM28NES.jpg
42.147	0.514	Blank	Blank	69.624	n/a	1	2	2	n/a	22	n/a	1	n/a	n/a	n/a	n/a	75.611	n/a
42.678	0.497	neutral	Picture	69.11	n/a	1	2	3	n/a	23	25	1	n/a	n/a	n/a	n/a	76.141	BM06NES.jpg
43.175	0.514	Blank	Blank	68.596	n/a	1	2	3	n/a	23	n/a	1	n/a	n/a	n/a	n/a	76.639	n/a
43.705	0.497	neutral	Picture	68.082	n/a	1	2	4	n/a	24	5	1	n/a	n/a	n/a	n/a	77.169	BF07NES.jpg
44.203	0.514	Blank	Blank	67.568	n/a	1	2	4	n/a	24	n/a	1	n/a	n/a	n/a	n/a	77.667	n/a
44.733	0.497	neutral	Picture	67.054	n/a	1	2	5	n/a	25	10	1	n/a	n/a	n/a	n/a	78.197	AF18NES.jpg
45.231	0.514	Blank	Blank	66.54	n/a	1	2	5	n/a	25	n/a	1	n/a	n/a	n/a	n/a	78.695	n/a
45.761	0.497	neutral	Picture	66.026	n/a	1	2	6	n/a	26	34	1	n/a	n/a	n/a	n/a	79.225	AM22NES.jpg
46.259	0.514	Blank	Blank	65.512	n/a	1	2	6	n/a	26	n/a	1	n/a	n/a	n/a	n/a	79.722	n/a
46.789	0.497	neutral	Picture	64.998	n/a	1	2	7	n/a	27	36	1	n/a	n/a	n/a	n/a	80.253	BM24NES.jpg
47.286	0.514	Blank	Blank	64.484	n/a	1	2	7	n/a	27	n/a	1	n/a	n/a	n/a	n/a	80.75	n/a
47.817	0.497	neutral	Picture	63.97	n/a	1	2	8	n/a	28	14	1	n/a	n/a	n/a	n/a	81.281	AF23NES.jpg
48.314	0.514	Blank	Blank	63.456	n/a	1	2	8	n/a	28	n/a	1	n/a	n/a	n/a	n/a	81.778	n/a
48.845	0.497	neutral	Picture	62.942	n/a	1	2	9	n/a	29	9	1	n/a	n/a	n/a	n/a	82.309	AF17NES.jpg
49.342	0.514	Blank	Blank	62.428	n/a	1	2	9	n/a	29	n/a	1	n/a	n/a	n/a	n/a	82.806	n/a
49.873	0.497	neutral	Picture	61.914	n/a	1	2	10	n/a	30	19	1	n/a	n/a	n/a	n/a	83.337	AF31NES.jpg
50.37	0.514	Blank	Blank	61.4	n/a	1	2	10	n/a	30	n/a	1	n/a	n/a	n/a	n/a	83.834	n/a
50.901	0.497	neutral	Picture	60.887	n/a	1	2	11	n/a	31	15	1	n/a	n/a	n/a	n/a	84.365	AF25NES.jpg
51.398	0.514	Blank	Blank	60.373	n/a	1	2	11	n/a	31	n/a	1	n/a	n/a	n/a	n/a	84.862	n/a
51.928	0.497	neutral	Picture	59.859	n/a	1	2	12	n/a	32	22	1	n/a	n/a	n/a	n/a	85.392	BM03NES.jpg
52.426	0.514	Blank	Blank	59.345	n/a	1	2	12	n/a	32	n/a	1	n/a	n/a	n/a	n/a	85.89	n/a
52.956	0.497	neutral	Picture	58.831	n/a	1	2	13	n/a	33	11	1	n/a	n/a	n/a	n/a	86.42	AF20NES.jpg
53.454	0.514	Blank	Blank	58.317	n/a	1	2	13	n/a	33	n/a	1	n/a	n/a	n/a	n/a	86.918	n/a
53.984	0.497	neutral	Picture	57.803	n/a	1	2	14	n/a	34	4	1	n/a	n/a	n/a	n/a	87.448	AF05NES.jpg
54.482	0.514	Blank	Blank	57.289	n/a	1	2	14	n/a	34	n/a	1	n/a	n/a	n/a	n/a	87.946	n/a
55.012	0.497	neutral	Picture	56.775	n/a	1	2	15	n/a	35	17	1	n/a	n/a	n/a	n/a	88.476	BF28NES.jpg
55.51	0.514	Blank	Blank	56.261	n/a	1	2	15	n/a	35	n/a	1	n/a	n/a	n/a	n/a	88.974	n/a
56.04	0.497	neutral	Picture	55.747	n/a	1	2	16	n/a	36	13	1	n/a	n/a	n/a	n/a	89.504	BF22NES.jpg
56.538	0.514	Blank	Blank	55.233	n/a	1	2	16	n/a	36	n/a	1	n/a	n/a	n/a	n/a	90.001	n/a
57.068	0.497	neutral	Picture	54.719	n/a	1	2	17	n/a	37	12	1	n/a	n/a	n/a	n/a	90.532	AF21NES.jpg
57.565	0.514	Blank	Blank	54.205	n/a	1	2	17	n/a	37	n/a	1	n/a	n/a	n/a	n/a	91.029	n/a
58.096	0.497	neutral	Picture	53.691	n/a	1	2	18	n/a	38	24	1	n/a	n/a	n/a	n/a	91.56	BM05NES.jpg
58.593	0.514	Blank	Blank	53.177	n/a	1	2	18	n/a	38	n/a	1	n/a	n/a	n/a	n/a	92.057	n/a
59.124	0.497	neutral	Picture	52.663	n/a	1	2	19	n/a	39	29	1	n/a	n/a	n/a	n/a	92.588	AM10NES.jpg
59.621	0.514	Blank	Blank	52.149	n/a	1	2	19	n/a	39	n/a	1	n/a	n/a	n/a	n/a	93.085	n/a
60.152	0.497	neutral	Picture	51.636	n/a	1	2	20	n/a	40	23	1	n/a	n/a	n/a	n/a	93.616	AM04NES.jpg
60.649	0.514	Blank	Blank	51.122	n/a	1	2	20	n/a	40	n/a	1	n/a	n/a	n/a	n/a	94.113	n/a
61.179	10.014	ITI	Fixation+	41.091	n/a	1	n/a	n/a	n/a	n/a	n/a	n/a	n/a	n/a	n/a	n/a	94.643	n/a
71.21	0.497	angry	Picture	40.577	n/a	1	3	1	n/a	41	62	2	n/a	n/a	n/a	n/a	104.674	BM03HAS.jpg
71.707	0.514	Blank	Blank	40.063	n/a	1	3	1	n/a	41	n/a	2	n/a	n/a	n/a	n/a	105.171	n/a
72.238	0.497	angry	Picture	39.55	n/a	1	3	2	n/a	42	52	2	n/a	n/a	n/a	n/a	105.702	AF21HAS.jpg
72.735	0.514	Blank	Blank	39.036	n/a	1	3	2	n/a	42	n/a	2	n/a	n/a	n/a	n/a	106.199	n/a
73.266	0.497	angry	Picture	38.522	n/a	1	3	3	n/a	43	44	2	n/a	n/a	n/a	n/a	106.729	AF05HAS.jpg
73.763	0.514	Blank	Blank	38.008	n/a	1	3	3	n/a	43	n/a	2	n/a	n/a	n/a	n/a	107.227	n/a
74.293	0.497	angry	Picture	37.494	n/a	1	3	4	n/a	44	53	2	n/a	n/a	n/a	n/a	107.757	BF22HAS.jpg
74.791	0.514	Blank	Blank	36.98	n/a	1	3	4	n/a	44	n/a	2	n/a	n/a	n/a	n/a	108.255	n/a
75.321	0.497	angry	Picture	36.466	n/a	1	3	5	n/a	45	54	2	n/a	n/a	n/a	n/a	108.785	AF23HAS.jpg
75.819	0.514	Blank	Blank	35.952	n/a	1	3	5	n/a	45	n/a	2	n/a	n/a	n/a	n/a	109.283	n/a
76.349	0.497	angry	Picture	35.438	n/a	1	3	6	n/a	46	68	2	n/a	n/a	n/a	n/a	109.813	AM09HAS.jpg
76.847	0.514	Blank	Blank	34.924	n/a	1	3	6	n/a	46	n/a	2	n/a	n/a	n/a	n/a	110.311	n/a
77.377	0.497	angry	Picture	34.41	n/a	1	3	7	n/a	47	64	2	n/a	n/a	n/a	n/a	110.841	BM05HAS.jpg
77.874	0.514	Blank	Blank	33.896	n/a	1	3	7	n/a	47	n/a	2	n/a	n/a	n/a	n/a	111.338	n/a
78.405	0.497	angry	Picture	33.382	n/a	1	3	8	n/a	48	59	2	n/a	n/a	n/a	n/a	111.869	AF31HAS.jpg
78.902	0.514	Blank	Blank	32.868	n/a	1	3	8	n/a	48	n/a	2	n/a	n/a	n/a	n/a	112.366	n/a
79.433	0.497	angry	Picture	32.354	n/a	1	3	9	n/a	49	41	2	n/a	n/a	n/a	n/a	112.897	AF01HAS.jpg
79.93	0.514	Blank	Blank	31.84	n/a	1	3	9	n/a	49	n/a	2	n/a	n/a	n/a	n/a	113.394	n/a
80.461	0.497	angry	Picture	31.326	n/a	1	3	10	n/a	50	73	2	n/a	n/a	n/a	n/a	113.925	AM21HAS.jpg
80.958	0.514	Blank	Blank	30.812	n/a	1	3	10	n/a	50	n/a	2	n/a	n/a	n/a	n/a	114.422	n/a
81.489	0.497	angry	Picture	30.299	n/a	1	3	11	n/a	51	65	2	n/a	n/a	n/a	n/a	114.953	BM06HAS.jpg
81.986	0.514	Blank	Blank	29.785	n/a	1	3	11	n/a	51	n/a	2	n/a	n/a	n/a	n/a	115.45	n/a
82.517	0.497	angry	Picture	29.271	n/a	1	3	12	n/a	52	56	2	n/a	n/a	n/a	n/a	115.981	AF26HAS.jpg
83.014	0.514	Blank	Blank	28.757	n/a	1	3	12	n/a	52	n/a	2	n/a	n/a	n/a	n/a	116.478	n/a
83.544	0.497	angry	Picture	28.243	n/a	1	3	13	n/a	53	45	2	n/a	n/a	n/a	n/a	117.008	BF07HAS.jpg
84.042	0.514	Blank	Blank	27.729	n/a	1	3	13	n/a	53	n/a	2	n/a	n/a	n/a	n/a	117.506	n/a
84.572	0.497	angry	Picture	27.215	n/a	1	3	14	n/a	54	78	2	n/a	n/a	n/a	n/a	118.036	BM26HAS.jpg
85.07	0.514	Blank	Blank	26.701	n/a	1	3	14	n/a	54	n/a	2	n/a	n/a	n/a	n/a	118.534	n/a
85.6	0.497	angry	Picture	26.187	n/a	1	3	15	n/a	55	50	2	n/a	n/a	n/a	n/a	119.064	AF18HAS.jpg
86.098	0.514	Blank	Blank	25.673	n/a	1	3	15	n/a	55	n/a	2	n/a	n/a	n/a	n/a	119.561	n/a
86.628	0.497	angry	Picture	25.159	n/a	1	3	16	n/a	56	47	2	n/a	n/a	n/a	n/a	120.092	BF11HAS.jpg
87.125	0.514	Blank	Blank	24.645	n/a	1	3	16	n/a	56	n/a	2	n/a	n/a	n/a	n/a	120.589	n/a
87.656	0.497	angry	Picture	24.131	n/a	1	3	17	n/a	57	77	2	n/a	n/a	n/a	n/a	121.12	BM25HAS.jpg
88.153	0.514	Blank	Blank	23.617	n/a	1	3	17	n/a	57	n/a	2	n/a	n/a	n/a	n/a	121.617	n/a
88.684	0.497	angry	Picture	23.103	n/a	1	3	18	n/a	58	57	2	n/a	n/a	n/a	n/a	122.148	BF28HAS.jpg
89.181	0.514	Blank	Blank	22.589	n/a	1	3	18	n/a	58	n/a	2	n/a	n/a	n/a	n/a	122.645	n/a
89.712	0.497	angry	Picture	22.075	n/a	1	3	19	n/a	59	61	2	n/a	n/a	n/a	n/a	123.176	AM01HAS.jpg
90.209	0.514	Blank	Blank	21.561	n/a	1	3	19	n/a	59	n/a	2	n/a	n/a	n/a	n/a	123.673	n/a
90.74	0.497	angry	Picture	21.048	n/a	1	3	20	n/a	60	79	2	n/a	n/a	n/a	n/a	124.204	BM28HAS.jpg
91.237	0.514	Blank	Blank	20.534	n/a	1	3	20	n/a	60	n/a	2	n/a	n/a	n/a	n/a	124.701	n/a
91.768	10.014	ITI	Fixation+	10.503	n/a	1	n/a	n/a	n/a	n/a	n/a	n/a	n/a	n/a	n/a	n/a	125.231	n/a
112.285	n/a	ConfirmRating	Rate	n/a	10.462	1	n/a	n/a	0	n/a	n/a	n/a	2	Angry	51	51	145.748	n/a
115.448	n/a	ConfirmRating	Rate	n/a	3.15	1	n/a	n/a	1	n/a	n/a	n/a	3	Angry	6	48	148.912	n/a
115.475	10.014	ITI	Fixation+	96.527	n/a	2	n/a	n/a	n/a	n/a	n/a	n/a	n/a	n/a	n/a	n/a	148.939	n/a
125.506	0.497	happy	Picture	96.013	n/a	2	4	1	n/a	61	119	3	n/a	n/a	n/a	n/a	158.97	BM28ANS.jpg
126.003	0.514	Blank	Blank	95.499	n/a	2	4	1	n/a	61	n/a	3	n/a	n/a	n/a	n/a	159.467	n/a
126.534	0.497	happy	Picture	94.986	n/a	2	4	2	n/a	62	100	3	n/a	n/a	n/a	n/a	159.997	AF32ANS.jpg
127.031	0.514	Blank	Blank	94.472	n/a	2	4	2	n/a	62	n/a	3	n/a	n/a	n/a	n/a	160.495	n/a
127.561	0.497	happy	Picture	93.958	n/a	2	4	3	n/a	63	118	3	n/a	n/a	n/a	n/a	161.025	BM26ANS.jpg
128.059	0.514	Blank	Blank	93.444	n/a	2	4	3	n/a	63	n/a	3	n/a	n/a	n/a	n/a	161.523	n/a
128.589	0.497	happy	Picture	92.93	n/a	2	4	4	n/a	64	89	3	n/a	n/a	n/a	n/a	162.053	AF17ANS.jpg
129.087	0.514	Blank	Blank	92.416	n/a	2	4	4	n/a	64	n/a	3	n/a	n/a	n/a	n/a	162.55	n/a
129.617	0.497	happy	Picture	91.902	n/a	2	4	5	n/a	65	116	3	n/a	n/a	n/a	n/a	163.081	BM24ANS.jpg
130.114	0.514	Blank	Blank	91.388	n/a	2	4	5	n/a	65	n/a	3	n/a	n/a	n/a	n/a	163.578	n/a
130.645	0.497	happy	Picture	90.874	n/a	2	4	6	n/a	66	105	3	n/a	n/a	n/a	n/a	164.109	BM06ANS.jpg
131.142	0.514	Blank	Blank	90.36	n/a	2	4	6	n/a	66	n/a	3	n/a	n/a	n/a	n/a	164.606	n/a
131.673	0.497	happy	Picture	89.846	n/a	2	4	7	n/a	67	106	3	n/a	n/a	n/a	n/a	165.137	AM07ANS.jpg
132.17	0.514	Blank	Blank	89.332	n/a	2	4	7	n/a	67	n/a	3	n/a	n/a	n/a	n/a	165.634	n/a
132.701	0.497	happy	Picture	88.818	n/a	2	4	8	n/a	68	94	3	n/a	n/a	n/a	n/a	166.165	AF23ANS.jpg
133.198	0.514	Blank	Blank	88.304	n/a	2	4	8	n/a	68	n/a	3	n/a	n/a	n/a	n/a	166.662	n/a
133.729	0.497	happy	Picture	87.79	n/a	2	4	9	n/a	69	117	3	n/a	n/a	n/a	n/a	167.193	BM25ANS.jpg
134.226	0.514	Blank	Blank	87.276	n/a	2	4	9	n/a	69	n/a	3	n/a	n/a	n/a	n/a	167.69	n/a
134.757	0.497	happy	Picture	86.762	n/a	2	4	10	n/a	70	90	3	n/a	n/a	n/a	n/a	168.22	AF18ANS.jpg
135.254	0.514	Blank	Blank	86.248	n/a	2	4	10	n/a	70	n/a	3	n/a	n/a	n/a	n/a	168.718	n/a
135.785	0.497	happy	Picture	85.734	n/a	2	4	11	n/a	71	83	3	n/a	n/a	n/a	n/a	169.248	BF04ANS.jpg
136.282	0.514	Blank	Blank	85.22	n/a	2	4	11	n/a	71	n/a	3	n/a	n/a	n/a	n/a	169.746	n/a
136.812	0.497	happy	Picture	84.707	n/a	2	4	12	n/a	72	112	3	n/a	n/a	n/a	n/a	170.276	AM14ANS.jpg
137.31	0.514	Blank	Blank	84.193	n/a	2	4	12	n/a	72	n/a	3	n/a	n/a	n/a	n/a	170.774	n/a
137.84	0.497	happy	Picture	83.679	n/a	2	4	13	n/a	73	102	3	n/a	n/a	n/a	n/a	171.304	BM03ANS.jpg
138.338	0.514	Blank	Blank	83.165	n/a	2	4	13	n/a	73	n/a	3	n/a	n/a	n/a	n/a	171.802	n/a
138.868	0.497	happy	Picture	82.651	n/a	2	4	14	n/a	74	95	3	n/a	n/a	n/a	n/a	172.332	AF25ANS.jpg
139.365	0.514	Blank	Blank	82.137	n/a	2	4	14	n/a	74	n/a	3	n/a	n/a	n/a	n/a	172.829	n/a
139.896	0.497	happy	Picture	81.623	n/a	2	4	15	n/a	75	113	3	n/a	n/a	n/a	n/a	173.36	AM21ANS.jpg
140.393	0.514	Blank	Blank	81.109	n/a	2	4	15	n/a	75	n/a	3	n/a	n/a	n/a	n/a	173.857	n/a
140.924	0.497	happy	Picture	80.595	n/a	2	4	16	n/a	76	88	3	n/a	n/a	n/a	n/a	174.388	AF14ANS.jpg
141.421	0.514	Blank	Blank	80.081	n/a	2	4	16	n/a	76	n/a	3	n/a	n/a	n/a	n/a	174.885	n/a
141.952	0.497	happy	Picture	79.567	n/a	2	4	17	n/a	77	93	3	n/a	n/a	n/a	n/a	175.416	BF22ANS.jpg
142.449	0.514	Blank	Blank	79.053	n/a	2	4	17	n/a	77	n/a	3	n/a	n/a	n/a	n/a	175.913	n/a
142.98	0.497	happy	Picture	78.539	n/a	2	4	18	n/a	78	86	3	n/a	n/a	n/a	n/a	176.444	AF09ANS.jpg
143.477	0.514	Blank	Blank	78.025	n/a	2	4	18	n/a	78	n/a	3	n/a	n/a	n/a	n/a	176.941	n/a
144.008	0.497	happy	Picture	77.511	n/a	2	4	19	n/a	79	92	3	n/a	n/a	n/a	n/a	177.471	AF21ANS.jpg
144.505	0.514	Blank	Blank	76.997	n/a	2	4	19	n/a	79	n/a	3	n/a	n/a	n/a	n/a	177.969	n/a
145.036	0.497	happy	Picture	76.483	n/a	2	4	20	n/a	80	84	3	n/a	n/a	n/a	n/a	178.499	AF05ANS.jpg
145.533	0.514	Blank	Blank	75.969	n/a	2	4	20	n/a	80	n/a	3	n/a	n/a	n/a	n/a	178.997	n/a
146.063	10.014	ITI	Fixation+	65.939	n/a	2	n/a	n/a	n/a	n/a	n/a	n/a	n/a	n/a	n/a	n/a	179.527	n/a
156.094	0.497	neutral	Picture	65.425	n/a	2	5	1	n/a	81	4	1	n/a	n/a	n/a	n/a	189.558	AF05NES.jpg
156.591	0.514	Blank	Blank	64.911	n/a	2	5	1	n/a	81	n/a	1	n/a	n/a	n/a	n/a	190.055	n/a
157.121	0.497	neutral	Picture	64.398	n/a	2	5	2	n/a	82	14	1	n/a	n/a	n/a	n/a	190.585	AF23NES.jpg
157.619	0.514	Blank	Blank	63.883	n/a	2	5	2	n/a	82	n/a	1	n/a	n/a	n/a	n/a	191.083	n/a
158.149	0.497	neutral	Picture	63.37	n/a	2	5	3	n/a	83	19	1	n/a	n/a	n/a	n/a	191.613	AF31NES.jpg
158.647	0.514	Blank	Blank	62.856	n/a	2	5	3	n/a	83	n/a	1	n/a	n/a	n/a	n/a	192.111	n/a
159.177	0.497	neutral	Picture	62.342	n/a	2	5	4	n/a	84	8	1	n/a	n/a	n/a	n/a	192.641	AF14NES.jpg
159.675	0.514	Blank	Blank	61.828	n/a	2	5	4	n/a	84	n/a	1	n/a	n/a	n/a	n/a	193.138	n/a
160.205	0.497	neutral	Picture	61.314	n/a	2	5	5	n/a	85	25	1	n/a	n/a	n/a	n/a	193.669	BM06NES.jpg
160.703	0.514	Blank	Blank	60.8	n/a	2	5	5	n/a	85	n/a	1	n/a	n/a	n/a	n/a	194.166	n/a
161.233	0.497	neutral	Picture	60.286	n/a	2	5	6	n/a	86	9	1	n/a	n/a	n/a	n/a	194.697	AF17NES.jpg
161.73	0.514	Blank	Blank	59.772	n/a	2	5	6	n/a	86	n/a	1	n/a	n/a	n/a	n/a	195.194	n/a
162.261	0.497	neutral	Picture	59.258	n/a	2	5	7	n/a	87	2	1	n/a	n/a	n/a	n/a	195.725	AF03NES.jpg
162.758	0.514	Blank	Blank	58.744	n/a	2	5	7	n/a	87	n/a	1	n/a	n/a	n/a	n/a	196.222	n/a
163.289	0.497	neutral	Picture	58.23	n/a	2	5	8	n/a	88	17	1	n/a	n/a	n/a	n/a	196.753	BF28NES.jpg
163.786	0.514	Blank	Blank	57.716	n/a	2	5	8	n/a	88	n/a	1	n/a	n/a	n/a	n/a	197.25	n/a
164.317	0.497	neutral	Picture	57.202	n/a	2	5	9	n/a	89	6	1	n/a	n/a	n/a	n/a	197.781	AF09NES.jpg
164.814	0.514	Blank	Blank	56.688	n/a	2	5	9	n/a	89	n/a	1	n/a	n/a	n/a	n/a	198.278	n/a
165.345	0.497	neutral	Picture	56.174	n/a	2	5	10	n/a	90	12	1	n/a	n/a	n/a	n/a	198.809	AF21NES.jpg
165.842	0.514	Blank	Blank	55.66	n/a	2	5	10	n/a	90	n/a	1	n/a	n/a	n/a	n/a	199.306	n/a
166.373	0.497	neutral	Picture	55.146	n/a	2	5	11	n/a	91	24	1	n/a	n/a	n/a	n/a	199.836	BM05NES.jpg
166.87	0.514	Blank	Blank	54.632	n/a	2	5	11	n/a	91	n/a	1	n/a	n/a	n/a	n/a	200.334	n/a
167.4	0.497	neutral	Picture	54.119	n/a	2	5	12	n/a	92	34	1	n/a	n/a	n/a	n/a	200.864	AM22NES.jpg
167.898	0.514	Blank	Blank	53.605	n/a	2	5	12	n/a	92	n/a	1	n/a	n/a	n/a	n/a	201.362	n/a
168.428	0.497	neutral	Picture	53.091	n/a	2	5	13	n/a	93	23	1	n/a	n/a	n/a	n/a	201.892	AM04NES.jpg
168.926	0.514	Blank	Blank	52.577	n/a	2	5	13	n/a	93	n/a	1	n/a	n/a	n/a	n/a	202.389	n/a
169.456	0.497	neutral	Picture	52.063	n/a	2	5	14	n/a	94	15	1	n/a	n/a	n/a	n/a	202.92	AF25NES.jpg
169.953	0.514	Blank	Blank	51.549	n/a	2	5	14	n/a	94	n/a	1	n/a	n/a	n/a	n/a	203.417	n/a
170.484	0.497	neutral	Picture	51.035	n/a	2	5	15	n/a	95	37	1	n/a	n/a	n/a	n/a	203.948	BM25NES.jpg
170.981	0.514	Blank	Blank	50.521	n/a	2	5	15	n/a	95	n/a	1	n/a	n/a	n/a	n/a	204.445	n/a
171.512	0.497	neutral	Picture	50.007	n/a	2	5	16	n/a	96	32	1	n/a	n/a	n/a	n/a	204.976	AM14NES.jpg
172.009	0.514	Blank	Blank	49.493	n/a	2	5	16	n/a	96	n/a	1	n/a	n/a	n/a	n/a	205.473	n/a
172.54	0.497	neutral	Picture	48.979	n/a	2	5	17	n/a	97	3	1	n/a	n/a	n/a	n/a	206.004	BF04NES.jpg
173.037	0.514	Blank	Blank	48.465	n/a	2	5	17	n/a	97	n/a	1	n/a	n/a	n/a	n/a	206.501	n/a
173.568	0.497	neutral	Picture	47.951	n/a	2	5	18	n/a	98	16	1	n/a	n/a	n/a	n/a	207.032	AF26NES.jpg
174.065	0.514	Blank	Blank	47.437	n/a	2	5	18	n/a	98	n/a	1	n/a	n/a	n/a	n/a	207.529	n/a
174.596	0.497	neutral	Picture	46.923	n/a	2	5	19	n/a	99	27	1	n/a	n/a	n/a	n/a	208.06	BM08NES.jpg
175.093	0.514	Blank	Blank	46.409	n/a	2	5	19	n/a	99	n/a	1	n/a	n/a	n/a	n/a	208.557	n/a
175.624	0.497	neutral	Picture	45.895	n/a	2	5	20	n/a	100	28	1	n/a	n/a	n/a	n/a	209.087	AM09NES.jpg
176.121	0.514	Blank	Blank	45.381	n/a	2	5	20	n/a	100	n/a	1	n/a	n/a	n/a	n/a	209.585	n/a
176.651	10.014	ITI	Fixation+	35.351	n/a	2	n/a	n/a	n/a	n/a	n/a	n/a	n/a	n/a	n/a	n/a	210.115	n/a
186.682	0.497	happy	Picture	34.837	n/a	2	6	1	n/a	101	81	3	n/a	n/a	n/a	n/a	220.145	AF01ANS.jpg
187.179	0.514	Blank	Blank	34.323	n/a	2	6	1	n/a	101	n/a	3	n/a	n/a	n/a	n/a	220.643	n/a
187.709	0.497	happy	Picture	33.809	n/a	2	6	2	n/a	102	120	3	n/a	n/a	n/a	n/a	221.173	AM35ANS.jpg
188.207	0.514	Blank	Blank	33.295	n/a	2	6	2	n/a	102	n/a	3	n/a	n/a	n/a	n/a	221.671	n/a
188.737	0.497	happy	Picture	32.781	n/a	2	6	3	n/a	103	114	3	n/a	n/a	n/a	n/a	222.201	AM22ANS.jpg
189.235	0.514	Blank	Blank	32.268	n/a	2	6	3	n/a	103	n/a	3	n/a	n/a	n/a	n/a	222.699	n/a
189.765	0.497	happy	Picture	31.754	n/a	2	6	4	n/a	104	109	3	n/a	n/a	n/a	n/a	223.229	AM10ANS.jpg
190.263	0.514	Blank	Blank	31.24	n/a	2	6	4	n/a	104	n/a	3	n/a	n/a	n/a	n/a	223.726	n/a
190.793	0.497	happy	Picture	30.726	n/a	2	6	5	n/a	105	96	3	n/a	n/a	n/a	n/a	224.257	AF26ANS.jpg
191.291	0.514	Blank	Blank	30.212	n/a	2	6	5	n/a	105	n/a	3	n/a	n/a	n/a	n/a	224.754	n/a
191.821	0.497	happy	Picture	29.698	n/a	2	6	6	n/a	106	82	3	n/a	n/a	n/a	n/a	225.285	AF03ANS.jpg
192.318	0.514	Blank	Blank	29.184	n/a	2	6	6	n/a	106	n/a	3	n/a	n/a	n/a	n/a	225.782	n/a
192.849	0.497	happy	Picture	28.67	n/a	2	6	7	n/a	107	97	3	n/a	n/a	n/a	n/a	226.313	BF28ANS.jpg
193.346	0.514	Blank	Blank	28.156	n/a	2	6	7	n/a	107	n/a	3	n/a	n/a	n/a	n/a	226.81	n/a
193.877	0.497	happy	Picture	27.642	n/a	2	6	8	n/a	108	115	3	n/a	n/a	n/a	n/a	227.341	AM23ANS.jpg
194.374	0.514	Blank	Blank	27.128	n/a	2	6	8	n/a	108	n/a	3	n/a	n/a	n/a	n/a	227.838	n/a
194.905	0.497	happy	Picture	26.614	n/a	2	6	9	n/a	109	91	3	n/a	n/a	n/a	n/a	228.369	AF20ANS.jpg
195.402	0.514	Blank	Blank	26.1	n/a	2	6	9	n/a	109	n/a	3	n/a	n/a	n/a	n/a	228.866	n/a
195.933	0.497	happy	Picture	25.586	n/a	2	6	10	n/a	110	87	3	n/a	n/a	n/a	n/a	229.397	BF11ANS.jpg
196.43	0.514	Blank	Blank	25.072	n/a	2	6	10	n/a	110	n/a	3	n/a	n/a	n/a	n/a	229.894	n/a
196.96	0.497	happy	Picture	24.558	n/a	2	6	11	n/a	111	85	3	n/a	n/a	n/a	n/a	230.424	BF07ANS.jpg
197.458	0.514	Blank	Blank	24.044	n/a	2	6	11	n/a	111	n/a	3	n/a	n/a	n/a	n/a	230.922	n/a
197.988	0.497	happy	Picture	23.53	n/a	2	6	12	n/a	112	110	3	n/a	n/a	n/a	n/a	231.452	AM11ANS.jpg
198.486	0.514	Blank	Blank	23.017	n/a	2	6	12	n/a	112	n/a	3	n/a	n/a	n/a	n/a	231.95	n/a
199.016	0.497	happy	Picture	22.503	n/a	2	6	13	n/a	113	111	3	n/a	n/a	n/a	n/a	232.48	BM12ANS.jpg
199.514	0.514	Blank	Blank	21.989	n/a	2	6	13	n/a	113	n/a	3	n/a	n/a	n/a	n/a	232.978	n/a
200.044	0.497	happy	Picture	21.475	n/a	2	6	14	n/a	114	103	3	n/a	n/a	n/a	n/a	233.508	AM04ANS.jpg
200.542	0.514	Blank	Blank	20.961	n/a	2	6	14	n/a	114	n/a	3	n/a	n/a	n/a	n/a	234.005	n/a
201.072	0.497	happy	Picture	20.447	n/a	2	6	15	n/a	115	101	3	n/a	n/a	n/a	n/a	234.536	AM01ANS.jpg
201.569	0.514	Blank	Blank	19.933	n/a	2	6	15	n/a	115	n/a	3	n/a	n/a	n/a	n/a	235.033	n/a
202.1	0.497	happy	Picture	19.419	n/a	2	6	16	n/a	116	104	3	n/a	n/a	n/a	n/a	235.564	BM05ANS.jpg
202.597	0.514	Blank	Blank	18.905	n/a	2	6	16	n/a	116	n/a	3	n/a	n/a	n/a	n/a	236.061	n/a
203.128	0.497	happy	Picture	18.391	n/a	2	6	17	n/a	117	107	3	n/a	n/a	n/a	n/a	236.592	BM08ANS.jpg
203.625	0.514	Blank	Blank	17.877	n/a	2	6	17	n/a	117	n/a	3	n/a	n/a	n/a	n/a	237.089	n/a
204.156	0.497	happy	Picture	17.363	n/a	2	6	18	n/a	118	98	3	n/a	n/a	n/a	n/a	237.62	BF29ANS.jpg
204.653	0.514	Blank	Blank	16.849	n/a	2	6	18	n/a	118	n/a	3	n/a	n/a	n/a	n/a	238.117	n/a
205.184	0.497	happy	Picture	16.335	n/a	2	6	19	n/a	119	99	3	n/a	n/a	n/a	n/a	238.648	AF31ANS.jpg
205.681	0.514	Blank	Blank	15.821	n/a	2	6	19	n/a	119	n/a	3	n/a	n/a	n/a	n/a	239.145	n/a
206.212	0.497	happy	Picture	15.307	n/a	2	6	20	n/a	120	108	3	n/a	n/a	n/a	n/a	239.675	AM09ANS.jpg
206.709	0.514	Blank	Blank	14.793	n/a	2	6	20	n/a	120	n/a	3	n/a	n/a	n/a	n/a	240.173	n/a
207.239	10.014	ITI	Fixation+	4.763	n/a	2	n/a	n/a	n/a	n/a	n/a	n/a	n/a	n/a	n/a	n/a	240.703	n/a
222.016	n/a	ConfirmRating	Rate	n/a	4.758	2	n/a	n/a	0	n/a	n/a	n/a	2	Happy	70	52	255.48	n/a
224.353	n/a	ConfirmRating	Rate	n/a	2.321	2	n/a	n/a	1	n/a	n/a	n/a	3	Happy	0	49	257.817	n/a
224.382	15.004	Rest	Picture	n/a	n/a	n/a	n/a	n/a	n/a	n/a	n/a	n/a	0	n/a	0	0	257.846	n/a
239.402	10.014	ITI	Fixation+	95.376	n/a	3	n/a	n/a	n/a	n/a	n/a	n/a	n/a	n/a	n/a	n/a	272.866	n/a
249.433	0.497	angry	Picture	94.862	n/a	3	7	1	n/a	1	46	2	n/a	n/a	n/a	n/a	282.897	AF09HAS.jpg
249.93	0.514	Blank	Blank	94.348	n/a	3	7	1	n/a	1	n/a	2	n/a	n/a	n/a	n/a	283.394	n/a
250.46	0.497	angry	Picture	93.834	n/a	3	7	2	n/a	2	69	2	n/a	n/a	n/a	n/a	283.924	AM10HAS.jpg
250.958	0.514	Blank	Blank	93.32	n/a	3	7	2	n/a	2	n/a	2	n/a	n/a	n/a	n/a	284.422	n/a
251.488	0.497	angry	Picture	92.806	n/a	3	7	3	n/a	3	71	2	n/a	n/a	n/a	n/a	284.952	BM12HAS.jpg
251.986	0.514	Blank	Blank	92.292	n/a	3	7	3	n/a	3	n/a	2	n/a	n/a	n/a	n/a	285.45	n/a
252.516	0.497	angry	Picture	91.778	n/a	3	7	4	n/a	4	51	2	n/a	n/a	n/a	n/a	285.98	AF20HAS.jpg
253.014	0.514	Blank	Blank	91.264	n/a	3	7	4	n/a	4	n/a	2	n/a	n/a	n/a	n/a	286.478	n/a
253.544	0.497	angry	Picture	90.75	n/a	3	7	5	n/a	5	67	2	n/a	n/a	n/a	n/a	287.008	BM08HAS.jpg
254.042	0.514	Blank	Blank	90.236	n/a	3	7	5	n/a	5	n/a	2	n/a	n/a	n/a	n/a	287.505	n/a
254.572	0.497	angry	Picture	89.722	n/a	3	7	6	n/a	6	60	2	n/a	n/a	n/a	n/a	288.036	AF32HAS.jpg
255.069	0.514	Blank	Blank	89.209	n/a	3	7	6	n/a	6	n/a	2	n/a	n/a	n/a	n/a	288.533	n/a
255.6	0.497	angry	Picture	88.695	n/a	3	7	7	n/a	7	42	2	n/a	n/a	n/a	n/a	289.064	AF03HAS.jpg
256.097	0.514	Blank	Blank	88.181	n/a	3	7	7	n/a	7	n/a	2	n/a	n/a	n/a	n/a	289.561	n/a
256.628	0.497	angry	Picture	87.667	n/a	3	7	8	n/a	8	55	2	n/a	n/a	n/a	n/a	290.092	AF25HAS.jpg
257.125	0.514	Blank	Blank	87.153	n/a	3	7	8	n/a	8	n/a	2	n/a	n/a	n/a	n/a	290.589	n/a
257.656	0.497	angry	Picture	86.639	n/a	3	7	9	n/a	9	72	2	n/a	n/a	n/a	n/a	291.12	AM14HAS.jpg
258.153	0.514	Blank	Blank	86.125	n/a	3	7	9	n/a	9	n/a	2	n/a	n/a	n/a	n/a	291.617	n/a
258.684	0.497	angry	Picture	85.611	n/a	3	7	10	n/a	10	63	2	n/a	n/a	n/a	n/a	292.148	AM04HAS.jpg
259.181	0.514	Blank	Blank	85.097	n/a	3	7	10	n/a	10	n/a	2	n/a	n/a	n/a	n/a	292.645	n/a
259.712	0.497	angry	Picture	84.583	n/a	3	7	11	n/a	11	58	2	n/a	n/a	n/a	n/a	293.175	BF29HAS.jpg
260.209	0.514	Blank	Blank	84.069	n/a	3	7	11	n/a	11	n/a	2	n/a	n/a	n/a	n/a	293.673	n/a
260.739	0.497	angry	Picture	83.555	n/a	3	7	12	n/a	12	48	2	n/a	n/a	n/a	n/a	294.203	AF14HAS.jpg
261.237	0.514	Blank	Blank	83.041	n/a	3	7	12	n/a	12	n/a	2	n/a	n/a	n/a	n/a	294.701	n/a
261.767	0.497	angry	Picture	82.527	n/a	3	7	13	n/a	13	66	2	n/a	n/a	n/a	n/a	295.231	BM07HAS.jpg
262.265	0.514	Blank	Blank	82.013	n/a	3	7	13	n/a	13	n/a	2	n/a	n/a	n/a	n/a	295.729	n/a
262.795	0.497	angry	Picture	81.499	n/a	3	7	14	n/a	14	70	2	n/a	n/a	n/a	n/a	296.259	BM11HAS.jpg
263.293	0.514	Blank	Blank	80.986	n/a	3	7	14	n/a	14	n/a	2	n/a	n/a	n/a	n/a	296.757	n/a
263.823	0.497	angry	Picture	80.471	n/a	3	7	15	n/a	15	43	2	n/a	n/a	n/a	n/a	297.287	BF04HAS.jpg
264.32	0.514	Blank	Blank	79.958	n/a	3	7	15	n/a	15	n/a	2	n/a	n/a	n/a	n/a	297.784	n/a
264.851	0.497	angry	Picture	79.444	n/a	3	7	16	n/a	16	49	2	n/a	n/a	n/a	n/a	298.315	AF17HAS.jpg
265.348	0.514	Blank	Blank	78.93	n/a	3	7	16	n/a	16	n/a	2	n/a	n/a	n/a	n/a	298.812	n/a
265.879	0.497	angry	Picture	78.416	n/a	3	7	17	n/a	17	75	2	n/a	n/a	n/a	n/a	299.343	AM23HAS.jpg
266.376	0.514	Blank	Blank	77.902	n/a	3	7	17	n/a	17	n/a	2	n/a	n/a	n/a	n/a	299.84	n/a
266.907	0.497	angry	Picture	77.388	n/a	3	7	18	n/a	18	80	2	n/a	n/a	n/a	n/a	300.371	BM35HAS.jpg
267.404	0.514	Blank	Blank	76.874	n/a	3	7	18	n/a	18	n/a	2	n/a	n/a	n/a	n/a	300.868	n/a
267.935	0.497	angry	Picture	76.36	n/a	3	7	19	n/a	19	76	2	n/a	n/a	n/a	n/a	301.399	BM24HAS.jpg
268.432	0.514	Blank	Blank	75.846	n/a	3	7	19	n/a	19	n/a	2	n/a	n/a	n/a	n/a	301.896	n/a
268.963	0.497	angry	Picture	75.332	n/a	3	7	20	n/a	20	74	2	n/a	n/a	n/a	n/a	302.426	AM22HAS.jpg
269.46	0.514	Blank	Blank	74.818	n/a	3	7	20	n/a	20	n/a	2	n/a	n/a	n/a	n/a	302.924	n/a
269.99	10.014	ITI	Fixation+	64.788	n/a	3	n/a	n/a	n/a	n/a	n/a	n/a	n/a	n/a	n/a	n/a	303.454	n/a
280.021	0.497	neutral	Picture	64.274	n/a	3	8	1	n/a	21	33	1	n/a	n/a	n/a	n/a	313.485	AM21NES.jpg
280.518	0.514	Blank	Blank	63.76	n/a	3	8	1	n/a	21	n/a	1	n/a	n/a	n/a	n/a	313.982	n/a
281.049	0.497	neutral	Picture	63.246	n/a	3	8	2	n/a	22	39	1	n/a	n/a	n/a	n/a	314.512	AM28NES.jpg
281.546	0.514	Blank	Blank	62.732	n/a	3	8	2	n/a	22	n/a	1	n/a	n/a	n/a	n/a	315.01	n/a
282.076	0.497	neutral	Picture	62.218	n/a	3	8	3	n/a	23	25	1	n/a	n/a	n/a	n/a	315.54	BM06NES.jpg
282.574	0.514	Blank	Blank	61.704	n/a	3	8	3	n/a	23	n/a	1	n/a	n/a	n/a	n/a	316.038	n/a
283.104	0.497	neutral	Picture	61.19	n/a	3	8	4	n/a	24	5	1	n/a	n/a	n/a	n/a	316.568	BF07NES.jpg
283.602	0.514	Blank	Blank	60.676	n/a	3	8	4	n/a	24	n/a	1	n/a	n/a	n/a	n/a	317.066	n/a
284.132	0.497	neutral	Picture	60.162	n/a	3	8	5	n/a	25	10	1	n/a	n/a	n/a	n/a	317.596	AF18NES.jpg
284.63	0.514	Blank	Blank	59.649	n/a	3	8	5	n/a	25	n/a	1	n/a	n/a	n/a	n/a	318.094	n/a
285.16	0.497	neutral	Picture	59.134	n/a	3	8	6	n/a	26	34	1	n/a	n/a	n/a	n/a	318.624	AM22NES.jpg
285.657	0.514	Blank	Blank	58.621	n/a	3	8	6	n/a	26	n/a	1	n/a	n/a	n/a	n/a	319.121	n/a
286.188	0.497	neutral	Picture	58.107	n/a	3	8	7	n/a	27	36	1	n/a	n/a	n/a	n/a	319.652	BM24NES.jpg
286.685	0.514	Blank	Blank	57.593	n/a	3	8	7	n/a	27	n/a	1	n/a	n/a	n/a	n/a	320.149	n/a
287.216	0.497	neutral	Picture	57.079	n/a	3	8	8	n/a	28	14	1	n/a	n/a	n/a	n/a	320.68	AF23NES.jpg
287.713	0.514	Blank	Blank	56.565	n/a	3	8	8	n/a	28	n/a	1	n/a	n/a	n/a	n/a	321.177	n/a
288.244	0.497	neutral	Picture	56.051	n/a	3	8	9	n/a	29	9	1	n/a	n/a	n/a	n/a	321.708	AF17NES.jpg
288.741	0.514	Blank	Blank	55.537	n/a	3	8	9	n/a	29	n/a	1	n/a	n/a	n/a	n/a	322.205	n/a
289.272	0.497	neutral	Picture	55.023	n/a	3	8	10	n/a	30	19	1	n/a	n/a	n/a	n/a	322.736	AF31NES.jpg
289.769	0.514	Blank	Blank	54.509	n/a	3	8	10	n/a	30	n/a	1	n/a	n/a	n/a	n/a	323.233	n/a
290.3	0.497	neutral	Picture	53.995	n/a	3	8	11	n/a	31	15	1	n/a	n/a	n/a	n/a	323.764	AF25NES.jpg
290.797	0.514	Blank	Blank	53.481	n/a	3	8	11	n/a	31	n/a	1	n/a	n/a	n/a	n/a	324.261	n/a
291.327	0.497	neutral	Picture	52.967	n/a	3	8	12	n/a	32	22	1	n/a	n/a	n/a	n/a	324.791	BM03NES.jpg
291.825	0.514	Blank	Blank	52.453	n/a	3	8	12	n/a	32	n/a	1	n/a	n/a	n/a	n/a	325.289	n/a
292.355	0.497	neutral	Picture	51.939	n/a	3	8	13	n/a	33	11	1	n/a	n/a	n/a	n/a	325.819	AF20NES.jpg
292.853	0.514	Blank	Blank	51.425	n/a	3	8	13	n/a	33	n/a	1	n/a	n/a	n/a	n/a	326.317	n/a
293.383	0.497	neutral	Picture	50.911	n/a	3	8	14	n/a	34	4	1	n/a	n/a	n/a	n/a	326.847	AF05NES.jpg
293.881	0.514	Blank	Blank	50.398	n/a	3	8	14	n/a	34	n/a	1	n/a	n/a	n/a	n/a	327.344	n/a
294.411	0.497	neutral	Picture	49.883	n/a	3	8	15	n/a	35	17	1	n/a	n/a	n/a	n/a	327.875	BF28NES.jpg
294.909	0.514	Blank	Blank	49.37	n/a	3	8	15	n/a	35	n/a	1	n/a	n/a	n/a	n/a	328.372	n/a
295.439	0.497	neutral	Picture	48.856	n/a	3	8	16	n/a	36	13	1	n/a	n/a	n/a	n/a	328.903	BF22NES.jpg
295.936	0.514	Blank	Blank	48.342	n/a	3	8	16	n/a	36	n/a	1	n/a	n/a	n/a	n/a	329.4	n/a
296.467	0.497	neutral	Picture	47.828	n/a	3	8	17	n/a	37	12	1	n/a	n/a	n/a	n/a	329.931	AF21NES.jpg
296.964	0.514	Blank	Blank	47.314	n/a	3	8	17	n/a	37	n/a	1	n/a	n/a	n/a	n/a	330.428	n/a
297.495	0.497	neutral	Picture	46.8	n/a	3	8	18	n/a	38	24	1	n/a	n/a	n/a	n/a	330.959	BM05NES.jpg
297.992	0.514	Blank	Blank	46.286	n/a	3	8	18	n/a	38	n/a	1	n/a	n/a	n/a	n/a	331.456	n/a
298.523	0.497	neutral	Picture	45.772	n/a	3	8	19	n/a	39	29	1	n/a	n/a	n/a	n/a	331.987	AM10NES.jpg
299.02	0.514	Blank	Blank	45.258	n/a	3	8	19	n/a	39	n/a	1	n/a	n/a	n/a	n/a	332.484	n/a
299.551	0.497	neutral	Picture	44.744	n/a	3	8	20	n/a	40	23	1	n/a	n/a	n/a	n/a	333.014	AM04NES.jpg
300.048	0.514	Blank	Blank	44.23	n/a	3	8	20	n/a	40	n/a	1	n/a	n/a	n/a	n/a	333.512	n/a
300.578	10.014	ITI	Fixation+	34.2	n/a	3	n/a	n/a	n/a	n/a	n/a	n/a	n/a	n/a	n/a	n/a	334.042	n/a
310.609	0.497	angry	Picture	33.686	n/a	3	9	1	n/a	41	62	2	n/a	n/a	n/a	n/a	344.073	BM03HAS.jpg
311.106	0.514	Blank	Blank	33.172	n/a	3	9	1	n/a	41	n/a	2	n/a	n/a	n/a	n/a	344.57	n/a
311.637	0.497	angry	Picture	32.658	n/a	3	9	2	n/a	42	52	2	n/a	n/a	n/a	n/a	345.101	AF21HAS.jpg
312.134	0.514	Blank	Blank	32.144	n/a	3	9	2	n/a	42	n/a	2	n/a	n/a	n/a	n/a	345.598	n/a
312.664	0.497	angry	Picture	31.63	n/a	3	9	3	n/a	43	44	2	n/a	n/a	n/a	n/a	346.128	AF05HAS.jpg
313.162	0.514	Blank	Blank	31.116	n/a	3	9	3	n/a	43	n/a	2	n/a	n/a	n/a	n/a	346.626	n/a
313.692	0.497	angry	Picture	30.602	n/a	3	9	4	n/a	44	53	2	n/a	n/a	n/a	n/a	347.156	BF22HAS.jpg
314.19	0.514	Blank	Blank	30.088	n/a	3	9	4	n/a	44	n/a	2	n/a	n/a	n/a	n/a	347.654	n/a
314.72	0.497	angry	Picture	29.574	n/a	3	9	5	n/a	45	54	2	n/a	n/a	n/a	n/a	348.184	AF23HAS.jpg
315.218	0.514	Blank	Blank	29.06	n/a	3	9	5	n/a	45	n/a	2	n/a	n/a	n/a	n/a	348.682	n/a
315.748	0.497	angry	Picture	28.546	n/a	3	9	6	n/a	46	68	2	n/a	n/a	n/a	n/a	349.212	AM09HAS.jpg
316.245	0.514	Blank	Blank	28.033	n/a	3	9	6	n/a	46	n/a	2	n/a	n/a	n/a	n/a	349.709	n/a
316.776	0.497	angry	Picture	27.519	n/a	3	9	7	n/a	47	64	2	n/a	n/a	n/a	n/a	350.24	BM05HAS.jpg
317.273	0.514	Blank	Blank	27.005	n/a	3	9	7	n/a	47	n/a	2	n/a	n/a	n/a	n/a	350.737	n/a
317.804	0.497	angry	Picture	26.491	n/a	3	9	8	n/a	48	59	2	n/a	n/a	n/a	n/a	351.268	AF31HAS.jpg
318.301	0.514	Blank	Blank	25.977	n/a	3	9	8	n/a	48	n/a	2	n/a	n/a	n/a	n/a	351.765	n/a
318.832	0.497	angry	Picture	25.463	n/a	3	9	9	n/a	49	41	2	n/a	n/a	n/a	n/a	352.296	AF01HAS.jpg
319.329	0.514	Blank	Blank	24.949	n/a	3	9	9	n/a	49	n/a	2	n/a	n/a	n/a	n/a	352.793	n/a
319.86	0.497	angry	Picture	24.435	n/a	3	9	10	n/a	50	73	2	n/a	n/a	n/a	n/a	353.324	AM21HAS.jpg
320.357	0.514	Blank	Blank	23.921	n/a	3	9	10	n/a	50	n/a	2	n/a	n/a	n/a	n/a	353.821	n/a
320.888	0.497	angry	Picture	23.407	n/a	3	9	11	n/a	51	65	2	n/a	n/a	n/a	n/a	354.351	BM06HAS.jpg
321.385	0.514	Blank	Blank	22.893	n/a	3	9	11	n/a	51	n/a	2	n/a	n/a	n/a	n/a	354.849	n/a
321.915	0.497	angry	Picture	22.379	n/a	3	9	12	n/a	52	56	2	n/a	n/a	n/a	n/a	355.379	AF26HAS.jpg
322.413	0.514	Blank	Blank	21.865	n/a	3	9	12	n/a	52	n/a	2	n/a	n/a	n/a	n/a	355.877	n/a
322.943	0.497	angry	Picture	21.351	n/a	3	9	13	n/a	53	45	2	n/a	n/a	n/a	n/a	356.407	BF07HAS.jpg
323.441	0.514	Blank	Blank	20.837	n/a	3	9	13	n/a	53	n/a	2	n/a	n/a	n/a	n/a	356.905	n/a
323.971	0.497	angry	Picture	20.323	n/a	3	9	14	n/a	54	78	2	n/a	n/a	n/a	n/a	357.435	BM26HAS.jpg
324.469	0.514	Blank	Blank	19.809	n/a	3	9	14	n/a	54	n/a	2	n/a	n/a	n/a	n/a	357.933	n/a
324.999	0.497	angry	Picture	19.295	n/a	3	9	15	n/a	55	50	2	n/a	n/a	n/a	n/a	358.463	AF18HAS.jpg
325.496	0.514	Blank	Blank	18.781	n/a	3	9	15	n/a	55	n/a	2	n/a	n/a	n/a	n/a	358.96	n/a
326.027	0.497	angry	Picture	18.268	n/a	3	9	16	n/a	56	47	2	n/a	n/a	n/a	n/a	359.491	BF11HAS.jpg
326.524	0.514	Blank	Blank	17.754	n/a	3	9	16	n/a	56	n/a	2	n/a	n/a	n/a	n/a	359.988	n/a
327.055	0.497	angry	Picture	17.24	n/a	3	9	17	n/a	57	77	2	n/a	n/a	n/a	n/a	360.519	BM25HAS.jpg
327.552	0.514	Blank	Blank	16.726	n/a	3	9	17	n/a	57	n/a	2	n/a	n/a	n/a	n/a	361.016	n/a
328.083	0.497	angry	Picture	16.212	n/a	3	9	18	n/a	58	57	2	n/a	n/a	n/a	n/a	361.547	BF28HAS.jpg
328.58	0.514	Blank	Blank	15.698	n/a	3	9	18	n/a	58	n/a	2	n/a	n/a	n/a	n/a	362.044	n/a
329.111	0.497	angry	Picture	15.184	n/a	3	9	19	n/a	59	61	2	n/a	n/a	n/a	n/a	362.575	AM01HAS.jpg
329.608	0.514	Blank	Blank	14.67	n/a	3	9	19	n/a	59	n/a	2	n/a	n/a	n/a	n/a	363.072	n/a
330.139	0.497	angry	Picture	14.156	n/a	3	9	20	n/a	60	79	2	n/a	n/a	n/a	n/a	363.603	BM28HAS.jpg
330.636	0.514	Blank	Blank	13.642	n/a	3	9	20	n/a	60	n/a	2	n/a	n/a	n/a	n/a	364.1	n/a
331.166	10.014	ITI	Fixation+	3.612	n/a	3	n/a	n/a	n/a	n/a	n/a	n/a	n/a	n/a	n/a	n/a	364.63	n/a
344.792	n/a	ConfirmRating	Rate	n/a	3.598	3	n/a	n/a	0	n/a	n/a	n/a	2	Angry	52	50	378.256	n/a
347.063	n/a	ConfirmRating	Rate	n/a	2.255	3	n/a	n/a	1	n/a	n/a	n/a	3	Angry	0	49	380.527	n/a
347.082	10.014	ITI	Fixation+	97.069	n/a	4	n/a	n/a	n/a	n/a	n/a	n/a	n/a	n/a	n/a	n/a	380.546	n/a
357.112	0.497	happy	Picture	96.555	n/a	4	10	1	n/a	61	119	3	n/a	n/a	n/a	n/a	390.576	BM28ANS.jpg
357.61	0.514	Blank	Blank	96.041	n/a	4	10	1	n/a	61	n/a	3	n/a	n/a	n/a	n/a	391.074	n/a
358.14	0.497	happy	Picture	95.527	n/a	4	10	2	n/a	62	100	3	n/a	n/a	n/a	n/a	391.604	AF32ANS.jpg
358.638	0.514	Blank	Blank	95.013	n/a	4	10	2	n/a	62	n/a	3	n/a	n/a	n/a	n/a	392.102	n/a
359.168	0.497	happy	Picture	94.499	n/a	4	10	3	n/a	63	118	3	n/a	n/a	n/a	n/a	392.632	BM26ANS.jpg
359.666	0.514	Blank	Blank	93.985	n/a	4	10	3	n/a	63	n/a	3	n/a	n/a	n/a	n/a	393.13	n/a
360.196	0.497	happy	Picture	93.471	n/a	4	10	4	n/a	64	89	3	n/a	n/a	n/a	n/a	393.66	AF17ANS.jpg
360.693	0.514	Blank	Blank	92.958	n/a	4	10	4	n/a	64	n/a	3	n/a	n/a	n/a	n/a	394.157	n/a
361.224	0.497	happy	Picture	92.444	n/a	4	10	5	n/a	65	116	3	n/a	n/a	n/a	n/a	394.688	BM24ANS.jpg
361.721	0.514	Blank	Blank	91.93	n/a	4	10	5	n/a	65	n/a	3	n/a	n/a	n/a	n/a	395.185	n/a
362.252	0.497	happy	Picture	91.416	n/a	4	10	6	n/a	66	105	3	n/a	n/a	n/a	n/a	395.716	BM06ANS.jpg
362.749	0.514	Blank	Blank	90.902	n/a	4	10	6	n/a	66	n/a	3	n/a	n/a	n/a	n/a	396.213	n/a
363.28	0.497	happy	Picture	90.388	n/a	4	10	7	n/a	67	106	3	n/a	n/a	n/a	n/a	396.744	AM07ANS.jpg
363.777	0.514	Blank	Blank	89.874	n/a	4	10	7	n/a	67	n/a	3	n/a	n/a	n/a	n/a	397.241	n/a
364.308	0.497	happy	Picture	89.36	n/a	4	10	8	n/a	68	94	3	n/a	n/a	n/a	n/a	397.772	AF23ANS.jpg
364.805	0.514	Blank	Blank	88.846	n/a	4	10	8	n/a	68	n/a	3	n/a	n/a	n/a	n/a	398.269	n/a
365.335	0.497	happy	Picture	88.332	n/a	4	10	9	n/a	69	117	3	n/a	n/a	n/a	n/a	398.799	BM25ANS.jpg
365.833	0.514	Blank	Blank	87.818	n/a	4	10	9	n/a	69	n/a	3	n/a	n/a	n/a	n/a	399.297	n/a
366.363	0.497	happy	Picture	87.304	n/a	4	10	10	n/a	70	90	3	n/a	n/a	n/a	n/a	399.827	AF18ANS.jpg
366.861	0.514	Blank	Blank	86.79	n/a	4	10	10	n/a	70	n/a	3	n/a	n/a	n/a	n/a	400.325	n/a
367.391	0.497	happy	Picture	86.276	n/a	4	10	11	n/a	71	83	3	n/a	n/a	n/a	n/a	400.855	BF04ANS.jpg
367.889	0.514	Blank	Blank	85.762	n/a	4	10	11	n/a	71	n/a	3	n/a	n/a	n/a	n/a	401.353	n/a
368.419	0.497	happy	Picture	85.248	n/a	4	10	12	n/a	72	112	3	n/a	n/a	n/a	n/a	401.883	AM14ANS.jpg
368.917	0.514	Blank	Blank	84.734	n/a	4	10	12	n/a	72	n/a	3	n/a	n/a	n/a	n/a	402.38	n/a
369.447	0.497	happy	Picture	84.22	n/a	4	10	13	n/a	73	102	3	n/a	n/a	n/a	n/a	402.911	BM03ANS.jpg
369.944	0.514	Blank	Blank	83.707	n/a	4	10	13	n/a	73	n/a	3	n/a	n/a	n/a	n/a	403.408	n/a
370.475	0.497	happy	Picture	83.192	n/a	4	10	14	n/a	74	95	3	n/a	n/a	n/a	n/a	403.939	AF25ANS.jpg
370.972	0.514	Blank	Blank	82.679	n/a	4	10	14	n/a	74	n/a	3	n/a	n/a	n/a	n/a	404.436	n/a
371.503	0.497	happy	Picture	82.165	n/a	4	10	15	n/a	75	113	3	n/a	n/a	n/a	n/a	404.967	AM21ANS.jpg
372.0	0.514	Blank	Blank	81.651	n/a	4	10	15	n/a	75	n/a	3	n/a	n/a	n/a	n/a	405.464	n/a
372.531	0.497	happy	Picture	81.137	n/a	4	10	16	n/a	76	88	3	n/a	n/a	n/a	n/a	405.995	AF14ANS.jpg
373.028	0.514	Blank	Blank	80.623	n/a	4	10	16	n/a	76	n/a	3	n/a	n/a	n/a	n/a	406.492	n/a
373.559	0.497	happy	Picture	80.109	n/a	4	10	17	n/a	77	93	3	n/a	n/a	n/a	n/a	407.022	BF22ANS.jpg
374.056	0.514	Blank	Blank	79.595	n/a	4	10	17	n/a	77	n/a	3	n/a	n/a	n/a	n/a	407.52	n/a
374.587	0.497	happy	Picture	79.081	n/a	4	10	18	n/a	78	86	3	n/a	n/a	n/a	n/a	408.05	AF09ANS.jpg
375.084	0.514	Blank	Blank	78.567	n/a	4	10	18	n/a	78	n/a	3	n/a	n/a	n/a	n/a	408.548	n/a
375.614	0.497	happy	Picture	78.053	n/a	4	10	19	n/a	79	92	3	n/a	n/a	n/a	n/a	409.078	AF21ANS.jpg
376.112	0.514	Blank	Blank	77.539	n/a	4	10	19	n/a	79	n/a	3	n/a	n/a	n/a	n/a	409.576	n/a
376.642	0.497	happy	Picture	77.025	n/a	4	10	20	n/a	80	84	3	n/a	n/a	n/a	n/a	410.106	AF05ANS.jpg
377.14	0.514	Blank	Blank	76.511	n/a	4	10	20	n/a	80	n/a	3	n/a	n/a	n/a	n/a	410.604	n/a
377.67	10.014	ITI	Fixation+	66.481	n/a	4	n/a	n/a	n/a	n/a	n/a	n/a	n/a	n/a	n/a	n/a	411.134	n/a
387.7	0.497	neutral	Picture	65.967	n/a	4	11	1	n/a	81	4	1	n/a	n/a	n/a	n/a	421.164	AF05NES.jpg
388.198	0.514	Blank	Blank	65.453	n/a	4	11	1	n/a	81	n/a	1	n/a	n/a	n/a	n/a	421.662	n/a
388.728	0.497	neutral	Picture	64.939	n/a	4	11	2	n/a	82	14	1	n/a	n/a	n/a	n/a	422.192	AF23NES.jpg
389.226	0.514	Blank	Blank	64.425	n/a	4	11	2	n/a	82	n/a	1	n/a	n/a	n/a	n/a	422.69	n/a
389.756	0.497	neutral	Picture	63.911	n/a	4	11	3	n/a	83	19	1	n/a	n/a	n/a	n/a	423.22	AF31NES.jpg
390.254	0.514	Blank	Blank	63.397	n/a	4	11	3	n/a	83	n/a	1	n/a	n/a	n/a	n/a	423.717	n/a
390.784	0.497	neutral	Picture	62.883	n/a	4	11	4	n/a	84	8	1	n/a	n/a	n/a	n/a	424.248	AF14NES.jpg
391.281	0.514	Blank	Blank	62.37	n/a	4	11	4	n/a	84	n/a	1	n/a	n/a	n/a	n/a	424.745	n/a
391.812	0.497	neutral	Picture	61.856	n/a	4	11	5	n/a	85	25	1	n/a	n/a	n/a	n/a	425.276	BM06NES.jpg
392.309	0.514	Blank	Blank	61.342	n/a	4	11	5	n/a	85	n/a	1	n/a	n/a	n/a	n/a	425.773	n/a
392.84	0.497	neutral	Picture	60.828	n/a	4	11	6	n/a	86	9	1	n/a	n/a	n/a	n/a	426.304	AF17NES.jpg
393.337	0.514	Blank	Blank	60.314	n/a	4	11	6	n/a	86	n/a	1	n/a	n/a	n/a	n/a	426.801	n/a
393.868	0.497	neutral	Picture	59.8	n/a	4	11	7	n/a	87	2	1	n/a	n/a	n/a	n/a	427.332	AF03NES.jpg
394.365	0.514	Blank	Blank	59.286	n/a	4	11	7	n/a	87	n/a	1	n/a	n/a	n/a	n/a	427.829	n/a
394.896	0.497	neutral	Picture	58.772	n/a	4	11	8	n/a	88	17	1	n/a	n/a	n/a	n/a	428.36	BF28NES.jpg
395.393	0.514	Blank	Blank	58.258	n/a	4	11	8	n/a	88	n/a	1	n/a	n/a	n/a	n/a	428.857	n/a
395.924	0.497	neutral	Picture	57.744	n/a	4	11	9	n/a	89	6	1	n/a	n/a	n/a	n/a	429.387	AF09NES.jpg
396.421	0.514	Blank	Blank	57.23	n/a	4	11	9	n/a	89	n/a	1	n/a	n/a	n/a	n/a	429.885	n/a
396.951	0.497	neutral	Picture	56.716	n/a	4	11	10	n/a	90	12	1	n/a	n/a	n/a	n/a	430.415	AF21NES.jpg
397.449	0.514	Blank	Blank	56.202	n/a	4	11	10	n/a	90	n/a	1	n/a	n/a	n/a	n/a	430.913	n/a
397.979	0.497	neutral	Picture	55.688	n/a	4	11	11	n/a	91	24	1	n/a	n/a	n/a	n/a	431.443	BM05NES.jpg
398.477	0.514	Blank	Blank	55.174	n/a	4	11	11	n/a	91	n/a	1	n/a	n/a	n/a	n/a	431.941	n/a
399.007	0.497	neutral	Picture	54.66	n/a	4	11	12	n/a	92	34	1	n/a	n/a	n/a	n/a	432.471	AM22NES.jpg
399.505	0.514	Blank	Blank	54.146	n/a	4	11	12	n/a	92	n/a	1	n/a	n/a	n/a	n/a	432.969	n/a
400.035	0.497	neutral	Picture	53.632	n/a	4	11	13	n/a	93	23	1	n/a	n/a	n/a	n/a	433.499	AM04NES.jpg
400.532	0.514	Blank	Blank	53.119	n/a	4	11	13	n/a	93	n/a	1	n/a	n/a	n/a	n/a	433.996	n/a
401.063	0.497	neutral	Picture	52.605	n/a	4	11	14	n/a	94	15	1	n/a	n/a	n/a	n/a	434.527	AF25NES.jpg
401.56	0.514	Blank	Blank	52.091	n/a	4	11	14	n/a	94	n/a	1	n/a	n/a	n/a	n/a	435.024	n/a
402.091	0.497	neutral	Picture	51.577	n/a	4	11	15	n/a	95	37	1	n/a	n/a	n/a	n/a	435.555	BM25NES.jpg
402.588	0.514	Blank	Blank	51.063	n/a	4	11	15	n/a	95	n/a	1	n/a	n/a	n/a	n/a	436.052	n/a
403.119	0.497	neutral	Picture	50.549	n/a	4	11	16	n/a	96	32	1	n/a	n/a	n/a	n/a	436.583	AM14NES.jpg
403.616	0.514	Blank	Blank	50.035	n/a	4	11	16	n/a	96	n/a	1	n/a	n/a	n/a	n/a	437.08	n/a
404.147	0.497	neutral	Picture	49.521	n/a	4	11	17	n/a	97	3	1	n/a	n/a	n/a	n/a	437.611	BF04NES.jpg
404.644	0.514	Blank	Blank	49.007	n/a	4	11	17	n/a	97	n/a	1	n/a	n/a	n/a	n/a	438.108	n/a
405.175	0.497	neutral	Picture	48.493	n/a	4	11	18	n/a	98	16	1	n/a	n/a	n/a	n/a	438.639	AF26NES.jpg
405.672	0.514	Blank	Blank	47.979	n/a	4	11	18	n/a	98	n/a	1	n/a	n/a	n/a	n/a	439.136	n/a
406.202	0.497	neutral	Picture	47.465	n/a	4	11	19	n/a	99	27	1	n/a	n/a	n/a	n/a	439.666	BM08NES.jpg
406.7	0.514	Blank	Blank	46.951	n/a	4	11	19	n/a	99	n/a	1	n/a	n/a	n/a	n/a	440.164	n/a
407.23	0.497	neutral	Picture	46.437	n/a	4	11	20	n/a	100	28	1	n/a	n/a	n/a	n/a	440.694	AM09NES.jpg
407.728	0.514	Blank	Blank	45.923	n/a	4	11	20	n/a	100	n/a	1	n/a	n/a	n/a	n/a	441.192	n/a
408.258	10.014	ITI	Fixation+	35.893	n/a	4	n/a	n/a	n/a	n/a	n/a	n/a	n/a	n/a	n/a	n/a	441.722	n/a
418.288	0.497	happy	Picture	35.379	n/a	4	12	1	n/a	101	81	3	n/a	n/a	n/a	n/a	451.752	AF01ANS.jpg
418.786	0.514	Blank	Blank	34.865	n/a	4	12	1	n/a	101	n/a	3	n/a	n/a	n/a	n/a	452.25	n/a
419.316	0.497	happy	Picture	34.351	n/a	4	12	2	n/a	102	120	3	n/a	n/a	n/a	n/a	452.78	AM35ANS.jpg
419.814	0.514	Blank	Blank	33.837	n/a	4	12	2	n/a	102	n/a	3	n/a	n/a	n/a	n/a	453.278	n/a
420.344	0.497	happy	Picture	33.323	n/a	4	12	3	n/a	103	114	3	n/a	n/a	n/a	n/a	453.808	AM22ANS.jpg
420.842	0.514	Blank	Blank	32.809	n/a	4	12	3	n/a	103	n/a	3	n/a	n/a	n/a	n/a	454.305	n/a
421.372	0.497	happy	Picture	32.295	n/a	4	12	4	n/a	104	109	3	n/a	n/a	n/a	n/a	454.836	AM10ANS.jpg
421.869	0.514	Blank	Blank	31.782	n/a	4	12	4	n/a	104	n/a	3	n/a	n/a	n/a	n/a	455.333	n/a
422.4	0.497	happy	Picture	31.267	n/a	4	12	5	n/a	105	96	3	n/a	n/a	n/a	n/a	455.864	AF26ANS.jpg
422.897	0.514	Blank	Blank	30.754	n/a	4	12	5	n/a	105	n/a	3	n/a	n/a	n/a	n/a	456.361	n/a
423.428	0.497	happy	Picture	30.24	n/a	4	12	6	n/a	106	82	3	n/a	n/a	n/a	n/a	456.892	AF03ANS.jpg
423.925	0.514	Blank	Blank	29.726	n/a	4	12	6	n/a	106	n/a	3	n/a	n/a	n/a	n/a	457.389	n/a
424.456	0.497	happy	Picture	29.212	n/a	4	12	7	n/a	107	97	3	n/a	n/a	n/a	n/a	457.92	BF28ANS.jpg
424.953	0.514	Blank	Blank	28.698	n/a	4	12	7	n/a	107	n/a	3	n/a	n/a	n/a	n/a	458.417	n/a
425.484	0.497	happy	Picture	28.184	n/a	4	12	8	n/a	108	115	3	n/a	n/a	n/a	n/a	458.948	AM23ANS.jpg
425.981	0.514	Blank	Blank	27.67	n/a	4	12	8	n/a	108	n/a	3	n/a	n/a	n/a	n/a	459.445	n/a
426.512	0.497	happy	Picture	27.156	n/a	4	12	9	n/a	109	91	3	n/a	n/a	n/a	n/a	459.976	AF20ANS.jpg
427.009	0.514	Blank	Blank	26.642	n/a	4	12	9	n/a	109	n/a	3	n/a	n/a	n/a	n/a	460.473	n/a
427.539	0.497	happy	Picture	26.128	n/a	4	12	10	n/a	110	87	3	n/a	n/a	n/a	n/a	461.003	BF11ANS.jpg
428.037	0.514	Blank	Blank	25.614	n/a	4	12	10	n/a	110	n/a	3	n/a	n/a	n/a	n/a	461.501	n/a
428.567	0.497	happy	Picture	25.1	n/a	4	12	11	n/a	111	85	3	n/a	n/a	n/a	n/a	462.031	BF07ANS.jpg
429.065	0.514	Blank	Blank	24.586	n/a	4	12	11	n/a	111	n/a	3	n/a	n/a	n/a	n/a	462.529	n/a
429.595	0.497	happy	Picture	24.072	n/a	4	12	12	n/a	112	110	3	n/a	n/a	n/a	n/a	463.059	AM11ANS.jpg
430.093	0.514	Blank	Blank	23.558	n/a	4	12	12	n/a	112	n/a	3	n/a	n/a	n/a	n/a	463.557	n/a
430.623	0.497	happy	Picture	23.044	n/a	4	12	13	n/a	113	111	3	n/a	n/a	n/a	n/a	464.087	BM12ANS.jpg
431.12	0.514	Blank	Blank	22.53	n/a	4	12	13	n/a	113	n/a	3	n/a	n/a	n/a	n/a	464.584	n/a
431.651	0.497	happy	Picture	22.017	n/a	4	12	14	n/a	114	103	3	n/a	n/a	n/a	n/a	465.115	AM04ANS.jpg
432.148	0.514	Blank	Blank	21.503	n/a	4	12	14	n/a	114	n/a	3	n/a	n/a	n/a	n/a	465.612	n/a
432.679	0.497	happy	Picture	20.989	n/a	4	12	15	n/a	115	101	3	n/a	n/a	n/a	n/a	466.143	AM01ANS.jpg
433.176	0.514	Blank	Blank	20.475	n/a	4	12	15	n/a	115	n/a	3	n/a	n/a	n/a	n/a	466.64	n/a
433.707	0.497	happy	Picture	19.961	n/a	4	12	16	n/a	116	104	3	n/a	n/a	n/a	n/a	467.171	BM05ANS.jpg
434.204	0.514	Blank	Blank	19.447	n/a	4	12	16	n/a	116	n/a	3	n/a	n/a	n/a	n/a	467.668	n/a
434.735	0.497	happy	Picture	18.933	n/a	4	12	17	n/a	117	107	3	n/a	n/a	n/a	n/a	468.199	BM08ANS.jpg
435.232	0.514	Blank	Blank	18.419	n/a	4	12	17	n/a	117	n/a	3	n/a	n/a	n/a	n/a	468.696	n/a
435.763	0.497	happy	Picture	17.905	n/a	4	12	18	n/a	118	98	3	n/a	n/a	n/a	n/a	469.226	BF29ANS.jpg
436.26	0.514	Blank	Blank	17.391	n/a	4	12	18	n/a	118	n/a	3	n/a	n/a	n/a	n/a	469.724	n/a
436.79	0.497	happy	Picture	16.877	n/a	4	12	19	n/a	119	99	3	n/a	n/a	n/a	n/a	470.254	AF31ANS.jpg
437.288	0.514	Blank	Blank	16.363	n/a	4	12	19	n/a	119	n/a	3	n/a	n/a	n/a	n/a	470.752	n/a
437.818	0.497	happy	Picture	15.849	n/a	4	12	20	n/a	120	108	3	n/a	n/a	n/a	n/a	471.282	AM09ANS.jpg
438.316	0.514	Blank	Blank	15.335	n/a	4	12	20	n/a	120	n/a	3	n/a	n/a	n/a	n/a	471.78	n/a
438.846	10.014	ITI	Fixation+	5.305	n/a	4	n/a	n/a	n/a	n/a	n/a	n/a	n/a	n/a	n/a	n/a	472.31	n/a
454.165	n/a	ConfirmRating	Rate	n/a	5.289	4	n/a	n/a	0	n/a	n/a	n/a	2	Happy	62	51	487.629	n/a
456.52	n/a	ConfirmRating	Rate	n/a	2.354	4	n/a	n/a	1	n/a	n/a	n/a	3	Happy	4	48	489.984	n/a
