onset	duration	trial_type	event_type	time_until_response	response_time	trial_number	block_num_within_trial	image_seq_num_within_block	question_seq_num_within_block	image_seq_num	picture_number	condition	question_type	block_type	rating	rating_computed	onset_uncorrected	KDEV_imagefile
0.009	10.014	ITI	Fixation+	103.368	n/a	1	n/a	n/a	n/a	n/a	n/a	n/a	n/a	n/a	n/a	n/a	27.316	n/a
10.039	0.497	angry	Picture	102.854	n/a	1	1	1	n/a	1	46	2	n/a	n/a	n/a	n/a	37.347	AF09HAS.jpg
10.536	0.514	Blank	Blank	102.34	n/a	1	1	1	n/a	1	n/a	2	n/a	n/a	n/a	n/a	37.844	n/a
11.067	0.497	angry	Picture	101.827	n/a	1	1	2	n/a	2	69	2	n/a	n/a	n/a	n/a	38.374	AM10HAS.jpg
11.564	0.514	Blank	Blank	101.313	n/a	1	1	2	n/a	2	n/a	2	n/a	n/a	n/a	n/a	38.872	n/a
12.095	0.497	angry	Picture	100.799	n/a	1	1	3	n/a	3	71	2	n/a	n/a	n/a	n/a	39.402	BM12HAS.jpg
12.592	0.514	Blank	Blank	100.285	n/a	1	1	3	n/a	3	n/a	2	n/a	n/a	n/a	n/a	39.9	n/a
13.123	0.497	angry	Picture	99.771	n/a	1	1	4	n/a	4	51	2	n/a	n/a	n/a	n/a	40.43	AF20HAS.jpg
13.62	0.514	Blank	Blank	99.257	n/a	1	1	4	n/a	4	n/a	2	n/a	n/a	n/a	n/a	40.928	n/a
14.151	0.497	angry	Picture	98.743	n/a	1	1	5	n/a	5	67	2	n/a	n/a	n/a	n/a	41.458	BM08HAS.jpg
14.648	0.514	Blank	Blank	98.229	n/a	1	1	5	n/a	5	n/a	2	n/a	n/a	n/a	n/a	41.956	n/a
15.178	0.497	angry	Picture	97.715	n/a	1	1	6	n/a	6	60	2	n/a	n/a	n/a	n/a	42.486	AF32HAS.jpg
15.676	0.514	Blank	Blank	97.201	n/a	1	1	6	n/a	6	n/a	2	n/a	n/a	n/a	n/a	42.983	n/a
16.206	0.497	angry	Picture	96.687	n/a	1	1	7	n/a	7	42	2	n/a	n/a	n/a	n/a	43.514	AF03HAS.jpg
16.704	0.514	Blank	Blank	96.173	n/a	1	1	7	n/a	7	n/a	2	n/a	n/a	n/a	n/a	44.011	n/a
17.234	0.497	angry	Picture	95.659	n/a	1	1	8	n/a	8	55	2	n/a	n/a	n/a	n/a	44.542	AF25HAS.jpg
17.731	0.514	Blank	Blank	95.145	n/a	1	1	8	n/a	8	n/a	2	n/a	n/a	n/a	n/a	45.039	n/a
18.262	0.497	angry	Picture	94.631	n/a	1	1	9	n/a	9	72	2	n/a	n/a	n/a	n/a	45.57	AM14HAS.jpg
18.759	0.514	Blank	Blank	94.117	n/a	1	1	9	n/a	9	n/a	2	n/a	n/a	n/a	n/a	46.067	n/a
19.29	0.497	angry	Picture	93.603	n/a	1	1	10	n/a	10	63	2	n/a	n/a	n/a	n/a	46.597	AM04HAS.jpg
19.787	0.514	Blank	Blank	93.09	n/a	1	1	10	n/a	10	n/a	2	n/a	n/a	n/a	n/a	47.095	n/a
20.318	0.497	angry	Picture	92.576	n/a	1	1	11	n/a	11	58	2	n/a	n/a	n/a	n/a	47.625	BF29HAS.jpg
20.815	0.514	Blank	Blank	92.062	n/a	1	1	11	n/a	11	n/a	2	n/a	n/a	n/a	n/a	48.123	n/a
21.346	0.497	angry	Picture	91.548	n/a	1	1	12	n/a	12	48	2	n/a	n/a	n/a	n/a	48.653	AF14HAS.jpg
21.843	0.514	Blank	Blank	91.034	n/a	1	1	12	n/a	12	n/a	2	n/a	n/a	n/a	n/a	49.151	n/a
22.374	0.497	angry	Picture	90.52	n/a	1	1	13	n/a	13	66	2	n/a	n/a	n/a	n/a	49.681	BM07HAS.jpg
22.871	0.514	Blank	Blank	90.006	n/a	1	1	13	n/a	13	n/a	2	n/a	n/a	n/a	n/a	50.178	n/a
23.401	0.497	angry	Picture	89.492	n/a	1	1	14	n/a	14	70	2	n/a	n/a	n/a	n/a	50.709	BM11HAS.jpg
23.899	0.514	Blank	Blank	88.978	n/a	1	1	14	n/a	14	n/a	2	n/a	n/a	n/a	n/a	51.206	n/a
24.429	0.497	angry	Picture	88.464	n/a	1	1	15	n/a	15	43	2	n/a	n/a	n/a	n/a	51.737	BF04HAS.jpg
24.927	0.514	Blank	Blank	87.95	n/a	1	1	15	n/a	15	n/a	2	n/a	n/a	n/a	n/a	52.234	n/a
25.457	0.497	angry	Picture	87.436	n/a	1	1	16	n/a	16	49	2	n/a	n/a	n/a	n/a	52.765	AF17HAS.jpg
25.955	0.514	Blank	Blank	86.922	n/a	1	1	16	n/a	16	n/a	2	n/a	n/a	n/a	n/a	53.262	n/a
26.485	0.497	angry	Picture	86.408	n/a	1	1	17	n/a	17	75	2	n/a	n/a	n/a	n/a	53.793	AM23HAS.jpg
26.982	0.514	Blank	Blank	85.894	n/a	1	1	17	n/a	17	n/a	2	n/a	n/a	n/a	n/a	54.29	n/a
27.513	0.497	angry	Picture	85.38	n/a	1	1	18	n/a	18	80	2	n/a	n/a	n/a	n/a	54.821	BM35HAS.jpg
28.01	0.514	Blank	Blank	84.866	n/a	1	1	18	n/a	18	n/a	2	n/a	n/a	n/a	n/a	55.318	n/a
28.541	0.497	angry	Picture	84.353	n/a	1	1	19	n/a	19	76	2	n/a	n/a	n/a	n/a	55.848	BM24HAS.jpg
29.038	0.514	Blank	Blank	83.839	n/a	1	1	19	n/a	19	n/a	2	n/a	n/a	n/a	n/a	56.346	n/a
29.569	0.497	angry	Picture	83.325	n/a	1	1	20	n/a	20	74	2	n/a	n/a	n/a	n/a	56.876	AM22HAS.jpg
30.066	0.514	Blank	Blank	82.811	n/a	1	1	20	n/a	20	n/a	2	n/a	n/a	n/a	n/a	57.374	n/a
30.597	10.014	ITI	Fixation+	72.781	n/a	1	n/a	n/a	n/a	n/a	n/a	n/a	n/a	n/a	n/a	n/a	57.904	n/a
40.627	0.497	neutral	Picture	72.267	n/a	1	2	1	n/a	21	33	1	n/a	n/a	n/a	n/a	67.934	AM21NES.jpg
41.124	0.514	Blank	Blank	71.753	n/a	1	2	1	n/a	21	n/a	1	n/a	n/a	n/a	n/a	68.432	n/a
41.655	0.497	neutral	Picture	71.239	n/a	1	2	2	n/a	22	39	1	n/a	n/a	n/a	n/a	68.962	AM28NES.jpg
42.152	0.514	Blank	Blank	70.725	n/a	1	2	2	n/a	22	n/a	1	n/a	n/a	n/a	n/a	69.46	n/a
42.682	0.497	neutral	Picture	70.211	n/a	1	2	3	n/a	23	25	1	n/a	n/a	n/a	n/a	69.99	BM06NES.jpg
43.18	0.514	Blank	Blank	69.697	n/a	1	2	3	n/a	23	n/a	1	n/a	n/a	n/a	n/a	70.487	n/a
43.71	0.497	neutral	Picture	69.183	n/a	1	2	4	n/a	24	5	1	n/a	n/a	n/a	n/a	71.018	BF07NES.jpg
44.208	0.514	Blank	Blank	68.669	n/a	1	2	4	n/a	24	n/a	1	n/a	n/a	n/a	n/a	71.515	n/a
44.738	0.497	neutral	Picture	68.155	n/a	1	2	5	n/a	25	10	1	n/a	n/a	n/a	n/a	72.046	AF18NES.jpg
45.236	0.514	Blank	Blank	67.641	n/a	1	2	5	n/a	25	n/a	1	n/a	n/a	n/a	n/a	72.543	n/a
45.766	0.497	neutral	Picture	67.127	n/a	1	2	6	n/a	26	34	1	n/a	n/a	n/a	n/a	73.074	AM22NES.jpg
46.264	0.514	Blank	Blank	66.613	n/a	1	2	6	n/a	26	n/a	1	n/a	n/a	n/a	n/a	73.571	n/a
46.794	0.497	neutral	Picture	66.099	n/a	1	2	7	n/a	27	36	1	n/a	n/a	n/a	n/a	74.102	BM24NES.jpg
47.291	0.514	Blank	Blank	65.585	n/a	1	2	7	n/a	27	n/a	1	n/a	n/a	n/a	n/a	74.599	n/a
47.822	0.497	neutral	Picture	65.071	n/a	1	2	8	n/a	28	14	1	n/a	n/a	n/a	n/a	75.129	AF23NES.jpg
48.319	0.514	Blank	Blank	64.558	n/a	1	2	8	n/a	28	n/a	1	n/a	n/a	n/a	n/a	75.627	n/a
48.85	0.497	neutral	Picture	64.044	n/a	1	2	9	n/a	29	9	1	n/a	n/a	n/a	n/a	76.157	AF17NES.jpg
49.347	0.514	Blank	Blank	63.53	n/a	1	2	9	n/a	29	n/a	1	n/a	n/a	n/a	n/a	76.655	n/a
49.878	0.497	neutral	Picture	63.016	n/a	1	2	10	n/a	30	19	1	n/a	n/a	n/a	n/a	77.185	AF31NES.jpg
50.375	0.514	Blank	Blank	62.502	n/a	1	2	10	n/a	30	n/a	1	n/a	n/a	n/a	n/a	77.683	n/a
50.906	0.497	neutral	Picture	61.988	n/a	1	2	11	n/a	31	15	1	n/a	n/a	n/a	n/a	78.213	AF25NES.jpg
51.403	0.514	Blank	Blank	61.474	n/a	1	2	11	n/a	31	n/a	1	n/a	n/a	n/a	n/a	78.71	n/a
51.933	0.497	neutral	Picture	60.96	n/a	1	2	12	n/a	32	22	1	n/a	n/a	n/a	n/a	79.241	BM03NES.jpg
52.431	0.514	Blank	Blank	60.446	n/a	1	2	12	n/a	32	n/a	1	n/a	n/a	n/a	n/a	79.738	n/a
52.961	0.497	neutral	Picture	59.932	n/a	1	2	13	n/a	33	11	1	n/a	n/a	n/a	n/a	80.269	AF20NES.jpg
53.459	0.514	Blank	Blank	59.418	n/a	1	2	13	n/a	33	n/a	1	n/a	n/a	n/a	n/a	80.766	n/a
53.989	0.497	neutral	Picture	58.904	n/a	1	2	14	n/a	34	4	1	n/a	n/a	n/a	n/a	81.297	AF05NES.jpg
54.487	0.514	Blank	Blank	58.39	n/a	1	2	14	n/a	34	n/a	1	n/a	n/a	n/a	n/a	81.794	n/a
55.017	0.497	neutral	Picture	57.876	n/a	1	2	15	n/a	35	17	1	n/a	n/a	n/a	n/a	82.325	BF28NES.jpg
55.515	0.514	Blank	Blank	57.362	n/a	1	2	15	n/a	35	n/a	1	n/a	n/a	n/a	n/a	82.822	n/a
56.045	0.497	neutral	Picture	56.848	n/a	1	2	16	n/a	36	13	1	n/a	n/a	n/a	n/a	83.353	BF22NES.jpg
56.542	0.514	Blank	Blank	56.334	n/a	1	2	16	n/a	36	n/a	1	n/a	n/a	n/a	n/a	83.85	n/a
57.073	0.497	neutral	Picture	55.821	n/a	1	2	17	n/a	37	12	1	n/a	n/a	n/a	n/a	84.38	AF21NES.jpg
57.57	0.514	Blank	Blank	55.307	n/a	1	2	17	n/a	37	n/a	1	n/a	n/a	n/a	n/a	84.878	n/a
58.101	0.497	neutral	Picture	54.793	n/a	1	2	18	n/a	38	24	1	n/a	n/a	n/a	n/a	85.408	BM05NES.jpg
58.598	0.514	Blank	Blank	54.279	n/a	1	2	18	n/a	38	n/a	1	n/a	n/a	n/a	n/a	85.906	n/a
59.129	0.497	neutral	Picture	53.765	n/a	1	2	19	n/a	39	29	1	n/a	n/a	n/a	n/a	86.436	AM10NES.jpg
59.626	0.514	Blank	Blank	53.251	n/a	1	2	19	n/a	39	n/a	1	n/a	n/a	n/a	n/a	86.934	n/a
60.157	0.497	neutral	Picture	52.737	n/a	1	2	20	n/a	40	23	1	n/a	n/a	n/a	n/a	87.464	AM04NES.jpg
60.654	0.514	Blank	Blank	52.223	n/a	1	2	20	n/a	40	n/a	1	n/a	n/a	n/a	n/a	87.962	n/a
61.184	10.014	ITI	Fixation+	42.193	n/a	1	n/a	n/a	n/a	n/a	n/a	n/a	n/a	n/a	n/a	n/a	88.492	n/a
71.214	0.497	angry	Picture	41.679	n/a	1	3	1	n/a	41	62	2	n/a	n/a	n/a	n/a	98.522	BM03HAS.jpg
71.712	0.514	Blank	Blank	41.165	n/a	1	3	1	n/a	41	n/a	2	n/a	n/a	n/a	n/a	99.019	n/a
72.242	0.497	angry	Picture	40.651	n/a	1	3	2	n/a	42	52	2	n/a	n/a	n/a	n/a	99.55	AF21HAS.jpg
72.74	0.514	Blank	Blank	40.137	n/a	1	3	2	n/a	42	n/a	2	n/a	n/a	n/a	n/a	100.047	n/a
73.27	0.497	angry	Picture	39.623	n/a	1	3	3	n/a	43	44	2	n/a	n/a	n/a	n/a	100.578	AF05HAS.jpg
73.768	0.514	Blank	Blank	39.109	n/a	1	3	3	n/a	43	n/a	2	n/a	n/a	n/a	n/a	101.075	n/a
74.298	0.497	angry	Picture	38.595	n/a	1	3	4	n/a	44	53	2	n/a	n/a	n/a	n/a	101.606	BF22HAS.jpg
74.796	0.514	Blank	Blank	38.081	n/a	1	3	4	n/a	44	n/a	2	n/a	n/a	n/a	n/a	102.103	n/a
75.326	0.497	angry	Picture	37.567	n/a	1	3	5	n/a	45	54	2	n/a	n/a	n/a	n/a	102.634	AF23HAS.jpg
75.823	0.514	Blank	Blank	37.053	n/a	1	3	5	n/a	45	n/a	2	n/a	n/a	n/a	n/a	103.131	n/a
76.354	0.497	angry	Picture	36.539	n/a	1	3	6	n/a	46	68	2	n/a	n/a	n/a	n/a	103.662	AM09HAS.jpg
76.851	0.514	Blank	Blank	36.026	n/a	1	3	6	n/a	46	n/a	2	n/a	n/a	n/a	n/a	104.159	n/a
77.382	0.497	angry	Picture	35.512	n/a	1	3	7	n/a	47	64	2	n/a	n/a	n/a	n/a	104.689	BM05HAS.jpg
77.879	0.514	Blank	Blank	34.998	n/a	1	3	7	n/a	47	n/a	2	n/a	n/a	n/a	n/a	105.187	n/a
78.41	0.497	angry	Picture	34.484	n/a	1	3	8	n/a	48	59	2	n/a	n/a	n/a	n/a	105.717	AF31HAS.jpg
78.907	0.514	Blank	Blank	33.97	n/a	1	3	8	n/a	48	n/a	2	n/a	n/a	n/a	n/a	106.215	n/a
79.438	0.497	angry	Picture	33.456	n/a	1	3	9	n/a	49	41	2	n/a	n/a	n/a	n/a	106.745	AF01HAS.jpg
79.935	0.514	Blank	Blank	32.942	n/a	1	3	9	n/a	49	n/a	2	n/a	n/a	n/a	n/a	107.243	n/a
80.465	0.497	angry	Picture	32.428	n/a	1	3	10	n/a	50	73	2	n/a	n/a	n/a	n/a	107.773	AM21HAS.jpg
80.963	0.514	Blank	Blank	31.914	n/a	1	3	10	n/a	50	n/a	2	n/a	n/a	n/a	n/a	108.27	n/a
81.493	0.497	angry	Picture	31.4	n/a	1	3	11	n/a	51	65	2	n/a	n/a	n/a	n/a	108.801	BM06HAS.jpg
81.991	0.514	Blank	Blank	30.886	n/a	1	3	11	n/a	51	n/a	2	n/a	n/a	n/a	n/a	109.298	n/a
82.521	0.497	angry	Picture	30.372	n/a	1	3	12	n/a	52	56	2	n/a	n/a	n/a	n/a	109.829	AF26HAS.jpg
83.019	0.514	Blank	Blank	29.858	n/a	1	3	12	n/a	52	n/a	2	n/a	n/a	n/a	n/a	110.326	n/a
83.549	0.497	angry	Picture	29.344	n/a	1	3	13	n/a	53	45	2	n/a	n/a	n/a	n/a	110.857	BF07HAS.jpg
84.047	0.514	Blank	Blank	28.83	n/a	1	3	13	n/a	53	n/a	2	n/a	n/a	n/a	n/a	111.354	n/a
84.577	0.497	angry	Picture	28.316	n/a	1	3	14	n/a	54	78	2	n/a	n/a	n/a	n/a	111.885	BM26HAS.jpg
85.074	0.514	Blank	Blank	27.802	n/a	1	3	14	n/a	54	n/a	2	n/a	n/a	n/a	n/a	112.382	n/a
85.605	0.497	angry	Picture	27.289	n/a	1	3	15	n/a	55	50	2	n/a	n/a	n/a	n/a	112.912	AF18HAS.jpg
86.102	0.514	Blank	Blank	26.775	n/a	1	3	15	n/a	55	n/a	2	n/a	n/a	n/a	n/a	113.41	n/a
86.633	0.497	angry	Picture	26.261	n/a	1	3	16	n/a	56	47	2	n/a	n/a	n/a	n/a	113.94	BF11HAS.jpg
87.13	0.514	Blank	Blank	25.747	n/a	1	3	16	n/a	56	n/a	2	n/a	n/a	n/a	n/a	114.438	n/a
87.661	0.497	angry	Picture	25.233	n/a	1	3	17	n/a	57	77	2	n/a	n/a	n/a	n/a	114.968	BM25HAS.jpg
88.158	0.514	Blank	Blank	24.719	n/a	1	3	17	n/a	57	n/a	2	n/a	n/a	n/a	n/a	115.466	n/a
88.689	0.497	angry	Picture	24.205	n/a	1	3	18	n/a	58	57	2	n/a	n/a	n/a	n/a	115.996	BF28HAS.jpg
89.186	0.514	Blank	Blank	23.691	n/a	1	3	18	n/a	58	n/a	2	n/a	n/a	n/a	n/a	116.493	n/a
89.716	0.497	angry	Picture	23.177	n/a	1	3	19	n/a	59	61	2	n/a	n/a	n/a	n/a	117.024	AM01HAS.jpg
90.214	0.514	Blank	Blank	22.663	n/a	1	3	19	n/a	59	n/a	2	n/a	n/a	n/a	n/a	117.521	n/a
90.744	0.497	angry	Picture	22.149	n/a	1	3	20	n/a	60	79	2	n/a	n/a	n/a	n/a	118.052	BM28HAS.jpg
91.242	0.514	Blank	Blank	21.635	n/a	1	3	20	n/a	60	n/a	2	n/a	n/a	n/a	n/a	118.549	n/a
91.772	10.014	ITI	Fixation+	11.605	n/a	1	n/a	n/a	n/a	n/a	n/a	n/a	n/a	n/a	n/a	n/a	119.08	n/a
113.391	n/a	ConfirmRating	Rate	n/a	11.572	1	n/a	n/a	0	n/a	n/a	n/a	2	Angry	42	42	140.698	n/a
121.621	n/a	ConfirmRating	Rate	n/a	8.223	1	n/a	n/a	1	n/a	n/a	n/a	3	Angry	56	56	148.928	n/a
121.647	10.014	ITI	Fixation+	99.852	n/a	2	n/a	n/a	n/a	n/a	n/a	n/a	n/a	n/a	n/a	n/a	148.955	n/a
131.677	0.497	happy	Picture	99.338	n/a	2	4	1	n/a	61	119	3	n/a	n/a	n/a	n/a	158.985	BM28ANS.jpg
132.175	0.514	Blank	Blank	98.824	n/a	2	4	1	n/a	61	n/a	3	n/a	n/a	n/a	n/a	159.482	n/a
132.705	0.497	happy	Picture	98.31	n/a	2	4	2	n/a	62	100	3	n/a	n/a	n/a	n/a	160.013	AF32ANS.jpg
133.202	0.514	Blank	Blank	97.796	n/a	2	4	2	n/a	62	n/a	3	n/a	n/a	n/a	n/a	160.51	n/a
133.733	0.497	happy	Picture	97.282	n/a	2	4	3	n/a	63	118	3	n/a	n/a	n/a	n/a	161.041	BM26ANS.jpg
134.23	0.514	Blank	Blank	96.768	n/a	2	4	3	n/a	63	n/a	3	n/a	n/a	n/a	n/a	161.538	n/a
134.761	0.497	happy	Picture	96.254	n/a	2	4	4	n/a	64	89	3	n/a	n/a	n/a	n/a	162.069	AF17ANS.jpg
135.258	0.514	Blank	Blank	95.74	n/a	2	4	4	n/a	64	n/a	3	n/a	n/a	n/a	n/a	162.566	n/a
135.789	0.497	happy	Picture	95.227	n/a	2	4	5	n/a	65	116	3	n/a	n/a	n/a	n/a	163.096	BM24ANS.jpg
136.286	0.514	Blank	Blank	94.713	n/a	2	4	5	n/a	65	n/a	3	n/a	n/a	n/a	n/a	163.594	n/a
136.817	0.497	happy	Picture	94.199	n/a	2	4	6	n/a	66	105	3	n/a	n/a	n/a	n/a	164.124	BM06ANS.jpg
137.314	0.514	Blank	Blank	93.685	n/a	2	4	6	n/a	66	n/a	3	n/a	n/a	n/a	n/a	164.622	n/a
137.844	0.497	happy	Picture	93.171	n/a	2	4	7	n/a	67	106	3	n/a	n/a	n/a	n/a	165.152	AM07ANS.jpg
138.342	0.514	Blank	Blank	92.657	n/a	2	4	7	n/a	67	n/a	3	n/a	n/a	n/a	n/a	165.649	n/a
138.872	0.497	happy	Picture	92.143	n/a	2	4	8	n/a	68	94	3	n/a	n/a	n/a	n/a	166.18	AF23ANS.jpg
139.37	0.514	Blank	Blank	91.629	n/a	2	4	8	n/a	68	n/a	3	n/a	n/a	n/a	n/a	166.677	n/a
139.9	0.497	happy	Picture	91.115	n/a	2	4	9	n/a	69	117	3	n/a	n/a	n/a	n/a	167.208	BM25ANS.jpg
140.398	0.514	Blank	Blank	90.601	n/a	2	4	9	n/a	69	n/a	3	n/a	n/a	n/a	n/a	167.705	n/a
140.928	0.497	happy	Picture	90.087	n/a	2	4	10	n/a	70	90	3	n/a	n/a	n/a	n/a	168.236	AF18ANS.jpg
141.425	0.514	Blank	Blank	89.573	n/a	2	4	10	n/a	70	n/a	3	n/a	n/a	n/a	n/a	168.733	n/a
141.956	0.497	happy	Picture	89.059	n/a	2	4	11	n/a	71	83	3	n/a	n/a	n/a	n/a	169.264	BF04ANS.jpg
142.453	0.514	Blank	Blank	88.545	n/a	2	4	11	n/a	71	n/a	3	n/a	n/a	n/a	n/a	169.761	n/a
142.984	0.497	happy	Picture	88.031	n/a	2	4	12	n/a	72	112	3	n/a	n/a	n/a	n/a	170.292	AM14ANS.jpg
143.481	0.514	Blank	Blank	87.517	n/a	2	4	12	n/a	72	n/a	3	n/a	n/a	n/a	n/a	170.789	n/a
144.012	0.497	happy	Picture	87.003	n/a	2	4	13	n/a	73	102	3	n/a	n/a	n/a	n/a	171.319	BM03ANS.jpg
144.509	0.514	Blank	Blank	86.49	n/a	2	4	13	n/a	73	n/a	3	n/a	n/a	n/a	n/a	171.817	n/a
145.04	0.497	happy	Picture	85.976	n/a	2	4	14	n/a	74	95	3	n/a	n/a	n/a	n/a	172.347	AF25ANS.jpg
145.537	0.514	Blank	Blank	85.462	n/a	2	4	14	n/a	74	n/a	3	n/a	n/a	n/a	n/a	172.845	n/a
146.068	0.497	happy	Picture	84.948	n/a	2	4	15	n/a	75	113	3	n/a	n/a	n/a	n/a	173.375	AM21ANS.jpg
146.565	0.514	Blank	Blank	84.434	n/a	2	4	15	n/a	75	n/a	3	n/a	n/a	n/a	n/a	173.873	n/a
147.095	0.497	happy	Picture	83.92	n/a	2	4	16	n/a	76	88	3	n/a	n/a	n/a	n/a	174.403	AF14ANS.jpg
147.593	0.514	Blank	Blank	83.406	n/a	2	4	16	n/a	76	n/a	3	n/a	n/a	n/a	n/a	174.9	n/a
148.123	0.497	happy	Picture	82.892	n/a	2	4	17	n/a	77	93	3	n/a	n/a	n/a	n/a	175.431	BF22ANS.jpg
148.621	0.514	Blank	Blank	82.378	n/a	2	4	17	n/a	77	n/a	3	n/a	n/a	n/a	n/a	175.928	n/a
149.151	0.497	happy	Picture	81.864	n/a	2	4	18	n/a	78	86	3	n/a	n/a	n/a	n/a	176.459	AF09ANS.jpg
149.649	0.514	Blank	Blank	81.35	n/a	2	4	18	n/a	78	n/a	3	n/a	n/a	n/a	n/a	176.956	n/a
150.179	0.497	happy	Picture	80.836	n/a	2	4	19	n/a	79	92	3	n/a	n/a	n/a	n/a	177.487	AF21ANS.jpg
150.676	0.514	Blank	Blank	80.322	n/a	2	4	19	n/a	79	n/a	3	n/a	n/a	n/a	n/a	177.984	n/a
151.207	0.497	happy	Picture	79.808	n/a	2	4	20	n/a	80	84	3	n/a	n/a	n/a	n/a	178.515	AF05ANS.jpg
151.704	0.514	Blank	Blank	79.294	n/a	2	4	20	n/a	80	n/a	3	n/a	n/a	n/a	n/a	179.012	n/a
152.235	10.014	ITI	Fixation+	69.264	n/a	2	n/a	n/a	n/a	n/a	n/a	n/a	n/a	n/a	n/a	n/a	179.542	n/a
162.265	0.497	neutral	Picture	68.75	n/a	2	5	1	n/a	81	4	1	n/a	n/a	n/a	n/a	189.573	AF05NES.jpg
162.762	0.514	Blank	Blank	68.236	n/a	2	5	1	n/a	81	n/a	1	n/a	n/a	n/a	n/a	190.07	n/a
163.293	0.497	neutral	Picture	67.722	n/a	2	5	2	n/a	82	14	1	n/a	n/a	n/a	n/a	190.601	AF23NES.jpg
163.79	0.514	Blank	Blank	67.208	n/a	2	5	2	n/a	82	n/a	1	n/a	n/a	n/a	n/a	191.098	n/a
164.321	0.497	neutral	Picture	66.695	n/a	2	5	3	n/a	83	19	1	n/a	n/a	n/a	n/a	191.628	AF31NES.jpg
164.818	0.514	Blank	Blank	66.181	n/a	2	5	3	n/a	83	n/a	1	n/a	n/a	n/a	n/a	192.126	n/a
165.349	0.497	neutral	Picture	65.667	n/a	2	5	4	n/a	84	8	1	n/a	n/a	n/a	n/a	192.656	AF14NES.jpg
165.846	0.514	Blank	Blank	65.153	n/a	2	5	4	n/a	84	n/a	1	n/a	n/a	n/a	n/a	193.154	n/a
166.376	0.497	neutral	Picture	64.639	n/a	2	5	5	n/a	85	25	1	n/a	n/a	n/a	n/a	193.684	BM06NES.jpg
166.874	0.514	Blank	Blank	64.125	n/a	2	5	5	n/a	85	n/a	1	n/a	n/a	n/a	n/a	194.181	n/a
167.404	0.497	neutral	Picture	63.611	n/a	2	5	6	n/a	86	9	1	n/a	n/a	n/a	n/a	194.712	AF17NES.jpg
167.902	0.514	Blank	Blank	63.097	n/a	2	5	6	n/a	86	n/a	1	n/a	n/a	n/a	n/a	195.209	n/a
168.432	0.497	neutral	Picture	62.583	n/a	2	5	7	n/a	87	2	1	n/a	n/a	n/a	n/a	195.74	AF03NES.jpg
168.93	0.514	Blank	Blank	62.069	n/a	2	5	7	n/a	87	n/a	1	n/a	n/a	n/a	n/a	196.237	n/a
169.46	0.497	neutral	Picture	61.555	n/a	2	5	8	n/a	88	17	1	n/a	n/a	n/a	n/a	196.768	BF28NES.jpg
169.957	0.514	Blank	Blank	61.041	n/a	2	5	8	n/a	88	n/a	1	n/a	n/a	n/a	n/a	197.265	n/a
170.488	0.497	neutral	Picture	60.527	n/a	2	5	9	n/a	89	6	1	n/a	n/a	n/a	n/a	197.796	AF09NES.jpg
170.985	0.514	Blank	Blank	60.013	n/a	2	5	9	n/a	89	n/a	1	n/a	n/a	n/a	n/a	198.293	n/a
171.516	0.497	neutral	Picture	59.499	n/a	2	5	10	n/a	90	12	1	n/a	n/a	n/a	n/a	198.823	AF21NES.jpg
172.013	0.514	Blank	Blank	58.985	n/a	2	5	10	n/a	90	n/a	1	n/a	n/a	n/a	n/a	199.321	n/a
172.544	0.497	neutral	Picture	58.471	n/a	2	5	11	n/a	91	24	1	n/a	n/a	n/a	n/a	199.851	BM05NES.jpg
173.041	0.514	Blank	Blank	57.958	n/a	2	5	11	n/a	91	n/a	1	n/a	n/a	n/a	n/a	200.349	n/a
173.572	0.497	neutral	Picture	57.444	n/a	2	5	12	n/a	92	34	1	n/a	n/a	n/a	n/a	200.879	AM22NES.jpg
174.069	0.514	Blank	Blank	56.93	n/a	2	5	12	n/a	92	n/a	1	n/a	n/a	n/a	n/a	201.377	n/a
174.6	0.497	neutral	Picture	56.416	n/a	2	5	13	n/a	93	23	1	n/a	n/a	n/a	n/a	201.907	AM04NES.jpg
175.097	0.514	Blank	Blank	55.902	n/a	2	5	13	n/a	93	n/a	1	n/a	n/a	n/a	n/a	202.405	n/a
175.627	0.497	neutral	Picture	55.388	n/a	2	5	14	n/a	94	15	1	n/a	n/a	n/a	n/a	202.935	AF25NES.jpg
176.125	0.514	Blank	Blank	54.874	n/a	2	5	14	n/a	94	n/a	1	n/a	n/a	n/a	n/a	203.432	n/a
176.655	0.497	neutral	Picture	54.36	n/a	2	5	15	n/a	95	37	1	n/a	n/a	n/a	n/a	203.963	BM25NES.jpg
177.153	0.514	Blank	Blank	53.846	n/a	2	5	15	n/a	95	n/a	1	n/a	n/a	n/a	n/a	204.46	n/a
177.683	0.497	neutral	Picture	53.332	n/a	2	5	16	n/a	96	32	1	n/a	n/a	n/a	n/a	204.991	AM14NES.jpg
178.181	0.514	Blank	Blank	52.818	n/a	2	5	16	n/a	96	n/a	1	n/a	n/a	n/a	n/a	205.488	n/a
178.711	0.497	neutral	Picture	52.304	n/a	2	5	17	n/a	97	3	1	n/a	n/a	n/a	n/a	206.019	BF04NES.jpg
179.208	0.514	Blank	Blank	51.79	n/a	2	5	17	n/a	97	n/a	1	n/a	n/a	n/a	n/a	206.516	n/a
179.739	0.497	neutral	Picture	51.276	n/a	2	5	18	n/a	98	16	1	n/a	n/a	n/a	n/a	207.047	AF26NES.jpg
180.236	0.514	Blank	Blank	50.762	n/a	2	5	18	n/a	98	n/a	1	n/a	n/a	n/a	n/a	207.544	n/a
180.767	0.497	neutral	Picture	50.248	n/a	2	5	19	n/a	99	27	1	n/a	n/a	n/a	n/a	208.075	BM08NES.jpg
181.264	0.514	Blank	Blank	49.734	n/a	2	5	19	n/a	99	n/a	1	n/a	n/a	n/a	n/a	208.572	n/a
181.795	0.497	neutral	Picture	49.221	n/a	2	5	20	n/a	100	28	1	n/a	n/a	n/a	n/a	209.102	AM09NES.jpg
182.292	0.514	Blank	Blank	48.707	n/a	2	5	20	n/a	100	n/a	1	n/a	n/a	n/a	n/a	209.6	n/a
182.823	10.014	ITI	Fixation+	38.676	n/a	2	n/a	n/a	n/a	n/a	n/a	n/a	n/a	n/a	n/a	n/a	210.13	n/a
192.853	0.497	happy	Picture	38.163	n/a	2	6	1	n/a	101	81	3	n/a	n/a	n/a	n/a	220.16	AF01ANS.jpg
193.35	0.514	Blank	Blank	37.649	n/a	2	6	1	n/a	101	n/a	3	n/a	n/a	n/a	n/a	220.658	n/a
193.881	0.497	happy	Picture	37.135	n/a	2	6	2	n/a	102	120	3	n/a	n/a	n/a	n/a	221.188	AM35ANS.jpg
194.378	0.514	Blank	Blank	36.621	n/a	2	6	2	n/a	102	n/a	3	n/a	n/a	n/a	n/a	221.686	n/a
194.909	0.497	happy	Picture	36.107	n/a	2	6	3	n/a	103	114	3	n/a	n/a	n/a	n/a	222.216	AM22ANS.jpg
195.406	0.514	Blank	Blank	35.593	n/a	2	6	3	n/a	103	n/a	3	n/a	n/a	n/a	n/a	222.714	n/a
195.936	0.497	happy	Picture	35.079	n/a	2	6	4	n/a	104	109	3	n/a	n/a	n/a	n/a	223.244	AM10ANS.jpg
196.434	0.514	Blank	Blank	34.565	n/a	2	6	4	n/a	104	n/a	3	n/a	n/a	n/a	n/a	223.741	n/a
196.964	0.497	happy	Picture	34.051	n/a	2	6	5	n/a	105	96	3	n/a	n/a	n/a	n/a	224.272	AF26ANS.jpg
197.462	0.514	Blank	Blank	33.537	n/a	2	6	5	n/a	105	n/a	3	n/a	n/a	n/a	n/a	224.769	n/a
197.992	0.497	happy	Picture	33.023	n/a	2	6	6	n/a	106	82	3	n/a	n/a	n/a	n/a	225.3	AF03ANS.jpg
198.489	0.514	Blank	Blank	32.509	n/a	2	6	6	n/a	106	n/a	3	n/a	n/a	n/a	n/a	225.797	n/a
199.02	0.497	happy	Picture	31.995	n/a	2	6	7	n/a	107	97	3	n/a	n/a	n/a	n/a	226.328	BF28ANS.jpg
199.517	0.514	Blank	Blank	31.481	n/a	2	6	7	n/a	107	n/a	3	n/a	n/a	n/a	n/a	226.825	n/a
200.048	0.497	happy	Picture	30.967	n/a	2	6	8	n/a	108	115	3	n/a	n/a	n/a	n/a	227.356	AM23ANS.jpg
200.545	0.514	Blank	Blank	30.453	n/a	2	6	8	n/a	108	n/a	3	n/a	n/a	n/a	n/a	227.853	n/a
201.076	0.497	happy	Picture	29.939	n/a	2	6	9	n/a	109	91	3	n/a	n/a	n/a	n/a	228.383	AF20ANS.jpg
201.573	0.514	Blank	Blank	29.426	n/a	2	6	9	n/a	109	n/a	3	n/a	n/a	n/a	n/a	228.881	n/a
202.104	0.497	happy	Picture	28.912	n/a	2	6	10	n/a	110	87	3	n/a	n/a	n/a	n/a	229.411	BF11ANS.jpg
202.601	0.514	Blank	Blank	28.398	n/a	2	6	10	n/a	110	n/a	3	n/a	n/a	n/a	n/a	229.909	n/a
203.132	0.497	happy	Picture	27.884	n/a	2	6	11	n/a	111	85	3	n/a	n/a	n/a	n/a	230.439	BF07ANS.jpg
203.629	0.514	Blank	Blank	27.37	n/a	2	6	11	n/a	111	n/a	3	n/a	n/a	n/a	n/a	230.937	n/a
204.159	0.497	happy	Picture	26.856	n/a	2	6	12	n/a	112	110	3	n/a	n/a	n/a	n/a	231.467	AM11ANS.jpg
204.657	0.514	Blank	Blank	26.342	n/a	2	6	12	n/a	112	n/a	3	n/a	n/a	n/a	n/a	231.964	n/a
205.187	0.497	happy	Picture	25.828	n/a	2	6	13	n/a	113	111	3	n/a	n/a	n/a	n/a	232.495	BM12ANS.jpg
205.685	0.514	Blank	Blank	25.314	n/a	2	6	13	n/a	113	n/a	3	n/a	n/a	n/a	n/a	232.992	n/a
206.215	0.497	happy	Picture	24.8	n/a	2	6	14	n/a	114	103	3	n/a	n/a	n/a	n/a	233.523	AM04ANS.jpg
206.713	0.514	Blank	Blank	24.286	n/a	2	6	14	n/a	114	n/a	3	n/a	n/a	n/a	n/a	234.02	n/a
207.243	0.497	happy	Picture	23.772	n/a	2	6	15	n/a	115	101	3	n/a	n/a	n/a	n/a	234.551	AM01ANS.jpg
207.74	0.514	Blank	Blank	23.258	n/a	2	6	15	n/a	115	n/a	3	n/a	n/a	n/a	n/a	235.048	n/a
208.271	0.497	happy	Picture	22.744	n/a	2	6	16	n/a	116	104	3	n/a	n/a	n/a	n/a	235.579	BM05ANS.jpg
208.768	0.514	Blank	Blank	22.23	n/a	2	6	16	n/a	116	n/a	3	n/a	n/a	n/a	n/a	236.076	n/a
209.299	0.497	happy	Picture	21.716	n/a	2	6	17	n/a	117	107	3	n/a	n/a	n/a	n/a	236.607	BM08ANS.jpg
209.796	0.514	Blank	Blank	21.202	n/a	2	6	17	n/a	117	n/a	3	n/a	n/a	n/a	n/a	237.104	n/a
210.327	0.497	happy	Picture	20.689	n/a	2	6	18	n/a	118	98	3	n/a	n/a	n/a	n/a	237.634	BF29ANS.jpg
210.824	0.514	Blank	Blank	20.175	n/a	2	6	18	n/a	118	n/a	3	n/a	n/a	n/a	n/a	238.132	n/a
211.355	0.497	happy	Picture	19.661	n/a	2	6	19	n/a	119	99	3	n/a	n/a	n/a	n/a	238.662	AF31ANS.jpg
211.852	0.514	Blank	Blank	19.147	n/a	2	6	19	n/a	119	n/a	3	n/a	n/a	n/a	n/a	239.16	n/a
212.382	0.497	happy	Picture	18.633	n/a	2	6	20	n/a	120	108	3	n/a	n/a	n/a	n/a	239.69	AM09ANS.jpg
212.88	0.514	Blank	Blank	18.119	n/a	2	6	20	n/a	120	n/a	3	n/a	n/a	n/a	n/a	240.188	n/a
213.41	10.014	ITI	Fixation+	8.089	n/a	2	n/a	n/a	n/a	n/a	n/a	n/a	n/a	n/a	n/a	n/a	240.718	n/a
231.513	n/a	ConfirmRating	Rate	n/a	8.074	2	n/a	n/a	0	n/a	n/a	n/a	2	Happy	64	64	258.82	n/a
240.297	n/a	ConfirmRating	Rate	n/a	8.77	2	n/a	n/a	1	n/a	n/a	n/a	3	Happy	32	32	267.605	n/a
240.318	15.004	Rest	Picture	n/a	n/a	n/a	n/a	n/a	n/a	n/a	n/a	n/a	0	n/a	0	0	267.625	n/a
255.338	10.014	ITI	Fixation+	97.775	n/a	3	n/a	n/a	n/a	n/a	n/a	n/a	n/a	n/a	n/a	n/a	282.646	n/a
265.368	0.497	angry	Picture	97.261	n/a	3	7	1	n/a	1	46	2	n/a	n/a	n/a	n/a	292.676	AF09HAS.jpg
265.866	0.514	Blank	Blank	96.747	n/a	3	7	1	n/a	1	n/a	2	n/a	n/a	n/a	n/a	293.173	n/a
266.396	0.497	angry	Picture	96.233	n/a	3	7	2	n/a	2	69	2	n/a	n/a	n/a	n/a	293.704	AM10HAS.jpg
266.893	0.514	Blank	Blank	95.719	n/a	3	7	2	n/a	2	n/a	2	n/a	n/a	n/a	n/a	294.201	n/a
267.424	0.497	angry	Picture	95.205	n/a	3	7	3	n/a	3	71	2	n/a	n/a	n/a	n/a	294.732	BM12HAS.jpg
267.921	0.514	Blank	Blank	94.691	n/a	3	7	3	n/a	3	n/a	2	n/a	n/a	n/a	n/a	295.229	n/a
268.452	0.497	angry	Picture	94.177	n/a	3	7	4	n/a	4	51	2	n/a	n/a	n/a	n/a	295.759	AF20HAS.jpg
268.949	0.514	Blank	Blank	93.663	n/a	3	7	4	n/a	4	n/a	2	n/a	n/a	n/a	n/a	296.257	n/a
269.48	0.497	angry	Picture	93.149	n/a	3	7	5	n/a	5	67	2	n/a	n/a	n/a	n/a	296.787	BM08HAS.jpg
269.977	0.514	Blank	Blank	92.635	n/a	3	7	5	n/a	5	n/a	2	n/a	n/a	n/a	n/a	297.285	n/a
270.508	0.497	angry	Picture	92.121	n/a	3	7	6	n/a	6	60	2	n/a	n/a	n/a	n/a	297.815	AF32HAS.jpg
271.005	0.514	Blank	Blank	91.607	n/a	3	7	6	n/a	6	n/a	2	n/a	n/a	n/a	n/a	298.313	n/a
271.536	0.497	angry	Picture	91.093	n/a	3	7	7	n/a	7	42	2	n/a	n/a	n/a	n/a	298.843	AF03HAS.jpg
272.033	0.514	Blank	Blank	90.579	n/a	3	7	7	n/a	7	n/a	2	n/a	n/a	n/a	n/a	299.34	n/a
272.563	0.497	angry	Picture	90.066	n/a	3	7	8	n/a	8	55	2	n/a	n/a	n/a	n/a	299.871	AF25HAS.jpg
273.061	0.514	Blank	Blank	89.552	n/a	3	7	8	n/a	8	n/a	2	n/a	n/a	n/a	n/a	300.368	n/a
273.591	0.497	angry	Picture	89.038	n/a	3	7	9	n/a	9	72	2	n/a	n/a	n/a	n/a	300.899	AM14HAS.jpg
274.089	0.514	Blank	Blank	88.524	n/a	3	7	9	n/a	9	n/a	2	n/a	n/a	n/a	n/a	301.396	n/a
274.619	0.497	angry	Picture	88.01	n/a	3	7	10	n/a	10	63	2	n/a	n/a	n/a	n/a	301.927	AM04HAS.jpg
275.117	0.514	Blank	Blank	87.496	n/a	3	7	10	n/a	10	n/a	2	n/a	n/a	n/a	n/a	302.424	n/a
275.647	0.497	angry	Picture	86.982	n/a	3	7	11	n/a	11	58	2	n/a	n/a	n/a	n/a	302.955	BF29HAS.jpg
276.144	0.514	Blank	Blank	86.468	n/a	3	7	11	n/a	11	n/a	2	n/a	n/a	n/a	n/a	303.452	n/a
276.675	0.497	angry	Picture	85.954	n/a	3	7	12	n/a	12	48	2	n/a	n/a	n/a	n/a	303.983	AF14HAS.jpg
277.172	0.514	Blank	Blank	85.44	n/a	3	7	12	n/a	12	n/a	2	n/a	n/a	n/a	n/a	304.48	n/a
277.703	0.497	angry	Picture	84.926	n/a	3	7	13	n/a	13	66	2	n/a	n/a	n/a	n/a	305.01	BM07HAS.jpg
278.2	0.514	Blank	Blank	84.412	n/a	3	7	13	n/a	13	n/a	2	n/a	n/a	n/a	n/a	305.508	n/a
278.731	0.497	angry	Picture	83.898	n/a	3	7	14	n/a	14	70	2	n/a	n/a	n/a	n/a	306.038	BM11HAS.jpg
279.228	0.514	Blank	Blank	83.384	n/a	3	7	14	n/a	14	n/a	2	n/a	n/a	n/a	n/a	306.536	n/a
279.759	0.497	angry	Picture	82.87	n/a	3	7	15	n/a	15	43	2	n/a	n/a	n/a	n/a	307.066	BF04HAS.jpg
280.256	0.514	Blank	Blank	82.356	n/a	3	7	15	n/a	15	n/a	2	n/a	n/a	n/a	n/a	307.563	n/a
280.786	0.497	angry	Picture	81.842	n/a	3	7	16	n/a	16	49	2	n/a	n/a	n/a	n/a	308.094	AF17HAS.jpg
281.284	0.514	Blank	Blank	81.329	n/a	3	7	16	n/a	16	n/a	2	n/a	n/a	n/a	n/a	308.591	n/a
281.814	0.497	angry	Picture	80.815	n/a	3	7	17	n/a	17	75	2	n/a	n/a	n/a	n/a	309.122	AM23HAS.jpg
282.312	0.514	Blank	Blank	80.301	n/a	3	7	17	n/a	17	n/a	2	n/a	n/a	n/a	n/a	309.619	n/a
282.842	0.497	angry	Picture	79.787	n/a	3	7	18	n/a	18	80	2	n/a	n/a	n/a	n/a	310.15	BM35HAS.jpg
283.34	0.514	Blank	Blank	79.273	n/a	3	7	18	n/a	18	n/a	2	n/a	n/a	n/a	n/a	310.647	n/a
283.87	0.497	angry	Picture	78.759	n/a	3	7	19	n/a	19	76	2	n/a	n/a	n/a	n/a	311.178	BM24HAS.jpg
284.367	0.514	Blank	Blank	78.245	n/a	3	7	19	n/a	19	n/a	2	n/a	n/a	n/a	n/a	311.675	n/a
284.898	0.497	angry	Picture	77.731	n/a	3	7	20	n/a	20	74	2	n/a	n/a	n/a	n/a	312.206	AM22HAS.jpg
285.395	0.514	Blank	Blank	77.217	n/a	3	7	20	n/a	20	n/a	2	n/a	n/a	n/a	n/a	312.703	n/a
285.926	10.014	ITI	Fixation+	67.187	n/a	3	n/a	n/a	n/a	n/a	n/a	n/a	n/a	n/a	n/a	n/a	313.233	n/a
295.956	0.497	neutral	Picture	66.673	n/a	3	8	1	n/a	21	33	1	n/a	n/a	n/a	n/a	323.264	AM21NES.jpg
296.453	0.514	Blank	Blank	66.159	n/a	3	8	1	n/a	21	n/a	1	n/a	n/a	n/a	n/a	323.761	n/a
296.984	0.497	neutral	Picture	65.645	n/a	3	8	2	n/a	22	39	1	n/a	n/a	n/a	n/a	324.291	AM28NES.jpg
297.481	0.514	Blank	Blank	65.131	n/a	3	8	2	n/a	22	n/a	1	n/a	n/a	n/a	n/a	324.789	n/a
298.012	0.497	neutral	Picture	64.617	n/a	3	8	3	n/a	23	25	1	n/a	n/a	n/a	n/a	325.319	BM06NES.jpg
298.509	0.514	Blank	Blank	64.103	n/a	3	8	3	n/a	23	n/a	1	n/a	n/a	n/a	n/a	325.817	n/a
299.04	0.497	neutral	Picture	63.589	n/a	3	8	4	n/a	24	5	1	n/a	n/a	n/a	n/a	326.347	BF07NES.jpg
299.537	0.514	Blank	Blank	63.075	n/a	3	8	4	n/a	24	n/a	1	n/a	n/a	n/a	n/a	326.845	n/a
300.067	0.497	neutral	Picture	62.561	n/a	3	8	5	n/a	25	10	1	n/a	n/a	n/a	n/a	327.375	AF18NES.jpg
300.565	0.514	Blank	Blank	62.047	n/a	3	8	5	n/a	25	n/a	1	n/a	n/a	n/a	n/a	327.873	n/a
301.095	0.497	neutral	Picture	61.534	n/a	3	8	6	n/a	26	34	1	n/a	n/a	n/a	n/a	328.403	AM22NES.jpg
301.593	0.514	Blank	Blank	61.019	n/a	3	8	6	n/a	26	n/a	1	n/a	n/a	n/a	n/a	328.9	n/a
302.123	0.497	neutral	Picture	60.506	n/a	3	8	7	n/a	27	36	1	n/a	n/a	n/a	n/a	329.431	BM24NES.jpg
302.621	0.514	Blank	Blank	59.992	n/a	3	8	7	n/a	27	n/a	1	n/a	n/a	n/a	n/a	329.928	n/a
303.151	0.497	neutral	Picture	59.478	n/a	3	8	8	n/a	28	14	1	n/a	n/a	n/a	n/a	330.459	AF23NES.jpg
303.649	0.514	Blank	Blank	58.964	n/a	3	8	8	n/a	28	n/a	1	n/a	n/a	n/a	n/a	330.956	n/a
304.179	0.497	neutral	Picture	58.45	n/a	3	8	9	n/a	29	9	1	n/a	n/a	n/a	n/a	331.487	AF17NES.jpg
304.676	0.514	Blank	Blank	57.936	n/a	3	8	9	n/a	29	n/a	1	n/a	n/a	n/a	n/a	331.984	n/a
305.207	0.497	neutral	Picture	57.422	n/a	3	8	10	n/a	30	19	1	n/a	n/a	n/a	n/a	332.514	AF31NES.jpg
305.704	0.514	Blank	Blank	56.908	n/a	3	8	10	n/a	30	n/a	1	n/a	n/a	n/a	n/a	333.012	n/a
306.235	0.497	neutral	Picture	56.394	n/a	3	8	11	n/a	31	15	1	n/a	n/a	n/a	n/a	333.542	AF25NES.jpg
306.732	0.514	Blank	Blank	55.88	n/a	3	8	11	n/a	31	n/a	1	n/a	n/a	n/a	n/a	334.04	n/a
307.263	0.497	neutral	Picture	55.366	n/a	3	8	12	n/a	32	22	1	n/a	n/a	n/a	n/a	334.57	BM03NES.jpg
307.76	0.514	Blank	Blank	54.852	n/a	3	8	12	n/a	32	n/a	1	n/a	n/a	n/a	n/a	335.068	n/a
308.291	0.497	neutral	Picture	54.338	n/a	3	8	13	n/a	33	11	1	n/a	n/a	n/a	n/a	335.598	AF20NES.jpg
308.788	0.514	Blank	Blank	53.824	n/a	3	8	13	n/a	33	n/a	1	n/a	n/a	n/a	n/a	336.096	n/a
309.318	0.497	neutral	Picture	53.31	n/a	3	8	14	n/a	34	4	1	n/a	n/a	n/a	n/a	336.626	AF05NES.jpg
309.816	0.514	Blank	Blank	52.797	n/a	3	8	14	n/a	34	n/a	1	n/a	n/a	n/a	n/a	337.123	n/a
310.346	0.497	neutral	Picture	52.282	n/a	3	8	15	n/a	35	17	1	n/a	n/a	n/a	n/a	337.654	BF28NES.jpg
310.844	0.514	Blank	Blank	51.769	n/a	3	8	15	n/a	35	n/a	1	n/a	n/a	n/a	n/a	338.151	n/a
311.374	0.497	neutral	Picture	51.255	n/a	3	8	16	n/a	36	13	1	n/a	n/a	n/a	n/a	338.682	BF22NES.jpg
311.872	0.514	Blank	Blank	50.741	n/a	3	8	16	n/a	36	n/a	1	n/a	n/a	n/a	n/a	339.179	n/a
312.402	0.497	neutral	Picture	50.227	n/a	3	8	17	n/a	37	12	1	n/a	n/a	n/a	n/a	339.71	AF21NES.jpg
312.899	0.514	Blank	Blank	49.713	n/a	3	8	17	n/a	37	n/a	1	n/a	n/a	n/a	n/a	340.207	n/a
313.43	0.497	neutral	Picture	49.199	n/a	3	8	18	n/a	38	24	1	n/a	n/a	n/a	n/a	340.738	BM05NES.jpg
313.927	0.514	Blank	Blank	48.685	n/a	3	8	18	n/a	38	n/a	1	n/a	n/a	n/a	n/a	341.235	n/a
314.458	0.497	neutral	Picture	48.171	n/a	3	8	19	n/a	39	29	1	n/a	n/a	n/a	n/a	341.765	AM10NES.jpg
314.955	0.514	Blank	Blank	47.657	n/a	3	8	19	n/a	39	n/a	1	n/a	n/a	n/a	n/a	342.263	n/a
315.486	0.497	neutral	Picture	47.143	n/a	3	8	20	n/a	40	23	1	n/a	n/a	n/a	n/a	342.793	AM04NES.jpg
315.983	0.514	Blank	Blank	46.629	n/a	3	8	20	n/a	40	n/a	1	n/a	n/a	n/a	n/a	343.291	n/a
316.514	10.014	ITI	Fixation+	36.599	n/a	3	n/a	n/a	n/a	n/a	n/a	n/a	n/a	n/a	n/a	n/a	343.821	n/a
326.544	0.497	angry	Picture	36.085	n/a	3	9	1	n/a	41	62	2	n/a	n/a	n/a	n/a	353.851	BM03HAS.jpg
327.041	0.514	Blank	Blank	35.571	n/a	3	9	1	n/a	41	n/a	2	n/a	n/a	n/a	n/a	354.349	n/a
327.572	0.497	angry	Picture	35.057	n/a	3	9	2	n/a	42	52	2	n/a	n/a	n/a	n/a	354.879	AF21HAS.jpg
328.069	0.514	Blank	Blank	34.543	n/a	3	9	2	n/a	42	n/a	2	n/a	n/a	n/a	n/a	355.377	n/a
328.6	0.497	angry	Picture	34.029	n/a	3	9	3	n/a	43	44	2	n/a	n/a	n/a	n/a	355.907	AF05HAS.jpg
329.097	0.514	Blank	Blank	33.515	n/a	3	9	3	n/a	43	n/a	2	n/a	n/a	n/a	n/a	356.404	n/a
329.627	0.497	angry	Picture	33.001	n/a	3	9	4	n/a	44	53	2	n/a	n/a	n/a	n/a	356.935	BF22HAS.jpg
330.125	0.514	Blank	Blank	32.488	n/a	3	9	4	n/a	44	n/a	2	n/a	n/a	n/a	n/a	357.432	n/a
330.655	0.497	angry	Picture	31.974	n/a	3	9	5	n/a	45	54	2	n/a	n/a	n/a	n/a	357.963	AF23HAS.jpg
331.153	0.514	Blank	Blank	31.46	n/a	3	9	5	n/a	45	n/a	2	n/a	n/a	n/a	n/a	358.46	n/a
331.683	0.497	angry	Picture	30.946	n/a	3	9	6	n/a	46	68	2	n/a	n/a	n/a	n/a	358.991	AM09HAS.jpg
332.18	0.514	Blank	Blank	30.432	n/a	3	9	6	n/a	46	n/a	2	n/a	n/a	n/a	n/a	359.488	n/a
332.711	0.497	angry	Picture	29.918	n/a	3	9	7	n/a	47	64	2	n/a	n/a	n/a	n/a	360.019	BM05HAS.jpg
333.208	0.514	Blank	Blank	29.404	n/a	3	9	7	n/a	47	n/a	2	n/a	n/a	n/a	n/a	360.516	n/a
333.739	0.497	angry	Picture	28.89	n/a	3	9	8	n/a	48	59	2	n/a	n/a	n/a	n/a	361.046	AF31HAS.jpg
334.236	0.514	Blank	Blank	28.376	n/a	3	9	8	n/a	48	n/a	2	n/a	n/a	n/a	n/a	361.544	n/a
334.767	0.497	angry	Picture	27.862	n/a	3	9	9	n/a	49	41	2	n/a	n/a	n/a	n/a	362.074	AF01HAS.jpg
335.264	0.514	Blank	Blank	27.348	n/a	3	9	9	n/a	49	n/a	2	n/a	n/a	n/a	n/a	362.572	n/a
335.795	0.497	angry	Picture	26.834	n/a	3	9	10	n/a	50	73	2	n/a	n/a	n/a	n/a	363.102	AM21HAS.jpg
336.292	0.514	Blank	Blank	26.32	n/a	3	9	10	n/a	50	n/a	2	n/a	n/a	n/a	n/a	363.6	n/a
336.823	0.497	angry	Picture	25.806	n/a	3	9	11	n/a	51	65	2	n/a	n/a	n/a	n/a	364.13	BM06HAS.jpg
337.32	0.514	Blank	Blank	25.292	n/a	3	9	11	n/a	51	n/a	2	n/a	n/a	n/a	n/a	364.627	n/a
337.851	0.497	angry	Picture	24.778	n/a	3	9	12	n/a	52	56	2	n/a	n/a	n/a	n/a	365.158	AF26HAS.jpg
338.348	0.514	Blank	Blank	24.264	n/a	3	9	12	n/a	52	n/a	2	n/a	n/a	n/a	n/a	365.655	n/a
338.878	0.497	angry	Picture	23.75	n/a	3	9	13	n/a	53	45	2	n/a	n/a	n/a	n/a	366.186	BF07HAS.jpg
339.376	0.514	Blank	Blank	23.237	n/a	3	9	13	n/a	53	n/a	2	n/a	n/a	n/a	n/a	366.683	n/a
339.906	0.497	angry	Picture	22.723	n/a	3	9	14	n/a	54	78	2	n/a	n/a	n/a	n/a	367.214	BM26HAS.jpg
340.404	0.514	Blank	Blank	22.209	n/a	3	9	14	n/a	54	n/a	2	n/a	n/a	n/a	n/a	367.711	n/a
340.934	0.497	angry	Picture	21.695	n/a	3	9	15	n/a	55	50	2	n/a	n/a	n/a	n/a	368.242	AF18HAS.jpg
341.432	0.514	Blank	Blank	21.181	n/a	3	9	15	n/a	55	n/a	2	n/a	n/a	n/a	n/a	368.739	n/a
341.962	0.497	angry	Picture	20.667	n/a	3	9	16	n/a	56	47	2	n/a	n/a	n/a	n/a	369.27	BF11HAS.jpg
342.459	0.514	Blank	Blank	20.153	n/a	3	9	16	n/a	56	n/a	2	n/a	n/a	n/a	n/a	369.767	n/a
342.99	0.497	angry	Picture	19.639	n/a	3	9	17	n/a	57	77	2	n/a	n/a	n/a	n/a	370.298	BM25HAS.jpg
343.487	0.514	Blank	Blank	19.125	n/a	3	9	17	n/a	57	n/a	2	n/a	n/a	n/a	n/a	370.795	n/a
344.018	0.497	angry	Picture	18.611	n/a	3	9	18	n/a	58	57	2	n/a	n/a	n/a	n/a	371.325	BF28HAS.jpg
344.515	0.514	Blank	Blank	18.097	n/a	3	9	18	n/a	58	n/a	2	n/a	n/a	n/a	n/a	371.823	n/a
345.046	0.497	angry	Picture	17.583	n/a	3	9	19	n/a	59	61	2	n/a	n/a	n/a	n/a	372.353	AM01HAS.jpg
345.543	0.514	Blank	Blank	17.069	n/a	3	9	19	n/a	59	n/a	2	n/a	n/a	n/a	n/a	372.851	n/a
346.074	0.497	angry	Picture	16.555	n/a	3	9	20	n/a	60	79	2	n/a	n/a	n/a	n/a	373.381	BM28HAS.jpg
346.571	0.514	Blank	Blank	16.041	n/a	3	9	20	n/a	60	n/a	2	n/a	n/a	n/a	n/a	373.878	n/a
347.101	10.014	ITI	Fixation+	6.011	n/a	3	n/a	n/a	n/a	n/a	n/a	n/a	n/a	n/a	n/a	n/a	374.409	n/a
363.126	n/a	ConfirmRating	Rate	n/a	6.001	3	n/a	n/a	0	n/a	n/a	n/a	2	Angry	55	55	390.434	n/a
367.368	n/a	ConfirmRating	Rate	n/a	4.227	3	n/a	n/a	1	n/a	n/a	n/a	3	Angry	46	46	394.676	n/a
367.394	10.014	ITI	Fixation+	98.244	n/a	4	n/a	n/a	n/a	n/a	n/a	n/a	n/a	n/a	n/a	n/a	394.701	n/a
377.424	0.497	happy	Picture	97.73	n/a	4	10	1	n/a	61	119	3	n/a	n/a	n/a	n/a	404.731	BM28ANS.jpg
377.921	0.514	Blank	Blank	97.216	n/a	4	10	1	n/a	61	n/a	3	n/a	n/a	n/a	n/a	405.229	n/a
378.452	0.497	happy	Picture	96.702	n/a	4	10	2	n/a	62	100	3	n/a	n/a	n/a	n/a	405.759	AF32ANS.jpg
378.949	0.514	Blank	Blank	96.188	n/a	4	10	2	n/a	62	n/a	3	n/a	n/a	n/a	n/a	406.257	n/a
379.48	0.497	happy	Picture	95.674	n/a	4	10	3	n/a	63	118	3	n/a	n/a	n/a	n/a	406.787	BM26ANS.jpg
379.977	0.514	Blank	Blank	95.16	n/a	4	10	3	n/a	63	n/a	3	n/a	n/a	n/a	n/a	407.285	n/a
380.508	0.497	happy	Picture	94.646	n/a	4	10	4	n/a	64	89	3	n/a	n/a	n/a	n/a	407.815	AF17ANS.jpg
381.005	0.514	Blank	Blank	94.132	n/a	4	10	4	n/a	64	n/a	3	n/a	n/a	n/a	n/a	408.313	n/a
381.535	0.497	happy	Picture	93.618	n/a	4	10	5	n/a	65	116	3	n/a	n/a	n/a	n/a	408.843	BM24ANS.jpg
382.033	0.514	Blank	Blank	93.105	n/a	4	10	5	n/a	65	n/a	3	n/a	n/a	n/a	n/a	409.34	n/a
382.563	0.497	happy	Picture	92.59	n/a	4	10	6	n/a	66	105	3	n/a	n/a	n/a	n/a	409.871	BM06ANS.jpg
383.061	0.514	Blank	Blank	92.077	n/a	4	10	6	n/a	66	n/a	3	n/a	n/a	n/a	n/a	410.368	n/a
383.591	0.497	happy	Picture	91.563	n/a	4	10	7	n/a	67	106	3	n/a	n/a	n/a	n/a	410.899	AM07ANS.jpg
384.089	0.514	Blank	Blank	91.049	n/a	4	10	7	n/a	67	n/a	3	n/a	n/a	n/a	n/a	411.396	n/a
384.619	0.497	happy	Picture	90.535	n/a	4	10	8	n/a	68	94	3	n/a	n/a	n/a	n/a	411.927	AF23ANS.jpg
385.117	0.514	Blank	Blank	90.021	n/a	4	10	8	n/a	68	n/a	3	n/a	n/a	n/a	n/a	412.424	n/a
385.647	0.497	happy	Picture	89.507	n/a	4	10	9	n/a	69	117	3	n/a	n/a	n/a	n/a	412.955	BM25ANS.jpg
386.144	0.514	Blank	Blank	88.993	n/a	4	10	9	n/a	69	n/a	3	n/a	n/a	n/a	n/a	413.452	n/a
386.675	0.497	happy	Picture	88.479	n/a	4	10	10	n/a	70	90	3	n/a	n/a	n/a	n/a	413.983	AF18ANS.jpg
387.172	0.514	Blank	Blank	87.965	n/a	4	10	10	n/a	70	n/a	3	n/a	n/a	n/a	n/a	414.48	n/a
387.703	0.497	happy	Picture	87.451	n/a	4	10	11	n/a	71	83	3	n/a	n/a	n/a	n/a	415.01	BF04ANS.jpg
388.2	0.514	Blank	Blank	86.937	n/a	4	10	11	n/a	71	n/a	3	n/a	n/a	n/a	n/a	415.508	n/a
388.731	0.497	happy	Picture	86.423	n/a	4	10	12	n/a	72	112	3	n/a	n/a	n/a	n/a	416.038	AM14ANS.jpg
389.228	0.514	Blank	Blank	85.909	n/a	4	10	12	n/a	72	n/a	3	n/a	n/a	n/a	n/a	416.536	n/a
389.759	0.497	happy	Picture	85.395	n/a	4	10	13	n/a	73	102	3	n/a	n/a	n/a	n/a	417.066	BM03ANS.jpg
390.256	0.514	Blank	Blank	84.881	n/a	4	10	13	n/a	73	n/a	3	n/a	n/a	n/a	n/a	417.563	n/a
390.786	0.497	happy	Picture	84.368	n/a	4	10	14	n/a	74	95	3	n/a	n/a	n/a	n/a	418.094	AF25ANS.jpg
391.284	0.514	Blank	Blank	83.853	n/a	4	10	14	n/a	74	n/a	3	n/a	n/a	n/a	n/a	418.591	n/a
391.814	0.497	happy	Picture	83.34	n/a	4	10	15	n/a	75	113	3	n/a	n/a	n/a	n/a	419.122	AM21ANS.jpg
392.312	0.514	Blank	Blank	82.826	n/a	4	10	15	n/a	75	n/a	3	n/a	n/a	n/a	n/a	419.619	n/a
392.842	0.497	happy	Picture	82.312	n/a	4	10	16	n/a	76	88	3	n/a	n/a	n/a	n/a	420.15	AF14ANS.jpg
393.34	0.514	Blank	Blank	81.798	n/a	4	10	16	n/a	76	n/a	3	n/a	n/a	n/a	n/a	420.647	n/a
393.87	0.497	happy	Picture	81.284	n/a	4	10	17	n/a	77	93	3	n/a	n/a	n/a	n/a	421.178	BF22ANS.jpg
394.367	0.514	Blank	Blank	80.77	n/a	4	10	17	n/a	77	n/a	3	n/a	n/a	n/a	n/a	421.675	n/a
394.898	0.497	happy	Picture	80.256	n/a	4	10	18	n/a	78	86	3	n/a	n/a	n/a	n/a	422.205	AF09ANS.jpg
395.395	0.514	Blank	Blank	79.742	n/a	4	10	18	n/a	78	n/a	3	n/a	n/a	n/a	n/a	422.703	n/a
395.926	0.497	happy	Picture	79.228	n/a	4	10	19	n/a	79	92	3	n/a	n/a	n/a	n/a	423.233	AF21ANS.jpg
396.423	0.514	Blank	Blank	78.714	n/a	4	10	19	n/a	79	n/a	3	n/a	n/a	n/a	n/a	423.731	n/a
396.954	0.497	happy	Picture	78.2	n/a	4	10	20	n/a	80	84	3	n/a	n/a	n/a	n/a	424.261	AF05ANS.jpg
397.451	0.514	Blank	Blank	77.686	n/a	4	10	20	n/a	80	n/a	3	n/a	n/a	n/a	n/a	424.759	n/a
397.982	10.014	ITI	Fixation+	67.656	n/a	4	n/a	n/a	n/a	n/a	n/a	n/a	n/a	n/a	n/a	n/a	425.289	n/a
408.012	0.497	neutral	Picture	67.142	n/a	4	11	1	n/a	81	4	1	n/a	n/a	n/a	n/a	435.319	AF05NES.jpg
408.509	0.514	Blank	Blank	66.628	n/a	4	11	1	n/a	81	n/a	1	n/a	n/a	n/a	n/a	435.817	n/a
409.04	0.497	neutral	Picture	66.114	n/a	4	11	2	n/a	82	14	1	n/a	n/a	n/a	n/a	436.347	AF23NES.jpg
409.537	0.514	Blank	Blank	65.6	n/a	4	11	2	n/a	82	n/a	1	n/a	n/a	n/a	n/a	436.844	n/a
410.067	0.497	neutral	Picture	65.086	n/a	4	11	3	n/a	83	19	1	n/a	n/a	n/a	n/a	437.375	AF31NES.jpg
410.565	0.514	Blank	Blank	64.572	n/a	4	11	3	n/a	83	n/a	1	n/a	n/a	n/a	n/a	437.872	n/a
411.095	0.497	neutral	Picture	64.058	n/a	4	11	4	n/a	84	8	1	n/a	n/a	n/a	n/a	438.403	AF14NES.jpg
411.593	0.514	Blank	Blank	63.545	n/a	4	11	4	n/a	84	n/a	1	n/a	n/a	n/a	n/a	438.9	n/a
412.123	0.497	neutral	Picture	63.031	n/a	4	11	5	n/a	85	25	1	n/a	n/a	n/a	n/a	439.431	BM06NES.jpg
412.621	0.514	Blank	Blank	62.517	n/a	4	11	5	n/a	85	n/a	1	n/a	n/a	n/a	n/a	439.928	n/a
413.151	0.497	neutral	Picture	62.003	n/a	4	11	6	n/a	86	9	1	n/a	n/a	n/a	n/a	440.459	AF17NES.jpg
413.649	0.514	Blank	Blank	61.489	n/a	4	11	6	n/a	86	n/a	1	n/a	n/a	n/a	n/a	440.956	n/a
414.179	0.497	neutral	Picture	60.975	n/a	4	11	7	n/a	87	2	1	n/a	n/a	n/a	n/a	441.487	AF03NES.jpg
414.676	0.514	Blank	Blank	60.461	n/a	4	11	7	n/a	87	n/a	1	n/a	n/a	n/a	n/a	441.984	n/a
415.207	0.497	neutral	Picture	59.947	n/a	4	11	8	n/a	88	17	1	n/a	n/a	n/a	n/a	442.514	BF28NES.jpg
415.704	0.514	Blank	Blank	59.433	n/a	4	11	8	n/a	88	n/a	1	n/a	n/a	n/a	n/a	443.012	n/a
416.235	0.497	neutral	Picture	58.919	n/a	4	11	9	n/a	89	6	1	n/a	n/a	n/a	n/a	443.542	AF09NES.jpg
416.732	0.514	Blank	Blank	58.405	n/a	4	11	9	n/a	89	n/a	1	n/a	n/a	n/a	n/a	444.04	n/a
417.263	0.497	neutral	Picture	57.891	n/a	4	11	10	n/a	90	12	1	n/a	n/a	n/a	n/a	444.57	AF21NES.jpg
417.76	0.514	Blank	Blank	57.377	n/a	4	11	10	n/a	90	n/a	1	n/a	n/a	n/a	n/a	445.068	n/a
418.291	0.497	neutral	Picture	56.863	n/a	4	11	11	n/a	91	24	1	n/a	n/a	n/a	n/a	445.598	BM05NES.jpg
418.788	0.514	Blank	Blank	56.349	n/a	4	11	11	n/a	91	n/a	1	n/a	n/a	n/a	n/a	446.096	n/a
419.318	0.497	neutral	Picture	55.835	n/a	4	11	12	n/a	92	34	1	n/a	n/a	n/a	n/a	446.626	AM22NES.jpg
419.816	0.514	Blank	Blank	55.322	n/a	4	11	12	n/a	92	n/a	1	n/a	n/a	n/a	n/a	447.123	n/a
420.346	0.497	neutral	Picture	54.808	n/a	4	11	13	n/a	93	23	1	n/a	n/a	n/a	n/a	447.654	AM04NES.jpg
420.844	0.514	Blank	Blank	54.294	n/a	4	11	13	n/a	93	n/a	1	n/a	n/a	n/a	n/a	448.151	n/a
421.374	0.497	neutral	Picture	53.78	n/a	4	11	14	n/a	94	15	1	n/a	n/a	n/a	n/a	448.682	AF25NES.jpg
421.872	0.514	Blank	Blank	53.266	n/a	4	11	14	n/a	94	n/a	1	n/a	n/a	n/a	n/a	449.179	n/a
422.402	0.497	neutral	Picture	52.752	n/a	4	11	15	n/a	95	37	1	n/a	n/a	n/a	n/a	449.71	BM25NES.jpg
422.899	0.514	Blank	Blank	52.238	n/a	4	11	15	n/a	95	n/a	1	n/a	n/a	n/a	n/a	450.207	n/a
423.43	0.497	neutral	Picture	51.724	n/a	4	11	16	n/a	96	32	1	n/a	n/a	n/a	n/a	450.738	AM14NES.jpg
423.927	0.514	Blank	Blank	51.21	n/a	4	11	16	n/a	96	n/a	1	n/a	n/a	n/a	n/a	451.235	n/a
424.458	0.497	neutral	Picture	50.696	n/a	4	11	17	n/a	97	3	1	n/a	n/a	n/a	n/a	451.765	BF04NES.jpg
424.955	0.514	Blank	Blank	50.182	n/a	4	11	17	n/a	97	n/a	1	n/a	n/a	n/a	n/a	452.263	n/a
425.486	0.497	neutral	Picture	49.668	n/a	4	11	18	n/a	98	16	1	n/a	n/a	n/a	n/a	452.793	AF26NES.jpg
425.983	0.514	Blank	Blank	49.154	n/a	4	11	18	n/a	98	n/a	1	n/a	n/a	n/a	n/a	453.291	n/a
426.514	0.497	neutral	Picture	48.64	n/a	4	11	19	n/a	99	27	1	n/a	n/a	n/a	n/a	453.821	BM08NES.jpg
427.011	0.514	Blank	Blank	48.126	n/a	4	11	19	n/a	99	n/a	1	n/a	n/a	n/a	n/a	454.318	n/a
427.542	0.497	neutral	Picture	47.612	n/a	4	11	20	n/a	100	28	1	n/a	n/a	n/a	n/a	454.849	AM09NES.jpg
428.039	0.514	Blank	Blank	47.098	n/a	4	11	20	n/a	100	n/a	1	n/a	n/a	n/a	n/a	455.346	n/a
428.569	10.014	ITI	Fixation+	37.068	n/a	4	n/a	n/a	n/a	n/a	n/a	n/a	n/a	n/a	n/a	n/a	455.877	n/a
438.6	0.497	happy	Picture	36.554	n/a	4	12	1	n/a	101	81	3	n/a	n/a	n/a	n/a	465.907	AF01ANS.jpg
439.097	0.514	Blank	Blank	36.04	n/a	4	12	1	n/a	101	n/a	3	n/a	n/a	n/a	n/a	466.404	n/a
439.627	0.497	happy	Picture	35.526	n/a	4	12	2	n/a	102	120	3	n/a	n/a	n/a	n/a	466.935	AM35ANS.jpg
440.125	0.514	Blank	Blank	35.012	n/a	4	12	2	n/a	102	n/a	3	n/a	n/a	n/a	n/a	467.432	n/a
440.655	0.497	happy	Picture	34.499	n/a	4	12	3	n/a	103	114	3	n/a	n/a	n/a	n/a	467.963	AM22ANS.jpg
441.153	0.514	Blank	Blank	33.985	n/a	4	12	3	n/a	103	n/a	3	n/a	n/a	n/a	n/a	468.46	n/a
441.683	0.497	happy	Picture	33.471	n/a	4	12	4	n/a	104	109	3	n/a	n/a	n/a	n/a	468.991	AM10ANS.jpg
442.18	0.514	Blank	Blank	32.957	n/a	4	12	4	n/a	104	n/a	3	n/a	n/a	n/a	n/a	469.488	n/a
442.711	0.497	happy	Picture	32.443	n/a	4	12	5	n/a	105	96	3	n/a	n/a	n/a	n/a	470.019	AF26ANS.jpg
443.208	0.514	Blank	Blank	31.929	n/a	4	12	5	n/a	105	n/a	3	n/a	n/a	n/a	n/a	470.516	n/a
443.739	0.497	happy	Picture	31.415	n/a	4	12	6	n/a	106	82	3	n/a	n/a	n/a	n/a	471.046	AF03ANS.jpg
444.236	0.514	Blank	Blank	30.901	n/a	4	12	6	n/a	106	n/a	3	n/a	n/a	n/a	n/a	471.544	n/a
444.767	0.497	happy	Picture	30.387	n/a	4	12	7	n/a	107	97	3	n/a	n/a	n/a	n/a	472.074	BF28ANS.jpg
445.264	0.514	Blank	Blank	29.873	n/a	4	12	7	n/a	107	n/a	3	n/a	n/a	n/a	n/a	472.572	n/a
445.795	0.497	happy	Picture	29.359	n/a	4	12	8	n/a	108	115	3	n/a	n/a	n/a	n/a	473.102	AM23ANS.jpg
446.292	0.514	Blank	Blank	28.845	n/a	4	12	8	n/a	108	n/a	3	n/a	n/a	n/a	n/a	473.6	n/a
446.823	0.497	happy	Picture	28.331	n/a	4	12	9	n/a	109	91	3	n/a	n/a	n/a	n/a	474.13	AF20ANS.jpg
447.32	0.514	Blank	Blank	27.817	n/a	4	12	9	n/a	109	n/a	3	n/a	n/a	n/a	n/a	474.627	n/a
447.85	0.497	happy	Picture	27.303	n/a	4	12	10	n/a	110	87	3	n/a	n/a	n/a	n/a	475.158	BF11ANS.jpg
448.348	0.514	Blank	Blank	26.79	n/a	4	12	10	n/a	110	n/a	3	n/a	n/a	n/a	n/a	475.655	n/a
448.878	0.497	happy	Picture	26.275	n/a	4	12	11	n/a	111	85	3	n/a	n/a	n/a	n/a	476.186	BF07ANS.jpg
449.376	0.514	Blank	Blank	25.762	n/a	4	12	11	n/a	111	n/a	3	n/a	n/a	n/a	n/a	476.683	n/a
449.906	0.497	happy	Picture	25.248	n/a	4	12	12	n/a	112	110	3	n/a	n/a	n/a	n/a	477.214	AM11ANS.jpg
450.404	0.514	Blank	Blank	24.734	n/a	4	12	12	n/a	112	n/a	3	n/a	n/a	n/a	n/a	477.711	n/a
450.934	0.497	happy	Picture	24.22	n/a	4	12	13	n/a	113	111	3	n/a	n/a	n/a	n/a	478.242	BM12ANS.jpg
451.431	0.514	Blank	Blank	23.706	n/a	4	12	13	n/a	113	n/a	3	n/a	n/a	n/a	n/a	478.739	n/a
451.962	0.497	happy	Picture	23.192	n/a	4	12	14	n/a	114	103	3	n/a	n/a	n/a	n/a	479.269	AM04ANS.jpg
452.459	0.514	Blank	Blank	22.678	n/a	4	12	14	n/a	114	n/a	3	n/a	n/a	n/a	n/a	479.767	n/a
452.99	0.497	happy	Picture	22.164	n/a	4	12	15	n/a	115	101	3	n/a	n/a	n/a	n/a	480.297	AM01ANS.jpg
453.487	0.514	Blank	Blank	21.65	n/a	4	12	15	n/a	115	n/a	3	n/a	n/a	n/a	n/a	480.795	n/a
454.018	0.497	happy	Picture	21.136	n/a	4	12	16	n/a	116	104	3	n/a	n/a	n/a	n/a	481.325	BM05ANS.jpg
454.515	0.514	Blank	Blank	20.622	n/a	4	12	16	n/a	116	n/a	3	n/a	n/a	n/a	n/a	481.823	n/a
455.046	0.497	happy	Picture	20.108	n/a	4	12	17	n/a	117	107	3	n/a	n/a	n/a	n/a	482.353	BM08ANS.jpg
455.543	0.514	Blank	Blank	19.594	n/a	4	12	17	n/a	117	n/a	3	n/a	n/a	n/a	n/a	482.851	n/a
456.074	0.497	happy	Picture	19.08	n/a	4	12	18	n/a	118	98	3	n/a	n/a	n/a	n/a	483.381	BF29ANS.jpg
456.571	0.514	Blank	Blank	18.566	n/a	4	12	18	n/a	118	n/a	3	n/a	n/a	n/a	n/a	483.878	n/a
457.101	0.497	happy	Picture	18.053	n/a	4	12	19	n/a	119	99	3	n/a	n/a	n/a	n/a	484.409	AF31ANS.jpg
457.599	0.514	Blank	Blank	17.538	n/a	4	12	19	n/a	119	n/a	3	n/a	n/a	n/a	n/a	484.906	n/a
458.129	0.497	happy	Picture	17.025	n/a	4	12	20	n/a	120	108	3	n/a	n/a	n/a	n/a	485.437	AM09ANS.jpg
458.627	0.514	Blank	Blank	16.511	n/a	4	12	20	n/a	120	n/a	3	n/a	n/a	n/a	n/a	485.934	n/a
459.157	10.014	ITI	Fixation+	6.481	n/a	4	n/a	n/a	n/a	n/a	n/a	n/a	n/a	n/a	n/a	n/a	486.465	n/a
475.651	n/a	ConfirmRating	Rate	n/a	6.466	4	n/a	n/a	0	n/a	n/a	n/a	2	Happy	62	62	502.959	n/a
479.023	n/a	ConfirmRating	Rate	n/a	3.365	4	n/a	n/a	1	n/a	n/a	n/a	3	Happy	49	49	506.331	n/a
