onset	duration	trial_type	event_type	time_until_response	response_time	trial_number	block_num_within_trial	image_seq_num_within_block	question_seq_num_within_block	image_seq_num	picture_number	condition	question_type	block_type	rating	rating_computed	onset_uncorrected	KDEV_imagefile
0.011	10.014	ITI	Fixation+	94.531	n/a	1	n/a	n/a	n/a	n/a	n/a	n/a	n/a	n/a	n/a	n/a	31.577	n/a
10.041	0.497	happy	Picture	94.017	n/a	1	1	1	n/a	1	46	2	n/a	n/a	n/a	n/a	41.608	AF09HAS.jpg
10.539	0.514	Blank	Blank	93.503	n/a	1	1	1	n/a	1	n/a	2	n/a	n/a	n/a	n/a	42.105	n/a
11.069	0.497	happy	Picture	92.989	n/a	1	1	2	n/a	2	69	2	n/a	n/a	n/a	n/a	42.636	AM10HAS.jpg
11.567	0.514	Blank	Blank	92.475	n/a	1	1	2	n/a	2	n/a	2	n/a	n/a	n/a	n/a	43.133	n/a
12.097	0.497	happy	Picture	91.961	n/a	1	1	3	n/a	3	71	2	n/a	n/a	n/a	n/a	43.663	BM12HAS.jpg
12.595	0.514	Blank	Blank	91.447	n/a	1	1	3	n/a	3	n/a	2	n/a	n/a	n/a	n/a	44.161	n/a
13.125	0.497	happy	Picture	90.933	n/a	1	1	4	n/a	4	51	2	n/a	n/a	n/a	n/a	44.691	AF20HAS.jpg
13.622	0.514	Blank	Blank	90.419	n/a	1	1	4	n/a	4	n/a	2	n/a	n/a	n/a	n/a	45.189	n/a
14.153	0.497	happy	Picture	89.905	n/a	1	1	5	n/a	5	67	2	n/a	n/a	n/a	n/a	45.719	BM08HAS.jpg
14.65	0.514	Blank	Blank	89.392	n/a	1	1	5	n/a	5	n/a	2	n/a	n/a	n/a	n/a	46.217	n/a
15.181	0.497	happy	Picture	88.878	n/a	1	1	6	n/a	6	60	2	n/a	n/a	n/a	n/a	46.747	AF32HAS.jpg
15.678	0.514	Blank	Blank	88.364	n/a	1	1	6	n/a	6	n/a	2	n/a	n/a	n/a	n/a	47.244	n/a
16.209	0.497	happy	Picture	87.85	n/a	1	1	7	n/a	7	42	2	n/a	n/a	n/a	n/a	47.775	AF03HAS.jpg
16.706	0.514	Blank	Blank	87.336	n/a	1	1	7	n/a	7	n/a	2	n/a	n/a	n/a	n/a	48.272	n/a
17.237	0.497	happy	Picture	86.822	n/a	1	1	8	n/a	8	55	2	n/a	n/a	n/a	n/a	48.803	AF25HAS.jpg
17.734	0.514	Blank	Blank	86.308	n/a	1	1	8	n/a	8	n/a	2	n/a	n/a	n/a	n/a	49.3	n/a
18.265	0.497	happy	Picture	85.794	n/a	1	1	9	n/a	9	72	2	n/a	n/a	n/a	n/a	49.831	AM14HAS.jpg
18.762	0.514	Blank	Blank	85.28	n/a	1	1	9	n/a	9	n/a	2	n/a	n/a	n/a	n/a	50.328	n/a
19.292	0.497	happy	Picture	84.766	n/a	1	1	10	n/a	10	63	2	n/a	n/a	n/a	n/a	50.859	AM04HAS.jpg
19.79	0.514	Blank	Blank	84.252	n/a	1	1	10	n/a	10	n/a	2	n/a	n/a	n/a	n/a	51.356	n/a
20.32	0.497	happy	Picture	83.738	n/a	1	1	11	n/a	11	58	2	n/a	n/a	n/a	n/a	51.886	BF29HAS.jpg
20.818	0.514	Blank	Blank	83.224	n/a	1	1	11	n/a	11	n/a	2	n/a	n/a	n/a	n/a	52.384	n/a
21.348	0.497	happy	Picture	82.71	n/a	1	1	12	n/a	12	48	2	n/a	n/a	n/a	n/a	52.914	AF14HAS.jpg
21.846	0.514	Blank	Blank	82.196	n/a	1	1	12	n/a	12	n/a	2	n/a	n/a	n/a	n/a	53.412	n/a
22.376	0.497	happy	Picture	81.682	n/a	1	1	13	n/a	13	66	2	n/a	n/a	n/a	n/a	53.942	BM07HAS.jpg
22.874	0.514	Blank	Blank	81.168	n/a	1	1	13	n/a	13	n/a	2	n/a	n/a	n/a	n/a	54.44	n/a
23.404	0.497	happy	Picture	80.654	n/a	1	1	14	n/a	14	70	2	n/a	n/a	n/a	n/a	54.97	BM11HAS.jpg
23.901	0.514	Blank	Blank	80.141	n/a	1	1	14	n/a	14	n/a	2	n/a	n/a	n/a	n/a	55.468	n/a
24.432	0.497	happy	Picture	79.627	n/a	1	1	15	n/a	15	43	2	n/a	n/a	n/a	n/a	55.998	BF04HAS.jpg
24.929	0.514	Blank	Blank	79.113	n/a	1	1	15	n/a	15	n/a	2	n/a	n/a	n/a	n/a	56.495	n/a
25.46	0.497	happy	Picture	78.599	n/a	1	1	16	n/a	16	49	2	n/a	n/a	n/a	n/a	57.026	AF17HAS.jpg
25.957	0.514	Blank	Blank	78.085	n/a	1	1	16	n/a	16	n/a	2	n/a	n/a	n/a	n/a	57.523	n/a
26.488	0.497	happy	Picture	77.571	n/a	1	1	17	n/a	17	75	2	n/a	n/a	n/a	n/a	58.054	AM23HAS.jpg
26.985	0.514	Blank	Blank	77.057	n/a	1	1	17	n/a	17	n/a	2	n/a	n/a	n/a	n/a	58.551	n/a
27.516	0.497	happy	Picture	76.543	n/a	1	1	18	n/a	18	80	2	n/a	n/a	n/a	n/a	59.082	BM35HAS.jpg
28.013	0.514	Blank	Blank	76.029	n/a	1	1	18	n/a	18	n/a	2	n/a	n/a	n/a	n/a	59.579	n/a
28.543	0.497	happy	Picture	75.515	n/a	1	1	19	n/a	19	76	2	n/a	n/a	n/a	n/a	60.11	BM24HAS.jpg
29.041	0.514	Blank	Blank	75.001	n/a	1	1	19	n/a	19	n/a	2	n/a	n/a	n/a	n/a	60.607	n/a
29.571	0.497	happy	Picture	74.487	n/a	1	1	20	n/a	20	74	2	n/a	n/a	n/a	n/a	61.138	AM22HAS.jpg
30.069	0.514	Blank	Blank	73.973	n/a	1	1	20	n/a	20	n/a	2	n/a	n/a	n/a	n/a	61.635	n/a
30.599	10.014	ITI	Fixation+	63.943	n/a	1	n/a	n/a	n/a	n/a	n/a	n/a	n/a	n/a	n/a	n/a	62.165	n/a
40.629	0.497	neutral	Picture	63.429	n/a	1	2	1	n/a	21	33	1	n/a	n/a	n/a	n/a	72.196	AM21NES.jpg
41.127	0.514	Blank	Blank	62.915	n/a	1	2	1	n/a	21	n/a	1	n/a	n/a	n/a	n/a	72.693	n/a
41.657	0.497	neutral	Picture	62.401	n/a	1	2	2	n/a	22	39	1	n/a	n/a	n/a	n/a	73.224	AM28NES.jpg
42.155	0.514	Blank	Blank	61.887	n/a	1	2	2	n/a	22	n/a	1	n/a	n/a	n/a	n/a	73.721	n/a
42.685	0.497	neutral	Picture	61.373	n/a	1	2	3	n/a	23	25	1	n/a	n/a	n/a	n/a	74.251	BM06NES.jpg
43.183	0.514	Blank	Blank	60.859	n/a	1	2	3	n/a	23	n/a	1	n/a	n/a	n/a	n/a	74.749	n/a
43.713	0.497	neutral	Picture	60.345	n/a	1	2	4	n/a	24	5	1	n/a	n/a	n/a	n/a	75.279	BF07NES.jpg
44.211	0.514	Blank	Blank	59.831	n/a	1	2	4	n/a	24	n/a	1	n/a	n/a	n/a	n/a	75.777	n/a
44.741	0.497	neutral	Picture	59.317	n/a	1	2	5	n/a	25	10	1	n/a	n/a	n/a	n/a	76.307	AF18NES.jpg
45.238	0.514	Blank	Blank	58.804	n/a	1	2	5	n/a	25	n/a	1	n/a	n/a	n/a	n/a	76.805	n/a
45.769	0.497	neutral	Picture	58.29	n/a	1	2	6	n/a	26	34	1	n/a	n/a	n/a	n/a	77.335	AM22NES.jpg
46.266	0.514	Blank	Blank	57.776	n/a	1	2	6	n/a	26	n/a	1	n/a	n/a	n/a	n/a	77.832	n/a
46.797	0.497	neutral	Picture	57.262	n/a	1	2	7	n/a	27	36	1	n/a	n/a	n/a	n/a	78.363	BM24NES.jpg
47.294	0.514	Blank	Blank	56.748	n/a	1	2	7	n/a	27	n/a	1	n/a	n/a	n/a	n/a	78.86	n/a
47.825	0.497	neutral	Picture	56.234	n/a	1	2	8	n/a	28	14	1	n/a	n/a	n/a	n/a	79.391	AF23NES.jpg
48.322	0.514	Blank	Blank	55.72	n/a	1	2	8	n/a	28	n/a	1	n/a	n/a	n/a	n/a	79.888	n/a
48.853	0.497	neutral	Picture	55.206	n/a	1	2	9	n/a	29	9	1	n/a	n/a	n/a	n/a	80.419	AF17NES.jpg
49.35	0.514	Blank	Blank	54.692	n/a	1	2	9	n/a	29	n/a	1	n/a	n/a	n/a	n/a	80.916	n/a
49.881	0.497	neutral	Picture	54.178	n/a	1	2	10	n/a	30	19	1	n/a	n/a	n/a	n/a	81.447	AF31NES.jpg
50.378	0.514	Blank	Blank	53.664	n/a	1	2	10	n/a	30	n/a	1	n/a	n/a	n/a	n/a	81.944	n/a
50.908	0.497	neutral	Picture	53.15	n/a	1	2	11	n/a	31	15	1	n/a	n/a	n/a	n/a	82.475	AF25NES.jpg
51.406	0.514	Blank	Blank	52.636	n/a	1	2	11	n/a	31	n/a	1	n/a	n/a	n/a	n/a	82.972	n/a
51.936	0.497	neutral	Picture	52.122	n/a	1	2	12	n/a	32	22	1	n/a	n/a	n/a	n/a	83.502	BM03NES.jpg
52.434	0.514	Blank	Blank	51.608	n/a	1	2	12	n/a	32	n/a	1	n/a	n/a	n/a	n/a	84.0	n/a
52.964	0.497	neutral	Picture	51.094	n/a	1	2	13	n/a	33	11	1	n/a	n/a	n/a	n/a	84.53	AF20NES.jpg
53.462	0.514	Blank	Blank	50.58	n/a	1	2	13	n/a	33	n/a	1	n/a	n/a	n/a	n/a	85.028	n/a
53.992	0.497	neutral	Picture	50.066	n/a	1	2	14	n/a	34	4	1	n/a	n/a	n/a	n/a	85.558	AF05NES.jpg
54.489	0.514	Blank	Blank	49.553	n/a	1	2	14	n/a	34	n/a	1	n/a	n/a	n/a	n/a	86.056	n/a
55.02	0.497	neutral	Picture	49.039	n/a	1	2	15	n/a	35	17	1	n/a	n/a	n/a	n/a	86.586	BF28NES.jpg
55.517	0.514	Blank	Blank	48.525	n/a	1	2	15	n/a	35	n/a	1	n/a	n/a	n/a	n/a	87.084	n/a
56.048	0.497	neutral	Picture	48.011	n/a	1	2	16	n/a	36	13	1	n/a	n/a	n/a	n/a	87.614	BF22NES.jpg
56.545	0.514	Blank	Blank	47.497	n/a	1	2	16	n/a	36	n/a	1	n/a	n/a	n/a	n/a	88.111	n/a
57.076	0.497	neutral	Picture	46.983	n/a	1	2	17	n/a	37	12	1	n/a	n/a	n/a	n/a	88.642	AF21NES.jpg
57.573	0.514	Blank	Blank	46.469	n/a	1	2	17	n/a	37	n/a	1	n/a	n/a	n/a	n/a	89.139	n/a
58.104	0.497	neutral	Picture	45.955	n/a	1	2	18	n/a	38	24	1	n/a	n/a	n/a	n/a	89.67	BM05NES.jpg
58.601	0.514	Blank	Blank	45.441	n/a	1	2	18	n/a	38	n/a	1	n/a	n/a	n/a	n/a	90.167	n/a
59.132	0.497	neutral	Picture	44.927	n/a	1	2	19	n/a	39	29	1	n/a	n/a	n/a	n/a	90.698	AM10NES.jpg
59.629	0.514	Blank	Blank	44.413	n/a	1	2	19	n/a	39	n/a	1	n/a	n/a	n/a	n/a	91.195	n/a
60.159	0.497	neutral	Picture	43.899	n/a	1	2	20	n/a	40	23	1	n/a	n/a	n/a	n/a	91.726	AM04NES.jpg
60.657	0.514	Blank	Blank	43.385	n/a	1	2	20	n/a	40	n/a	1	n/a	n/a	n/a	n/a	92.223	n/a
61.187	10.014	ITI	Fixation+	33.355	n/a	1	n/a	n/a	n/a	n/a	n/a	n/a	n/a	n/a	n/a	n/a	92.753	n/a
71.218	0.497	happy	Picture	32.841	n/a	1	3	1	n/a	41	62	2	n/a	n/a	n/a	n/a	102.784	BM03HAS.jpg
71.715	0.514	Blank	Blank	32.327	n/a	1	3	1	n/a	41	n/a	2	n/a	n/a	n/a	n/a	103.281	n/a
72.245	0.497	happy	Picture	31.813	n/a	1	3	2	n/a	42	52	2	n/a	n/a	n/a	n/a	103.812	AF21HAS.jpg
72.743	0.514	Blank	Blank	31.299	n/a	1	3	2	n/a	42	n/a	2	n/a	n/a	n/a	n/a	104.309	n/a
73.273	0.497	happy	Picture	30.785	n/a	1	3	3	n/a	43	44	2	n/a	n/a	n/a	n/a	104.839	AF05HAS.jpg
73.771	0.514	Blank	Blank	30.271	n/a	1	3	3	n/a	43	n/a	2	n/a	n/a	n/a	n/a	105.337	n/a
74.301	0.497	happy	Picture	29.757	n/a	1	3	4	n/a	44	53	2	n/a	n/a	n/a	n/a	105.867	BF22HAS.jpg
74.799	0.514	Blank	Blank	29.243	n/a	1	3	4	n/a	44	n/a	2	n/a	n/a	n/a	n/a	106.365	n/a
75.329	0.497	happy	Picture	28.729	n/a	1	3	5	n/a	45	54	2	n/a	n/a	n/a	n/a	106.895	AF23HAS.jpg
75.826	0.514	Blank	Blank	28.216	n/a	1	3	5	n/a	45	n/a	2	n/a	n/a	n/a	n/a	107.393	n/a
76.357	0.497	happy	Picture	27.702	n/a	1	3	6	n/a	46	68	2	n/a	n/a	n/a	n/a	107.923	AM09HAS.jpg
76.854	0.514	Blank	Blank	27.188	n/a	1	3	6	n/a	46	n/a	2	n/a	n/a	n/a	n/a	108.421	n/a
77.385	0.497	happy	Picture	26.674	n/a	1	3	7	n/a	47	64	2	n/a	n/a	n/a	n/a	108.951	BM05HAS.jpg
77.882	0.514	Blank	Blank	26.16	n/a	1	3	7	n/a	47	n/a	2	n/a	n/a	n/a	n/a	109.448	n/a
78.413	0.497	happy	Picture	25.646	n/a	1	3	8	n/a	48	59	2	n/a	n/a	n/a	n/a	109.979	AF31HAS.jpg
78.91	0.514	Blank	Blank	25.132	n/a	1	3	8	n/a	48	n/a	2	n/a	n/a	n/a	n/a	110.476	n/a
79.441	0.497	happy	Picture	24.618	n/a	1	3	9	n/a	49	41	2	n/a	n/a	n/a	n/a	111.007	AF01HAS.jpg
79.938	0.514	Blank	Blank	24.104	n/a	1	3	9	n/a	49	n/a	2	n/a	n/a	n/a	n/a	111.504	n/a
80.469	0.497	happy	Picture	23.59	n/a	1	3	10	n/a	50	73	2	n/a	n/a	n/a	n/a	112.035	AM21HAS.jpg
80.966	0.514	Blank	Blank	23.076	n/a	1	3	10	n/a	50	n/a	2	n/a	n/a	n/a	n/a	112.532	n/a
81.496	0.497	happy	Picture	22.562	n/a	1	3	11	n/a	51	65	2	n/a	n/a	n/a	n/a	113.063	BM06HAS.jpg
81.994	0.514	Blank	Blank	22.048	n/a	1	3	11	n/a	51	n/a	2	n/a	n/a	n/a	n/a	113.56	n/a
82.524	0.497	happy	Picture	21.534	n/a	1	3	12	n/a	52	56	2	n/a	n/a	n/a	n/a	114.091	AF26HAS.jpg
83.022	0.514	Blank	Blank	21.02	n/a	1	3	12	n/a	52	n/a	2	n/a	n/a	n/a	n/a	114.588	n/a
83.552	0.497	happy	Picture	20.506	n/a	1	3	13	n/a	53	45	2	n/a	n/a	n/a	n/a	115.118	BF07HAS.jpg
84.05	0.514	Blank	Blank	19.992	n/a	1	3	13	n/a	53	n/a	2	n/a	n/a	n/a	n/a	115.616	n/a
84.58	0.497	happy	Picture	19.478	n/a	1	3	14	n/a	54	78	2	n/a	n/a	n/a	n/a	116.146	BM26HAS.jpg
85.077	0.514	Blank	Blank	18.965	n/a	1	3	14	n/a	54	n/a	2	n/a	n/a	n/a	n/a	116.644	n/a
85.608	0.497	happy	Picture	18.451	n/a	1	3	15	n/a	55	50	2	n/a	n/a	n/a	n/a	117.174	AF18HAS.jpg
86.105	0.514	Blank	Blank	17.937	n/a	1	3	15	n/a	55	n/a	2	n/a	n/a	n/a	n/a	117.671	n/a
86.636	0.497	happy	Picture	17.423	n/a	1	3	16	n/a	56	47	2	n/a	n/a	n/a	n/a	118.202	BF11HAS.jpg
87.133	0.514	Blank	Blank	16.909	n/a	1	3	16	n/a	56	n/a	2	n/a	n/a	n/a	n/a	118.699	n/a
87.664	0.497	happy	Picture	16.395	n/a	1	3	17	n/a	57	77	2	n/a	n/a	n/a	n/a	119.23	BM25HAS.jpg
88.161	0.514	Blank	Blank	15.881	n/a	1	3	17	n/a	57	n/a	2	n/a	n/a	n/a	n/a	119.727	n/a
88.692	0.497	happy	Picture	15.367	n/a	1	3	18	n/a	58	57	2	n/a	n/a	n/a	n/a	120.258	BF28HAS.jpg
89.189	0.514	Blank	Blank	14.853	n/a	1	3	18	n/a	58	n/a	2	n/a	n/a	n/a	n/a	120.755	n/a
89.72	0.497	happy	Picture	14.339	n/a	1	3	19	n/a	59	61	2	n/a	n/a	n/a	n/a	121.286	AM01HAS.jpg
90.217	0.514	Blank	Blank	13.825	n/a	1	3	19	n/a	59	n/a	2	n/a	n/a	n/a	n/a	121.783	n/a
90.747	0.497	happy	Picture	13.311	n/a	1	3	20	n/a	60	79	2	n/a	n/a	n/a	n/a	122.314	BM28HAS.jpg
91.245	0.514	Blank	Blank	12.797	n/a	1	3	20	n/a	60	n/a	2	n/a	n/a	n/a	n/a	122.811	n/a
91.775	10.014	ITI	Fixation+	2.767	n/a	1	n/a	n/a	n/a	n/a	n/a	n/a	n/a	n/a	n/a	n/a	123.341	n/a
104.556	n/a	ConfirmRating	Rate	n/a	2.752	1	n/a	n/a	0	n/a	n/a	n/a	2	Happy	81	52	136.122	n/a
107.037	n/a	ConfirmRating	Rate	n/a	2.47	1	n/a	n/a	1	n/a	n/a	n/a	3	Happy	0	48	138.603	n/a
107.061	10.014	ITI	Fixation+	92.702	n/a	2	n/a	n/a	n/a	n/a	n/a	n/a	n/a	n/a	n/a	n/a	138.627	n/a
117.091	0.497	angry	Picture	92.188	n/a	2	4	1	n/a	61	119	3	n/a	n/a	n/a	n/a	148.657	BM28ANS.jpg
117.589	0.514	Blank	Blank	91.674	n/a	2	4	1	n/a	61	n/a	3	n/a	n/a	n/a	n/a	149.155	n/a
118.119	0.497	angry	Picture	91.16	n/a	2	4	2	n/a	62	100	3	n/a	n/a	n/a	n/a	149.685	AF32ANS.jpg
118.617	0.514	Blank	Blank	90.646	n/a	2	4	2	n/a	62	n/a	3	n/a	n/a	n/a	n/a	150.183	n/a
119.147	0.497	angry	Picture	90.132	n/a	2	4	3	n/a	63	118	3	n/a	n/a	n/a	n/a	150.713	BM26ANS.jpg
119.644	0.514	Blank	Blank	89.618	n/a	2	4	3	n/a	63	n/a	3	n/a	n/a	n/a	n/a	151.21	n/a
120.175	0.497	angry	Picture	89.104	n/a	2	4	4	n/a	64	89	3	n/a	n/a	n/a	n/a	151.741	AF17ANS.jpg
120.672	0.514	Blank	Blank	88.59	n/a	2	4	4	n/a	64	n/a	3	n/a	n/a	n/a	n/a	152.238	n/a
121.203	0.497	angry	Picture	88.077	n/a	2	4	5	n/a	65	116	3	n/a	n/a	n/a	n/a	152.769	BM24ANS.jpg
121.7	0.514	Blank	Blank	87.563	n/a	2	4	5	n/a	65	n/a	3	n/a	n/a	n/a	n/a	153.266	n/a
122.231	0.497	angry	Picture	87.049	n/a	2	4	6	n/a	66	105	3	n/a	n/a	n/a	n/a	153.797	BM06ANS.jpg
122.728	0.514	Blank	Blank	86.535	n/a	2	4	6	n/a	66	n/a	3	n/a	n/a	n/a	n/a	154.294	n/a
123.259	0.497	angry	Picture	86.021	n/a	2	4	7	n/a	67	106	3	n/a	n/a	n/a	n/a	154.825	AM07ANS.jpg
123.756	0.514	Blank	Blank	85.507	n/a	2	4	7	n/a	67	n/a	3	n/a	n/a	n/a	n/a	155.322	n/a
124.286	0.497	angry	Picture	84.993	n/a	2	4	8	n/a	68	94	3	n/a	n/a	n/a	n/a	155.853	AF23ANS.jpg
124.784	0.514	Blank	Blank	84.479	n/a	2	4	8	n/a	68	n/a	3	n/a	n/a	n/a	n/a	156.35	n/a
125.314	0.497	angry	Picture	83.965	n/a	2	4	9	n/a	69	117	3	n/a	n/a	n/a	n/a	156.881	BM25ANS.jpg
125.812	0.514	Blank	Blank	83.451	n/a	2	4	9	n/a	69	n/a	3	n/a	n/a	n/a	n/a	157.378	n/a
126.342	0.497	angry	Picture	82.937	n/a	2	4	10	n/a	70	90	3	n/a	n/a	n/a	n/a	157.908	AF18ANS.jpg
126.84	0.514	Blank	Blank	82.423	n/a	2	4	10	n/a	70	n/a	3	n/a	n/a	n/a	n/a	158.406	n/a
127.37	0.497	angry	Picture	81.909	n/a	2	4	11	n/a	71	83	3	n/a	n/a	n/a	n/a	158.936	BF04ANS.jpg
127.867	0.514	Blank	Blank	81.395	n/a	2	4	11	n/a	71	n/a	3	n/a	n/a	n/a	n/a	159.434	n/a
128.398	0.497	angry	Picture	80.881	n/a	2	4	12	n/a	72	112	3	n/a	n/a	n/a	n/a	159.964	AM14ANS.jpg
128.895	0.514	Blank	Blank	80.367	n/a	2	4	12	n/a	72	n/a	3	n/a	n/a	n/a	n/a	160.462	n/a
129.426	0.497	angry	Picture	79.853	n/a	2	4	13	n/a	73	102	3	n/a	n/a	n/a	n/a	160.992	BM03ANS.jpg
129.923	0.514	Blank	Blank	79.339	n/a	2	4	13	n/a	73	n/a	3	n/a	n/a	n/a	n/a	161.489	n/a
130.454	0.497	angry	Picture	78.826	n/a	2	4	14	n/a	74	95	3	n/a	n/a	n/a	n/a	162.02	AF25ANS.jpg
130.951	0.514	Blank	Blank	78.312	n/a	2	4	14	n/a	74	n/a	3	n/a	n/a	n/a	n/a	162.517	n/a
131.482	0.497	angry	Picture	77.798	n/a	2	4	15	n/a	75	113	3	n/a	n/a	n/a	n/a	163.048	AM21ANS.jpg
131.979	0.514	Blank	Blank	77.284	n/a	2	4	15	n/a	75	n/a	3	n/a	n/a	n/a	n/a	163.545	n/a
132.51	0.497	angry	Picture	76.77	n/a	2	4	16	n/a	76	88	3	n/a	n/a	n/a	n/a	164.076	AF14ANS.jpg
133.007	0.514	Blank	Blank	76.256	n/a	2	4	16	n/a	76	n/a	3	n/a	n/a	n/a	n/a	164.573	n/a
133.537	0.497	angry	Picture	75.742	n/a	2	4	17	n/a	77	93	3	n/a	n/a	n/a	n/a	165.104	BF22ANS.jpg
134.035	0.514	Blank	Blank	75.228	n/a	2	4	17	n/a	77	n/a	3	n/a	n/a	n/a	n/a	165.601	n/a
134.565	0.497	angry	Picture	74.714	n/a	2	4	18	n/a	78	86	3	n/a	n/a	n/a	n/a	166.131	AF09ANS.jpg
135.063	0.514	Blank	Blank	74.2	n/a	2	4	18	n/a	78	n/a	3	n/a	n/a	n/a	n/a	166.629	n/a
135.593	0.497	angry	Picture	73.686	n/a	2	4	19	n/a	79	92	3	n/a	n/a	n/a	n/a	167.159	AF21ANS.jpg
136.091	0.514	Blank	Blank	73.172	n/a	2	4	19	n/a	79	n/a	3	n/a	n/a	n/a	n/a	167.657	n/a
136.621	0.497	angry	Picture	72.658	n/a	2	4	20	n/a	80	84	3	n/a	n/a	n/a	n/a	168.187	AF05ANS.jpg
137.118	0.514	Blank	Blank	72.144	n/a	2	4	20	n/a	80	n/a	3	n/a	n/a	n/a	n/a	168.685	n/a
137.649	10.014	ITI	Fixation+	62.114	n/a	2	n/a	n/a	n/a	n/a	n/a	n/a	n/a	n/a	n/a	n/a	169.215	n/a
147.679	0.497	neutral	Picture	61.6	n/a	2	5	1	n/a	81	4	1	n/a	n/a	n/a	n/a	179.245	AF05NES.jpg
148.177	0.514	Blank	Blank	61.086	n/a	2	5	1	n/a	81	n/a	1	n/a	n/a	n/a	n/a	179.743	n/a
148.707	0.497	neutral	Picture	60.572	n/a	2	5	2	n/a	82	14	1	n/a	n/a	n/a	n/a	180.273	AF23NES.jpg
149.204	0.514	Blank	Blank	60.058	n/a	2	5	2	n/a	82	n/a	1	n/a	n/a	n/a	n/a	180.771	n/a
149.735	0.497	neutral	Picture	59.544	n/a	2	5	3	n/a	83	19	1	n/a	n/a	n/a	n/a	181.301	AF31NES.jpg
150.232	0.514	Blank	Blank	59.03	n/a	2	5	3	n/a	83	n/a	1	n/a	n/a	n/a	n/a	181.799	n/a
150.763	0.497	neutral	Picture	58.516	n/a	2	5	4	n/a	84	8	1	n/a	n/a	n/a	n/a	182.329	AF14NES.jpg
151.26	0.514	Blank	Blank	58.002	n/a	2	5	4	n/a	84	n/a	1	n/a	n/a	n/a	n/a	182.826	n/a
151.791	0.497	neutral	Picture	57.489	n/a	2	5	5	n/a	85	25	1	n/a	n/a	n/a	n/a	183.357	BM06NES.jpg
152.288	0.514	Blank	Blank	56.975	n/a	2	5	5	n/a	85	n/a	1	n/a	n/a	n/a	n/a	183.854	n/a
152.819	0.497	neutral	Picture	56.461	n/a	2	5	6	n/a	86	9	1	n/a	n/a	n/a	n/a	184.385	AF17NES.jpg
153.316	0.514	Blank	Blank	55.947	n/a	2	5	6	n/a	86	n/a	1	n/a	n/a	n/a	n/a	184.882	n/a
153.847	0.497	neutral	Picture	55.433	n/a	2	5	7	n/a	87	2	1	n/a	n/a	n/a	n/a	185.413	AF03NES.jpg
154.344	0.514	Blank	Blank	54.919	n/a	2	5	7	n/a	87	n/a	1	n/a	n/a	n/a	n/a	185.91	n/a
154.874	0.497	neutral	Picture	54.405	n/a	2	5	8	n/a	88	17	1	n/a	n/a	n/a	n/a	186.441	BF28NES.jpg
155.372	0.514	Blank	Blank	53.891	n/a	2	5	8	n/a	88	n/a	1	n/a	n/a	n/a	n/a	186.938	n/a
155.902	0.497	neutral	Picture	53.377	n/a	2	5	9	n/a	89	6	1	n/a	n/a	n/a	n/a	187.469	AF09NES.jpg
156.4	0.514	Blank	Blank	52.863	n/a	2	5	9	n/a	89	n/a	1	n/a	n/a	n/a	n/a	187.966	n/a
156.93	0.497	neutral	Picture	52.349	n/a	2	5	10	n/a	90	12	1	n/a	n/a	n/a	n/a	188.496	AF21NES.jpg
157.428	0.514	Blank	Blank	51.835	n/a	2	5	10	n/a	90	n/a	1	n/a	n/a	n/a	n/a	188.994	n/a
157.958	0.497	neutral	Picture	51.321	n/a	2	5	11	n/a	91	24	1	n/a	n/a	n/a	n/a	189.524	BM05NES.jpg
158.456	0.514	Blank	Blank	50.807	n/a	2	5	11	n/a	91	n/a	1	n/a	n/a	n/a	n/a	190.022	n/a
158.986	0.497	neutral	Picture	50.293	n/a	2	5	12	n/a	92	34	1	n/a	n/a	n/a	n/a	190.552	AM22NES.jpg
159.483	0.514	Blank	Blank	49.779	n/a	2	5	12	n/a	92	n/a	1	n/a	n/a	n/a	n/a	191.05	n/a
160.014	0.497	neutral	Picture	49.265	n/a	2	5	13	n/a	93	23	1	n/a	n/a	n/a	n/a	191.58	AM04NES.jpg
160.511	0.514	Blank	Blank	48.751	n/a	2	5	13	n/a	93	n/a	1	n/a	n/a	n/a	n/a	192.077	n/a
161.042	0.497	neutral	Picture	48.238	n/a	2	5	14	n/a	94	15	1	n/a	n/a	n/a	n/a	192.608	AF25NES.jpg
161.539	0.514	Blank	Blank	47.724	n/a	2	5	14	n/a	94	n/a	1	n/a	n/a	n/a	n/a	193.105	n/a
162.07	0.497	neutral	Picture	47.21	n/a	2	5	15	n/a	95	37	1	n/a	n/a	n/a	n/a	193.636	BM25NES.jpg
162.567	0.514	Blank	Blank	46.696	n/a	2	5	15	n/a	95	n/a	1	n/a	n/a	n/a	n/a	194.133	n/a
163.098	0.497	neutral	Picture	46.182	n/a	2	5	16	n/a	96	32	1	n/a	n/a	n/a	n/a	194.664	AM14NES.jpg
163.595	0.514	Blank	Blank	45.668	n/a	2	5	16	n/a	96	n/a	1	n/a	n/a	n/a	n/a	195.161	n/a
164.125	0.497	neutral	Picture	45.154	n/a	2	5	17	n/a	97	3	1	n/a	n/a	n/a	n/a	195.692	BF04NES.jpg
164.623	0.514	Blank	Blank	44.64	n/a	2	5	17	n/a	97	n/a	1	n/a	n/a	n/a	n/a	196.189	n/a
165.153	0.497	neutral	Picture	44.126	n/a	2	5	18	n/a	98	16	1	n/a	n/a	n/a	n/a	196.72	AF26NES.jpg
165.651	0.514	Blank	Blank	43.612	n/a	2	5	18	n/a	98	n/a	1	n/a	n/a	n/a	n/a	197.217	n/a
166.181	0.497	neutral	Picture	43.098	n/a	2	5	19	n/a	99	27	1	n/a	n/a	n/a	n/a	197.747	BM08NES.jpg
166.679	0.514	Blank	Blank	42.584	n/a	2	5	19	n/a	99	n/a	1	n/a	n/a	n/a	n/a	198.245	n/a
167.209	0.497	neutral	Picture	42.07	n/a	2	5	20	n/a	100	28	1	n/a	n/a	n/a	n/a	198.775	AM09NES.jpg
167.706	0.514	Blank	Blank	41.556	n/a	2	5	20	n/a	100	n/a	1	n/a	n/a	n/a	n/a	199.273	n/a
168.237	10.014	ITI	Fixation+	31.526	n/a	2	n/a	n/a	n/a	n/a	n/a	n/a	n/a	n/a	n/a	n/a	199.803	n/a
178.267	0.497	angry	Picture	31.012	n/a	2	6	1	n/a	101	81	3	n/a	n/a	n/a	n/a	209.833	AF01ANS.jpg
178.765	0.514	Blank	Blank	30.498	n/a	2	6	1	n/a	101	n/a	3	n/a	n/a	n/a	n/a	210.331	n/a
179.295	0.497	angry	Picture	29.984	n/a	2	6	2	n/a	102	120	3	n/a	n/a	n/a	n/a	210.861	AM35ANS.jpg
179.792	0.514	Blank	Blank	29.47	n/a	2	6	2	n/a	102	n/a	3	n/a	n/a	n/a	n/a	211.359	n/a
180.323	0.497	angry	Picture	28.956	n/a	2	6	3	n/a	103	114	3	n/a	n/a	n/a	n/a	211.889	AM22ANS.jpg
180.82	0.514	Blank	Blank	28.442	n/a	2	6	3	n/a	103	n/a	3	n/a	n/a	n/a	n/a	212.387	n/a
181.351	0.497	angry	Picture	27.928	n/a	2	6	4	n/a	104	109	3	n/a	n/a	n/a	n/a	212.917	AM10ANS.jpg
181.848	0.514	Blank	Blank	27.414	n/a	2	6	4	n/a	104	n/a	3	n/a	n/a	n/a	n/a	213.415	n/a
182.379	0.497	angry	Picture	26.9	n/a	2	6	5	n/a	105	96	3	n/a	n/a	n/a	n/a	213.945	AF26ANS.jpg
182.876	0.514	Blank	Blank	26.387	n/a	2	6	5	n/a	105	n/a	3	n/a	n/a	n/a	n/a	214.442	n/a
183.407	0.497	angry	Picture	25.873	n/a	2	6	6	n/a	106	82	3	n/a	n/a	n/a	n/a	214.973	AF03ANS.jpg
183.904	0.514	Blank	Blank	25.359	n/a	2	6	6	n/a	106	n/a	3	n/a	n/a	n/a	n/a	215.47	n/a
184.435	0.497	angry	Picture	24.845	n/a	2	6	7	n/a	107	97	3	n/a	n/a	n/a	n/a	216.001	BF28ANS.jpg
184.932	0.514	Blank	Blank	24.331	n/a	2	6	7	n/a	107	n/a	3	n/a	n/a	n/a	n/a	216.498	n/a
185.462	0.497	angry	Picture	23.817	n/a	2	6	8	n/a	108	115	3	n/a	n/a	n/a	n/a	217.029	AM23ANS.jpg
185.96	0.514	Blank	Blank	23.303	n/a	2	6	8	n/a	108	n/a	3	n/a	n/a	n/a	n/a	217.526	n/a
186.49	0.497	angry	Picture	22.789	n/a	2	6	9	n/a	109	91	3	n/a	n/a	n/a	n/a	218.057	AF20ANS.jpg
186.988	0.514	Blank	Blank	22.275	n/a	2	6	9	n/a	109	n/a	3	n/a	n/a	n/a	n/a	218.554	n/a
187.518	0.497	angry	Picture	21.761	n/a	2	6	10	n/a	110	87	3	n/a	n/a	n/a	n/a	219.084	BF11ANS.jpg
188.016	0.514	Blank	Blank	21.247	n/a	2	6	10	n/a	110	n/a	3	n/a	n/a	n/a	n/a	219.582	n/a
188.546	0.497	angry	Picture	20.733	n/a	2	6	11	n/a	111	85	3	n/a	n/a	n/a	n/a	220.112	BF07ANS.jpg
189.043	0.514	Blank	Blank	20.219	n/a	2	6	11	n/a	111	n/a	3	n/a	n/a	n/a	n/a	220.61	n/a
189.574	0.497	angry	Picture	19.705	n/a	2	6	12	n/a	112	110	3	n/a	n/a	n/a	n/a	221.14	AM11ANS.jpg
190.071	0.514	Blank	Blank	19.191	n/a	2	6	12	n/a	112	n/a	3	n/a	n/a	n/a	n/a	221.638	n/a
190.602	0.497	angry	Picture	18.677	n/a	2	6	13	n/a	113	111	3	n/a	n/a	n/a	n/a	222.168	BM12ANS.jpg
191.099	0.514	Blank	Blank	18.163	n/a	2	6	13	n/a	113	n/a	3	n/a	n/a	n/a	n/a	222.666	n/a
191.63	0.497	angry	Picture	17.649	n/a	2	6	14	n/a	114	103	3	n/a	n/a	n/a	n/a	223.196	AM04ANS.jpg
192.127	0.514	Blank	Blank	17.136	n/a	2	6	14	n/a	114	n/a	3	n/a	n/a	n/a	n/a	223.693	n/a
192.658	0.497	angry	Picture	16.622	n/a	2	6	15	n/a	115	101	3	n/a	n/a	n/a	n/a	224.224	AM01ANS.jpg
193.155	0.514	Blank	Blank	16.108	n/a	2	6	15	n/a	115	n/a	3	n/a	n/a	n/a	n/a	224.721	n/a
193.686	0.497	angry	Picture	15.594	n/a	2	6	16	n/a	116	104	3	n/a	n/a	n/a	n/a	225.252	BM05ANS.jpg
194.183	0.514	Blank	Blank	15.08	n/a	2	6	16	n/a	116	n/a	3	n/a	n/a	n/a	n/a	225.749	n/a
194.713	0.497	angry	Picture	14.566	n/a	2	6	17	n/a	117	107	3	n/a	n/a	n/a	n/a	226.28	BM08ANS.jpg
195.211	0.514	Blank	Blank	14.052	n/a	2	6	17	n/a	117	n/a	3	n/a	n/a	n/a	n/a	226.777	n/a
195.741	0.497	angry	Picture	13.538	n/a	2	6	18	n/a	118	98	3	n/a	n/a	n/a	n/a	227.308	BF29ANS.jpg
196.239	0.514	Blank	Blank	13.024	n/a	2	6	18	n/a	118	n/a	3	n/a	n/a	n/a	n/a	227.805	n/a
196.769	0.497	angry	Picture	12.51	n/a	2	6	19	n/a	119	99	3	n/a	n/a	n/a	n/a	228.335	AF31ANS.jpg
197.267	0.514	Blank	Blank	11.996	n/a	2	6	19	n/a	119	n/a	3	n/a	n/a	n/a	n/a	228.833	n/a
197.797	0.497	angry	Picture	11.482	n/a	2	6	20	n/a	120	108	3	n/a	n/a	n/a	n/a	229.363	AM09ANS.jpg
198.294	0.514	Blank	Blank	10.968	n/a	2	6	20	n/a	120	n/a	3	n/a	n/a	n/a	n/a	229.861	n/a
198.825	10.014	ITI	Fixation+	0.938	n/a	2	n/a	n/a	n/a	n/a	n/a	n/a	n/a	n/a	n/a	n/a	230.391	n/a
209.777	n/a	ConfirmRating	Rate	n/a	0.928	2	n/a	n/a	0	n/a	n/a	n/a	2	Angry	50	50	241.343	n/a
212.534	n/a	ConfirmRating	Rate	n/a	2.736	2	n/a	n/a	1	n/a	n/a	n/a	3	Angry	0	49	244.1	n/a
212.552	15.004	Rest	Picture	n/a	n/a	n/a	n/a	n/a	n/a	n/a	n/a	n/a	0	n/a	0	0	244.119	n/a
227.573	10.014	ITI	Fixation+	94.778	n/a	3	n/a	n/a	n/a	n/a	n/a	n/a	n/a	n/a	n/a	n/a	259.139	n/a
237.603	0.497	happy	Picture	94.264	n/a	3	7	1	n/a	1	46	2	n/a	n/a	n/a	n/a	269.169	AF09HAS.jpg
238.1	0.514	Blank	Blank	93.75	n/a	3	7	1	n/a	1	n/a	2	n/a	n/a	n/a	n/a	269.667	n/a
238.631	0.497	happy	Picture	93.236	n/a	3	7	2	n/a	2	69	2	n/a	n/a	n/a	n/a	270.197	AM10HAS.jpg
239.128	0.514	Blank	Blank	92.722	n/a	3	7	2	n/a	2	n/a	2	n/a	n/a	n/a	n/a	270.695	n/a
239.659	0.497	happy	Picture	92.208	n/a	3	7	3	n/a	3	71	2	n/a	n/a	n/a	n/a	271.225	BM12HAS.jpg
240.156	0.514	Blank	Blank	91.694	n/a	3	7	3	n/a	3	n/a	2	n/a	n/a	n/a	n/a	271.722	n/a
240.687	0.497	happy	Picture	91.18	n/a	3	7	4	n/a	4	51	2	n/a	n/a	n/a	n/a	272.253	AF20HAS.jpg
241.184	0.514	Blank	Blank	90.666	n/a	3	7	4	n/a	4	n/a	2	n/a	n/a	n/a	n/a	272.75	n/a
241.715	0.497	happy	Picture	90.153	n/a	3	7	5	n/a	5	67	2	n/a	n/a	n/a	n/a	273.281	BM08HAS.jpg
242.212	0.514	Blank	Blank	89.639	n/a	3	7	5	n/a	5	n/a	2	n/a	n/a	n/a	n/a	273.778	n/a
242.742	0.497	happy	Picture	89.125	n/a	3	7	6	n/a	6	60	2	n/a	n/a	n/a	n/a	274.309	AF32HAS.jpg
243.24	0.514	Blank	Blank	88.611	n/a	3	7	6	n/a	6	n/a	2	n/a	n/a	n/a	n/a	274.806	n/a
243.77	0.497	happy	Picture	88.097	n/a	3	7	7	n/a	7	42	2	n/a	n/a	n/a	n/a	275.337	AF03HAS.jpg
244.268	0.514	Blank	Blank	87.583	n/a	3	7	7	n/a	7	n/a	2	n/a	n/a	n/a	n/a	275.834	n/a
244.798	0.497	happy	Picture	87.069	n/a	3	7	8	n/a	8	55	2	n/a	n/a	n/a	n/a	276.364	AF25HAS.jpg
245.296	0.514	Blank	Blank	86.555	n/a	3	7	8	n/a	8	n/a	2	n/a	n/a	n/a	n/a	276.862	n/a
245.826	0.497	happy	Picture	86.041	n/a	3	7	9	n/a	9	72	2	n/a	n/a	n/a	n/a	277.392	AM14HAS.jpg
246.323	0.514	Blank	Blank	85.527	n/a	3	7	9	n/a	9	n/a	2	n/a	n/a	n/a	n/a	277.89	n/a
246.854	0.497	happy	Picture	85.013	n/a	3	7	10	n/a	10	63	2	n/a	n/a	n/a	n/a	278.42	AM04HAS.jpg
247.351	0.514	Blank	Blank	84.499	n/a	3	7	10	n/a	10	n/a	2	n/a	n/a	n/a	n/a	278.918	n/a
247.882	0.497	happy	Picture	83.985	n/a	3	7	11	n/a	11	58	2	n/a	n/a	n/a	n/a	279.448	BF29HAS.jpg
248.379	0.514	Blank	Blank	83.471	n/a	3	7	11	n/a	11	n/a	2	n/a	n/a	n/a	n/a	279.945	n/a
248.91	0.497	happy	Picture	82.957	n/a	3	7	12	n/a	12	48	2	n/a	n/a	n/a	n/a	280.476	AF14HAS.jpg
249.407	0.514	Blank	Blank	82.443	n/a	3	7	12	n/a	12	n/a	2	n/a	n/a	n/a	n/a	280.973	n/a
249.938	0.497	happy	Picture	81.929	n/a	3	7	13	n/a	13	66	2	n/a	n/a	n/a	n/a	281.504	BM07HAS.jpg
250.435	0.514	Blank	Blank	81.415	n/a	3	7	13	n/a	13	n/a	2	n/a	n/a	n/a	n/a	282.001	n/a
250.966	0.497	happy	Picture	80.901	n/a	3	7	14	n/a	14	70	2	n/a	n/a	n/a	n/a	282.532	BM11HAS.jpg
251.463	0.514	Blank	Blank	80.388	n/a	3	7	14	n/a	14	n/a	2	n/a	n/a	n/a	n/a	283.029	n/a
251.994	0.497	happy	Picture	79.874	n/a	3	7	15	n/a	15	43	2	n/a	n/a	n/a	n/a	283.56	BF04HAS.jpg
252.491	0.514	Blank	Blank	79.36	n/a	3	7	15	n/a	15	n/a	2	n/a	n/a	n/a	n/a	284.057	n/a
253.021	0.497	happy	Picture	78.846	n/a	3	7	16	n/a	16	49	2	n/a	n/a	n/a	n/a	284.588	AF17HAS.jpg
253.519	0.514	Blank	Blank	78.332	n/a	3	7	16	n/a	16	n/a	2	n/a	n/a	n/a	n/a	285.085	n/a
254.049	0.497	happy	Picture	77.818	n/a	3	7	17	n/a	17	75	2	n/a	n/a	n/a	n/a	285.615	AM23HAS.jpg
254.547	0.514	Blank	Blank	77.304	n/a	3	7	17	n/a	17	n/a	2	n/a	n/a	n/a	n/a	286.113	n/a
255.077	0.497	happy	Picture	76.79	n/a	3	7	18	n/a	18	80	2	n/a	n/a	n/a	n/a	286.643	BM35HAS.jpg
255.574	0.514	Blank	Blank	76.276	n/a	3	7	18	n/a	18	n/a	2	n/a	n/a	n/a	n/a	287.141	n/a
256.105	0.497	happy	Picture	75.762	n/a	3	7	19	n/a	19	76	2	n/a	n/a	n/a	n/a	287.671	BM24HAS.jpg
256.602	0.514	Blank	Blank	75.248	n/a	3	7	19	n/a	19	n/a	2	n/a	n/a	n/a	n/a	288.169	n/a
257.133	0.497	happy	Picture	74.734	n/a	3	7	20	n/a	20	74	2	n/a	n/a	n/a	n/a	288.699	AM22HAS.jpg
257.63	0.514	Blank	Blank	74.22	n/a	3	7	20	n/a	20	n/a	2	n/a	n/a	n/a	n/a	289.197	n/a
258.161	10.014	ITI	Fixation+	64.19	n/a	3	n/a	n/a	n/a	n/a	n/a	n/a	n/a	n/a	n/a	n/a	289.727	n/a
268.191	0.497	neutral	Picture	63.676	n/a	3	8	1	n/a	21	33	1	n/a	n/a	n/a	n/a	299.757	AM21NES.jpg
268.688	0.514	Blank	Blank	63.162	n/a	3	8	1	n/a	21	n/a	1	n/a	n/a	n/a	n/a	300.255	n/a
269.219	0.497	neutral	Picture	62.648	n/a	3	8	2	n/a	22	39	1	n/a	n/a	n/a	n/a	300.785	AM28NES.jpg
269.716	0.514	Blank	Blank	62.134	n/a	3	8	2	n/a	22	n/a	1	n/a	n/a	n/a	n/a	301.283	n/a
270.247	0.497	neutral	Picture	61.62	n/a	3	8	3	n/a	23	25	1	n/a	n/a	n/a	n/a	301.813	BM06NES.jpg
270.744	0.514	Blank	Blank	61.106	n/a	3	8	3	n/a	23	n/a	1	n/a	n/a	n/a	n/a	302.31	n/a
271.275	0.497	neutral	Picture	60.592	n/a	3	8	4	n/a	24	5	1	n/a	n/a	n/a	n/a	302.841	BF07NES.jpg
271.772	0.514	Blank	Blank	60.078	n/a	3	8	4	n/a	24	n/a	1	n/a	n/a	n/a	n/a	303.338	n/a
272.303	0.497	neutral	Picture	59.564	n/a	3	8	5	n/a	25	10	1	n/a	n/a	n/a	n/a	303.869	AF18NES.jpg
272.8	0.514	Blank	Blank	59.051	n/a	3	8	5	n/a	25	n/a	1	n/a	n/a	n/a	n/a	304.366	n/a
273.331	0.497	neutral	Picture	58.537	n/a	3	8	6	n/a	26	34	1	n/a	n/a	n/a	n/a	304.897	AM22NES.jpg
273.828	0.514	Blank	Blank	58.023	n/a	3	8	6	n/a	26	n/a	1	n/a	n/a	n/a	n/a	305.394	n/a
274.358	0.497	neutral	Picture	57.509	n/a	3	8	7	n/a	27	36	1	n/a	n/a	n/a	n/a	305.925	BM24NES.jpg
274.856	0.514	Blank	Blank	56.995	n/a	3	8	7	n/a	27	n/a	1	n/a	n/a	n/a	n/a	306.422	n/a
275.386	0.497	neutral	Picture	56.481	n/a	3	8	8	n/a	28	14	1	n/a	n/a	n/a	n/a	306.952	AF23NES.jpg
275.884	0.514	Blank	Blank	55.967	n/a	3	8	8	n/a	28	n/a	1	n/a	n/a	n/a	n/a	307.45	n/a
276.414	0.497	neutral	Picture	55.453	n/a	3	8	9	n/a	29	9	1	n/a	n/a	n/a	n/a	307.98	AF17NES.jpg
276.912	0.514	Blank	Blank	54.939	n/a	3	8	9	n/a	29	n/a	1	n/a	n/a	n/a	n/a	308.478	n/a
277.442	0.497	neutral	Picture	54.425	n/a	3	8	10	n/a	30	19	1	n/a	n/a	n/a	n/a	309.008	AF31NES.jpg
277.939	0.514	Blank	Blank	53.911	n/a	3	8	10	n/a	30	n/a	1	n/a	n/a	n/a	n/a	309.506	n/a
278.47	0.497	neutral	Picture	53.397	n/a	3	8	11	n/a	31	15	1	n/a	n/a	n/a	n/a	310.036	AF25NES.jpg
278.967	0.514	Blank	Blank	52.883	n/a	3	8	11	n/a	31	n/a	1	n/a	n/a	n/a	n/a	310.534	n/a
279.498	0.497	neutral	Picture	52.369	n/a	3	8	12	n/a	32	22	1	n/a	n/a	n/a	n/a	311.064	BM03NES.jpg
279.995	0.514	Blank	Blank	51.855	n/a	3	8	12	n/a	32	n/a	1	n/a	n/a	n/a	n/a	311.561	n/a
280.526	0.497	neutral	Picture	51.341	n/a	3	8	13	n/a	33	11	1	n/a	n/a	n/a	n/a	312.092	AF20NES.jpg
281.023	0.514	Blank	Blank	50.827	n/a	3	8	13	n/a	33	n/a	1	n/a	n/a	n/a	n/a	312.589	n/a
281.554	0.497	neutral	Picture	50.313	n/a	3	8	14	n/a	34	4	1	n/a	n/a	n/a	n/a	313.12	AF05NES.jpg
282.051	0.514	Blank	Blank	49.8	n/a	3	8	14	n/a	34	n/a	1	n/a	n/a	n/a	n/a	313.617	n/a
282.582	0.497	neutral	Picture	49.286	n/a	3	8	15	n/a	35	17	1	n/a	n/a	n/a	n/a	314.148	BF28NES.jpg
283.079	0.514	Blank	Blank	48.772	n/a	3	8	15	n/a	35	n/a	1	n/a	n/a	n/a	n/a	314.645	n/a
283.609	0.497	neutral	Picture	48.258	n/a	3	8	16	n/a	36	13	1	n/a	n/a	n/a	n/a	315.176	BF22NES.jpg
284.107	0.514	Blank	Blank	47.744	n/a	3	8	16	n/a	36	n/a	1	n/a	n/a	n/a	n/a	315.673	n/a
284.637	0.497	neutral	Picture	47.23	n/a	3	8	17	n/a	37	12	1	n/a	n/a	n/a	n/a	316.204	AF21NES.jpg
285.135	0.514	Blank	Blank	46.716	n/a	3	8	17	n/a	37	n/a	1	n/a	n/a	n/a	n/a	316.701	n/a
285.665	0.497	neutral	Picture	46.202	n/a	3	8	18	n/a	38	24	1	n/a	n/a	n/a	n/a	317.231	BM05NES.jpg
286.163	0.514	Blank	Blank	45.688	n/a	3	8	18	n/a	38	n/a	1	n/a	n/a	n/a	n/a	317.729	n/a
286.693	0.497	neutral	Picture	45.174	n/a	3	8	19	n/a	39	29	1	n/a	n/a	n/a	n/a	318.259	AM10NES.jpg
287.19	0.514	Blank	Blank	44.66	n/a	3	8	19	n/a	39	n/a	1	n/a	n/a	n/a	n/a	318.757	n/a
287.721	0.497	neutral	Picture	44.146	n/a	3	8	20	n/a	40	23	1	n/a	n/a	n/a	n/a	319.287	AM04NES.jpg
288.218	0.514	Blank	Blank	43.632	n/a	3	8	20	n/a	40	n/a	1	n/a	n/a	n/a	n/a	319.784	n/a
288.749	10.014	ITI	Fixation+	33.602	n/a	3	n/a	n/a	n/a	n/a	n/a	n/a	n/a	n/a	n/a	n/a	320.315	n/a
298.779	0.497	happy	Picture	33.088	n/a	3	9	1	n/a	41	62	2	n/a	n/a	n/a	n/a	330.345	BM03HAS.jpg
299.276	0.514	Blank	Blank	32.574	n/a	3	9	1	n/a	41	n/a	2	n/a	n/a	n/a	n/a	330.843	n/a
299.807	0.497	happy	Picture	32.06	n/a	3	9	2	n/a	42	52	2	n/a	n/a	n/a	n/a	331.373	AF21HAS.jpg
300.304	0.514	Blank	Blank	31.546	n/a	3	9	2	n/a	42	n/a	2	n/a	n/a	n/a	n/a	331.87	n/a
300.835	0.497	happy	Picture	31.032	n/a	3	9	3	n/a	43	44	2	n/a	n/a	n/a	n/a	332.401	AF05HAS.jpg
301.332	0.514	Blank	Blank	30.518	n/a	3	9	3	n/a	43	n/a	2	n/a	n/a	n/a	n/a	332.898	n/a
301.863	0.497	happy	Picture	30.004	n/a	3	9	4	n/a	44	53	2	n/a	n/a	n/a	n/a	333.429	BF22HAS.jpg
302.36	0.514	Blank	Blank	29.49	n/a	3	9	4	n/a	44	n/a	2	n/a	n/a	n/a	n/a	333.926	n/a
302.891	0.497	happy	Picture	28.976	n/a	3	9	5	n/a	45	54	2	n/a	n/a	n/a	n/a	334.457	AF23HAS.jpg
303.388	0.514	Blank	Blank	28.463	n/a	3	9	5	n/a	45	n/a	2	n/a	n/a	n/a	n/a	334.954	n/a
303.918	0.497	happy	Picture	27.949	n/a	3	9	6	n/a	46	68	2	n/a	n/a	n/a	n/a	335.485	AM09HAS.jpg
304.416	0.514	Blank	Blank	27.435	n/a	3	9	6	n/a	46	n/a	2	n/a	n/a	n/a	n/a	335.982	n/a
304.946	0.497	happy	Picture	26.921	n/a	3	9	7	n/a	47	64	2	n/a	n/a	n/a	n/a	336.513	BM05HAS.jpg
305.444	0.514	Blank	Blank	26.407	n/a	3	9	7	n/a	47	n/a	2	n/a	n/a	n/a	n/a	337.01	n/a
305.974	0.497	happy	Picture	25.893	n/a	3	9	8	n/a	48	59	2	n/a	n/a	n/a	n/a	337.541	AF31HAS.jpg
306.472	0.514	Blank	Blank	25.379	n/a	3	9	8	n/a	48	n/a	2	n/a	n/a	n/a	n/a	338.038	n/a
307.002	0.497	happy	Picture	24.865	n/a	3	9	9	n/a	49	41	2	n/a	n/a	n/a	n/a	338.568	AF01HAS.jpg
307.5	0.514	Blank	Blank	24.351	n/a	3	9	9	n/a	49	n/a	2	n/a	n/a	n/a	n/a	339.066	n/a
308.03	0.497	happy	Picture	23.837	n/a	3	9	10	n/a	50	73	2	n/a	n/a	n/a	n/a	339.596	AM21HAS.jpg
308.527	0.514	Blank	Blank	23.323	n/a	3	9	10	n/a	50	n/a	2	n/a	n/a	n/a	n/a	340.094	n/a
309.058	0.497	happy	Picture	22.809	n/a	3	9	11	n/a	51	65	2	n/a	n/a	n/a	n/a	340.624	BM06HAS.jpg
309.555	0.514	Blank	Blank	22.295	n/a	3	9	11	n/a	51	n/a	2	n/a	n/a	n/a	n/a	341.122	n/a
310.086	0.497	happy	Picture	21.781	n/a	3	9	12	n/a	52	56	2	n/a	n/a	n/a	n/a	341.652	AF26HAS.jpg
310.583	0.514	Blank	Blank	21.267	n/a	3	9	12	n/a	52	n/a	2	n/a	n/a	n/a	n/a	342.149	n/a
311.114	0.497	happy	Picture	20.753	n/a	3	9	13	n/a	53	45	2	n/a	n/a	n/a	n/a	342.68	BF07HAS.jpg
311.611	0.514	Blank	Blank	20.239	n/a	3	9	13	n/a	53	n/a	2	n/a	n/a	n/a	n/a	343.177	n/a
312.142	0.497	happy	Picture	19.725	n/a	3	9	14	n/a	54	78	2	n/a	n/a	n/a	n/a	343.708	BM26HAS.jpg
312.639	0.514	Blank	Blank	19.212	n/a	3	9	14	n/a	54	n/a	2	n/a	n/a	n/a	n/a	344.205	n/a
313.17	0.497	happy	Picture	18.697	n/a	3	9	15	n/a	55	50	2	n/a	n/a	n/a	n/a	344.736	AF18HAS.jpg
313.667	0.514	Blank	Blank	18.184	n/a	3	9	15	n/a	55	n/a	2	n/a	n/a	n/a	n/a	345.233	n/a
314.197	0.497	happy	Picture	17.67	n/a	3	9	16	n/a	56	47	2	n/a	n/a	n/a	n/a	345.764	BF11HAS.jpg
314.695	0.514	Blank	Blank	17.156	n/a	3	9	16	n/a	56	n/a	2	n/a	n/a	n/a	n/a	346.261	n/a
315.225	0.497	happy	Picture	16.642	n/a	3	9	17	n/a	57	77	2	n/a	n/a	n/a	n/a	346.791	BM25HAS.jpg
315.723	0.514	Blank	Blank	16.128	n/a	3	9	17	n/a	57	n/a	2	n/a	n/a	n/a	n/a	347.289	n/a
316.253	0.497	happy	Picture	15.614	n/a	3	9	18	n/a	58	57	2	n/a	n/a	n/a	n/a	347.819	BF28HAS.jpg
316.751	0.514	Blank	Blank	15.1	n/a	3	9	18	n/a	58	n/a	2	n/a	n/a	n/a	n/a	348.317	n/a
317.281	0.497	happy	Picture	14.586	n/a	3	9	19	n/a	59	61	2	n/a	n/a	n/a	n/a	348.847	AM01HAS.jpg
317.778	0.514	Blank	Blank	14.072	n/a	3	9	19	n/a	59	n/a	2	n/a	n/a	n/a	n/a	349.345	n/a
318.309	0.497	happy	Picture	13.558	n/a	3	9	20	n/a	60	79	2	n/a	n/a	n/a	n/a	349.875	BM28HAS.jpg
318.806	0.514	Blank	Blank	13.044	n/a	3	9	20	n/a	60	n/a	2	n/a	n/a	n/a	n/a	350.373	n/a
319.337	10.014	ITI	Fixation+	3.014	n/a	3	n/a	n/a	n/a	n/a	n/a	n/a	n/a	n/a	n/a	n/a	350.903	n/a
332.364	n/a	ConfirmRating	Rate	n/a	3.001	3	n/a	n/a	0	n/a	n/a	n/a	2	Happy	50	50	363.931	n/a
334.53	n/a	ConfirmRating	Rate	n/a	2.155	3	n/a	n/a	1	n/a	n/a	n/a	3	Happy	0	49	366.097	n/a
334.556	10.014	ITI	Fixation+	93.875	n/a	4	n/a	n/a	n/a	n/a	n/a	n/a	n/a	n/a	n/a	n/a	366.123	n/a
344.587	0.497	angry	Picture	93.362	n/a	4	10	1	n/a	61	119	3	n/a	n/a	n/a	n/a	376.153	BM28ANS.jpg
345.084	0.514	Blank	Blank	92.848	n/a	4	10	1	n/a	61	n/a	3	n/a	n/a	n/a	n/a	376.65	n/a
345.614	0.497	angry	Picture	92.334	n/a	4	10	2	n/a	62	100	3	n/a	n/a	n/a	n/a	377.181	AF32ANS.jpg
346.112	0.514	Blank	Blank	91.82	n/a	4	10	2	n/a	62	n/a	3	n/a	n/a	n/a	n/a	377.678	n/a
346.642	0.497	angry	Picture	91.306	n/a	4	10	3	n/a	63	118	3	n/a	n/a	n/a	n/a	378.209	BM26ANS.jpg
347.14	0.514	Blank	Blank	90.792	n/a	4	10	3	n/a	63	n/a	3	n/a	n/a	n/a	n/a	378.706	n/a
347.67	0.497	angry	Picture	90.278	n/a	4	10	4	n/a	64	89	3	n/a	n/a	n/a	n/a	379.236	AF17ANS.jpg
348.168	0.514	Blank	Blank	89.764	n/a	4	10	4	n/a	64	n/a	3	n/a	n/a	n/a	n/a	379.734	n/a
348.698	0.497	angry	Picture	89.25	n/a	4	10	5	n/a	65	116	3	n/a	n/a	n/a	n/a	380.264	BM24ANS.jpg
349.195	0.514	Blank	Blank	88.736	n/a	4	10	5	n/a	65	n/a	3	n/a	n/a	n/a	n/a	380.762	n/a
349.726	0.497	angry	Picture	88.222	n/a	4	10	6	n/a	66	105	3	n/a	n/a	n/a	n/a	381.292	BM06ANS.jpg
350.223	0.514	Blank	Blank	87.708	n/a	4	10	6	n/a	66	n/a	3	n/a	n/a	n/a	n/a	381.789	n/a
350.754	0.497	angry	Picture	87.194	n/a	4	10	7	n/a	67	106	3	n/a	n/a	n/a	n/a	382.32	AM07ANS.jpg
351.251	0.514	Blank	Blank	86.68	n/a	4	10	7	n/a	67	n/a	3	n/a	n/a	n/a	n/a	382.817	n/a
351.782	0.497	angry	Picture	86.166	n/a	4	10	8	n/a	68	94	3	n/a	n/a	n/a	n/a	383.348	AF23ANS.jpg
352.279	0.514	Blank	Blank	85.652	n/a	4	10	8	n/a	68	n/a	3	n/a	n/a	n/a	n/a	383.845	n/a
352.81	0.497	angry	Picture	85.138	n/a	4	10	9	n/a	69	117	3	n/a	n/a	n/a	n/a	384.376	BM25ANS.jpg
353.307	0.514	Blank	Blank	84.624	n/a	4	10	9	n/a	69	n/a	3	n/a	n/a	n/a	n/a	384.873	n/a
353.838	0.497	angry	Picture	84.11	n/a	4	10	10	n/a	70	90	3	n/a	n/a	n/a	n/a	385.404	AF18ANS.jpg
354.335	0.514	Blank	Blank	83.597	n/a	4	10	10	n/a	70	n/a	3	n/a	n/a	n/a	n/a	385.901	n/a
354.865	0.497	angry	Picture	83.083	n/a	4	10	11	n/a	71	83	3	n/a	n/a	n/a	n/a	386.432	BF04ANS.jpg
355.363	0.514	Blank	Blank	82.569	n/a	4	10	11	n/a	71	n/a	3	n/a	n/a	n/a	n/a	386.929	n/a
355.893	0.497	angry	Picture	82.055	n/a	4	10	12	n/a	72	112	3	n/a	n/a	n/a	n/a	387.459	AM14ANS.jpg
356.391	0.514	Blank	Blank	81.541	n/a	4	10	12	n/a	72	n/a	3	n/a	n/a	n/a	n/a	387.957	n/a
356.921	0.497	angry	Picture	81.027	n/a	4	10	13	n/a	73	102	3	n/a	n/a	n/a	n/a	388.487	BM03ANS.jpg
357.418	0.514	Blank	Blank	80.513	n/a	4	10	13	n/a	73	n/a	3	n/a	n/a	n/a	n/a	388.985	n/a
357.949	0.497	angry	Picture	79.999	n/a	4	10	14	n/a	74	95	3	n/a	n/a	n/a	n/a	389.515	AF25ANS.jpg
358.446	0.514	Blank	Blank	79.485	n/a	4	10	14	n/a	74	n/a	3	n/a	n/a	n/a	n/a	390.013	n/a
358.977	0.497	angry	Picture	78.971	n/a	4	10	15	n/a	75	113	3	n/a	n/a	n/a	n/a	390.543	AM21ANS.jpg
359.474	0.514	Blank	Blank	78.457	n/a	4	10	15	n/a	75	n/a	3	n/a	n/a	n/a	n/a	391.041	n/a
360.005	0.497	angry	Picture	77.943	n/a	4	10	16	n/a	76	88	3	n/a	n/a	n/a	n/a	391.571	AF14ANS.jpg
360.502	0.514	Blank	Blank	77.429	n/a	4	10	16	n/a	76	n/a	3	n/a	n/a	n/a	n/a	392.068	n/a
361.033	0.497	angry	Picture	76.915	n/a	4	10	17	n/a	77	93	3	n/a	n/a	n/a	n/a	392.599	BF22ANS.jpg
361.53	0.514	Blank	Blank	76.401	n/a	4	10	17	n/a	77	n/a	3	n/a	n/a	n/a	n/a	393.096	n/a
362.061	0.497	angry	Picture	75.887	n/a	4	10	18	n/a	78	86	3	n/a	n/a	n/a	n/a	393.627	AF09ANS.jpg
362.558	0.514	Blank	Blank	75.373	n/a	4	10	18	n/a	78	n/a	3	n/a	n/a	n/a	n/a	394.124	n/a
363.089	0.497	angry	Picture	74.859	n/a	4	10	19	n/a	79	92	3	n/a	n/a	n/a	n/a	394.655	AF21ANS.jpg
363.586	0.514	Blank	Blank	74.346	n/a	4	10	19	n/a	79	n/a	3	n/a	n/a	n/a	n/a	395.152	n/a
364.116	0.497	angry	Picture	73.832	n/a	4	10	20	n/a	80	84	3	n/a	n/a	n/a	n/a	395.683	AF05ANS.jpg
364.614	0.514	Blank	Blank	73.318	n/a	4	10	20	n/a	80	n/a	3	n/a	n/a	n/a	n/a	396.18	n/a
365.144	10.014	ITI	Fixation+	63.287	n/a	4	n/a	n/a	n/a	n/a	n/a	n/a	n/a	n/a	n/a	n/a	396.711	n/a
375.175	0.497	neutral	Picture	62.773	n/a	4	11	1	n/a	81	4	1	n/a	n/a	n/a	n/a	406.741	AF05NES.jpg
375.672	0.514	Blank	Blank	62.26	n/a	4	11	1	n/a	81	n/a	1	n/a	n/a	n/a	n/a	407.238	n/a
376.202	0.497	neutral	Picture	61.746	n/a	4	11	2	n/a	82	14	1	n/a	n/a	n/a	n/a	407.769	AF23NES.jpg
376.7	0.514	Blank	Blank	61.232	n/a	4	11	2	n/a	82	n/a	1	n/a	n/a	n/a	n/a	408.266	n/a
377.23	0.497	neutral	Picture	60.718	n/a	4	11	3	n/a	83	19	1	n/a	n/a	n/a	n/a	408.796	AF31NES.jpg
377.728	0.514	Blank	Blank	60.204	n/a	4	11	3	n/a	83	n/a	1	n/a	n/a	n/a	n/a	409.294	n/a
378.258	0.497	neutral	Picture	59.69	n/a	4	11	4	n/a	84	8	1	n/a	n/a	n/a	n/a	409.824	AF14NES.jpg
378.756	0.514	Blank	Blank	59.176	n/a	4	11	4	n/a	84	n/a	1	n/a	n/a	n/a	n/a	410.322	n/a
379.286	0.497	neutral	Picture	58.662	n/a	4	11	5	n/a	85	25	1	n/a	n/a	n/a	n/a	410.852	BM06NES.jpg
379.783	0.514	Blank	Blank	58.148	n/a	4	11	5	n/a	85	n/a	1	n/a	n/a	n/a	n/a	411.35	n/a
380.314	0.497	neutral	Picture	57.634	n/a	4	11	6	n/a	86	9	1	n/a	n/a	n/a	n/a	411.88	AF17NES.jpg
380.811	0.514	Blank	Blank	57.12	n/a	4	11	6	n/a	86	n/a	1	n/a	n/a	n/a	n/a	412.377	n/a
381.342	0.497	neutral	Picture	56.606	n/a	4	11	7	n/a	87	2	1	n/a	n/a	n/a	n/a	412.908	AF03NES.jpg
381.839	0.514	Blank	Blank	56.092	n/a	4	11	7	n/a	87	n/a	1	n/a	n/a	n/a	n/a	413.405	n/a
382.37	0.497	neutral	Picture	55.578	n/a	4	11	8	n/a	88	17	1	n/a	n/a	n/a	n/a	413.936	BF28NES.jpg
382.867	0.514	Blank	Blank	55.064	n/a	4	11	8	n/a	88	n/a	1	n/a	n/a	n/a	n/a	414.433	n/a
383.398	0.497	neutral	Picture	54.55	n/a	4	11	9	n/a	89	6	1	n/a	n/a	n/a	n/a	414.964	AF09NES.jpg
383.895	0.514	Blank	Blank	54.036	n/a	4	11	9	n/a	89	n/a	1	n/a	n/a	n/a	n/a	415.461	n/a
384.425	0.497	neutral	Picture	53.522	n/a	4	11	10	n/a	90	12	1	n/a	n/a	n/a	n/a	415.992	AF21NES.jpg
384.923	0.514	Blank	Blank	53.009	n/a	4	11	10	n/a	90	n/a	1	n/a	n/a	n/a	n/a	416.489	n/a
385.453	0.497	neutral	Picture	52.494	n/a	4	11	11	n/a	91	24	1	n/a	n/a	n/a	n/a	417.02	BM05NES.jpg
385.951	0.514	Blank	Blank	51.981	n/a	4	11	11	n/a	91	n/a	1	n/a	n/a	n/a	n/a	417.517	n/a
386.481	0.497	neutral	Picture	51.467	n/a	4	11	12	n/a	92	34	1	n/a	n/a	n/a	n/a	418.048	AM22NES.jpg
386.979	0.514	Blank	Blank	50.953	n/a	4	11	12	n/a	92	n/a	1	n/a	n/a	n/a	n/a	418.545	n/a
387.509	0.497	neutral	Picture	50.439	n/a	4	11	13	n/a	93	23	1	n/a	n/a	n/a	n/a	419.075	AM04NES.jpg
388.007	0.514	Blank	Blank	49.925	n/a	4	11	13	n/a	93	n/a	1	n/a	n/a	n/a	n/a	419.573	n/a
388.537	0.497	neutral	Picture	49.411	n/a	4	11	14	n/a	94	15	1	n/a	n/a	n/a	n/a	420.103	AF25NES.jpg
389.034	0.514	Blank	Blank	48.897	n/a	4	11	14	n/a	94	n/a	1	n/a	n/a	n/a	n/a	420.601	n/a
389.565	0.497	neutral	Picture	48.383	n/a	4	11	15	n/a	95	37	1	n/a	n/a	n/a	n/a	421.131	BM25NES.jpg
390.062	0.514	Blank	Blank	47.869	n/a	4	11	15	n/a	95	n/a	1	n/a	n/a	n/a	n/a	421.628	n/a
390.593	0.497	neutral	Picture	47.355	n/a	4	11	16	n/a	96	32	1	n/a	n/a	n/a	n/a	422.159	AM14NES.jpg
391.09	0.514	Blank	Blank	46.841	n/a	4	11	16	n/a	96	n/a	1	n/a	n/a	n/a	n/a	422.656	n/a
391.621	0.497	neutral	Picture	46.327	n/a	4	11	17	n/a	97	3	1	n/a	n/a	n/a	n/a	423.187	BF04NES.jpg
392.118	0.514	Blank	Blank	45.813	n/a	4	11	17	n/a	97	n/a	1	n/a	n/a	n/a	n/a	423.684	n/a
392.649	0.497	neutral	Picture	45.299	n/a	4	11	18	n/a	98	16	1	n/a	n/a	n/a	n/a	424.215	AF26NES.jpg
393.146	0.514	Blank	Blank	44.785	n/a	4	11	18	n/a	98	n/a	1	n/a	n/a	n/a	n/a	424.712	n/a
393.677	0.497	neutral	Picture	44.271	n/a	4	11	19	n/a	99	27	1	n/a	n/a	n/a	n/a	425.243	BM08NES.jpg
394.174	0.514	Blank	Blank	43.758	n/a	4	11	19	n/a	99	n/a	1	n/a	n/a	n/a	n/a	425.74	n/a
394.704	0.497	neutral	Picture	43.243	n/a	4	11	20	n/a	100	28	1	n/a	n/a	n/a	n/a	426.271	AM09NES.jpg
395.202	0.514	Blank	Blank	42.73	n/a	4	11	20	n/a	100	n/a	1	n/a	n/a	n/a	n/a	426.768	n/a
395.732	10.014	ITI	Fixation+	32.699	n/a	4	n/a	n/a	n/a	n/a	n/a	n/a	n/a	n/a	n/a	n/a	427.298	n/a
405.763	0.497	angry	Picture	32.185	n/a	4	12	1	n/a	101	81	3	n/a	n/a	n/a	n/a	437.329	AF01ANS.jpg
406.26	0.514	Blank	Blank	31.672	n/a	4	12	1	n/a	101	n/a	3	n/a	n/a	n/a	n/a	437.826	n/a
406.79	0.497	angry	Picture	31.157	n/a	4	12	2	n/a	102	120	3	n/a	n/a	n/a	n/a	438.357	AM35ANS.jpg
407.288	0.514	Blank	Blank	30.644	n/a	4	12	2	n/a	102	n/a	3	n/a	n/a	n/a	n/a	438.854	n/a
407.818	0.497	angry	Picture	30.13	n/a	4	12	3	n/a	103	114	3	n/a	n/a	n/a	n/a	439.385	AM22ANS.jpg
408.316	0.514	Blank	Blank	29.616	n/a	4	12	3	n/a	103	n/a	3	n/a	n/a	n/a	n/a	439.882	n/a
408.846	0.497	angry	Picture	29.102	n/a	4	12	4	n/a	104	109	3	n/a	n/a	n/a	n/a	440.412	AM10ANS.jpg
409.344	0.514	Blank	Blank	28.588	n/a	4	12	4	n/a	104	n/a	3	n/a	n/a	n/a	n/a	440.91	n/a
409.874	0.497	angry	Picture	28.074	n/a	4	12	5	n/a	105	96	3	n/a	n/a	n/a	n/a	441.44	AF26ANS.jpg
410.371	0.514	Blank	Blank	27.56	n/a	4	12	5	n/a	105	n/a	3	n/a	n/a	n/a	n/a	441.938	n/a
410.902	0.497	angry	Picture	27.046	n/a	4	12	6	n/a	106	82	3	n/a	n/a	n/a	n/a	442.468	AF03ANS.jpg
411.399	0.514	Blank	Blank	26.532	n/a	4	12	6	n/a	106	n/a	3	n/a	n/a	n/a	n/a	442.966	n/a
411.93	0.497	angry	Picture	26.018	n/a	4	12	7	n/a	107	97	3	n/a	n/a	n/a	n/a	443.496	BF28ANS.jpg
412.427	0.514	Blank	Blank	25.504	n/a	4	12	7	n/a	107	n/a	3	n/a	n/a	n/a	n/a	443.993	n/a
412.958	0.497	angry	Picture	24.99	n/a	4	12	8	n/a	108	115	3	n/a	n/a	n/a	n/a	444.524	AM23ANS.jpg
413.455	0.514	Blank	Blank	24.476	n/a	4	12	8	n/a	108	n/a	3	n/a	n/a	n/a	n/a	445.021	n/a
413.986	0.497	angry	Picture	23.962	n/a	4	12	9	n/a	109	91	3	n/a	n/a	n/a	n/a	445.552	AF20ANS.jpg
414.483	0.514	Blank	Blank	23.448	n/a	4	12	9	n/a	109	n/a	3	n/a	n/a	n/a	n/a	446.049	n/a
415.014	0.497	angry	Picture	22.934	n/a	4	12	10	n/a	110	87	3	n/a	n/a	n/a	n/a	446.58	BF11ANS.jpg
415.511	0.514	Blank	Blank	22.421	n/a	4	12	10	n/a	110	n/a	3	n/a	n/a	n/a	n/a	447.077	n/a
416.041	0.497	angry	Picture	21.906	n/a	4	12	11	n/a	111	85	3	n/a	n/a	n/a	n/a	447.608	BF07ANS.jpg
416.539	0.514	Blank	Blank	21.393	n/a	4	12	11	n/a	111	n/a	3	n/a	n/a	n/a	n/a	448.105	n/a
417.069	0.497	angry	Picture	20.879	n/a	4	12	12	n/a	112	110	3	n/a	n/a	n/a	n/a	448.635	AM11ANS.jpg
417.567	0.514	Blank	Blank	20.365	n/a	4	12	12	n/a	112	n/a	3	n/a	n/a	n/a	n/a	449.133	n/a
418.097	0.497	angry	Picture	19.851	n/a	4	12	13	n/a	113	111	3	n/a	n/a	n/a	n/a	449.663	BM12ANS.jpg
418.595	0.514	Blank	Blank	19.337	n/a	4	12	13	n/a	113	n/a	3	n/a	n/a	n/a	n/a	450.161	n/a
419.125	0.497	angry	Picture	18.823	n/a	4	12	14	n/a	114	103	3	n/a	n/a	n/a	n/a	450.691	AM04ANS.jpg
419.622	0.514	Blank	Blank	18.309	n/a	4	12	14	n/a	114	n/a	3	n/a	n/a	n/a	n/a	451.189	n/a
420.153	0.497	angry	Picture	17.795	n/a	4	12	15	n/a	115	101	3	n/a	n/a	n/a	n/a	451.719	AM01ANS.jpg
420.65	0.514	Blank	Blank	17.281	n/a	4	12	15	n/a	115	n/a	3	n/a	n/a	n/a	n/a	452.216	n/a
421.181	0.497	angry	Picture	16.767	n/a	4	12	16	n/a	116	104	3	n/a	n/a	n/a	n/a	452.747	BM05ANS.jpg
421.678	0.514	Blank	Blank	16.253	n/a	4	12	16	n/a	116	n/a	3	n/a	n/a	n/a	n/a	453.244	n/a
422.209	0.497	angry	Picture	15.739	n/a	4	12	17	n/a	117	107	3	n/a	n/a	n/a	n/a	453.775	BM08ANS.jpg
422.706	0.514	Blank	Blank	15.225	n/a	4	12	17	n/a	117	n/a	3	n/a	n/a	n/a	n/a	454.272	n/a
423.237	0.497	angry	Picture	14.711	n/a	4	12	18	n/a	118	98	3	n/a	n/a	n/a	n/a	454.803	BF29ANS.jpg
423.734	0.514	Blank	Blank	14.197	n/a	4	12	18	n/a	118	n/a	3	n/a	n/a	n/a	n/a	455.3	n/a
424.264	0.497	angry	Picture	13.683	n/a	4	12	19	n/a	119	99	3	n/a	n/a	n/a	n/a	455.831	AF31ANS.jpg
424.762	0.514	Blank	Blank	13.17	n/a	4	12	19	n/a	119	n/a	3	n/a	n/a	n/a	n/a	456.328	n/a
425.292	0.497	angry	Picture	12.655	n/a	4	12	20	n/a	120	108	3	n/a	n/a	n/a	n/a	456.859	AM09ANS.jpg
425.79	0.514	Blank	Blank	12.142	n/a	4	12	20	n/a	120	n/a	3	n/a	n/a	n/a	n/a	457.356	n/a
426.32	10.014	ITI	Fixation+	2.111	n/a	4	n/a	n/a	n/a	n/a	n/a	n/a	n/a	n/a	n/a	n/a	457.887	n/a
438.445	n/a	ConfirmRating	Rate	n/a	2.106	4	n/a	n/a	0	n/a	n/a	n/a	2	Angry	50	50	470.012	n/a
441.31	n/a	ConfirmRating	Rate	n/a	2.852	4	n/a	n/a	1	n/a	n/a	n/a	3	Angry	0	49	472.877	n/a
