onset	duration	trial_type	event_type	time_until_response	response_time	trial_number	block_num_within_trial	image_seq_num_within_block	question_seq_num_within_block	image_seq_num	picture_number	condition	question_type	block_type	rating	rating_computed	onset_uncorrected	KDEV_imagefile
0.007	10.014	ITI	Fixation+	102.33	n/a	1	n/a	n/a	n/a	n/a	n/a	n/a	n/a	n/a	n/a	n/a	31.693	n/a
10.037	0.497	angry	Picture	101.816	n/a	1	1	1	n/a	1	46	2	n/a	n/a	n/a	n/a	41.724	AF09HAS.jpg
10.534	0.514	Blank	Blank	101.302	n/a	1	1	1	n/a	1	n/a	2	n/a	n/a	n/a	n/a	42.221	n/a
11.065	0.497	angry	Picture	100.788	n/a	1	1	2	n/a	2	69	2	n/a	n/a	n/a	n/a	42.751	AM10HAS.jpg
11.562	0.514	Blank	Blank	100.274	n/a	1	1	2	n/a	2	n/a	2	n/a	n/a	n/a	n/a	43.249	n/a
12.093	0.497	angry	Picture	99.76	n/a	1	1	3	n/a	3	71	2	n/a	n/a	n/a	n/a	43.779	BM12HAS.jpg
12.59	0.514	Blank	Blank	99.246	n/a	1	1	3	n/a	3	n/a	2	n/a	n/a	n/a	n/a	44.277	n/a
13.121	0.497	angry	Picture	98.732	n/a	1	1	4	n/a	4	51	2	n/a	n/a	n/a	n/a	44.807	AF20HAS.jpg
13.618	0.514	Blank	Blank	98.219	n/a	1	1	4	n/a	4	n/a	2	n/a	n/a	n/a	n/a	45.305	n/a
14.149	0.497	angry	Picture	97.705	n/a	1	1	5	n/a	5	67	2	n/a	n/a	n/a	n/a	45.835	BM08HAS.jpg
14.646	0.514	Blank	Blank	97.191	n/a	1	1	5	n/a	5	n/a	2	n/a	n/a	n/a	n/a	46.333	n/a
15.177	0.497	angry	Picture	96.677	n/a	1	1	6	n/a	6	60	2	n/a	n/a	n/a	n/a	46.863	AF32HAS.jpg
15.674	0.514	Blank	Blank	96.163	n/a	1	1	6	n/a	6	n/a	2	n/a	n/a	n/a	n/a	47.36	n/a
16.204	0.497	angry	Picture	95.649	n/a	1	1	7	n/a	7	42	2	n/a	n/a	n/a	n/a	47.891	AF03HAS.jpg
16.702	0.514	Blank	Blank	95.135	n/a	1	1	7	n/a	7	n/a	2	n/a	n/a	n/a	n/a	48.388	n/a
17.232	0.497	angry	Picture	94.621	n/a	1	1	8	n/a	8	55	2	n/a	n/a	n/a	n/a	48.919	AF25HAS.jpg
17.73	0.514	Blank	Blank	94.107	n/a	1	1	8	n/a	8	n/a	2	n/a	n/a	n/a	n/a	49.416	n/a
18.26	0.497	angry	Picture	93.593	n/a	1	1	9	n/a	9	72	2	n/a	n/a	n/a	n/a	49.947	AM14HAS.jpg
18.758	0.514	Blank	Blank	93.079	n/a	1	1	9	n/a	9	n/a	2	n/a	n/a	n/a	n/a	50.444	n/a
19.288	0.497	angry	Picture	92.565	n/a	1	1	10	n/a	10	63	2	n/a	n/a	n/a	n/a	50.974	AM04HAS.jpg
19.785	0.514	Blank	Blank	92.051	n/a	1	1	10	n/a	10	n/a	2	n/a	n/a	n/a	n/a	51.472	n/a
20.316	0.497	angry	Picture	91.537	n/a	1	1	11	n/a	11	58	2	n/a	n/a	n/a	n/a	52.002	BF29HAS.jpg
20.813	0.514	Blank	Blank	91.023	n/a	1	1	11	n/a	11	n/a	2	n/a	n/a	n/a	n/a	52.5	n/a
21.344	0.497	angry	Picture	90.509	n/a	1	1	12	n/a	12	48	2	n/a	n/a	n/a	n/a	53.03	AF14HAS.jpg
21.841	0.514	Blank	Blank	89.995	n/a	1	1	12	n/a	12	n/a	2	n/a	n/a	n/a	n/a	53.528	n/a
22.372	0.497	angry	Picture	89.481	n/a	1	1	13	n/a	13	66	2	n/a	n/a	n/a	n/a	54.058	BM07HAS.jpg
22.869	0.514	Blank	Blank	88.968	n/a	1	1	13	n/a	13	n/a	2	n/a	n/a	n/a	n/a	54.556	n/a
23.4	0.497	angry	Picture	88.454	n/a	1	1	14	n/a	14	70	2	n/a	n/a	n/a	n/a	55.086	BM11HAS.jpg
23.897	0.514	Blank	Blank	87.94	n/a	1	1	14	n/a	14	n/a	2	n/a	n/a	n/a	n/a	55.584	n/a
24.427	0.497	angry	Picture	87.426	n/a	1	1	15	n/a	15	43	2	n/a	n/a	n/a	n/a	56.114	BF04HAS.jpg
24.925	0.514	Blank	Blank	86.912	n/a	1	1	15	n/a	15	n/a	2	n/a	n/a	n/a	n/a	56.611	n/a
25.455	0.497	angry	Picture	86.398	n/a	1	1	16	n/a	16	49	2	n/a	n/a	n/a	n/a	57.142	AF17HAS.jpg
25.953	0.514	Blank	Blank	85.884	n/a	1	1	16	n/a	16	n/a	2	n/a	n/a	n/a	n/a	57.639	n/a
26.483	0.497	angry	Picture	85.37	n/a	1	1	17	n/a	17	75	2	n/a	n/a	n/a	n/a	58.17	AM23HAS.jpg
26.981	0.514	Blank	Blank	84.856	n/a	1	1	17	n/a	17	n/a	2	n/a	n/a	n/a	n/a	58.667	n/a
27.511	0.497	angry	Picture	84.342	n/a	1	1	18	n/a	18	80	2	n/a	n/a	n/a	n/a	59.198	BM35HAS.jpg
28.009	0.514	Blank	Blank	83.828	n/a	1	1	18	n/a	18	n/a	2	n/a	n/a	n/a	n/a	59.695	n/a
28.539	0.497	angry	Picture	83.314	n/a	1	1	19	n/a	19	76	2	n/a	n/a	n/a	n/a	60.225	BM24HAS.jpg
29.036	0.514	Blank	Blank	82.8	n/a	1	1	19	n/a	19	n/a	2	n/a	n/a	n/a	n/a	60.723	n/a
29.567	0.497	angry	Picture	82.286	n/a	1	1	20	n/a	20	74	2	n/a	n/a	n/a	n/a	61.253	AM22HAS.jpg
30.064	0.514	Blank	Blank	81.772	n/a	1	1	20	n/a	20	n/a	2	n/a	n/a	n/a	n/a	61.751	n/a
30.595	10.014	ITI	Fixation+	71.742	n/a	1	n/a	n/a	n/a	n/a	n/a	n/a	n/a	n/a	n/a	n/a	62.281	n/a
40.625	0.497	neutral	Picture	71.228	n/a	1	2	1	n/a	21	33	1	n/a	n/a	n/a	n/a	72.311	AM21NES.jpg
41.122	0.514	Blank	Blank	70.714	n/a	1	2	1	n/a	21	n/a	1	n/a	n/a	n/a	n/a	72.809	n/a
41.653	0.497	neutral	Picture	70.2	n/a	1	2	2	n/a	22	39	1	n/a	n/a	n/a	n/a	73.339	AM28NES.jpg
42.15	0.514	Blank	Blank	69.686	n/a	1	2	2	n/a	22	n/a	1	n/a	n/a	n/a	n/a	73.837	n/a
42.681	0.497	neutral	Picture	69.172	n/a	1	2	3	n/a	23	25	1	n/a	n/a	n/a	n/a	74.367	BM06NES.jpg
43.178	0.514	Blank	Blank	68.658	n/a	1	2	3	n/a	23	n/a	1	n/a	n/a	n/a	n/a	74.865	n/a
43.709	0.497	neutral	Picture	68.145	n/a	1	2	4	n/a	24	5	1	n/a	n/a	n/a	n/a	75.395	BF07NES.jpg
44.206	0.514	Blank	Blank	67.631	n/a	1	2	4	n/a	24	n/a	1	n/a	n/a	n/a	n/a	75.892	n/a
44.737	0.497	neutral	Picture	67.117	n/a	1	2	5	n/a	25	10	1	n/a	n/a	n/a	n/a	76.423	AF18NES.jpg
45.234	0.514	Blank	Blank	66.603	n/a	1	2	5	n/a	25	n/a	1	n/a	n/a	n/a	n/a	76.92	n/a
45.764	0.497	neutral	Picture	66.089	n/a	1	2	6	n/a	26	34	1	n/a	n/a	n/a	n/a	77.451	AM22NES.jpg
46.262	0.514	Blank	Blank	65.575	n/a	1	2	6	n/a	26	n/a	1	n/a	n/a	n/a	n/a	77.948	n/a
46.792	0.497	neutral	Picture	65.061	n/a	1	2	7	n/a	27	36	1	n/a	n/a	n/a	n/a	78.479	BM24NES.jpg
47.29	0.514	Blank	Blank	64.547	n/a	1	2	7	n/a	27	n/a	1	n/a	n/a	n/a	n/a	78.976	n/a
47.82	0.497	neutral	Picture	64.033	n/a	1	2	8	n/a	28	14	1	n/a	n/a	n/a	n/a	79.507	AF23NES.jpg
48.318	0.514	Blank	Blank	63.519	n/a	1	2	8	n/a	28	n/a	1	n/a	n/a	n/a	n/a	80.004	n/a
48.848	0.497	neutral	Picture	63.005	n/a	1	2	9	n/a	29	9	1	n/a	n/a	n/a	n/a	80.535	AF17NES.jpg
49.345	0.514	Blank	Blank	62.491	n/a	1	2	9	n/a	29	n/a	1	n/a	n/a	n/a	n/a	81.032	n/a
49.876	0.497	neutral	Picture	61.977	n/a	1	2	10	n/a	30	19	1	n/a	n/a	n/a	n/a	81.563	AF31NES.jpg
50.373	0.514	Blank	Blank	61.463	n/a	1	2	10	n/a	30	n/a	1	n/a	n/a	n/a	n/a	82.06	n/a
50.904	0.497	neutral	Picture	60.949	n/a	1	2	11	n/a	31	15	1	n/a	n/a	n/a	n/a	82.59	AF25NES.jpg
51.401	0.514	Blank	Blank	60.435	n/a	1	2	11	n/a	31	n/a	1	n/a	n/a	n/a	n/a	83.088	n/a
51.932	0.497	neutral	Picture	59.921	n/a	1	2	12	n/a	32	22	1	n/a	n/a	n/a	n/a	83.618	BM03NES.jpg
52.429	0.514	Blank	Blank	59.408	n/a	1	2	12	n/a	32	n/a	1	n/a	n/a	n/a	n/a	84.116	n/a
52.96	0.497	neutral	Picture	58.894	n/a	1	2	13	n/a	33	11	1	n/a	n/a	n/a	n/a	84.646	AF20NES.jpg
53.457	0.514	Blank	Blank	58.38	n/a	1	2	13	n/a	33	n/a	1	n/a	n/a	n/a	n/a	85.144	n/a
53.988	0.497	neutral	Picture	57.866	n/a	1	2	14	n/a	34	4	1	n/a	n/a	n/a	n/a	85.674	AF05NES.jpg
54.485	0.514	Blank	Blank	57.352	n/a	1	2	14	n/a	34	n/a	1	n/a	n/a	n/a	n/a	86.171	n/a
55.015	0.497	neutral	Picture	56.838	n/a	1	2	15	n/a	35	17	1	n/a	n/a	n/a	n/a	86.702	BF28NES.jpg
55.513	0.514	Blank	Blank	56.324	n/a	1	2	15	n/a	35	n/a	1	n/a	n/a	n/a	n/a	87.199	n/a
56.043	0.497	neutral	Picture	55.81	n/a	1	2	16	n/a	36	13	1	n/a	n/a	n/a	n/a	87.73	BF22NES.jpg
56.541	0.514	Blank	Blank	55.296	n/a	1	2	16	n/a	36	n/a	1	n/a	n/a	n/a	n/a	88.227	n/a
57.071	0.497	neutral	Picture	54.782	n/a	1	2	17	n/a	37	12	1	n/a	n/a	n/a	n/a	88.758	AF21NES.jpg
57.569	0.514	Blank	Blank	54.268	n/a	1	2	17	n/a	37	n/a	1	n/a	n/a	n/a	n/a	89.255	n/a
58.099	0.497	neutral	Picture	53.754	n/a	1	2	18	n/a	38	24	1	n/a	n/a	n/a	n/a	89.786	BM05NES.jpg
58.596	0.514	Blank	Blank	53.24	n/a	1	2	18	n/a	38	n/a	1	n/a	n/a	n/a	n/a	90.283	n/a
59.127	0.497	neutral	Picture	52.726	n/a	1	2	19	n/a	39	29	1	n/a	n/a	n/a	n/a	90.813	AM10NES.jpg
59.624	0.514	Blank	Blank	52.212	n/a	1	2	19	n/a	39	n/a	1	n/a	n/a	n/a	n/a	91.311	n/a
60.155	0.497	neutral	Picture	51.698	n/a	1	2	20	n/a	40	23	1	n/a	n/a	n/a	n/a	91.841	AM04NES.jpg
60.652	0.514	Blank	Blank	51.184	n/a	1	2	20	n/a	40	n/a	1	n/a	n/a	n/a	n/a	92.339	n/a
61.183	10.014	ITI	Fixation+	41.154	n/a	1	n/a	n/a	n/a	n/a	n/a	n/a	n/a	n/a	n/a	n/a	92.869	n/a
71.213	0.497	angry	Picture	40.64	n/a	1	3	1	n/a	41	62	2	n/a	n/a	n/a	n/a	102.899	BM03HAS.jpg
71.71	0.514	Blank	Blank	40.126	n/a	1	3	1	n/a	41	n/a	2	n/a	n/a	n/a	n/a	103.397	n/a
72.241	0.497	angry	Picture	39.612	n/a	1	3	2	n/a	42	52	2	n/a	n/a	n/a	n/a	103.927	AF21HAS.jpg
72.738	0.514	Blank	Blank	39.098	n/a	1	3	2	n/a	42	n/a	2	n/a	n/a	n/a	n/a	104.425	n/a
73.269	0.497	angry	Picture	38.585	n/a	1	3	3	n/a	43	44	2	n/a	n/a	n/a	n/a	104.955	AF05HAS.jpg
73.766	0.514	Blank	Blank	38.071	n/a	1	3	3	n/a	43	n/a	2	n/a	n/a	n/a	n/a	105.453	n/a
74.297	0.497	angry	Picture	37.557	n/a	1	3	4	n/a	44	53	2	n/a	n/a	n/a	n/a	105.983	BF22HAS.jpg
74.794	0.514	Blank	Blank	37.043	n/a	1	3	4	n/a	44	n/a	2	n/a	n/a	n/a	n/a	106.48	n/a
75.325	0.497	angry	Picture	36.529	n/a	1	3	5	n/a	45	54	2	n/a	n/a	n/a	n/a	107.011	AF23HAS.jpg
75.822	0.514	Blank	Blank	36.015	n/a	1	3	5	n/a	45	n/a	2	n/a	n/a	n/a	n/a	107.508	n/a
76.352	0.497	angry	Picture	35.501	n/a	1	3	6	n/a	46	68	2	n/a	n/a	n/a	n/a	108.039	AM09HAS.jpg
76.85	0.514	Blank	Blank	34.987	n/a	1	3	6	n/a	46	n/a	2	n/a	n/a	n/a	n/a	108.536	n/a
77.38	0.497	angry	Picture	34.473	n/a	1	3	7	n/a	47	64	2	n/a	n/a	n/a	n/a	109.067	BM05HAS.jpg
77.878	0.514	Blank	Blank	33.959	n/a	1	3	7	n/a	47	n/a	2	n/a	n/a	n/a	n/a	109.564	n/a
78.408	0.497	angry	Picture	33.445	n/a	1	3	8	n/a	48	59	2	n/a	n/a	n/a	n/a	110.095	AF31HAS.jpg
78.906	0.514	Blank	Blank	32.931	n/a	1	3	8	n/a	48	n/a	2	n/a	n/a	n/a	n/a	110.592	n/a
79.436	0.497	angry	Picture	32.417	n/a	1	3	9	n/a	49	41	2	n/a	n/a	n/a	n/a	111.123	AF01HAS.jpg
79.933	0.514	Blank	Blank	31.903	n/a	1	3	9	n/a	49	n/a	2	n/a	n/a	n/a	n/a	111.62	n/a
80.464	0.497	angry	Picture	31.389	n/a	1	3	10	n/a	50	73	2	n/a	n/a	n/a	n/a	112.15	AM21HAS.jpg
80.961	0.514	Blank	Blank	30.875	n/a	1	3	10	n/a	50	n/a	2	n/a	n/a	n/a	n/a	112.648	n/a
81.492	0.497	angry	Picture	30.361	n/a	1	3	11	n/a	51	65	2	n/a	n/a	n/a	n/a	113.178	BM06HAS.jpg
81.989	0.514	Blank	Blank	29.847	n/a	1	3	11	n/a	51	n/a	2	n/a	n/a	n/a	n/a	113.676	n/a
82.52	0.497	angry	Picture	29.334	n/a	1	3	12	n/a	52	56	2	n/a	n/a	n/a	n/a	114.206	AF26HAS.jpg
83.017	0.514	Blank	Blank	28.82	n/a	1	3	12	n/a	52	n/a	2	n/a	n/a	n/a	n/a	114.704	n/a
83.548	0.497	angry	Picture	28.306	n/a	1	3	13	n/a	53	45	2	n/a	n/a	n/a	n/a	115.234	BF07HAS.jpg
84.045	0.514	Blank	Blank	27.792	n/a	1	3	13	n/a	53	n/a	2	n/a	n/a	n/a	n/a	115.731	n/a
84.575	0.497	angry	Picture	27.278	n/a	1	3	14	n/a	54	78	2	n/a	n/a	n/a	n/a	116.262	BM26HAS.jpg
85.073	0.514	Blank	Blank	26.764	n/a	1	3	14	n/a	54	n/a	2	n/a	n/a	n/a	n/a	116.759	n/a
85.603	0.497	angry	Picture	26.25	n/a	1	3	15	n/a	55	50	2	n/a	n/a	n/a	n/a	117.29	AF18HAS.jpg
86.101	0.514	Blank	Blank	25.736	n/a	1	3	15	n/a	55	n/a	2	n/a	n/a	n/a	n/a	117.787	n/a
86.631	0.497	angry	Picture	25.222	n/a	1	3	16	n/a	56	47	2	n/a	n/a	n/a	n/a	118.318	BF11HAS.jpg
87.129	0.514	Blank	Blank	24.708	n/a	1	3	16	n/a	56	n/a	2	n/a	n/a	n/a	n/a	118.815	n/a
87.659	0.497	angry	Picture	24.194	n/a	1	3	17	n/a	57	77	2	n/a	n/a	n/a	n/a	119.346	BM25HAS.jpg
88.157	0.514	Blank	Blank	23.68	n/a	1	3	17	n/a	57	n/a	2	n/a	n/a	n/a	n/a	119.843	n/a
88.687	0.497	angry	Picture	23.166	n/a	1	3	18	n/a	58	57	2	n/a	n/a	n/a	n/a	120.374	BF28HAS.jpg
89.184	0.514	Blank	Blank	22.652	n/a	1	3	18	n/a	58	n/a	2	n/a	n/a	n/a	n/a	120.871	n/a
89.715	0.497	angry	Picture	22.138	n/a	1	3	19	n/a	59	61	2	n/a	n/a	n/a	n/a	121.401	AM01HAS.jpg
90.212	0.514	Blank	Blank	21.624	n/a	1	3	19	n/a	59	n/a	2	n/a	n/a	n/a	n/a	121.899	n/a
90.743	0.497	angry	Picture	21.11	n/a	1	3	20	n/a	60	79	2	n/a	n/a	n/a	n/a	122.429	BM28HAS.jpg
91.24	0.514	Blank	Blank	20.596	n/a	1	3	20	n/a	60	n/a	2	n/a	n/a	n/a	n/a	122.927	n/a
91.771	10.014	ITI	Fixation+	10.566	n/a	1	n/a	n/a	n/a	n/a	n/a	n/a	n/a	n/a	n/a	n/a	123.457	n/a
112.351	n/a	ConfirmRating	Rate	n/a	10.545	1	n/a	n/a	0	n/a	n/a	n/a	2	Angry	47	50	144.037	n/a
121.985	n/a	ConfirmRating	Rate	n/a	9.616	1	n/a	n/a	1	n/a	n/a	n/a	3	Angry	6	46	153.672	n/a
122.01	10.014	ITI	Fixation+	96.783	n/a	2	n/a	n/a	n/a	n/a	n/a	n/a	n/a	n/a	n/a	n/a	153.697	n/a
132.041	0.497	happy	Picture	96.269	n/a	2	4	1	n/a	61	119	3	n/a	n/a	n/a	n/a	163.727	BM28ANS.jpg
132.538	0.514	Blank	Blank	95.755	n/a	2	4	1	n/a	61	n/a	3	n/a	n/a	n/a	n/a	164.225	n/a
133.069	0.497	happy	Picture	95.241	n/a	2	4	2	n/a	62	100	3	n/a	n/a	n/a	n/a	164.755	AF32ANS.jpg
133.566	0.514	Blank	Blank	94.728	n/a	2	4	2	n/a	62	n/a	3	n/a	n/a	n/a	n/a	165.252	n/a
134.096	0.497	happy	Picture	94.214	n/a	2	4	3	n/a	63	118	3	n/a	n/a	n/a	n/a	165.783	BM26ANS.jpg
134.594	0.514	Blank	Blank	93.7	n/a	2	4	3	n/a	63	n/a	3	n/a	n/a	n/a	n/a	166.28	n/a
135.124	0.497	happy	Picture	93.186	n/a	2	4	4	n/a	64	89	3	n/a	n/a	n/a	n/a	166.811	AF17ANS.jpg
135.622	0.514	Blank	Blank	92.672	n/a	2	4	4	n/a	64	n/a	3	n/a	n/a	n/a	n/a	167.308	n/a
136.152	0.497	happy	Picture	92.158	n/a	2	4	5	n/a	65	116	3	n/a	n/a	n/a	n/a	167.839	BM24ANS.jpg
136.65	0.514	Blank	Blank	91.644	n/a	2	4	5	n/a	65	n/a	3	n/a	n/a	n/a	n/a	168.336	n/a
137.18	0.497	happy	Picture	91.13	n/a	2	4	6	n/a	66	105	3	n/a	n/a	n/a	n/a	168.867	BM06ANS.jpg
137.677	0.514	Blank	Blank	90.616	n/a	2	4	6	n/a	66	n/a	3	n/a	n/a	n/a	n/a	169.364	n/a
138.208	0.497	happy	Picture	90.102	n/a	2	4	7	n/a	67	106	3	n/a	n/a	n/a	n/a	169.894	AM07ANS.jpg
138.705	0.514	Blank	Blank	89.588	n/a	2	4	7	n/a	67	n/a	3	n/a	n/a	n/a	n/a	170.392	n/a
139.236	0.497	happy	Picture	89.074	n/a	2	4	8	n/a	68	94	3	n/a	n/a	n/a	n/a	170.922	AF23ANS.jpg
139.733	0.514	Blank	Blank	88.56	n/a	2	4	8	n/a	68	n/a	3	n/a	n/a	n/a	n/a	171.42	n/a
140.264	0.497	happy	Picture	88.046	n/a	2	4	9	n/a	69	117	3	n/a	n/a	n/a	n/a	171.95	BM25ANS.jpg
140.761	0.514	Blank	Blank	87.532	n/a	2	4	9	n/a	69	n/a	3	n/a	n/a	n/a	n/a	172.448	n/a
141.292	0.497	happy	Picture	87.018	n/a	2	4	10	n/a	70	90	3	n/a	n/a	n/a	n/a	172.978	AF18ANS.jpg
141.789	0.514	Blank	Blank	86.504	n/a	2	4	10	n/a	70	n/a	3	n/a	n/a	n/a	n/a	173.476	n/a
142.32	0.497	happy	Picture	85.991	n/a	2	4	11	n/a	71	83	3	n/a	n/a	n/a	n/a	174.006	BF04ANS.jpg
142.817	0.514	Blank	Blank	85.477	n/a	2	4	11	n/a	71	n/a	3	n/a	n/a	n/a	n/a	174.503	n/a
143.347	0.497	happy	Picture	84.963	n/a	2	4	12	n/a	72	112	3	n/a	n/a	n/a	n/a	175.034	AM14ANS.jpg
143.845	0.514	Blank	Blank	84.449	n/a	2	4	12	n/a	72	n/a	3	n/a	n/a	n/a	n/a	175.531	n/a
144.375	0.497	happy	Picture	83.935	n/a	2	4	13	n/a	73	102	3	n/a	n/a	n/a	n/a	176.062	BM03ANS.jpg
144.873	0.514	Blank	Blank	83.421	n/a	2	4	13	n/a	73	n/a	3	n/a	n/a	n/a	n/a	176.559	n/a
145.403	0.497	happy	Picture	82.907	n/a	2	4	14	n/a	74	95	3	n/a	n/a	n/a	n/a	177.09	AF25ANS.jpg
145.9	0.514	Blank	Blank	82.393	n/a	2	4	14	n/a	74	n/a	3	n/a	n/a	n/a	n/a	177.587	n/a
146.431	0.497	happy	Picture	81.879	n/a	2	4	15	n/a	75	113	3	n/a	n/a	n/a	n/a	178.118	AM21ANS.jpg
146.928	0.514	Blank	Blank	81.365	n/a	2	4	15	n/a	75	n/a	3	n/a	n/a	n/a	n/a	178.615	n/a
147.459	0.497	happy	Picture	80.851	n/a	2	4	16	n/a	76	88	3	n/a	n/a	n/a	n/a	179.145	AF14ANS.jpg
147.956	0.514	Blank	Blank	80.337	n/a	2	4	16	n/a	76	n/a	3	n/a	n/a	n/a	n/a	179.643	n/a
148.487	0.497	happy	Picture	79.823	n/a	2	4	17	n/a	77	93	3	n/a	n/a	n/a	n/a	180.173	BF22ANS.jpg
148.984	0.514	Blank	Blank	79.309	n/a	2	4	17	n/a	77	n/a	3	n/a	n/a	n/a	n/a	180.671	n/a
149.515	0.497	happy	Picture	78.795	n/a	2	4	18	n/a	78	86	3	n/a	n/a	n/a	n/a	181.201	AF09ANS.jpg
150.012	0.514	Blank	Blank	78.281	n/a	2	4	18	n/a	78	n/a	3	n/a	n/a	n/a	n/a	181.699	n/a
150.543	0.497	happy	Picture	77.767	n/a	2	4	19	n/a	79	92	3	n/a	n/a	n/a	n/a	182.229	AF21ANS.jpg
151.04	0.514	Blank	Blank	77.253	n/a	2	4	19	n/a	79	n/a	3	n/a	n/a	n/a	n/a	182.726	n/a
151.571	0.497	happy	Picture	76.74	n/a	2	4	20	n/a	80	84	3	n/a	n/a	n/a	n/a	183.257	AF05ANS.jpg
152.068	0.514	Blank	Blank	76.226	n/a	2	4	20	n/a	80	n/a	3	n/a	n/a	n/a	n/a	183.754	n/a
152.598	10.014	ITI	Fixation+	66.195	n/a	2	n/a	n/a	n/a	n/a	n/a	n/a	n/a	n/a	n/a	n/a	184.285	n/a
162.629	0.497	neutral	Picture	65.681	n/a	2	5	1	n/a	81	4	1	n/a	n/a	n/a	n/a	194.315	AF05NES.jpg
163.126	0.514	Blank	Blank	65.168	n/a	2	5	1	n/a	81	n/a	1	n/a	n/a	n/a	n/a	194.812	n/a
163.656	0.497	neutral	Picture	64.654	n/a	2	5	2	n/a	82	14	1	n/a	n/a	n/a	n/a	195.343	AF23NES.jpg
164.154	0.514	Blank	Blank	64.14	n/a	2	5	2	n/a	82	n/a	1	n/a	n/a	n/a	n/a	195.84	n/a
164.684	0.497	neutral	Picture	63.626	n/a	2	5	3	n/a	83	19	1	n/a	n/a	n/a	n/a	196.371	AF31NES.jpg
165.182	0.514	Blank	Blank	63.112	n/a	2	5	3	n/a	83	n/a	1	n/a	n/a	n/a	n/a	196.868	n/a
165.712	0.497	neutral	Picture	62.598	n/a	2	5	4	n/a	84	8	1	n/a	n/a	n/a	n/a	197.399	AF14NES.jpg
166.21	0.514	Blank	Blank	62.084	n/a	2	5	4	n/a	84	n/a	1	n/a	n/a	n/a	n/a	197.896	n/a
166.74	0.497	neutral	Picture	61.57	n/a	2	5	5	n/a	85	25	1	n/a	n/a	n/a	n/a	198.427	BM06NES.jpg
167.237	0.514	Blank	Blank	61.056	n/a	2	5	5	n/a	85	n/a	1	n/a	n/a	n/a	n/a	198.924	n/a
167.768	0.497	neutral	Picture	60.542	n/a	2	5	6	n/a	86	9	1	n/a	n/a	n/a	n/a	199.454	AF17NES.jpg
168.265	0.514	Blank	Blank	60.028	n/a	2	5	6	n/a	86	n/a	1	n/a	n/a	n/a	n/a	199.952	n/a
168.796	0.497	neutral	Picture	59.514	n/a	2	5	7	n/a	87	2	1	n/a	n/a	n/a	n/a	200.482	AF03NES.jpg
169.293	0.514	Blank	Blank	59.0	n/a	2	5	7	n/a	87	n/a	1	n/a	n/a	n/a	n/a	200.98	n/a
169.824	0.497	neutral	Picture	58.486	n/a	2	5	8	n/a	88	17	1	n/a	n/a	n/a	n/a	201.51	BF28NES.jpg
170.321	0.514	Blank	Blank	57.972	n/a	2	5	8	n/a	88	n/a	1	n/a	n/a	n/a	n/a	202.008	n/a
170.852	0.497	neutral	Picture	57.458	n/a	2	5	9	n/a	89	6	1	n/a	n/a	n/a	n/a	202.538	AF09NES.jpg
171.349	0.514	Blank	Blank	56.944	n/a	2	5	9	n/a	89	n/a	1	n/a	n/a	n/a	n/a	203.036	n/a
171.88	0.497	neutral	Picture	56.43	n/a	2	5	10	n/a	90	12	1	n/a	n/a	n/a	n/a	203.566	AF21NES.jpg
172.377	0.514	Blank	Blank	55.917	n/a	2	5	10	n/a	90	n/a	1	n/a	n/a	n/a	n/a	204.063	n/a
172.907	0.497	neutral	Picture	55.403	n/a	2	5	11	n/a	91	24	1	n/a	n/a	n/a	n/a	204.594	BM05NES.jpg
173.405	0.514	Blank	Blank	54.889	n/a	2	5	11	n/a	91	n/a	1	n/a	n/a	n/a	n/a	205.091	n/a
173.935	0.497	neutral	Picture	54.375	n/a	2	5	12	n/a	92	34	1	n/a	n/a	n/a	n/a	205.622	AM22NES.jpg
174.433	0.514	Blank	Blank	53.861	n/a	2	5	12	n/a	92	n/a	1	n/a	n/a	n/a	n/a	206.119	n/a
174.963	0.497	neutral	Picture	53.347	n/a	2	5	13	n/a	93	23	1	n/a	n/a	n/a	n/a	206.65	AM04NES.jpg
175.46	0.514	Blank	Blank	52.833	n/a	2	5	13	n/a	93	n/a	1	n/a	n/a	n/a	n/a	207.147	n/a
175.991	0.497	neutral	Picture	52.319	n/a	2	5	14	n/a	94	15	1	n/a	n/a	n/a	n/a	207.678	AF25NES.jpg
176.488	0.514	Blank	Blank	51.805	n/a	2	5	14	n/a	94	n/a	1	n/a	n/a	n/a	n/a	208.175	n/a
177.019	0.497	neutral	Picture	51.291	n/a	2	5	15	n/a	95	37	1	n/a	n/a	n/a	n/a	208.706	BM25NES.jpg
177.516	0.514	Blank	Blank	50.777	n/a	2	5	15	n/a	95	n/a	1	n/a	n/a	n/a	n/a	209.203	n/a
178.047	0.497	neutral	Picture	50.263	n/a	2	5	16	n/a	96	32	1	n/a	n/a	n/a	n/a	209.733	AM14NES.jpg
178.544	0.514	Blank	Blank	49.749	n/a	2	5	16	n/a	96	n/a	1	n/a	n/a	n/a	n/a	210.231	n/a
179.075	0.497	neutral	Picture	49.235	n/a	2	5	17	n/a	97	3	1	n/a	n/a	n/a	n/a	210.761	BF04NES.jpg
179.572	0.514	Blank	Blank	48.721	n/a	2	5	17	n/a	97	n/a	1	n/a	n/a	n/a	n/a	211.259	n/a
180.103	0.497	neutral	Picture	48.207	n/a	2	5	18	n/a	98	16	1	n/a	n/a	n/a	n/a	211.789	AF26NES.jpg
180.6	0.514	Blank	Blank	47.693	n/a	2	5	18	n/a	98	n/a	1	n/a	n/a	n/a	n/a	212.286	n/a
181.131	0.497	neutral	Picture	47.179	n/a	2	5	19	n/a	99	27	1	n/a	n/a	n/a	n/a	212.817	BM08NES.jpg
181.628	0.514	Blank	Blank	46.666	n/a	2	5	19	n/a	99	n/a	1	n/a	n/a	n/a	n/a	213.314	n/a
182.158	0.497	neutral	Picture	46.152	n/a	2	5	20	n/a	100	28	1	n/a	n/a	n/a	n/a	213.845	AM09NES.jpg
182.656	0.514	Blank	Blank	45.638	n/a	2	5	20	n/a	100	n/a	1	n/a	n/a	n/a	n/a	214.342	n/a
183.186	10.014	ITI	Fixation+	35.607	n/a	2	n/a	n/a	n/a	n/a	n/a	n/a	n/a	n/a	n/a	n/a	214.873	n/a
193.216	0.497	happy	Picture	35.094	n/a	2	6	1	n/a	101	81	3	n/a	n/a	n/a	n/a	224.903	AF01ANS.jpg
193.714	0.514	Blank	Blank	34.58	n/a	2	6	1	n/a	101	n/a	3	n/a	n/a	n/a	n/a	225.4	n/a
194.244	0.497	happy	Picture	34.066	n/a	2	6	2	n/a	102	120	3	n/a	n/a	n/a	n/a	225.931	AM35ANS.jpg
194.742	0.514	Blank	Blank	33.552	n/a	2	6	2	n/a	102	n/a	3	n/a	n/a	n/a	n/a	226.428	n/a
195.272	0.497	happy	Picture	33.038	n/a	2	6	3	n/a	103	114	3	n/a	n/a	n/a	n/a	226.959	AM22ANS.jpg
195.77	0.514	Blank	Blank	32.524	n/a	2	6	3	n/a	103	n/a	3	n/a	n/a	n/a	n/a	227.456	n/a
196.3	0.497	happy	Picture	32.01	n/a	2	6	4	n/a	104	109	3	n/a	n/a	n/a	n/a	227.987	AM10ANS.jpg
196.798	0.514	Blank	Blank	31.496	n/a	2	6	4	n/a	104	n/a	3	n/a	n/a	n/a	n/a	228.484	n/a
197.328	0.497	happy	Picture	30.982	n/a	2	6	5	n/a	105	96	3	n/a	n/a	n/a	n/a	229.014	AF26ANS.jpg
197.825	0.514	Blank	Blank	30.468	n/a	2	6	5	n/a	105	n/a	3	n/a	n/a	n/a	n/a	229.512	n/a
198.356	0.497	happy	Picture	29.954	n/a	2	6	6	n/a	106	82	3	n/a	n/a	n/a	n/a	230.042	AF03ANS.jpg
198.853	0.514	Blank	Blank	29.44	n/a	2	6	6	n/a	106	n/a	3	n/a	n/a	n/a	n/a	230.54	n/a
199.384	0.497	happy	Picture	28.926	n/a	2	6	7	n/a	107	97	3	n/a	n/a	n/a	n/a	231.07	BF28ANS.jpg
199.881	0.514	Blank	Blank	28.412	n/a	2	6	7	n/a	107	n/a	3	n/a	n/a	n/a	n/a	231.568	n/a
200.412	0.497	happy	Picture	27.898	n/a	2	6	8	n/a	108	115	3	n/a	n/a	n/a	n/a	232.098	AM23ANS.jpg
200.909	0.514	Blank	Blank	27.384	n/a	2	6	8	n/a	108	n/a	3	n/a	n/a	n/a	n/a	232.595	n/a
201.44	0.497	happy	Picture	26.87	n/a	2	6	9	n/a	109	91	3	n/a	n/a	n/a	n/a	233.126	AF20ANS.jpg
201.937	0.514	Blank	Blank	26.356	n/a	2	6	9	n/a	109	n/a	3	n/a	n/a	n/a	n/a	233.623	n/a
202.467	0.497	happy	Picture	25.843	n/a	2	6	10	n/a	110	87	3	n/a	n/a	n/a	n/a	234.154	BF11ANS.jpg
202.965	0.514	Blank	Blank	25.329	n/a	2	6	10	n/a	110	n/a	3	n/a	n/a	n/a	n/a	234.651	n/a
203.495	0.497	happy	Picture	24.815	n/a	2	6	11	n/a	111	85	3	n/a	n/a	n/a	n/a	235.182	BF07ANS.jpg
203.993	0.514	Blank	Blank	24.301	n/a	2	6	11	n/a	111	n/a	3	n/a	n/a	n/a	n/a	235.679	n/a
204.523	0.497	happy	Picture	23.787	n/a	2	6	12	n/a	112	110	3	n/a	n/a	n/a	n/a	236.21	AM11ANS.jpg
205.021	0.514	Blank	Blank	23.273	n/a	2	6	12	n/a	112	n/a	3	n/a	n/a	n/a	n/a	236.707	n/a
205.551	0.497	happy	Picture	22.759	n/a	2	6	13	n/a	113	111	3	n/a	n/a	n/a	n/a	237.238	BM12ANS.jpg
206.049	0.514	Blank	Blank	22.245	n/a	2	6	13	n/a	113	n/a	3	n/a	n/a	n/a	n/a	237.735	n/a
206.579	0.497	happy	Picture	21.731	n/a	2	6	14	n/a	114	103	3	n/a	n/a	n/a	n/a	238.266	AM04ANS.jpg
207.076	0.514	Blank	Blank	21.217	n/a	2	6	14	n/a	114	n/a	3	n/a	n/a	n/a	n/a	238.763	n/a
207.607	0.497	happy	Picture	20.703	n/a	2	6	15	n/a	115	101	3	n/a	n/a	n/a	n/a	239.293	AM01ANS.jpg
208.104	0.514	Blank	Blank	20.189	n/a	2	6	15	n/a	115	n/a	3	n/a	n/a	n/a	n/a	239.791	n/a
208.635	0.497	happy	Picture	19.675	n/a	2	6	16	n/a	116	104	3	n/a	n/a	n/a	n/a	240.321	BM05ANS.jpg
209.132	0.514	Blank	Blank	19.161	n/a	2	6	16	n/a	116	n/a	3	n/a	n/a	n/a	n/a	240.819	n/a
209.663	0.497	happy	Picture	18.647	n/a	2	6	17	n/a	117	107	3	n/a	n/a	n/a	n/a	241.349	BM08ANS.jpg
210.16	0.514	Blank	Blank	18.133	n/a	2	6	17	n/a	117	n/a	3	n/a	n/a	n/a	n/a	241.846	n/a
210.691	0.497	happy	Picture	17.619	n/a	2	6	18	n/a	118	98	3	n/a	n/a	n/a	n/a	242.377	BF29ANS.jpg
211.188	0.514	Blank	Blank	17.105	n/a	2	6	18	n/a	118	n/a	3	n/a	n/a	n/a	n/a	242.874	n/a
211.718	0.497	happy	Picture	16.592	n/a	2	6	19	n/a	119	99	3	n/a	n/a	n/a	n/a	243.405	AF31ANS.jpg
212.216	0.514	Blank	Blank	16.078	n/a	2	6	19	n/a	119	n/a	3	n/a	n/a	n/a	n/a	243.902	n/a
212.746	0.497	happy	Picture	15.564	n/a	2	6	20	n/a	120	108	3	n/a	n/a	n/a	n/a	244.433	AM09ANS.jpg
213.244	0.514	Blank	Blank	15.05	n/a	2	6	20	n/a	120	n/a	3	n/a	n/a	n/a	n/a	244.93	n/a
213.774	10.014	ITI	Fixation+	5.02	n/a	2	n/a	n/a	n/a	n/a	n/a	n/a	n/a	n/a	n/a	n/a	245.461	n/a
228.807	n/a	ConfirmRating	Rate	n/a	5.007	2	n/a	n/a	0	n/a	n/a	n/a	2	Happy	80	54	260.494	n/a
231.343	n/a	ConfirmRating	Rate	n/a	2.52	2	n/a	n/a	1	n/a	n/a	n/a	3	Happy	1	49	263.03	n/a
231.364	15.004	Rest	Picture	n/a	n/a	n/a	n/a	n/a	n/a	n/a	n/a	n/a	0	n/a	0	0	263.051	n/a
246.385	10.014	ITI	Fixation+	95.201	n/a	3	n/a	n/a	n/a	n/a	n/a	n/a	n/a	n/a	n/a	n/a	278.071	n/a
256.415	0.497	angry	Picture	94.687	n/a	3	7	1	n/a	1	46	2	n/a	n/a	n/a	n/a	288.101	AF09HAS.jpg
256.912	0.514	Blank	Blank	94.173	n/a	3	7	1	n/a	1	n/a	2	n/a	n/a	n/a	n/a	288.599	n/a
257.443	0.497	angry	Picture	93.659	n/a	3	7	2	n/a	2	69	2	n/a	n/a	n/a	n/a	289.129	AM10HAS.jpg
257.94	0.514	Blank	Blank	93.145	n/a	3	7	2	n/a	2	n/a	2	n/a	n/a	n/a	n/a	289.627	n/a
258.471	0.497	angry	Picture	92.631	n/a	3	7	3	n/a	3	71	2	n/a	n/a	n/a	n/a	290.157	BM12HAS.jpg
258.968	0.514	Blank	Blank	92.117	n/a	3	7	3	n/a	3	n/a	2	n/a	n/a	n/a	n/a	290.655	n/a
259.499	0.497	angry	Picture	91.603	n/a	3	7	4	n/a	4	51	2	n/a	n/a	n/a	n/a	291.185	AF20HAS.jpg
259.996	0.514	Blank	Blank	91.089	n/a	3	7	4	n/a	4	n/a	2	n/a	n/a	n/a	n/a	291.683	n/a
260.526	0.497	angry	Picture	90.575	n/a	3	7	5	n/a	5	67	2	n/a	n/a	n/a	n/a	292.213	BM08HAS.jpg
261.024	0.514	Blank	Blank	90.061	n/a	3	7	5	n/a	5	n/a	2	n/a	n/a	n/a	n/a	292.71	n/a
261.554	0.497	angry	Picture	89.547	n/a	3	7	6	n/a	6	60	2	n/a	n/a	n/a	n/a	293.241	AF32HAS.jpg
262.052	0.514	Blank	Blank	89.033	n/a	3	7	6	n/a	6	n/a	2	n/a	n/a	n/a	n/a	293.738	n/a
262.582	0.497	angry	Picture	88.519	n/a	3	7	7	n/a	7	42	2	n/a	n/a	n/a	n/a	294.269	AF03HAS.jpg
263.08	0.514	Blank	Blank	88.005	n/a	3	7	7	n/a	7	n/a	2	n/a	n/a	n/a	n/a	294.766	n/a
263.61	0.497	angry	Picture	87.491	n/a	3	7	8	n/a	8	55	2	n/a	n/a	n/a	n/a	295.297	AF25HAS.jpg
264.107	0.514	Blank	Blank	86.978	n/a	3	7	8	n/a	8	n/a	2	n/a	n/a	n/a	n/a	295.794	n/a
264.638	0.497	angry	Picture	86.464	n/a	3	7	9	n/a	9	72	2	n/a	n/a	n/a	n/a	296.325	AM14HAS.jpg
265.135	0.514	Blank	Blank	85.95	n/a	3	7	9	n/a	9	n/a	2	n/a	n/a	n/a	n/a	296.822	n/a
265.666	0.497	angry	Picture	85.436	n/a	3	7	10	n/a	10	63	2	n/a	n/a	n/a	n/a	297.352	AM04HAS.jpg
266.163	0.514	Blank	Blank	84.922	n/a	3	7	10	n/a	10	n/a	2	n/a	n/a	n/a	n/a	297.85	n/a
266.694	0.497	angry	Picture	84.408	n/a	3	7	11	n/a	11	58	2	n/a	n/a	n/a	n/a	298.38	BF29HAS.jpg
267.191	0.514	Blank	Blank	83.894	n/a	3	7	11	n/a	11	n/a	2	n/a	n/a	n/a	n/a	298.878	n/a
267.722	0.497	angry	Picture	83.38	n/a	3	7	12	n/a	12	48	2	n/a	n/a	n/a	n/a	299.408	AF14HAS.jpg
268.219	0.514	Blank	Blank	82.866	n/a	3	7	12	n/a	12	n/a	2	n/a	n/a	n/a	n/a	299.906	n/a
268.75	0.497	angry	Picture	82.352	n/a	3	7	13	n/a	13	66	2	n/a	n/a	n/a	n/a	300.436	BM07HAS.jpg
269.247	0.514	Blank	Blank	81.838	n/a	3	7	13	n/a	13	n/a	2	n/a	n/a	n/a	n/a	300.933	n/a
269.777	0.497	angry	Picture	81.324	n/a	3	7	14	n/a	14	70	2	n/a	n/a	n/a	n/a	301.464	BM11HAS.jpg
270.275	0.514	Blank	Blank	80.81	n/a	3	7	14	n/a	14	n/a	2	n/a	n/a	n/a	n/a	301.961	n/a
270.805	0.497	angry	Picture	80.296	n/a	3	7	15	n/a	15	43	2	n/a	n/a	n/a	n/a	302.492	BF04HAS.jpg
271.303	0.514	Blank	Blank	79.782	n/a	3	7	15	n/a	15	n/a	2	n/a	n/a	n/a	n/a	302.989	n/a
271.833	0.497	angry	Picture	79.268	n/a	3	7	16	n/a	16	49	2	n/a	n/a	n/a	n/a	303.52	AF17HAS.jpg
272.331	0.514	Blank	Blank	78.755	n/a	3	7	16	n/a	16	n/a	2	n/a	n/a	n/a	n/a	304.017	n/a
272.861	0.497	angry	Picture	78.24	n/a	3	7	17	n/a	17	75	2	n/a	n/a	n/a	n/a	304.548	AM23HAS.jpg
273.358	0.514	Blank	Blank	77.727	n/a	3	7	17	n/a	17	n/a	2	n/a	n/a	n/a	n/a	305.045	n/a
273.889	0.497	angry	Picture	77.213	n/a	3	7	18	n/a	18	80	2	n/a	n/a	n/a	n/a	305.575	BM35HAS.jpg
274.386	0.514	Blank	Blank	76.699	n/a	3	7	18	n/a	18	n/a	2	n/a	n/a	n/a	n/a	306.073	n/a
274.917	0.497	angry	Picture	76.185	n/a	3	7	19	n/a	19	76	2	n/a	n/a	n/a	n/a	306.603	BM24HAS.jpg
275.414	0.514	Blank	Blank	75.671	n/a	3	7	19	n/a	19	n/a	2	n/a	n/a	n/a	n/a	307.101	n/a
275.945	0.497	angry	Picture	75.157	n/a	3	7	20	n/a	20	74	2	n/a	n/a	n/a	n/a	307.631	AM22HAS.jpg
276.442	0.514	Blank	Blank	74.643	n/a	3	7	20	n/a	20	n/a	2	n/a	n/a	n/a	n/a	308.129	n/a
276.973	10.014	ITI	Fixation+	64.613	n/a	3	n/a	n/a	n/a	n/a	n/a	n/a	n/a	n/a	n/a	n/a	308.659	n/a
287.003	0.497	neutral	Picture	64.099	n/a	3	8	1	n/a	21	33	1	n/a	n/a	n/a	n/a	318.689	AM21NES.jpg
287.5	0.514	Blank	Blank	63.585	n/a	3	8	1	n/a	21	n/a	1	n/a	n/a	n/a	n/a	319.187	n/a
288.031	0.497	neutral	Picture	63.071	n/a	3	8	2	n/a	22	39	1	n/a	n/a	n/a	n/a	319.717	AM28NES.jpg
288.528	0.514	Blank	Blank	62.557	n/a	3	8	2	n/a	22	n/a	1	n/a	n/a	n/a	n/a	320.215	n/a
289.059	0.497	neutral	Picture	62.043	n/a	3	8	3	n/a	23	25	1	n/a	n/a	n/a	n/a	320.745	BM06NES.jpg
289.556	0.514	Blank	Blank	61.529	n/a	3	8	3	n/a	23	n/a	1	n/a	n/a	n/a	n/a	321.243	n/a
290.087	0.497	neutral	Picture	61.015	n/a	3	8	4	n/a	24	5	1	n/a	n/a	n/a	n/a	321.773	BF07NES.jpg
290.584	0.514	Blank	Blank	60.501	n/a	3	8	4	n/a	24	n/a	1	n/a	n/a	n/a	n/a	322.27	n/a
291.114	0.497	neutral	Picture	59.987	n/a	3	8	5	n/a	25	10	1	n/a	n/a	n/a	n/a	322.801	AF18NES.jpg
291.612	0.514	Blank	Blank	59.473	n/a	3	8	5	n/a	25	n/a	1	n/a	n/a	n/a	n/a	323.298	n/a
292.142	0.497	neutral	Picture	58.959	n/a	3	8	6	n/a	26	34	1	n/a	n/a	n/a	n/a	323.829	AM22NES.jpg
292.64	0.514	Blank	Blank	58.445	n/a	3	8	6	n/a	26	n/a	1	n/a	n/a	n/a	n/a	324.326	n/a
293.17	0.497	neutral	Picture	57.932	n/a	3	8	7	n/a	27	36	1	n/a	n/a	n/a	n/a	324.857	BM24NES.jpg
293.667	0.514	Blank	Blank	57.418	n/a	3	8	7	n/a	27	n/a	1	n/a	n/a	n/a	n/a	325.354	n/a
294.198	0.497	neutral	Picture	56.904	n/a	3	8	8	n/a	28	14	1	n/a	n/a	n/a	n/a	325.885	AF23NES.jpg
294.695	0.514	Blank	Blank	56.39	n/a	3	8	8	n/a	28	n/a	1	n/a	n/a	n/a	n/a	326.382	n/a
295.226	0.497	neutral	Picture	55.876	n/a	3	8	9	n/a	29	9	1	n/a	n/a	n/a	n/a	326.913	AF17NES.jpg
295.723	0.515	Blank	Blank	55.362	n/a	3	8	9	n/a	29	n/a	1	n/a	n/a	n/a	n/a	327.409	n/a
296.254	0.497	neutral	Picture	54.848	n/a	3	8	10	n/a	30	19	1	n/a	n/a	n/a	n/a	327.94	AF31NES.jpg
296.751	0.514	Blank	Blank	54.334	n/a	3	8	10	n/a	30	n/a	1	n/a	n/a	n/a	n/a	328.438	n/a
297.282	0.497	neutral	Picture	53.82	n/a	3	8	11	n/a	31	15	1	n/a	n/a	n/a	n/a	328.968	AF25NES.jpg
297.779	0.514	Blank	Blank	53.306	n/a	3	8	11	n/a	31	n/a	1	n/a	n/a	n/a	n/a	329.466	n/a
298.31	0.497	neutral	Picture	52.792	n/a	3	8	12	n/a	32	22	1	n/a	n/a	n/a	n/a	329.996	BM03NES.jpg
298.807	0.514	Blank	Blank	52.278	n/a	3	8	12	n/a	32	n/a	1	n/a	n/a	n/a	n/a	330.493	n/a
299.337	0.497	neutral	Picture	51.764	n/a	3	8	13	n/a	33	11	1	n/a	n/a	n/a	n/a	331.024	AF20NES.jpg
299.835	0.514	Blank	Blank	51.25	n/a	3	8	13	n/a	33	n/a	1	n/a	n/a	n/a	n/a	331.521	n/a
300.365	0.497	neutral	Picture	50.736	n/a	3	8	14	n/a	34	4	1	n/a	n/a	n/a	n/a	332.052	AF05NES.jpg
300.863	0.514	Blank	Blank	50.222	n/a	3	8	14	n/a	34	n/a	1	n/a	n/a	n/a	n/a	332.549	n/a
301.393	0.497	neutral	Picture	49.708	n/a	3	8	15	n/a	35	17	1	n/a	n/a	n/a	n/a	333.08	BF28NES.jpg
301.891	0.514	Blank	Blank	49.194	n/a	3	8	15	n/a	35	n/a	1	n/a	n/a	n/a	n/a	333.577	n/a
302.421	0.497	neutral	Picture	48.68	n/a	3	8	16	n/a	36	13	1	n/a	n/a	n/a	n/a	334.108	BF22NES.jpg
302.918	0.514	Blank	Blank	48.166	n/a	3	8	16	n/a	36	n/a	1	n/a	n/a	n/a	n/a	334.605	n/a
303.449	0.497	neutral	Picture	47.653	n/a	3	8	17	n/a	37	12	1	n/a	n/a	n/a	n/a	335.135	AF21NES.jpg
303.946	0.514	Blank	Blank	47.139	n/a	3	8	17	n/a	37	n/a	1	n/a	n/a	n/a	n/a	335.633	n/a
304.477	0.497	neutral	Picture	46.625	n/a	3	8	18	n/a	38	24	1	n/a	n/a	n/a	n/a	336.163	BM05NES.jpg
304.974	0.514	Blank	Blank	46.111	n/a	3	8	18	n/a	38	n/a	1	n/a	n/a	n/a	n/a	336.661	n/a
305.505	0.497	neutral	Picture	45.597	n/a	3	8	19	n/a	39	29	1	n/a	n/a	n/a	n/a	337.191	AM10NES.jpg
306.002	0.514	Blank	Blank	45.083	n/a	3	8	19	n/a	39	n/a	1	n/a	n/a	n/a	n/a	337.689	n/a
306.533	0.497	neutral	Picture	44.569	n/a	3	8	20	n/a	40	23	1	n/a	n/a	n/a	n/a	338.219	AM04NES.jpg
307.03	0.514	Blank	Blank	44.055	n/a	3	8	20	n/a	40	n/a	1	n/a	n/a	n/a	n/a	338.717	n/a
307.561	10.014	ITI	Fixation+	34.025	n/a	3	n/a	n/a	n/a	n/a	n/a	n/a	n/a	n/a	n/a	n/a	339.247	n/a
317.591	0.497	angry	Picture	33.511	n/a	3	9	1	n/a	41	62	2	n/a	n/a	n/a	n/a	349.277	BM03HAS.jpg
318.088	0.514	Blank	Blank	32.997	n/a	3	9	1	n/a	41	n/a	2	n/a	n/a	n/a	n/a	349.775	n/a
318.619	0.497	angry	Picture	32.483	n/a	3	9	2	n/a	42	52	2	n/a	n/a	n/a	n/a	350.305	AF21HAS.jpg
319.116	0.514	Blank	Blank	31.969	n/a	3	9	2	n/a	42	n/a	2	n/a	n/a	n/a	n/a	350.803	n/a
319.647	0.497	angry	Picture	31.455	n/a	3	9	3	n/a	43	44	2	n/a	n/a	n/a	n/a	351.333	AF05HAS.jpg
320.144	0.514	Blank	Blank	30.941	n/a	3	9	3	n/a	43	n/a	2	n/a	n/a	n/a	n/a	351.83	n/a
320.674	0.497	angry	Picture	30.427	n/a	3	9	4	n/a	44	53	2	n/a	n/a	n/a	n/a	352.361	BF22HAS.jpg
321.172	0.514	Blank	Blank	29.913	n/a	3	9	4	n/a	44	n/a	2	n/a	n/a	n/a	n/a	352.858	n/a
321.702	0.497	angry	Picture	29.399	n/a	3	9	5	n/a	45	54	2	n/a	n/a	n/a	n/a	353.389	AF23HAS.jpg
322.2	0.514	Blank	Blank	28.885	n/a	3	9	5	n/a	45	n/a	2	n/a	n/a	n/a	n/a	353.886	n/a
322.73	0.497	angry	Picture	28.371	n/a	3	9	6	n/a	46	68	2	n/a	n/a	n/a	n/a	354.417	AM09HAS.jpg
323.228	0.514	Blank	Blank	27.858	n/a	3	9	6	n/a	46	n/a	2	n/a	n/a	n/a	n/a	354.914	n/a
323.758	0.497	angry	Picture	27.344	n/a	3	9	7	n/a	47	64	2	n/a	n/a	n/a	n/a	355.445	BM05HAS.jpg
324.255	0.514	Blank	Blank	26.83	n/a	3	9	7	n/a	47	n/a	2	n/a	n/a	n/a	n/a	355.942	n/a
324.786	0.497	angry	Picture	26.316	n/a	3	9	8	n/a	48	59	2	n/a	n/a	n/a	n/a	356.473	AF31HAS.jpg
325.283	0.514	Blank	Blank	25.802	n/a	3	9	8	n/a	48	n/a	2	n/a	n/a	n/a	n/a	356.97	n/a
325.814	0.497	angry	Picture	25.288	n/a	3	9	9	n/a	49	41	2	n/a	n/a	n/a	n/a	357.5	AF01HAS.jpg
326.311	0.514	Blank	Blank	24.774	n/a	3	9	9	n/a	49	n/a	2	n/a	n/a	n/a	n/a	357.998	n/a
326.842	0.497	angry	Picture	24.26	n/a	3	9	10	n/a	50	73	2	n/a	n/a	n/a	n/a	358.528	AM21HAS.jpg
327.339	0.514	Blank	Blank	23.746	n/a	3	9	10	n/a	50	n/a	2	n/a	n/a	n/a	n/a	359.026	n/a
327.87	0.497	angry	Picture	23.232	n/a	3	9	11	n/a	51	65	2	n/a	n/a	n/a	n/a	359.556	BM06HAS.jpg
328.367	0.514	Blank	Blank	22.718	n/a	3	9	11	n/a	51	n/a	2	n/a	n/a	n/a	n/a	360.053	n/a
328.897	0.497	angry	Picture	22.204	n/a	3	9	12	n/a	52	56	2	n/a	n/a	n/a	n/a	360.584	AF26HAS.jpg
329.395	0.514	Blank	Blank	21.69	n/a	3	9	12	n/a	52	n/a	2	n/a	n/a	n/a	n/a	361.081	n/a
329.925	0.497	angry	Picture	21.176	n/a	3	9	13	n/a	53	45	2	n/a	n/a	n/a	n/a	361.612	BF07HAS.jpg
330.423	0.514	Blank	Blank	20.662	n/a	3	9	13	n/a	53	n/a	2	n/a	n/a	n/a	n/a	362.109	n/a
330.953	0.497	angry	Picture	20.148	n/a	3	9	14	n/a	54	78	2	n/a	n/a	n/a	n/a	362.64	BM26HAS.jpg
331.451	0.514	Blank	Blank	19.634	n/a	3	9	14	n/a	54	n/a	2	n/a	n/a	n/a	n/a	363.137	n/a
331.981	0.497	angry	Picture	19.12	n/a	3	9	15	n/a	55	50	2	n/a	n/a	n/a	n/a	363.668	AF18HAS.jpg
332.479	0.514	Blank	Blank	18.607	n/a	3	9	15	n/a	55	n/a	2	n/a	n/a	n/a	n/a	364.165	n/a
333.009	0.497	angry	Picture	18.092	n/a	3	9	16	n/a	56	47	2	n/a	n/a	n/a	n/a	364.696	BF11HAS.jpg
333.506	0.514	Blank	Blank	17.579	n/a	3	9	16	n/a	56	n/a	2	n/a	n/a	n/a	n/a	365.193	n/a
334.037	0.497	angry	Picture	17.065	n/a	3	9	17	n/a	57	77	2	n/a	n/a	n/a	n/a	365.724	BM25HAS.jpg
334.534	0.514	Blank	Blank	16.551	n/a	3	9	17	n/a	57	n/a	2	n/a	n/a	n/a	n/a	366.221	n/a
335.065	0.497	angry	Picture	16.037	n/a	3	9	18	n/a	58	57	2	n/a	n/a	n/a	n/a	366.751	BF28HAS.jpg
335.562	0.514	Blank	Blank	15.523	n/a	3	9	18	n/a	58	n/a	2	n/a	n/a	n/a	n/a	367.249	n/a
336.093	0.497	angry	Picture	15.009	n/a	3	9	19	n/a	59	61	2	n/a	n/a	n/a	n/a	367.779	AM01HAS.jpg
336.59	0.514	Blank	Blank	14.495	n/a	3	9	19	n/a	59	n/a	2	n/a	n/a	n/a	n/a	368.277	n/a
337.121	0.497	angry	Picture	13.981	n/a	3	9	20	n/a	60	79	2	n/a	n/a	n/a	n/a	368.807	BM28HAS.jpg
337.618	0.514	Blank	Blank	13.467	n/a	3	9	20	n/a	60	n/a	2	n/a	n/a	n/a	n/a	369.305	n/a
338.148	10.014	ITI	Fixation+	3.437	n/a	3	n/a	n/a	n/a	n/a	n/a	n/a	n/a	n/a	n/a	n/a	369.835	n/a
351.599	n/a	ConfirmRating	Rate	n/a	3.432	3	n/a	n/a	0	n/a	n/a	n/a	2	Angry	66	52	383.286	n/a
356.693	n/a	ConfirmRating	Rate	n/a	5.073	3	n/a	n/a	1	n/a	n/a	n/a	3	Angry	13	47	388.379	n/a
356.717	10.014	ITI	Fixation+	102.393	n/a	4	n/a	n/a	n/a	n/a	n/a	n/a	n/a	n/a	n/a	n/a	388.403	n/a
366.747	0.497	happy	Picture	101.879	n/a	4	10	1	n/a	61	119	3	n/a	n/a	n/a	n/a	398.433	BM28ANS.jpg
367.244	0.514	Blank	Blank	101.365	n/a	4	10	1	n/a	61	n/a	3	n/a	n/a	n/a	n/a	398.931	n/a
367.775	0.497	happy	Picture	100.851	n/a	4	10	2	n/a	62	100	3	n/a	n/a	n/a	n/a	399.461	AF32ANS.jpg
368.272	0.514	Blank	Blank	100.337	n/a	4	10	2	n/a	62	n/a	3	n/a	n/a	n/a	n/a	399.959	n/a
368.803	0.497	happy	Picture	99.824	n/a	4	10	3	n/a	63	118	3	n/a	n/a	n/a	n/a	400.489	BM26ANS.jpg
369.3	0.514	Blank	Blank	99.31	n/a	4	10	3	n/a	63	n/a	3	n/a	n/a	n/a	n/a	400.987	n/a
369.831	0.497	happy	Picture	98.796	n/a	4	10	4	n/a	64	89	3	n/a	n/a	n/a	n/a	401.517	AF17ANS.jpg
370.328	0.514	Blank	Blank	98.282	n/a	4	10	4	n/a	64	n/a	3	n/a	n/a	n/a	n/a	402.014	n/a
370.858	0.497	happy	Picture	97.768	n/a	4	10	5	n/a	65	116	3	n/a	n/a	n/a	n/a	402.545	BM24ANS.jpg
371.356	0.514	Blank	Blank	97.254	n/a	4	10	5	n/a	65	n/a	3	n/a	n/a	n/a	n/a	403.042	n/a
371.886	0.497	happy	Picture	96.74	n/a	4	10	6	n/a	66	105	3	n/a	n/a	n/a	n/a	403.573	BM06ANS.jpg
372.384	0.514	Blank	Blank	96.226	n/a	4	10	6	n/a	66	n/a	3	n/a	n/a	n/a	n/a	404.07	n/a
372.914	0.497	happy	Picture	95.712	n/a	4	10	7	n/a	67	106	3	n/a	n/a	n/a	n/a	404.601	AM07ANS.jpg
373.412	0.514	Blank	Blank	95.198	n/a	4	10	7	n/a	67	n/a	3	n/a	n/a	n/a	n/a	405.098	n/a
373.942	0.497	happy	Picture	94.684	n/a	4	10	8	n/a	68	94	3	n/a	n/a	n/a	n/a	405.629	AF23ANS.jpg
374.44	0.514	Blank	Blank	94.17	n/a	4	10	8	n/a	68	n/a	3	n/a	n/a	n/a	n/a	406.126	n/a
374.97	0.497	happy	Picture	93.656	n/a	4	10	9	n/a	69	117	3	n/a	n/a	n/a	n/a	406.657	BM25ANS.jpg
375.467	0.514	Blank	Blank	93.142	n/a	4	10	9	n/a	69	n/a	3	n/a	n/a	n/a	n/a	407.154	n/a
375.998	0.497	happy	Picture	92.628	n/a	4	10	10	n/a	70	90	3	n/a	n/a	n/a	n/a	407.685	AF18ANS.jpg
376.495	0.514	Blank	Blank	92.114	n/a	4	10	10	n/a	70	n/a	3	n/a	n/a	n/a	n/a	408.182	n/a
377.026	0.497	happy	Picture	91.601	n/a	4	10	11	n/a	71	83	3	n/a	n/a	n/a	n/a	408.712	BF04ANS.jpg
377.523	0.514	Blank	Blank	91.087	n/a	4	10	11	n/a	71	n/a	3	n/a	n/a	n/a	n/a	409.21	n/a
378.054	0.497	happy	Picture	90.573	n/a	4	10	12	n/a	72	112	3	n/a	n/a	n/a	n/a	409.74	AM14ANS.jpg
378.551	0.514	Blank	Blank	90.059	n/a	4	10	12	n/a	72	n/a	3	n/a	n/a	n/a	n/a	410.238	n/a
379.082	0.497	happy	Picture	89.545	n/a	4	10	13	n/a	73	102	3	n/a	n/a	n/a	n/a	410.768	BM03ANS.jpg
379.579	0.514	Blank	Blank	89.031	n/a	4	10	13	n/a	73	n/a	3	n/a	n/a	n/a	n/a	411.265	n/a
380.109	0.497	happy	Picture	88.517	n/a	4	10	14	n/a	74	95	3	n/a	n/a	n/a	n/a	411.796	AF25ANS.jpg
380.607	0.514	Blank	Blank	88.003	n/a	4	10	14	n/a	74	n/a	3	n/a	n/a	n/a	n/a	412.293	n/a
381.137	0.497	happy	Picture	87.489	n/a	4	10	15	n/a	75	113	3	n/a	n/a	n/a	n/a	412.824	AM21ANS.jpg
381.635	0.514	Blank	Blank	86.975	n/a	4	10	15	n/a	75	n/a	3	n/a	n/a	n/a	n/a	413.321	n/a
382.165	0.497	happy	Picture	86.461	n/a	4	10	16	n/a	76	88	3	n/a	n/a	n/a	n/a	413.852	AF14ANS.jpg
382.663	0.514	Blank	Blank	85.947	n/a	4	10	16	n/a	76	n/a	3	n/a	n/a	n/a	n/a	414.349	n/a
383.193	0.497	happy	Picture	85.433	n/a	4	10	17	n/a	77	93	3	n/a	n/a	n/a	n/a	414.88	BF22ANS.jpg
383.69	0.514	Blank	Blank	84.919	n/a	4	10	17	n/a	77	n/a	3	n/a	n/a	n/a	n/a	415.377	n/a
384.221	0.497	happy	Picture	84.405	n/a	4	10	18	n/a	78	86	3	n/a	n/a	n/a	n/a	415.908	AF09ANS.jpg
384.718	0.514	Blank	Blank	83.891	n/a	4	10	18	n/a	78	n/a	3	n/a	n/a	n/a	n/a	416.405	n/a
385.249	0.497	happy	Picture	83.377	n/a	4	10	19	n/a	79	92	3	n/a	n/a	n/a	n/a	416.935	AF21ANS.jpg
385.746	0.514	Blank	Blank	82.863	n/a	4	10	19	n/a	79	n/a	3	n/a	n/a	n/a	n/a	417.433	n/a
386.277	0.497	happy	Picture	82.349	n/a	4	10	20	n/a	80	84	3	n/a	n/a	n/a	n/a	417.963	AF05ANS.jpg
386.774	0.514	Blank	Blank	81.836	n/a	4	10	20	n/a	80	n/a	3	n/a	n/a	n/a	n/a	418.461	n/a
387.305	10.014	ITI	Fixation+	71.805	n/a	4	n/a	n/a	n/a	n/a	n/a	n/a	n/a	n/a	n/a	n/a	418.991	n/a
397.335	0.497	neutral	Picture	71.291	n/a	4	11	1	n/a	81	4	1	n/a	n/a	n/a	n/a	429.021	AF05NES.jpg
397.832	0.514	Blank	Blank	70.778	n/a	4	11	1	n/a	81	n/a	1	n/a	n/a	n/a	n/a	429.519	n/a
398.363	0.497	neutral	Picture	70.263	n/a	4	11	2	n/a	82	14	1	n/a	n/a	n/a	n/a	430.049	AF23NES.jpg
398.86	0.514	Blank	Blank	69.75	n/a	4	11	2	n/a	82	n/a	1	n/a	n/a	n/a	n/a	430.547	n/a
399.391	0.497	neutral	Picture	69.236	n/a	4	11	3	n/a	83	19	1	n/a	n/a	n/a	n/a	431.077	AF31NES.jpg
399.888	0.514	Blank	Blank	68.722	n/a	4	11	3	n/a	83	n/a	1	n/a	n/a	n/a	n/a	431.575	n/a
400.419	0.497	neutral	Picture	68.208	n/a	4	11	4	n/a	84	8	1	n/a	n/a	n/a	n/a	432.105	AF14NES.jpg
400.916	0.514	Blank	Blank	67.694	n/a	4	11	4	n/a	84	n/a	1	n/a	n/a	n/a	n/a	432.602	n/a
401.446	0.497	neutral	Picture	67.18	n/a	4	11	5	n/a	85	25	1	n/a	n/a	n/a	n/a	433.133	BM06NES.jpg
401.944	0.514	Blank	Blank	66.666	n/a	4	11	5	n/a	85	n/a	1	n/a	n/a	n/a	n/a	433.63	n/a
402.474	0.497	neutral	Picture	66.152	n/a	4	11	6	n/a	86	9	1	n/a	n/a	n/a	n/a	434.161	AF17NES.jpg
402.972	0.514	Blank	Blank	65.638	n/a	4	11	6	n/a	86	n/a	1	n/a	n/a	n/a	n/a	434.658	n/a
403.502	0.497	neutral	Picture	65.124	n/a	4	11	7	n/a	87	2	1	n/a	n/a	n/a	n/a	435.189	AF03NES.jpg
404.0	0.514	Blank	Blank	64.61	n/a	4	11	7	n/a	87	n/a	1	n/a	n/a	n/a	n/a	435.686	n/a
404.53	0.497	neutral	Picture	64.096	n/a	4	11	8	n/a	88	17	1	n/a	n/a	n/a	n/a	436.217	BF28NES.jpg
405.027	0.514	Blank	Blank	63.582	n/a	4	11	8	n/a	88	n/a	1	n/a	n/a	n/a	n/a	436.714	n/a
405.558	0.497	neutral	Picture	63.068	n/a	4	11	9	n/a	89	6	1	n/a	n/a	n/a	n/a	437.245	AF09NES.jpg
406.055	0.514	Blank	Blank	62.554	n/a	4	11	9	n/a	89	n/a	1	n/a	n/a	n/a	n/a	437.742	n/a
406.586	0.497	neutral	Picture	62.04	n/a	4	11	10	n/a	90	12	1	n/a	n/a	n/a	n/a	438.272	AF21NES.jpg
407.083	0.514	Blank	Blank	61.527	n/a	4	11	10	n/a	90	n/a	1	n/a	n/a	n/a	n/a	438.77	n/a
407.614	0.497	neutral	Picture	61.013	n/a	4	11	11	n/a	91	24	1	n/a	n/a	n/a	n/a	439.3	BM05NES.jpg
408.111	0.514	Blank	Blank	60.499	n/a	4	11	11	n/a	91	n/a	1	n/a	n/a	n/a	n/a	439.798	n/a
408.642	0.497	neutral	Picture	59.985	n/a	4	11	12	n/a	92	34	1	n/a	n/a	n/a	n/a	440.328	AM22NES.jpg
409.139	0.514	Blank	Blank	59.471	n/a	4	11	12	n/a	92	n/a	1	n/a	n/a	n/a	n/a	440.825	n/a
409.67	0.497	neutral	Picture	58.957	n/a	4	11	13	n/a	93	23	1	n/a	n/a	n/a	n/a	441.356	AM04NES.jpg
410.167	0.514	Blank	Blank	58.443	n/a	4	11	13	n/a	93	n/a	1	n/a	n/a	n/a	n/a	441.853	n/a
410.697	0.497	neutral	Picture	57.929	n/a	4	11	14	n/a	94	15	1	n/a	n/a	n/a	n/a	442.384	AF25NES.jpg
411.195	0.514	Blank	Blank	57.415	n/a	4	11	14	n/a	94	n/a	1	n/a	n/a	n/a	n/a	442.881	n/a
411.725	0.497	neutral	Picture	56.901	n/a	4	11	15	n/a	95	37	1	n/a	n/a	n/a	n/a	443.412	BM25NES.jpg
412.223	0.514	Blank	Blank	56.387	n/a	4	11	15	n/a	95	n/a	1	n/a	n/a	n/a	n/a	443.909	n/a
412.753	0.497	neutral	Picture	55.873	n/a	4	11	16	n/a	96	32	1	n/a	n/a	n/a	n/a	444.44	AM14NES.jpg
413.251	0.514	Blank	Blank	55.359	n/a	4	11	16	n/a	96	n/a	1	n/a	n/a	n/a	n/a	444.937	n/a
413.781	0.497	neutral	Picture	54.845	n/a	4	11	17	n/a	97	3	1	n/a	n/a	n/a	n/a	445.468	BF04NES.jpg
414.278	0.514	Blank	Blank	54.331	n/a	4	11	17	n/a	97	n/a	1	n/a	n/a	n/a	n/a	445.965	n/a
414.809	0.497	neutral	Picture	53.817	n/a	4	11	18	n/a	98	16	1	n/a	n/a	n/a	n/a	446.495	AF26NES.jpg
415.306	0.514	Blank	Blank	53.303	n/a	4	11	18	n/a	98	n/a	1	n/a	n/a	n/a	n/a	446.993	n/a
415.837	0.497	neutral	Picture	52.79	n/a	4	11	19	n/a	99	27	1	n/a	n/a	n/a	n/a	447.523	BM08NES.jpg
416.334	0.514	Blank	Blank	52.276	n/a	4	11	19	n/a	99	n/a	1	n/a	n/a	n/a	n/a	448.021	n/a
416.865	0.497	neutral	Picture	51.762	n/a	4	11	20	n/a	100	28	1	n/a	n/a	n/a	n/a	448.551	AM09NES.jpg
417.362	0.514	Blank	Blank	51.248	n/a	4	11	20	n/a	100	n/a	1	n/a	n/a	n/a	n/a	449.049	n/a
417.893	10.014	ITI	Fixation+	41.217	n/a	4	n/a	n/a	n/a	n/a	n/a	n/a	n/a	n/a	n/a	n/a	449.579	n/a
427.923	0.497	happy	Picture	40.703	n/a	4	12	1	n/a	101	81	3	n/a	n/a	n/a	n/a	459.609	AF01ANS.jpg
428.42	0.514	Blank	Blank	40.19	n/a	4	12	1	n/a	101	n/a	3	n/a	n/a	n/a	n/a	460.107	n/a
428.951	0.497	happy	Picture	39.676	n/a	4	12	2	n/a	102	120	3	n/a	n/a	n/a	n/a	460.637	AM35ANS.jpg
429.448	0.514	Blank	Blank	39.162	n/a	4	12	2	n/a	102	n/a	3	n/a	n/a	n/a	n/a	461.135	n/a
429.979	0.497	happy	Picture	38.648	n/a	4	12	3	n/a	103	114	3	n/a	n/a	n/a	n/a	461.665	AM22ANS.jpg
430.476	0.514	Blank	Blank	38.134	n/a	4	12	3	n/a	103	n/a	3	n/a	n/a	n/a	n/a	462.163	n/a
431.006	0.497	happy	Picture	37.62	n/a	4	12	4	n/a	104	109	3	n/a	n/a	n/a	n/a	462.693	AM10ANS.jpg
431.504	0.514	Blank	Blank	37.106	n/a	4	12	4	n/a	104	n/a	3	n/a	n/a	n/a	n/a	463.19	n/a
432.034	0.497	happy	Picture	36.592	n/a	4	12	5	n/a	105	96	3	n/a	n/a	n/a	n/a	463.721	AF26ANS.jpg
432.532	0.514	Blank	Blank	36.078	n/a	4	12	5	n/a	105	n/a	3	n/a	n/a	n/a	n/a	464.218	n/a
433.062	0.497	happy	Picture	35.564	n/a	4	12	6	n/a	106	82	3	n/a	n/a	n/a	n/a	464.749	AF03ANS.jpg
433.56	0.514	Blank	Blank	35.05	n/a	4	12	6	n/a	106	n/a	3	n/a	n/a	n/a	n/a	465.246	n/a
434.09	0.497	happy	Picture	34.536	n/a	4	12	7	n/a	107	97	3	n/a	n/a	n/a	n/a	465.777	BF28ANS.jpg
434.587	0.514	Blank	Blank	34.022	n/a	4	12	7	n/a	107	n/a	3	n/a	n/a	n/a	n/a	466.274	n/a
435.118	0.497	happy	Picture	33.508	n/a	4	12	8	n/a	108	115	3	n/a	n/a	n/a	n/a	466.805	AM23ANS.jpg
435.615	0.514	Blank	Blank	32.994	n/a	4	12	8	n/a	108	n/a	3	n/a	n/a	n/a	n/a	467.302	n/a
436.146	0.497	happy	Picture	32.48	n/a	4	12	9	n/a	109	91	3	n/a	n/a	n/a	n/a	467.832	AF20ANS.jpg
436.643	0.514	Blank	Blank	31.967	n/a	4	12	9	n/a	109	n/a	3	n/a	n/a	n/a	n/a	468.33	n/a
437.174	0.497	happy	Picture	31.452	n/a	4	12	10	n/a	110	87	3	n/a	n/a	n/a	n/a	468.86	BF11ANS.jpg
437.671	0.514	Blank	Blank	30.939	n/a	4	12	10	n/a	110	n/a	3	n/a	n/a	n/a	n/a	469.358	n/a
438.202	0.497	happy	Picture	30.425	n/a	4	12	11	n/a	111	85	3	n/a	n/a	n/a	n/a	469.888	BF07ANS.jpg
438.699	0.514	Blank	Blank	29.911	n/a	4	12	11	n/a	111	n/a	3	n/a	n/a	n/a	n/a	470.386	n/a
439.23	0.497	happy	Picture	29.397	n/a	4	12	12	n/a	112	110	3	n/a	n/a	n/a	n/a	470.916	AM11ANS.jpg
439.727	0.514	Blank	Blank	28.883	n/a	4	12	12	n/a	112	n/a	3	n/a	n/a	n/a	n/a	471.413	n/a
440.257	0.497	happy	Picture	28.369	n/a	4	12	13	n/a	113	111	3	n/a	n/a	n/a	n/a	471.944	BM12ANS.jpg
440.755	0.514	Blank	Blank	27.855	n/a	4	12	13	n/a	113	n/a	3	n/a	n/a	n/a	n/a	472.441	n/a
441.285	0.497	happy	Picture	27.341	n/a	4	12	14	n/a	114	103	3	n/a	n/a	n/a	n/a	472.972	AM04ANS.jpg
441.783	0.514	Blank	Blank	26.827	n/a	4	12	14	n/a	114	n/a	3	n/a	n/a	n/a	n/a	473.469	n/a
442.313	0.497	happy	Picture	26.313	n/a	4	12	15	n/a	115	101	3	n/a	n/a	n/a	n/a	474.0	AM01ANS.jpg
442.811	0.514	Blank	Blank	25.799	n/a	4	12	15	n/a	115	n/a	3	n/a	n/a	n/a	n/a	474.497	n/a
443.341	0.497	happy	Picture	25.285	n/a	4	12	16	n/a	116	104	3	n/a	n/a	n/a	n/a	475.028	BM05ANS.jpg
443.838	0.514	Blank	Blank	24.771	n/a	4	12	16	n/a	116	n/a	3	n/a	n/a	n/a	n/a	475.525	n/a
444.369	0.497	happy	Picture	24.257	n/a	4	12	17	n/a	117	107	3	n/a	n/a	n/a	n/a	476.055	BM08ANS.jpg
444.866	0.514	Blank	Blank	23.743	n/a	4	12	17	n/a	117	n/a	3	n/a	n/a	n/a	n/a	476.553	n/a
445.397	0.497	happy	Picture	23.229	n/a	4	12	18	n/a	118	98	3	n/a	n/a	n/a	n/a	477.083	BF29ANS.jpg
445.894	0.514	Blank	Blank	22.716	n/a	4	12	18	n/a	118	n/a	3	n/a	n/a	n/a	n/a	477.581	n/a
446.425	0.497	happy	Picture	22.201	n/a	4	12	19	n/a	119	99	3	n/a	n/a	n/a	n/a	478.111	AF31ANS.jpg
446.922	0.514	Blank	Blank	21.688	n/a	4	12	19	n/a	119	n/a	3	n/a	n/a	n/a	n/a	478.609	n/a
447.453	0.497	happy	Picture	21.174	n/a	4	12	20	n/a	120	108	3	n/a	n/a	n/a	n/a	479.139	AM09ANS.jpg
447.95	0.514	Blank	Blank	20.66	n/a	4	12	20	n/a	120	n/a	3	n/a	n/a	n/a	n/a	479.637	n/a
448.481	10.014	ITI	Fixation+	10.63	n/a	4	n/a	n/a	n/a	n/a	n/a	n/a	n/a	n/a	n/a	n/a	480.167	n/a
469.124	n/a	ConfirmRating	Rate	n/a	10.627	4	n/a	n/a	0	n/a	n/a	n/a	2	Happy	73	53	500.81	n/a
471.672	n/a	ConfirmRating	Rate	n/a	2.52	4	n/a	n/a	1	n/a	n/a	n/a	3	Happy	0	46	503.358	n/a
