onset	duration	trial_type	event_type	time_until_response	response_time	trial_number	block_num_within_trial	image_seq_num_within_block	question_seq_num_within_block	image_seq_num	picture_number	condition	question_type	block_type	rating	rating_computed	onset_uncorrected	KDEV_imagefile
0.018	10.014	ITI	Fixation+	101.117	n/a	1	n/a	n/a	n/a	n/a	n/a	n/a	n/a	n/a	n/a	n/a	26.172	n/a
10.048	0.497	happy	Picture	100.603	n/a	1	1	1	n/a	1	46	2	n/a	n/a	n/a	n/a	36.203	AF09HAS.jpg
10.546	0.514	Blank	Blank	100.089	n/a	1	1	1	n/a	1	n/a	2	n/a	n/a	n/a	n/a	36.7	n/a
11.076	0.497	happy	Picture	99.575	n/a	1	1	2	n/a	2	69	2	n/a	n/a	n/a	n/a	37.23	AM10HAS.jpg
11.574	0.514	Blank	Blank	99.061	n/a	1	1	2	n/a	2	n/a	2	n/a	n/a	n/a	n/a	37.728	n/a
12.104	0.497	happy	Picture	98.547	n/a	1	1	3	n/a	3	71	2	n/a	n/a	n/a	n/a	38.258	BM12HAS.jpg
12.602	0.514	Blank	Blank	98.033	n/a	1	1	3	n/a	3	n/a	2	n/a	n/a	n/a	n/a	38.756	n/a
13.132	0.497	happy	Picture	97.519	n/a	1	1	4	n/a	4	51	2	n/a	n/a	n/a	n/a	39.286	AF20HAS.jpg
13.629	0.514	Blank	Blank	97.005	n/a	1	1	4	n/a	4	n/a	2	n/a	n/a	n/a	n/a	39.784	n/a
14.16	0.497	happy	Picture	96.491	n/a	1	1	5	n/a	5	67	2	n/a	n/a	n/a	n/a	40.314	BM08HAS.jpg
14.657	0.514	Blank	Blank	95.977	n/a	1	1	5	n/a	5	n/a	2	n/a	n/a	n/a	n/a	40.812	n/a
15.188	0.497	happy	Picture	95.463	n/a	1	1	6	n/a	6	60	2	n/a	n/a	n/a	n/a	41.342	AF32HAS.jpg
15.685	0.514	Blank	Blank	94.949	n/a	1	1	6	n/a	6	n/a	2	n/a	n/a	n/a	n/a	41.839	n/a
16.216	0.497	happy	Picture	94.435	n/a	1	1	7	n/a	7	42	2	n/a	n/a	n/a	n/a	42.37	AF03HAS.jpg
16.713	0.514	Blank	Blank	93.922	n/a	1	1	7	n/a	7	n/a	2	n/a	n/a	n/a	n/a	42.867	n/a
17.244	0.497	happy	Picture	93.408	n/a	1	1	8	n/a	8	55	2	n/a	n/a	n/a	n/a	43.398	AF25HAS.jpg
17.741	0.514	Blank	Blank	92.894	n/a	1	1	8	n/a	8	n/a	2	n/a	n/a	n/a	n/a	43.895	n/a
18.271	0.497	happy	Picture	92.38	n/a	1	1	9	n/a	9	72	2	n/a	n/a	n/a	n/a	44.426	AM14HAS.jpg
18.769	0.514	Blank	Blank	91.866	n/a	1	1	9	n/a	9	n/a	2	n/a	n/a	n/a	n/a	44.923	n/a
19.299	0.497	happy	Picture	91.352	n/a	1	1	10	n/a	10	63	2	n/a	n/a	n/a	n/a	45.454	AM04HAS.jpg
19.797	0.514	Blank	Blank	90.838	n/a	1	1	10	n/a	10	n/a	2	n/a	n/a	n/a	n/a	45.951	n/a
20.327	0.497	happy	Picture	90.324	n/a	1	1	11	n/a	11	58	2	n/a	n/a	n/a	n/a	46.481	BF29HAS.jpg
20.825	0.514	Blank	Blank	89.81	n/a	1	1	11	n/a	11	n/a	2	n/a	n/a	n/a	n/a	46.979	n/a
21.355	0.497	happy	Picture	89.296	n/a	1	1	12	n/a	12	48	2	n/a	n/a	n/a	n/a	47.509	AF14HAS.jpg
21.853	0.514	Blank	Blank	88.782	n/a	1	1	12	n/a	12	n/a	2	n/a	n/a	n/a	n/a	48.007	n/a
22.383	0.497	happy	Picture	88.268	n/a	1	1	13	n/a	13	66	2	n/a	n/a	n/a	n/a	48.537	BM07HAS.jpg
22.88	0.514	Blank	Blank	87.754	n/a	1	1	13	n/a	13	n/a	2	n/a	n/a	n/a	n/a	49.035	n/a
23.411	0.497	happy	Picture	87.24	n/a	1	1	14	n/a	14	70	2	n/a	n/a	n/a	n/a	49.565	BM11HAS.jpg
23.908	0.514	Blank	Blank	86.726	n/a	1	1	14	n/a	14	n/a	2	n/a	n/a	n/a	n/a	50.063	n/a
24.439	0.497	happy	Picture	86.212	n/a	1	1	15	n/a	15	43	2	n/a	n/a	n/a	n/a	50.593	BF04HAS.jpg
24.936	0.514	Blank	Blank	85.698	n/a	1	1	15	n/a	15	n/a	2	n/a	n/a	n/a	n/a	51.09	n/a
25.467	0.497	happy	Picture	85.185	n/a	1	1	16	n/a	16	49	2	n/a	n/a	n/a	n/a	51.621	AF17HAS.jpg
25.964	0.514	Blank	Blank	84.671	n/a	1	1	16	n/a	16	n/a	2	n/a	n/a	n/a	n/a	52.118	n/a
26.495	0.497	happy	Picture	84.157	n/a	1	1	17	n/a	17	75	2	n/a	n/a	n/a	n/a	52.649	AM23HAS.jpg
26.992	0.514	Blank	Blank	83.643	n/a	1	1	17	n/a	17	n/a	2	n/a	n/a	n/a	n/a	53.146	n/a
27.522	0.497	happy	Picture	83.129	n/a	1	1	18	n/a	18	80	2	n/a	n/a	n/a	n/a	53.677	BM35HAS.jpg
28.02	0.514	Blank	Blank	82.615	n/a	1	1	18	n/a	18	n/a	2	n/a	n/a	n/a	n/a	54.174	n/a
28.55	0.497	happy	Picture	82.101	n/a	1	1	19	n/a	19	76	2	n/a	n/a	n/a	n/a	54.705	BM24HAS.jpg
29.048	0.514	Blank	Blank	81.587	n/a	1	1	19	n/a	19	n/a	2	n/a	n/a	n/a	n/a	55.202	n/a
29.578	0.497	happy	Picture	81.073	n/a	1	1	20	n/a	20	74	2	n/a	n/a	n/a	n/a	55.732	AM22HAS.jpg
30.076	0.514	Blank	Blank	80.559	n/a	1	1	20	n/a	20	n/a	2	n/a	n/a	n/a	n/a	56.23	n/a
30.606	10.014	ITI	Fixation+	70.529	n/a	1	n/a	n/a	n/a	n/a	n/a	n/a	n/a	n/a	n/a	n/a	56.76	n/a
40.636	0.497	neutral	Picture	70.015	n/a	1	2	1	n/a	21	33	1	n/a	n/a	n/a	n/a	66.79	AM21NES.jpg
41.134	0.514	Blank	Blank	69.501	n/a	1	2	1	n/a	21	n/a	1	n/a	n/a	n/a	n/a	67.288	n/a
41.664	0.497	neutral	Picture	68.987	n/a	1	2	2	n/a	22	39	1	n/a	n/a	n/a	n/a	67.818	AM28NES.jpg
42.162	0.514	Blank	Blank	68.473	n/a	1	2	2	n/a	22	n/a	1	n/a	n/a	n/a	n/a	68.316	n/a
42.692	0.497	neutral	Picture	67.959	n/a	1	2	3	n/a	23	25	1	n/a	n/a	n/a	n/a	68.846	BM06NES.jpg
43.189	0.514	Blank	Blank	67.445	n/a	1	2	3	n/a	23	n/a	1	n/a	n/a	n/a	n/a	69.344	n/a
43.72	0.497	neutral	Picture	66.931	n/a	1	2	4	n/a	24	5	1	n/a	n/a	n/a	n/a	69.874	BF07NES.jpg
44.217	0.514	Blank	Blank	66.417	n/a	1	2	4	n/a	24	n/a	1	n/a	n/a	n/a	n/a	70.371	n/a
44.748	0.497	neutral	Picture	65.903	n/a	1	2	5	n/a	25	10	1	n/a	n/a	n/a	n/a	70.902	AF18NES.jpg
45.245	0.514	Blank	Blank	65.389	n/a	1	2	5	n/a	25	n/a	1	n/a	n/a	n/a	n/a	71.399	n/a
45.776	0.497	neutral	Picture	64.876	n/a	1	2	6	n/a	26	34	1	n/a	n/a	n/a	n/a	71.93	AM22NES.jpg
46.273	0.514	Blank	Blank	64.362	n/a	1	2	6	n/a	26	n/a	1	n/a	n/a	n/a	n/a	72.427	n/a
46.803	0.497	neutral	Picture	63.848	n/a	1	2	7	n/a	27	36	1	n/a	n/a	n/a	n/a	72.958	BM24NES.jpg
47.301	0.514	Blank	Blank	63.334	n/a	1	2	7	n/a	27	n/a	1	n/a	n/a	n/a	n/a	73.455	n/a
47.831	0.497	neutral	Picture	62.82	n/a	1	2	8	n/a	28	14	1	n/a	n/a	n/a	n/a	73.986	AF23NES.jpg
48.329	0.514	Blank	Blank	62.306	n/a	1	2	8	n/a	28	n/a	1	n/a	n/a	n/a	n/a	74.483	n/a
48.859	0.497	neutral	Picture	61.792	n/a	1	2	9	n/a	29	9	1	n/a	n/a	n/a	n/a	75.013	AF17NES.jpg
49.357	0.514	Blank	Blank	61.278	n/a	1	2	9	n/a	29	n/a	1	n/a	n/a	n/a	n/a	75.511	n/a
49.887	0.497	neutral	Picture	60.764	n/a	1	2	10	n/a	30	19	1	n/a	n/a	n/a	n/a	76.041	AF31NES.jpg
50.385	0.514	Blank	Blank	60.25	n/a	1	2	10	n/a	30	n/a	1	n/a	n/a	n/a	n/a	76.539	n/a
50.915	0.497	neutral	Picture	59.736	n/a	1	2	11	n/a	31	15	1	n/a	n/a	n/a	n/a	77.069	AF25NES.jpg
51.412	0.514	Blank	Blank	59.222	n/a	1	2	11	n/a	31	n/a	1	n/a	n/a	n/a	n/a	77.567	n/a
51.943	0.497	neutral	Picture	58.708	n/a	1	2	12	n/a	32	22	1	n/a	n/a	n/a	n/a	78.097	BM03NES.jpg
52.44	0.514	Blank	Blank	58.194	n/a	1	2	12	n/a	32	n/a	1	n/a	n/a	n/a	n/a	78.594	n/a
52.971	0.497	neutral	Picture	57.68	n/a	1	2	13	n/a	33	11	1	n/a	n/a	n/a	n/a	79.125	AF20NES.jpg
53.468	0.514	Blank	Blank	57.166	n/a	1	2	13	n/a	33	n/a	1	n/a	n/a	n/a	n/a	79.622	n/a
53.999	0.497	neutral	Picture	56.652	n/a	1	2	14	n/a	34	4	1	n/a	n/a	n/a	n/a	80.153	AF05NES.jpg
54.496	0.514	Blank	Blank	56.139	n/a	1	2	14	n/a	34	n/a	1	n/a	n/a	n/a	n/a	80.65	n/a
55.027	0.497	neutral	Picture	55.625	n/a	1	2	15	n/a	35	17	1	n/a	n/a	n/a	n/a	81.181	BF28NES.jpg
55.524	0.514	Blank	Blank	55.111	n/a	1	2	15	n/a	35	n/a	1	n/a	n/a	n/a	n/a	81.678	n/a
56.054	0.497	neutral	Picture	54.597	n/a	1	2	16	n/a	36	13	1	n/a	n/a	n/a	n/a	82.209	BF22NES.jpg
56.552	0.514	Blank	Blank	54.083	n/a	1	2	16	n/a	36	n/a	1	n/a	n/a	n/a	n/a	82.706	n/a
57.082	0.497	neutral	Picture	53.569	n/a	1	2	17	n/a	37	12	1	n/a	n/a	n/a	n/a	83.237	AF21NES.jpg
57.58	0.514	Blank	Blank	53.055	n/a	1	2	17	n/a	37	n/a	1	n/a	n/a	n/a	n/a	83.734	n/a
58.11	0.497	neutral	Picture	52.541	n/a	1	2	18	n/a	38	24	1	n/a	n/a	n/a	n/a	84.264	BM05NES.jpg
58.608	0.514	Blank	Blank	52.027	n/a	1	2	18	n/a	38	n/a	1	n/a	n/a	n/a	n/a	84.762	n/a
59.138	0.497	neutral	Picture	51.513	n/a	1	2	19	n/a	39	29	1	n/a	n/a	n/a	n/a	85.292	AM10NES.jpg
59.635	0.514	Blank	Blank	50.999	n/a	1	2	19	n/a	39	n/a	1	n/a	n/a	n/a	n/a	85.79	n/a
60.166	0.497	neutral	Picture	50.485	n/a	1	2	20	n/a	40	23	1	n/a	n/a	n/a	n/a	86.32	AM04NES.jpg
60.663	0.514	Blank	Blank	49.971	n/a	1	2	20	n/a	40	n/a	1	n/a	n/a	n/a	n/a	86.818	n/a
61.194	10.014	ITI	Fixation+	39.941	n/a	1	n/a	n/a	n/a	n/a	n/a	n/a	n/a	n/a	n/a	n/a	87.348	n/a
71.224	0.497	happy	Picture	39.427	n/a	1	3	1	n/a	41	62	2	n/a	n/a	n/a	n/a	97.378	BM03HAS.jpg
71.721	0.514	Blank	Blank	38.913	n/a	1	3	1	n/a	41	n/a	2	n/a	n/a	n/a	n/a	97.876	n/a
72.252	0.497	happy	Picture	38.399	n/a	1	3	2	n/a	42	52	2	n/a	n/a	n/a	n/a	98.406	AF21HAS.jpg
72.749	0.514	Blank	Blank	37.885	n/a	1	3	2	n/a	42	n/a	2	n/a	n/a	n/a	n/a	98.903	n/a
73.28	0.497	happy	Picture	37.371	n/a	1	3	3	n/a	43	44	2	n/a	n/a	n/a	n/a	99.434	AF05HAS.jpg
73.777	0.514	Blank	Blank	36.858	n/a	1	3	3	n/a	43	n/a	2	n/a	n/a	n/a	n/a	99.931	n/a
74.308	0.497	happy	Picture	36.344	n/a	1	3	4	n/a	44	53	2	n/a	n/a	n/a	n/a	100.462	BF22HAS.jpg
74.805	0.514	Blank	Blank	35.83	n/a	1	3	4	n/a	44	n/a	2	n/a	n/a	n/a	n/a	100.959	n/a
75.335	0.497	happy	Picture	35.316	n/a	1	3	5	n/a	45	54	2	n/a	n/a	n/a	n/a	101.49	AF23HAS.jpg
75.833	0.514	Blank	Blank	34.802	n/a	1	3	5	n/a	45	n/a	2	n/a	n/a	n/a	n/a	101.987	n/a
76.363	0.497	happy	Picture	34.288	n/a	1	3	6	n/a	46	68	2	n/a	n/a	n/a	n/a	102.518	AM09HAS.jpg
76.861	0.514	Blank	Blank	33.774	n/a	1	3	6	n/a	46	n/a	2	n/a	n/a	n/a	n/a	103.015	n/a
77.391	0.497	happy	Picture	33.26	n/a	1	3	7	n/a	47	64	2	n/a	n/a	n/a	n/a	103.546	BM05HAS.jpg
77.889	0.514	Blank	Blank	32.746	n/a	1	3	7	n/a	47	n/a	2	n/a	n/a	n/a	n/a	104.043	n/a
78.419	0.497	happy	Picture	32.232	n/a	1	3	8	n/a	48	59	2	n/a	n/a	n/a	n/a	104.573	AF31HAS.jpg
78.917	0.514	Blank	Blank	31.718	n/a	1	3	8	n/a	48	n/a	2	n/a	n/a	n/a	n/a	105.071	n/a
79.447	0.497	happy	Picture	31.204	n/a	1	3	9	n/a	49	41	2	n/a	n/a	n/a	n/a	105.601	AF01HAS.jpg
79.944	0.514	Blank	Blank	30.69	n/a	1	3	9	n/a	49	n/a	2	n/a	n/a	n/a	n/a	106.099	n/a
80.475	0.497	happy	Picture	30.176	n/a	1	3	10	n/a	50	73	2	n/a	n/a	n/a	n/a	106.629	AM21HAS.jpg
80.972	0.514	Blank	Blank	29.662	n/a	1	3	10	n/a	50	n/a	2	n/a	n/a	n/a	n/a	107.126	n/a
81.503	0.497	happy	Picture	29.148	n/a	1	3	11	n/a	51	65	2	n/a	n/a	n/a	n/a	107.657	BM06HAS.jpg
82.0	0.514	Blank	Blank	28.634	n/a	1	3	11	n/a	51	n/a	2	n/a	n/a	n/a	n/a	108.154	n/a
82.531	0.497	happy	Picture	28.12	n/a	1	3	12	n/a	52	56	2	n/a	n/a	n/a	n/a	108.685	AF26HAS.jpg
83.028	0.514	Blank	Blank	27.607	n/a	1	3	12	n/a	52	n/a	2	n/a	n/a	n/a	n/a	109.182	n/a
83.559	0.497	happy	Picture	27.093	n/a	1	3	13	n/a	53	45	2	n/a	n/a	n/a	n/a	109.713	BF07HAS.jpg
84.056	0.514	Blank	Blank	26.579	n/a	1	3	13	n/a	53	n/a	2	n/a	n/a	n/a	n/a	110.21	n/a
84.587	0.497	happy	Picture	26.065	n/a	1	3	14	n/a	54	78	2	n/a	n/a	n/a	n/a	110.741	BM26HAS.jpg
85.084	0.514	Blank	Blank	25.551	n/a	1	3	14	n/a	54	n/a	2	n/a	n/a	n/a	n/a	111.238	n/a
85.614	0.497	happy	Picture	25.037	n/a	1	3	15	n/a	55	50	2	n/a	n/a	n/a	n/a	111.769	AF18HAS.jpg
86.112	0.514	Blank	Blank	24.523	n/a	1	3	15	n/a	55	n/a	2	n/a	n/a	n/a	n/a	112.266	n/a
86.642	0.497	happy	Picture	24.009	n/a	1	3	16	n/a	56	47	2	n/a	n/a	n/a	n/a	112.796	BF11HAS.jpg
87.14	0.514	Blank	Blank	23.495	n/a	1	3	16	n/a	56	n/a	2	n/a	n/a	n/a	n/a	113.294	n/a
87.67	0.497	happy	Picture	22.981	n/a	1	3	17	n/a	57	77	2	n/a	n/a	n/a	n/a	113.824	BM25HAS.jpg
88.168	0.514	Blank	Blank	22.467	n/a	1	3	17	n/a	57	n/a	2	n/a	n/a	n/a	n/a	114.322	n/a
88.698	0.497	happy	Picture	21.953	n/a	1	3	18	n/a	58	57	2	n/a	n/a	n/a	n/a	114.852	BF28HAS.jpg
89.195	0.514	Blank	Blank	21.439	n/a	1	3	18	n/a	58	n/a	2	n/a	n/a	n/a	n/a	115.35	n/a
89.726	0.497	happy	Picture	20.925	n/a	1	3	19	n/a	59	61	2	n/a	n/a	n/a	n/a	115.88	AM01HAS.jpg
90.223	0.514	Blank	Blank	20.411	n/a	1	3	19	n/a	59	n/a	2	n/a	n/a	n/a	n/a	116.377	n/a
90.754	0.497	happy	Picture	19.897	n/a	1	3	20	n/a	60	79	2	n/a	n/a	n/a	n/a	116.908	BM28HAS.jpg
91.251	0.514	Blank	Blank	19.383	n/a	1	3	20	n/a	60	n/a	2	n/a	n/a	n/a	n/a	117.405	n/a
91.782	10.014	ITI	Fixation+	9.353	n/a	1	n/a	n/a	n/a	n/a	n/a	n/a	n/a	n/a	n/a	n/a	117.936	n/a
111.149	n/a	ConfirmRating	Rate	n/a	9.334	1	n/a	n/a	0	n/a	n/a	n/a	2	Happy	61	52	137.303	n/a
120.132	n/a	ConfirmRating	Rate	n/a	8.969	1	n/a	n/a	1	n/a	n/a	n/a	3	Happy	64	51	146.287	n/a
120.165	10.014	ITI	Fixation+	99.981	n/a	2	n/a	n/a	n/a	n/a	n/a	n/a	n/a	n/a	n/a	n/a	146.319	n/a
130.195	0.497	angry	Picture	99.467	n/a	2	4	1	n/a	61	119	3	n/a	n/a	n/a	n/a	156.349	BM28ANS.jpg
130.692	0.514	Blank	Blank	98.953	n/a	2	4	1	n/a	61	n/a	3	n/a	n/a	n/a	n/a	156.846	n/a
131.222	0.497	angry	Picture	98.44	n/a	2	4	2	n/a	62	100	3	n/a	n/a	n/a	n/a	157.377	AF32ANS.jpg
131.72	0.514	Blank	Blank	97.926	n/a	2	4	2	n/a	62	n/a	3	n/a	n/a	n/a	n/a	157.874	n/a
132.25	0.497	angry	Picture	97.412	n/a	2	4	3	n/a	63	118	3	n/a	n/a	n/a	n/a	158.405	BM26ANS.jpg
132.748	0.514	Blank	Blank	96.898	n/a	2	4	3	n/a	63	n/a	3	n/a	n/a	n/a	n/a	158.902	n/a
133.278	0.497	angry	Picture	96.384	n/a	2	4	4	n/a	64	89	3	n/a	n/a	n/a	n/a	159.433	AF17ANS.jpg
133.776	0.514	Blank	Blank	95.87	n/a	2	4	4	n/a	64	n/a	3	n/a	n/a	n/a	n/a	159.93	n/a
134.306	0.497	angry	Picture	95.356	n/a	2	4	5	n/a	65	116	3	n/a	n/a	n/a	n/a	160.46	BM24ANS.jpg
134.803	0.514	Blank	Blank	94.842	n/a	2	4	5	n/a	65	n/a	3	n/a	n/a	n/a	n/a	160.958	n/a
135.334	0.497	angry	Picture	94.328	n/a	2	4	6	n/a	66	105	3	n/a	n/a	n/a	n/a	161.488	BM06ANS.jpg
135.831	0.514	Blank	Blank	93.814	n/a	2	4	6	n/a	66	n/a	3	n/a	n/a	n/a	n/a	161.986	n/a
136.362	0.497	angry	Picture	93.3	n/a	2	4	7	n/a	67	106	3	n/a	n/a	n/a	n/a	162.516	AM07ANS.jpg
136.859	0.514	Blank	Blank	92.786	n/a	2	4	7	n/a	67	n/a	3	n/a	n/a	n/a	n/a	163.013	n/a
137.39	0.497	angry	Picture	92.272	n/a	2	4	8	n/a	68	94	3	n/a	n/a	n/a	n/a	163.544	AF23ANS.jpg
137.887	0.514	Blank	Blank	91.758	n/a	2	4	8	n/a	68	n/a	3	n/a	n/a	n/a	n/a	164.041	n/a
138.418	0.497	angry	Picture	91.244	n/a	2	4	9	n/a	69	117	3	n/a	n/a	n/a	n/a	164.572	BM25ANS.jpg
138.915	0.514	Blank	Blank	90.73	n/a	2	4	9	n/a	69	n/a	3	n/a	n/a	n/a	n/a	165.069	n/a
139.446	0.497	angry	Picture	90.217	n/a	2	4	10	n/a	70	90	3	n/a	n/a	n/a	n/a	165.6	AF18ANS.jpg
139.943	0.514	Blank	Blank	89.702	n/a	2	4	10	n/a	70	n/a	3	n/a	n/a	n/a	n/a	166.097	n/a
140.473	0.497	angry	Picture	89.189	n/a	2	4	11	n/a	71	83	3	n/a	n/a	n/a	n/a	166.628	BF04ANS.jpg
140.971	0.514	Blank	Blank	88.675	n/a	2	4	11	n/a	71	n/a	3	n/a	n/a	n/a	n/a	167.125	n/a
141.501	0.497	angry	Picture	88.161	n/a	2	4	12	n/a	72	112	3	n/a	n/a	n/a	n/a	167.655	AM14ANS.jpg
141.999	0.514	Blank	Blank	87.647	n/a	2	4	12	n/a	72	n/a	3	n/a	n/a	n/a	n/a	168.153	n/a
142.529	0.497	angry	Picture	87.133	n/a	2	4	13	n/a	73	102	3	n/a	n/a	n/a	n/a	168.683	BM03ANS.jpg
143.027	0.514	Blank	Blank	86.619	n/a	2	4	13	n/a	73	n/a	3	n/a	n/a	n/a	n/a	169.181	n/a
143.557	0.497	angry	Picture	86.105	n/a	2	4	14	n/a	74	95	3	n/a	n/a	n/a	n/a	169.711	AF25ANS.jpg
144.054	0.514	Blank	Blank	85.591	n/a	2	4	14	n/a	74	n/a	3	n/a	n/a	n/a	n/a	170.209	n/a
144.585	0.497	angry	Picture	85.077	n/a	2	4	15	n/a	75	113	3	n/a	n/a	n/a	n/a	170.739	AM21ANS.jpg
145.082	0.514	Blank	Blank	84.563	n/a	2	4	15	n/a	75	n/a	3	n/a	n/a	n/a	n/a	171.237	n/a
145.613	0.497	angry	Picture	84.049	n/a	2	4	16	n/a	76	88	3	n/a	n/a	n/a	n/a	171.767	AF14ANS.jpg
146.11	0.514	Blank	Blank	83.535	n/a	2	4	16	n/a	76	n/a	3	n/a	n/a	n/a	n/a	172.264	n/a
146.641	0.497	angry	Picture	83.021	n/a	2	4	17	n/a	77	93	3	n/a	n/a	n/a	n/a	172.795	BF22ANS.jpg
147.138	0.514	Blank	Blank	82.507	n/a	2	4	17	n/a	77	n/a	3	n/a	n/a	n/a	n/a	173.292	n/a
147.669	0.497	angry	Picture	81.993	n/a	2	4	18	n/a	78	86	3	n/a	n/a	n/a	n/a	173.823	AF09ANS.jpg
148.166	0.514	Blank	Blank	81.48	n/a	2	4	18	n/a	78	n/a	3	n/a	n/a	n/a	n/a	174.32	n/a
148.696	0.497	angry	Picture	80.966	n/a	2	4	19	n/a	79	92	3	n/a	n/a	n/a	n/a	174.851	AF21ANS.jpg
149.194	0.514	Blank	Blank	80.452	n/a	2	4	19	n/a	79	n/a	3	n/a	n/a	n/a	n/a	175.348	n/a
149.724	0.497	angry	Picture	79.938	n/a	2	4	20	n/a	80	84	3	n/a	n/a	n/a	n/a	175.879	AF05ANS.jpg
150.222	0.514	Blank	Blank	79.424	n/a	2	4	20	n/a	80	n/a	3	n/a	n/a	n/a	n/a	176.376	n/a
150.752	10.014	ITI	Fixation+	69.394	n/a	2	n/a	n/a	n/a	n/a	n/a	n/a	n/a	n/a	n/a	n/a	176.906	n/a
160.782	0.497	neutral	Picture	68.88	n/a	2	5	1	n/a	81	4	1	n/a	n/a	n/a	n/a	186.937	AF05NES.jpg
161.28	0.514	Blank	Blank	68.366	n/a	2	5	1	n/a	81	n/a	1	n/a	n/a	n/a	n/a	187.434	n/a
161.81	0.497	neutral	Picture	67.852	n/a	2	5	2	n/a	82	14	1	n/a	n/a	n/a	n/a	187.964	AF23NES.jpg
162.308	0.514	Blank	Blank	67.338	n/a	2	5	2	n/a	82	n/a	1	n/a	n/a	n/a	n/a	188.462	n/a
162.838	0.497	neutral	Picture	66.824	n/a	2	5	3	n/a	83	19	1	n/a	n/a	n/a	n/a	188.992	AF31NES.jpg
163.335	0.514	Blank	Blank	66.31	n/a	2	5	3	n/a	83	n/a	1	n/a	n/a	n/a	n/a	189.49	n/a
163.866	0.497	neutral	Picture	65.796	n/a	2	5	4	n/a	84	8	1	n/a	n/a	n/a	n/a	190.02	AF14NES.jpg
164.363	0.514	Blank	Blank	65.282	n/a	2	5	4	n/a	84	n/a	1	n/a	n/a	n/a	n/a	190.518	n/a
164.894	0.497	neutral	Picture	64.768	n/a	2	5	5	n/a	85	25	1	n/a	n/a	n/a	n/a	191.048	BM06NES.jpg
165.391	0.514	Blank	Blank	64.254	n/a	2	5	5	n/a	85	n/a	1	n/a	n/a	n/a	n/a	191.546	n/a
165.922	0.497	neutral	Picture	63.74	n/a	2	5	6	n/a	86	9	1	n/a	n/a	n/a	n/a	192.076	AF17NES.jpg
166.419	0.514	Blank	Blank	63.226	n/a	2	5	6	n/a	86	n/a	1	n/a	n/a	n/a	n/a	192.573	n/a
166.95	0.497	neutral	Picture	62.712	n/a	2	5	7	n/a	87	2	1	n/a	n/a	n/a	n/a	193.104	AF03NES.jpg
167.447	0.514	Blank	Blank	62.198	n/a	2	5	7	n/a	87	n/a	1	n/a	n/a	n/a	n/a	193.601	n/a
167.978	0.497	neutral	Picture	61.684	n/a	2	5	8	n/a	88	17	1	n/a	n/a	n/a	n/a	194.132	BF28NES.jpg
168.475	0.514	Blank	Blank	61.171	n/a	2	5	8	n/a	88	n/a	1	n/a	n/a	n/a	n/a	194.629	n/a
169.005	0.497	neutral	Picture	60.657	n/a	2	5	9	n/a	89	6	1	n/a	n/a	n/a	n/a	195.16	AF09NES.jpg
169.503	0.514	Blank	Blank	60.143	n/a	2	5	9	n/a	89	n/a	1	n/a	n/a	n/a	n/a	195.657	n/a
170.033	0.497	neutral	Picture	59.629	n/a	2	5	10	n/a	90	12	1	n/a	n/a	n/a	n/a	196.188	AF21NES.jpg
170.531	0.514	Blank	Blank	59.115	n/a	2	5	10	n/a	90	n/a	1	n/a	n/a	n/a	n/a	196.685	n/a
171.061	0.497	neutral	Picture	58.601	n/a	2	5	11	n/a	91	24	1	n/a	n/a	n/a	n/a	197.215	BM05NES.jpg
171.559	0.514	Blank	Blank	58.087	n/a	2	5	11	n/a	91	n/a	1	n/a	n/a	n/a	n/a	197.713	n/a
172.089	0.497	neutral	Picture	57.573	n/a	2	5	12	n/a	92	34	1	n/a	n/a	n/a	n/a	198.243	AM22NES.jpg
172.587	0.514	Blank	Blank	57.059	n/a	2	5	12	n/a	92	n/a	1	n/a	n/a	n/a	n/a	198.741	n/a
173.117	0.497	neutral	Picture	56.545	n/a	2	5	13	n/a	93	23	1	n/a	n/a	n/a	n/a	199.271	AM04NES.jpg
173.614	0.514	Blank	Blank	56.031	n/a	2	5	13	n/a	93	n/a	1	n/a	n/a	n/a	n/a	199.769	n/a
174.145	0.497	neutral	Picture	55.517	n/a	2	5	14	n/a	94	15	1	n/a	n/a	n/a	n/a	200.299	AF25NES.jpg
174.642	0.514	Blank	Blank	55.003	n/a	2	5	14	n/a	94	n/a	1	n/a	n/a	n/a	n/a	200.796	n/a
175.173	0.497	neutral	Picture	54.489	n/a	2	5	15	n/a	95	37	1	n/a	n/a	n/a	n/a	201.327	BM25NES.jpg
175.67	0.514	Blank	Blank	53.975	n/a	2	5	15	n/a	95	n/a	1	n/a	n/a	n/a	n/a	201.824	n/a
176.201	0.497	neutral	Picture	53.461	n/a	2	5	16	n/a	96	32	1	n/a	n/a	n/a	n/a	202.355	AM14NES.jpg
176.698	0.514	Blank	Blank	52.947	n/a	2	5	16	n/a	96	n/a	1	n/a	n/a	n/a	n/a	202.852	n/a
177.228	0.497	neutral	Picture	52.434	n/a	2	5	17	n/a	97	3	1	n/a	n/a	n/a	n/a	203.383	BF04NES.jpg
177.726	0.514	Blank	Blank	51.92	n/a	2	5	17	n/a	97	n/a	1	n/a	n/a	n/a	n/a	203.88	n/a
178.256	0.497	neutral	Picture	51.406	n/a	2	5	18	n/a	98	16	1	n/a	n/a	n/a	n/a	204.411	AF26NES.jpg
178.754	0.514	Blank	Blank	50.892	n/a	2	5	18	n/a	98	n/a	1	n/a	n/a	n/a	n/a	204.908	n/a
179.284	0.497	neutral	Picture	50.378	n/a	2	5	19	n/a	99	27	1	n/a	n/a	n/a	n/a	205.439	BM08NES.jpg
179.782	0.514	Blank	Blank	49.864	n/a	2	5	19	n/a	99	n/a	1	n/a	n/a	n/a	n/a	205.936	n/a
180.312	0.497	neutral	Picture	49.35	n/a	2	5	20	n/a	100	28	1	n/a	n/a	n/a	n/a	206.466	AM09NES.jpg
180.809	0.514	Blank	Blank	48.836	n/a	2	5	20	n/a	100	n/a	1	n/a	n/a	n/a	n/a	206.964	n/a
181.34	10.014	ITI	Fixation+	38.806	n/a	2	n/a	n/a	n/a	n/a	n/a	n/a	n/a	n/a	n/a	n/a	207.494	n/a
191.37	0.497	angry	Picture	38.292	n/a	2	6	1	n/a	101	81	3	n/a	n/a	n/a	n/a	217.524	AF01ANS.jpg
191.868	0.514	Blank	Blank	37.778	n/a	2	6	1	n/a	101	n/a	3	n/a	n/a	n/a	n/a	218.022	n/a
192.398	0.497	angry	Picture	37.264	n/a	2	6	2	n/a	102	120	3	n/a	n/a	n/a	n/a	218.552	AM35ANS.jpg
192.895	0.514	Blank	Blank	36.75	n/a	2	6	2	n/a	102	n/a	3	n/a	n/a	n/a	n/a	219.05	n/a
193.426	0.497	angry	Picture	36.236	n/a	2	6	3	n/a	103	114	3	n/a	n/a	n/a	n/a	219.58	AM22ANS.jpg
193.923	0.514	Blank	Blank	35.722	n/a	2	6	3	n/a	103	n/a	3	n/a	n/a	n/a	n/a	220.077	n/a
194.454	0.497	angry	Picture	35.208	n/a	2	6	4	n/a	104	109	3	n/a	n/a	n/a	n/a	220.608	AM10ANS.jpg
194.951	0.514	Blank	Blank	34.694	n/a	2	6	4	n/a	104	n/a	3	n/a	n/a	n/a	n/a	221.105	n/a
195.482	0.497	angry	Picture	34.18	n/a	2	6	5	n/a	105	96	3	n/a	n/a	n/a	n/a	221.636	AF26ANS.jpg
195.979	0.514	Blank	Blank	33.666	n/a	2	6	5	n/a	105	n/a	3	n/a	n/a	n/a	n/a	222.133	n/a
196.51	0.497	angry	Picture	33.152	n/a	2	6	6	n/a	106	82	3	n/a	n/a	n/a	n/a	222.664	AF03ANS.jpg
197.007	0.514	Blank	Blank	32.638	n/a	2	6	6	n/a	106	n/a	3	n/a	n/a	n/a	n/a	223.161	n/a
197.537	0.497	angry	Picture	32.125	n/a	2	6	7	n/a	107	97	3	n/a	n/a	n/a	n/a	223.692	BF28ANS.jpg
198.035	0.514	Blank	Blank	31.611	n/a	2	6	7	n/a	107	n/a	3	n/a	n/a	n/a	n/a	224.189	n/a
198.565	0.497	angry	Picture	31.097	n/a	2	6	8	n/a	108	115	3	n/a	n/a	n/a	n/a	224.72	AM23ANS.jpg
199.063	0.514	Blank	Blank	30.583	n/a	2	6	8	n/a	108	n/a	3	n/a	n/a	n/a	n/a	225.217	n/a
199.593	0.497	angry	Picture	30.069	n/a	2	6	9	n/a	109	91	3	n/a	n/a	n/a	n/a	225.748	AF20ANS.jpg
200.091	0.514	Blank	Blank	29.555	n/a	2	6	9	n/a	109	n/a	3	n/a	n/a	n/a	n/a	226.245	n/a
200.621	0.497	angry	Picture	29.041	n/a	2	6	10	n/a	110	87	3	n/a	n/a	n/a	n/a	226.775	BF11ANS.jpg
201.118	0.514	Blank	Blank	28.527	n/a	2	6	10	n/a	110	n/a	3	n/a	n/a	n/a	n/a	227.273	n/a
201.649	0.497	angry	Picture	28.013	n/a	2	6	11	n/a	111	85	3	n/a	n/a	n/a	n/a	227.803	BF07ANS.jpg
202.146	0.514	Blank	Blank	27.499	n/a	2	6	11	n/a	111	n/a	3	n/a	n/a	n/a	n/a	228.301	n/a
202.677	0.497	angry	Picture	26.985	n/a	2	6	12	n/a	112	110	3	n/a	n/a	n/a	n/a	228.831	AM11ANS.jpg
203.174	0.514	Blank	Blank	26.471	n/a	2	6	12	n/a	112	n/a	3	n/a	n/a	n/a	n/a	229.328	n/a
203.705	0.497	angry	Picture	25.957	n/a	2	6	13	n/a	113	111	3	n/a	n/a	n/a	n/a	229.859	BM12ANS.jpg
204.202	0.514	Blank	Blank	25.443	n/a	2	6	13	n/a	113	n/a	3	n/a	n/a	n/a	n/a	230.356	n/a
204.733	0.497	angry	Picture	24.929	n/a	2	6	14	n/a	114	103	3	n/a	n/a	n/a	n/a	230.887	AM04ANS.jpg
205.23	0.514	Blank	Blank	24.415	n/a	2	6	14	n/a	114	n/a	3	n/a	n/a	n/a	n/a	231.384	n/a
205.761	0.497	angry	Picture	23.901	n/a	2	6	15	n/a	115	101	3	n/a	n/a	n/a	n/a	231.915	AM01ANS.jpg
206.258	0.514	Blank	Blank	23.387	n/a	2	6	15	n/a	115	n/a	3	n/a	n/a	n/a	n/a	232.412	n/a
206.788	0.497	angry	Picture	22.874	n/a	2	6	16	n/a	116	104	3	n/a	n/a	n/a	n/a	232.943	BM05ANS.jpg
207.286	0.514	Blank	Blank	22.36	n/a	2	6	16	n/a	116	n/a	3	n/a	n/a	n/a	n/a	233.44	n/a
207.816	0.497	angry	Picture	21.846	n/a	2	6	17	n/a	117	107	3	n/a	n/a	n/a	n/a	233.97	BM08ANS.jpg
208.314	0.514	Blank	Blank	21.332	n/a	2	6	17	n/a	117	n/a	3	n/a	n/a	n/a	n/a	234.468	n/a
208.844	0.497	angry	Picture	20.818	n/a	2	6	18	n/a	118	98	3	n/a	n/a	n/a	n/a	234.998	BF29ANS.jpg
209.342	0.514	Blank	Blank	20.304	n/a	2	6	18	n/a	118	n/a	3	n/a	n/a	n/a	n/a	235.496	n/a
209.872	0.497	angry	Picture	19.79	n/a	2	6	19	n/a	119	99	3	n/a	n/a	n/a	n/a	236.026	AF31ANS.jpg
210.369	0.514	Blank	Blank	19.276	n/a	2	6	19	n/a	119	n/a	3	n/a	n/a	n/a	n/a	236.524	n/a
210.9	0.497	angry	Picture	18.762	n/a	2	6	20	n/a	120	108	3	n/a	n/a	n/a	n/a	237.054	AM09ANS.jpg
211.397	0.514	Blank	Blank	18.248	n/a	2	6	20	n/a	120	n/a	3	n/a	n/a	n/a	n/a	237.552	n/a
211.928	10.014	ITI	Fixation+	8.218	n/a	2	n/a	n/a	n/a	n/a	n/a	n/a	n/a	n/a	n/a	n/a	238.082	n/a
230.159	n/a	ConfirmRating	Rate	n/a	8.206	2	n/a	n/a	0	n/a	n/a	n/a	2	Angry	42	50	256.314	n/a
234.257	n/a	ConfirmRating	Rate	n/a	4.078	2	n/a	n/a	1	n/a	n/a	n/a	3	Angry	39	49	260.411	n/a
234.276	15.004	Rest	Picture	n/a	n/a	n/a	n/a	n/a	n/a	n/a	n/a	n/a	0	n/a	0	0	260.43	n/a
249.296	10.014	ITI	Fixation+	97.462	n/a	3	n/a	n/a	n/a	n/a	n/a	n/a	n/a	n/a	n/a	n/a	275.45	n/a
259.327	0.497	happy	Picture	96.948	n/a	3	7	1	n/a	1	46	2	n/a	n/a	n/a	n/a	285.481	AF09HAS.jpg
259.824	0.514	Blank	Blank	96.434	n/a	3	7	1	n/a	1	n/a	2	n/a	n/a	n/a	n/a	285.978	n/a
260.354	0.497	happy	Picture	95.92	n/a	3	7	2	n/a	2	69	2	n/a	n/a	n/a	n/a	286.509	AM10HAS.jpg
260.852	0.514	Blank	Blank	95.406	n/a	3	7	2	n/a	2	n/a	2	n/a	n/a	n/a	n/a	287.006	n/a
261.382	0.497	happy	Picture	94.892	n/a	3	7	3	n/a	3	71	2	n/a	n/a	n/a	n/a	287.536	BM12HAS.jpg
261.88	0.514	Blank	Blank	94.379	n/a	3	7	3	n/a	3	n/a	2	n/a	n/a	n/a	n/a	288.034	n/a
262.41	0.497	happy	Picture	93.865	n/a	3	7	4	n/a	4	51	2	n/a	n/a	n/a	n/a	288.564	AF20HAS.jpg
262.907	0.514	Blank	Blank	93.351	n/a	3	7	4	n/a	4	n/a	2	n/a	n/a	n/a	n/a	289.062	n/a
263.438	0.497	happy	Picture	92.837	n/a	3	7	5	n/a	5	67	2	n/a	n/a	n/a	n/a	289.592	BM08HAS.jpg
263.935	0.514	Blank	Blank	92.323	n/a	3	7	5	n/a	5	n/a	2	n/a	n/a	n/a	n/a	290.09	n/a
264.466	0.497	happy	Picture	91.809	n/a	3	7	6	n/a	6	60	2	n/a	n/a	n/a	n/a	290.62	AF32HAS.jpg
264.963	0.514	Blank	Blank	91.295	n/a	3	7	6	n/a	6	n/a	2	n/a	n/a	n/a	n/a	291.118	n/a
265.494	0.497	happy	Picture	90.781	n/a	3	7	7	n/a	7	42	2	n/a	n/a	n/a	n/a	291.648	AF03HAS.jpg
265.991	0.514	Blank	Blank	90.267	n/a	3	7	7	n/a	7	n/a	2	n/a	n/a	n/a	n/a	292.145	n/a
266.522	0.497	happy	Picture	89.753	n/a	3	7	8	n/a	8	55	2	n/a	n/a	n/a	n/a	292.676	AF25HAS.jpg
267.019	0.514	Blank	Blank	89.239	n/a	3	7	8	n/a	8	n/a	2	n/a	n/a	n/a	n/a	293.173	n/a
267.55	0.497	happy	Picture	88.725	n/a	3	7	9	n/a	9	72	2	n/a	n/a	n/a	n/a	293.704	AM14HAS.jpg
268.047	0.514	Blank	Blank	88.211	n/a	3	7	9	n/a	9	n/a	2	n/a	n/a	n/a	n/a	294.201	n/a
268.577	0.497	happy	Picture	87.697	n/a	3	7	10	n/a	10	63	2	n/a	n/a	n/a	n/a	294.732	AM04HAS.jpg
269.075	0.514	Blank	Blank	87.183	n/a	3	7	10	n/a	10	n/a	2	n/a	n/a	n/a	n/a	295.229	n/a
269.605	0.497	happy	Picture	86.669	n/a	3	7	11	n/a	11	58	2	n/a	n/a	n/a	n/a	295.76	BF29HAS.jpg
270.103	0.514	Blank	Blank	86.156	n/a	3	7	11	n/a	11	n/a	2	n/a	n/a	n/a	n/a	296.257	n/a
270.633	0.497	happy	Picture	85.642	n/a	3	7	12	n/a	12	48	2	n/a	n/a	n/a	n/a	296.787	AF14HAS.jpg
271.131	0.514	Blank	Blank	85.128	n/a	3	7	12	n/a	12	n/a	2	n/a	n/a	n/a	n/a	297.285	n/a
271.661	0.497	happy	Picture	84.614	n/a	3	7	13	n/a	13	66	2	n/a	n/a	n/a	n/a	297.815	BM07HAS.jpg
272.158	0.514	Blank	Blank	84.1	n/a	3	7	13	n/a	13	n/a	2	n/a	n/a	n/a	n/a	298.313	n/a
272.689	0.497	happy	Picture	83.586	n/a	3	7	14	n/a	14	70	2	n/a	n/a	n/a	n/a	298.843	BM11HAS.jpg
273.186	0.514	Blank	Blank	83.072	n/a	3	7	14	n/a	14	n/a	2	n/a	n/a	n/a	n/a	299.341	n/a
273.717	0.497	happy	Picture	82.558	n/a	3	7	15	n/a	15	43	2	n/a	n/a	n/a	n/a	299.871	BF04HAS.jpg
274.214	0.514	Blank	Blank	82.044	n/a	3	7	15	n/a	15	n/a	2	n/a	n/a	n/a	n/a	300.368	n/a
274.745	0.497	happy	Picture	81.53	n/a	3	7	16	n/a	16	49	2	n/a	n/a	n/a	n/a	300.899	AF17HAS.jpg
275.242	0.514	Blank	Blank	81.016	n/a	3	7	16	n/a	16	n/a	2	n/a	n/a	n/a	n/a	301.396	n/a
275.773	0.497	happy	Picture	80.502	n/a	3	7	17	n/a	17	75	2	n/a	n/a	n/a	n/a	301.927	AM23HAS.jpg
276.27	0.514	Blank	Blank	79.988	n/a	3	7	17	n/a	17	n/a	2	n/a	n/a	n/a	n/a	302.424	n/a
276.8	0.497	happy	Picture	79.474	n/a	3	7	18	n/a	18	80	2	n/a	n/a	n/a	n/a	302.955	BM35HAS.jpg
277.298	0.514	Blank	Blank	78.96	n/a	3	7	18	n/a	18	n/a	2	n/a	n/a	n/a	n/a	303.452	n/a
277.828	0.497	happy	Picture	78.446	n/a	3	7	19	n/a	19	76	2	n/a	n/a	n/a	n/a	303.983	BM24HAS.jpg
278.326	0.514	Blank	Blank	77.932	n/a	3	7	19	n/a	19	n/a	2	n/a	n/a	n/a	n/a	304.48	n/a
278.856	0.497	happy	Picture	77.419	n/a	3	7	20	n/a	20	74	2	n/a	n/a	n/a	n/a	305.01	AM22HAS.jpg
279.354	0.514	Blank	Blank	76.905	n/a	3	7	20	n/a	20	n/a	2	n/a	n/a	n/a	n/a	305.508	n/a
279.884	10.014	ITI	Fixation+	66.874	n/a	3	n/a	n/a	n/a	n/a	n/a	n/a	n/a	n/a	n/a	n/a	306.038	n/a
289.914	0.497	neutral	Picture	66.361	n/a	3	8	1	n/a	21	33	1	n/a	n/a	n/a	n/a	316.068	AM21NES.jpg
290.412	0.514	Blank	Blank	65.846	n/a	3	8	1	n/a	21	n/a	1	n/a	n/a	n/a	n/a	316.566	n/a
290.942	0.497	neutral	Picture	65.333	n/a	3	8	2	n/a	22	39	1	n/a	n/a	n/a	n/a	317.096	AM28NES.jpg
291.44	0.514	Blank	Blank	64.819	n/a	3	8	2	n/a	22	n/a	1	n/a	n/a	n/a	n/a	317.594	n/a
291.97	0.497	neutral	Picture	64.305	n/a	3	8	3	n/a	23	25	1	n/a	n/a	n/a	n/a	318.124	BM06NES.jpg
292.467	0.514	Blank	Blank	63.791	n/a	3	8	3	n/a	23	n/a	1	n/a	n/a	n/a	n/a	318.622	n/a
292.998	0.497	neutral	Picture	63.277	n/a	3	8	4	n/a	24	5	1	n/a	n/a	n/a	n/a	319.152	BF07NES.jpg
293.495	0.514	Blank	Blank	62.763	n/a	3	8	4	n/a	24	n/a	1	n/a	n/a	n/a	n/a	319.649	n/a
294.026	0.497	neutral	Picture	62.249	n/a	3	8	5	n/a	25	10	1	n/a	n/a	n/a	n/a	320.18	AF18NES.jpg
294.523	0.514	Blank	Blank	61.735	n/a	3	8	5	n/a	25	n/a	1	n/a	n/a	n/a	n/a	320.677	n/a
295.054	0.497	neutral	Picture	61.221	n/a	3	8	6	n/a	26	34	1	n/a	n/a	n/a	n/a	321.208	AM22NES.jpg
295.551	0.514	Blank	Blank	60.707	n/a	3	8	6	n/a	26	n/a	1	n/a	n/a	n/a	n/a	321.705	n/a
296.082	0.497	neutral	Picture	60.193	n/a	3	8	7	n/a	27	36	1	n/a	n/a	n/a	n/a	322.236	BM24NES.jpg
296.579	0.514	Blank	Blank	59.679	n/a	3	8	7	n/a	27	n/a	1	n/a	n/a	n/a	n/a	322.733	n/a
297.109	0.497	neutral	Picture	59.165	n/a	3	8	8	n/a	28	14	1	n/a	n/a	n/a	n/a	323.264	AF23NES.jpg
297.607	0.514	Blank	Blank	58.651	n/a	3	8	8	n/a	28	n/a	1	n/a	n/a	n/a	n/a	323.761	n/a
298.137	0.497	neutral	Picture	58.137	n/a	3	8	9	n/a	29	9	1	n/a	n/a	n/a	n/a	324.291	AF17NES.jpg
298.635	0.514	Blank	Blank	57.624	n/a	3	8	9	n/a	29	n/a	1	n/a	n/a	n/a	n/a	324.789	n/a
299.165	0.497	neutral	Picture	57.11	n/a	3	8	10	n/a	30	19	1	n/a	n/a	n/a	n/a	325.319	AF31NES.jpg
299.663	0.514	Blank	Blank	56.596	n/a	3	8	10	n/a	30	n/a	1	n/a	n/a	n/a	n/a	325.817	n/a
300.193	0.497	neutral	Picture	56.082	n/a	3	8	11	n/a	31	15	1	n/a	n/a	n/a	n/a	326.347	AF25NES.jpg
300.69	0.514	Blank	Blank	55.568	n/a	3	8	11	n/a	31	n/a	1	n/a	n/a	n/a	n/a	326.845	n/a
301.221	0.497	neutral	Picture	55.054	n/a	3	8	12	n/a	32	22	1	n/a	n/a	n/a	n/a	327.375	BM03NES.jpg
301.718	0.514	Blank	Blank	54.54	n/a	3	8	12	n/a	32	n/a	1	n/a	n/a	n/a	n/a	327.873	n/a
302.249	0.497	neutral	Picture	54.026	n/a	3	8	13	n/a	33	11	1	n/a	n/a	n/a	n/a	328.403	AF20NES.jpg
302.746	0.514	Blank	Blank	53.512	n/a	3	8	13	n/a	33	n/a	1	n/a	n/a	n/a	n/a	328.9	n/a
303.277	0.497	neutral	Picture	52.998	n/a	3	8	14	n/a	34	4	1	n/a	n/a	n/a	n/a	329.431	AF05NES.jpg
303.774	0.514	Blank	Blank	52.484	n/a	3	8	14	n/a	34	n/a	1	n/a	n/a	n/a	n/a	329.928	n/a
304.305	0.497	neutral	Picture	51.97	n/a	3	8	15	n/a	35	17	1	n/a	n/a	n/a	n/a	330.459	BF28NES.jpg
304.802	0.514	Blank	Blank	51.456	n/a	3	8	15	n/a	35	n/a	1	n/a	n/a	n/a	n/a	330.956	n/a
305.332	0.497	neutral	Picture	50.942	n/a	3	8	16	n/a	36	13	1	n/a	n/a	n/a	n/a	331.487	BF22NES.jpg
305.83	0.514	Blank	Blank	50.428	n/a	3	8	16	n/a	36	n/a	1	n/a	n/a	n/a	n/a	331.984	n/a
306.36	0.497	neutral	Picture	49.914	n/a	3	8	17	n/a	37	12	1	n/a	n/a	n/a	n/a	332.515	AF21NES.jpg
306.858	0.514	Blank	Blank	49.4	n/a	3	8	17	n/a	37	n/a	1	n/a	n/a	n/a	n/a	333.012	n/a
307.388	0.497	neutral	Picture	48.887	n/a	3	8	18	n/a	38	24	1	n/a	n/a	n/a	n/a	333.543	BM05NES.jpg
307.886	0.514	Blank	Blank	48.373	n/a	3	8	18	n/a	38	n/a	1	n/a	n/a	n/a	n/a	334.04	n/a
308.416	0.497	neutral	Picture	47.859	n/a	3	8	19	n/a	39	29	1	n/a	n/a	n/a	n/a	334.57	AM10NES.jpg
308.913	0.514	Blank	Blank	47.345	n/a	3	8	19	n/a	39	n/a	1	n/a	n/a	n/a	n/a	335.068	n/a
309.444	0.497	neutral	Picture	46.831	n/a	3	8	20	n/a	40	23	1	n/a	n/a	n/a	n/a	335.598	AM04NES.jpg
309.941	0.514	Blank	Blank	46.317	n/a	3	8	20	n/a	40	n/a	1	n/a	n/a	n/a	n/a	336.096	n/a
310.472	10.014	ITI	Fixation+	36.287	n/a	3	n/a	n/a	n/a	n/a	n/a	n/a	n/a	n/a	n/a	n/a	336.626	n/a
320.502	0.497	happy	Picture	35.773	n/a	3	9	1	n/a	41	62	2	n/a	n/a	n/a	n/a	346.656	BM03HAS.jpg
320.999	0.514	Blank	Blank	35.259	n/a	3	9	1	n/a	41	n/a	2	n/a	n/a	n/a	n/a	347.154	n/a
321.53	0.497	happy	Picture	34.745	n/a	3	9	2	n/a	42	52	2	n/a	n/a	n/a	n/a	347.684	AF21HAS.jpg
322.027	0.514	Blank	Blank	34.231	n/a	3	9	2	n/a	42	n/a	2	n/a	n/a	n/a	n/a	348.182	n/a
322.558	0.497	happy	Picture	33.717	n/a	3	9	3	n/a	43	44	2	n/a	n/a	n/a	n/a	348.712	AF05HAS.jpg
323.055	0.514	Blank	Blank	33.203	n/a	3	9	3	n/a	43	n/a	2	n/a	n/a	n/a	n/a	349.209	n/a
323.586	0.497	happy	Picture	32.689	n/a	3	9	4	n/a	44	53	2	n/a	n/a	n/a	n/a	349.74	BF22HAS.jpg
324.083	0.514	Blank	Blank	32.175	n/a	3	9	4	n/a	44	n/a	2	n/a	n/a	n/a	n/a	350.237	n/a
324.614	0.497	happy	Picture	31.661	n/a	3	9	5	n/a	45	54	2	n/a	n/a	n/a	n/a	350.768	AF23HAS.jpg
325.111	0.514	Blank	Blank	31.147	n/a	3	9	5	n/a	45	n/a	2	n/a	n/a	n/a	n/a	351.265	n/a
325.642	0.497	happy	Picture	30.633	n/a	3	9	6	n/a	46	68	2	n/a	n/a	n/a	n/a	351.796	AM09HAS.jpg
326.139	0.514	Blank	Blank	30.119	n/a	3	9	6	n/a	46	n/a	2	n/a	n/a	n/a	n/a	352.293	n/a
326.669	0.497	happy	Picture	29.605	n/a	3	9	7	n/a	47	64	2	n/a	n/a	n/a	n/a	352.824	BM05HAS.jpg
327.167	0.514	Blank	Blank	29.091	n/a	3	9	7	n/a	47	n/a	2	n/a	n/a	n/a	n/a	353.321	n/a
327.697	0.497	happy	Picture	28.577	n/a	3	9	8	n/a	48	59	2	n/a	n/a	n/a	n/a	353.851	AF31HAS.jpg
328.195	0.514	Blank	Blank	28.064	n/a	3	9	8	n/a	48	n/a	2	n/a	n/a	n/a	n/a	354.349	n/a
328.725	0.497	happy	Picture	27.55	n/a	3	9	9	n/a	49	41	2	n/a	n/a	n/a	n/a	354.879	AF01HAS.jpg
329.223	0.514	Blank	Blank	27.036	n/a	3	9	9	n/a	49	n/a	2	n/a	n/a	n/a	n/a	355.377	n/a
329.753	0.497	happy	Picture	26.522	n/a	3	9	10	n/a	50	73	2	n/a	n/a	n/a	n/a	355.907	AM21HAS.jpg
330.25	0.514	Blank	Blank	26.008	n/a	3	9	10	n/a	50	n/a	2	n/a	n/a	n/a	n/a	356.405	n/a
330.781	0.497	happy	Picture	25.494	n/a	3	9	11	n/a	51	65	2	n/a	n/a	n/a	n/a	356.935	BM06HAS.jpg
331.278	0.514	Blank	Blank	24.98	n/a	3	9	11	n/a	51	n/a	2	n/a	n/a	n/a	n/a	357.432	n/a
331.809	0.497	happy	Picture	24.466	n/a	3	9	12	n/a	52	56	2	n/a	n/a	n/a	n/a	357.963	AF26HAS.jpg
332.306	0.514	Blank	Blank	23.952	n/a	3	9	12	n/a	52	n/a	2	n/a	n/a	n/a	n/a	358.46	n/a
332.837	0.497	happy	Picture	23.438	n/a	3	9	13	n/a	53	45	2	n/a	n/a	n/a	n/a	358.991	BF07HAS.jpg
333.334	0.514	Blank	Blank	22.924	n/a	3	9	13	n/a	53	n/a	2	n/a	n/a	n/a	n/a	359.488	n/a
333.865	0.497	happy	Picture	22.41	n/a	3	9	14	n/a	54	78	2	n/a	n/a	n/a	n/a	360.019	BM26HAS.jpg
334.362	0.514	Blank	Blank	21.896	n/a	3	9	14	n/a	54	n/a	2	n/a	n/a	n/a	n/a	360.516	n/a
334.892	0.497	happy	Picture	21.382	n/a	3	9	15	n/a	55	50	2	n/a	n/a	n/a	n/a	361.047	AF18HAS.jpg
335.39	0.514	Blank	Blank	20.868	n/a	3	9	15	n/a	55	n/a	2	n/a	n/a	n/a	n/a	361.544	n/a
335.92	0.497	happy	Picture	20.354	n/a	3	9	16	n/a	56	47	2	n/a	n/a	n/a	n/a	362.075	BF11HAS.jpg
336.418	0.514	Blank	Blank	19.841	n/a	3	9	16	n/a	56	n/a	2	n/a	n/a	n/a	n/a	362.572	n/a
336.948	0.497	happy	Picture	19.327	n/a	3	9	17	n/a	57	77	2	n/a	n/a	n/a	n/a	363.102	BM25HAS.jpg
337.445	0.514	Blank	Blank	18.813	n/a	3	9	17	n/a	57	n/a	2	n/a	n/a	n/a	n/a	363.6	n/a
337.976	0.497	happy	Picture	18.299	n/a	3	9	18	n/a	58	57	2	n/a	n/a	n/a	n/a	364.13	BF28HAS.jpg
338.473	0.514	Blank	Blank	17.785	n/a	3	9	18	n/a	58	n/a	2	n/a	n/a	n/a	n/a	364.628	n/a
339.004	0.497	happy	Picture	17.271	n/a	3	9	19	n/a	59	61	2	n/a	n/a	n/a	n/a	365.158	AM01HAS.jpg
339.501	0.514	Blank	Blank	16.757	n/a	3	9	19	n/a	59	n/a	2	n/a	n/a	n/a	n/a	365.656	n/a
340.032	0.497	happy	Picture	16.243	n/a	3	9	20	n/a	60	79	2	n/a	n/a	n/a	n/a	366.186	BM28HAS.jpg
340.529	0.514	Blank	Blank	15.729	n/a	3	9	20	n/a	60	n/a	2	n/a	n/a	n/a	n/a	366.683	n/a
341.06	10.014	ITI	Fixation+	5.699	n/a	3	n/a	n/a	n/a	n/a	n/a	n/a	n/a	n/a	n/a	n/a	367.214	n/a
356.772	n/a	ConfirmRating	Rate	n/a	5.686	3	n/a	n/a	0	n/a	n/a	n/a	2	Happy	40	49	382.926	n/a
359.166	n/a	ConfirmRating	Rate	n/a	2.387	3	n/a	n/a	1	n/a	n/a	n/a	3	Happy	34	49	385.32	n/a
359.197	10.014	ITI	Fixation+	95.347	n/a	4	n/a	n/a	n/a	n/a	n/a	n/a	n/a	n/a	n/a	n/a	385.351	n/a
369.227	0.497	angry	Picture	94.833	n/a	4	10	1	n/a	61	119	3	n/a	n/a	n/a	n/a	395.381	BM28ANS.jpg
369.724	0.514	Blank	Blank	94.319	n/a	4	10	1	n/a	61	n/a	3	n/a	n/a	n/a	n/a	395.879	n/a
370.255	0.497	angry	Picture	93.805	n/a	4	10	2	n/a	62	100	3	n/a	n/a	n/a	n/a	396.409	AF32ANS.jpg
370.752	0.514	Blank	Blank	93.291	n/a	4	10	2	n/a	62	n/a	3	n/a	n/a	n/a	n/a	396.906	n/a
371.283	0.497	angry	Picture	92.777	n/a	4	10	3	n/a	63	118	3	n/a	n/a	n/a	n/a	397.437	BM26ANS.jpg
371.78	0.514	Blank	Blank	92.263	n/a	4	10	3	n/a	63	n/a	3	n/a	n/a	n/a	n/a	397.934	n/a
372.311	0.497	angry	Picture	91.749	n/a	4	10	4	n/a	64	89	3	n/a	n/a	n/a	n/a	398.465	AF17ANS.jpg
372.808	0.514	Blank	Blank	91.235	n/a	4	10	4	n/a	64	n/a	3	n/a	n/a	n/a	n/a	398.962	n/a
373.339	0.497	angry	Picture	90.721	n/a	4	10	5	n/a	65	116	3	n/a	n/a	n/a	n/a	399.493	BM24ANS.jpg
373.836	0.514	Blank	Blank	90.207	n/a	4	10	5	n/a	65	n/a	3	n/a	n/a	n/a	n/a	399.99	n/a
374.366	0.497	angry	Picture	89.693	n/a	4	10	6	n/a	66	105	3	n/a	n/a	n/a	n/a	400.521	BM06ANS.jpg
374.864	0.514	Blank	Blank	89.179	n/a	4	10	6	n/a	66	n/a	3	n/a	n/a	n/a	n/a	401.018	n/a
375.394	0.497	angry	Picture	88.665	n/a	4	10	7	n/a	67	106	3	n/a	n/a	n/a	n/a	401.548	AM07ANS.jpg
375.892	0.514	Blank	Blank	88.151	n/a	4	10	7	n/a	67	n/a	3	n/a	n/a	n/a	n/a	402.046	n/a
376.422	0.497	angry	Picture	87.638	n/a	4	10	8	n/a	68	94	3	n/a	n/a	n/a	n/a	402.576	AF23ANS.jpg
376.919	0.514	Blank	Blank	87.124	n/a	4	10	8	n/a	68	n/a	3	n/a	n/a	n/a	n/a	403.074	n/a
377.45	0.497	angry	Picture	86.61	n/a	4	10	9	n/a	69	117	3	n/a	n/a	n/a	n/a	403.604	BM25ANS.jpg
377.947	0.514	Blank	Blank	86.096	n/a	4	10	9	n/a	69	n/a	3	n/a	n/a	n/a	n/a	404.102	n/a
378.478	0.497	angry	Picture	85.582	n/a	4	10	10	n/a	70	90	3	n/a	n/a	n/a	n/a	404.632	AF18ANS.jpg
378.975	0.514	Blank	Blank	85.068	n/a	4	10	10	n/a	70	n/a	3	n/a	n/a	n/a	n/a	405.13	n/a
379.506	0.497	angry	Picture	84.554	n/a	4	10	11	n/a	71	83	3	n/a	n/a	n/a	n/a	405.66	BF04ANS.jpg
380.003	0.514	Blank	Blank	84.04	n/a	4	10	11	n/a	71	n/a	3	n/a	n/a	n/a	n/a	406.157	n/a
380.534	0.497	angry	Picture	83.526	n/a	4	10	12	n/a	72	112	3	n/a	n/a	n/a	n/a	406.688	AM14ANS.jpg
381.031	0.514	Blank	Blank	83.012	n/a	4	10	12	n/a	72	n/a	3	n/a	n/a	n/a	n/a	407.185	n/a
381.562	0.497	angry	Picture	82.498	n/a	4	10	13	n/a	73	102	3	n/a	n/a	n/a	n/a	407.716	BM03ANS.jpg
382.059	0.514	Blank	Blank	81.984	n/a	4	10	13	n/a	73	n/a	3	n/a	n/a	n/a	n/a	408.213	n/a
382.589	0.497	angry	Picture	81.47	n/a	4	10	14	n/a	74	95	3	n/a	n/a	n/a	n/a	408.744	AF25ANS.jpg
383.087	0.514	Blank	Blank	80.956	n/a	4	10	14	n/a	74	n/a	3	n/a	n/a	n/a	n/a	409.241	n/a
383.617	0.497	angry	Picture	80.442	n/a	4	10	15	n/a	75	113	3	n/a	n/a	n/a	n/a	409.772	AM21ANS.jpg
384.115	0.514	Blank	Blank	79.928	n/a	4	10	15	n/a	75	n/a	3	n/a	n/a	n/a	n/a	410.269	n/a
384.645	0.497	angry	Picture	79.414	n/a	4	10	16	n/a	76	88	3	n/a	n/a	n/a	n/a	410.799	AF14ANS.jpg
385.143	0.514	Blank	Blank	78.901	n/a	4	10	16	n/a	76	n/a	3	n/a	n/a	n/a	n/a	411.297	n/a
385.673	0.497	angry	Picture	78.387	n/a	4	10	17	n/a	77	93	3	n/a	n/a	n/a	n/a	411.827	BF22ANS.jpg
386.171	0.514	Blank	Blank	77.873	n/a	4	10	17	n/a	77	n/a	3	n/a	n/a	n/a	n/a	412.325	n/a
386.701	0.497	angry	Picture	77.359	n/a	4	10	18	n/a	78	86	3	n/a	n/a	n/a	n/a	412.855	AF09ANS.jpg
387.198	0.514	Blank	Blank	76.845	n/a	4	10	18	n/a	78	n/a	3	n/a	n/a	n/a	n/a	413.353	n/a
387.729	0.497	angry	Picture	76.331	n/a	4	10	19	n/a	79	92	3	n/a	n/a	n/a	n/a	413.883	AF21ANS.jpg
388.226	0.514	Blank	Blank	75.817	n/a	4	10	19	n/a	79	n/a	3	n/a	n/a	n/a	n/a	414.38	n/a
388.757	0.497	angry	Picture	75.303	n/a	4	10	20	n/a	80	84	3	n/a	n/a	n/a	n/a	414.911	AF05ANS.jpg
389.254	0.514	Blank	Blank	74.789	n/a	4	10	20	n/a	80	n/a	3	n/a	n/a	n/a	n/a	415.408	n/a
389.785	10.014	ITI	Fixation+	64.759	n/a	4	n/a	n/a	n/a	n/a	n/a	n/a	n/a	n/a	n/a	n/a	415.939	n/a
399.815	0.497	neutral	Picture	64.245	n/a	4	11	1	n/a	81	4	1	n/a	n/a	n/a	n/a	425.969	AF05NES.jpg
400.312	0.514	Blank	Blank	63.731	n/a	4	11	1	n/a	81	n/a	1	n/a	n/a	n/a	n/a	426.466	n/a
400.843	0.497	neutral	Picture	63.217	n/a	4	11	2	n/a	82	14	1	n/a	n/a	n/a	n/a	426.997	AF23NES.jpg
401.34	0.514	Blank	Blank	62.703	n/a	4	11	2	n/a	82	n/a	1	n/a	n/a	n/a	n/a	427.494	n/a
401.871	0.497	neutral	Picture	62.189	n/a	4	11	3	n/a	83	19	1	n/a	n/a	n/a	n/a	428.025	AF31NES.jpg
402.368	0.514	Blank	Blank	61.675	n/a	4	11	3	n/a	83	n/a	1	n/a	n/a	n/a	n/a	428.522	n/a
402.898	0.497	neutral	Picture	61.161	n/a	4	11	4	n/a	84	8	1	n/a	n/a	n/a	n/a	429.053	AF14NES.jpg
403.396	0.514	Blank	Blank	60.647	n/a	4	11	4	n/a	84	n/a	1	n/a	n/a	n/a	n/a	429.55	n/a
403.926	0.497	neutral	Picture	60.133	n/a	4	11	5	n/a	85	25	1	n/a	n/a	n/a	n/a	430.08	BM06NES.jpg
404.424	0.514	Blank	Blank	59.62	n/a	4	11	5	n/a	85	n/a	1	n/a	n/a	n/a	n/a	430.578	n/a
404.954	0.497	neutral	Picture	59.105	n/a	4	11	6	n/a	86	9	1	n/a	n/a	n/a	n/a	431.108	AF17NES.jpg
405.452	0.514	Blank	Blank	58.592	n/a	4	11	6	n/a	86	n/a	1	n/a	n/a	n/a	n/a	431.606	n/a
405.982	0.497	neutral	Picture	58.078	n/a	4	11	7	n/a	87	2	1	n/a	n/a	n/a	n/a	432.136	AF03NES.jpg
406.479	0.514	Blank	Blank	57.564	n/a	4	11	7	n/a	87	n/a	1	n/a	n/a	n/a	n/a	432.634	n/a
407.01	0.497	neutral	Picture	57.05	n/a	4	11	8	n/a	88	17	1	n/a	n/a	n/a	n/a	433.164	BF28NES.jpg
407.507	0.514	Blank	Blank	56.536	n/a	4	11	8	n/a	88	n/a	1	n/a	n/a	n/a	n/a	433.661	n/a
408.038	0.497	neutral	Picture	56.022	n/a	4	11	9	n/a	89	6	1	n/a	n/a	n/a	n/a	434.192	AF09NES.jpg
408.535	0.514	Blank	Blank	55.508	n/a	4	11	9	n/a	89	n/a	1	n/a	n/a	n/a	n/a	434.689	n/a
409.066	0.497	neutral	Picture	54.994	n/a	4	11	10	n/a	90	12	1	n/a	n/a	n/a	n/a	435.22	AF21NES.jpg
409.563	0.514	Blank	Blank	54.48	n/a	4	11	10	n/a	90	n/a	1	n/a	n/a	n/a	n/a	435.717	n/a
410.094	0.497	neutral	Picture	53.966	n/a	4	11	11	n/a	91	24	1	n/a	n/a	n/a	n/a	436.248	BM05NES.jpg
410.591	0.514	Blank	Blank	53.452	n/a	4	11	11	n/a	91	n/a	1	n/a	n/a	n/a	n/a	436.745	n/a
411.121	0.497	neutral	Picture	52.938	n/a	4	11	12	n/a	92	34	1	n/a	n/a	n/a	n/a	437.276	AM22NES.jpg
411.619	0.514	Blank	Blank	52.424	n/a	4	11	12	n/a	92	n/a	1	n/a	n/a	n/a	n/a	437.773	n/a
412.149	0.497	neutral	Picture	51.91	n/a	4	11	13	n/a	93	23	1	n/a	n/a	n/a	n/a	438.304	AM04NES.jpg
412.647	0.514	Blank	Blank	51.396	n/a	4	11	13	n/a	93	n/a	1	n/a	n/a	n/a	n/a	438.801	n/a
413.177	0.497	neutral	Picture	50.882	n/a	4	11	14	n/a	94	15	1	n/a	n/a	n/a	n/a	439.332	AF25NES.jpg
413.675	0.514	Blank	Blank	50.368	n/a	4	11	14	n/a	94	n/a	1	n/a	n/a	n/a	n/a	439.829	n/a
414.205	0.497	neutral	Picture	49.855	n/a	4	11	15	n/a	95	37	1	n/a	n/a	n/a	n/a	440.359	BM25NES.jpg
414.702	0.514	Blank	Blank	49.341	n/a	4	11	15	n/a	95	n/a	1	n/a	n/a	n/a	n/a	440.857	n/a
415.233	0.497	neutral	Picture	48.827	n/a	4	11	16	n/a	96	32	1	n/a	n/a	n/a	n/a	441.387	AM14NES.jpg
415.73	0.514	Blank	Blank	48.313	n/a	4	11	16	n/a	96	n/a	1	n/a	n/a	n/a	n/a	441.885	n/a
416.261	0.497	neutral	Picture	47.799	n/a	4	11	17	n/a	97	3	1	n/a	n/a	n/a	n/a	442.415	BF04NES.jpg
416.758	0.514	Blank	Blank	47.285	n/a	4	11	17	n/a	97	n/a	1	n/a	n/a	n/a	n/a	442.913	n/a
417.289	0.497	neutral	Picture	46.771	n/a	4	11	18	n/a	98	16	1	n/a	n/a	n/a	n/a	443.443	AF26NES.jpg
417.786	0.514	Blank	Blank	46.257	n/a	4	11	18	n/a	98	n/a	1	n/a	n/a	n/a	n/a	443.94	n/a
418.317	0.497	neutral	Picture	45.743	n/a	4	11	19	n/a	99	27	1	n/a	n/a	n/a	n/a	444.471	BM08NES.jpg
418.814	0.514	Blank	Blank	45.229	n/a	4	11	19	n/a	99	n/a	1	n/a	n/a	n/a	n/a	444.968	n/a
419.345	0.497	neutral	Picture	44.715	n/a	4	11	20	n/a	100	28	1	n/a	n/a	n/a	n/a	445.499	AM09NES.jpg
419.842	0.514	Blank	Blank	44.201	n/a	4	11	20	n/a	100	n/a	1	n/a	n/a	n/a	n/a	445.996	n/a
420.372	10.014	ITI	Fixation+	34.171	n/a	4	n/a	n/a	n/a	n/a	n/a	n/a	n/a	n/a	n/a	n/a	446.527	n/a
430.403	0.497	angry	Picture	33.657	n/a	4	12	1	n/a	101	81	3	n/a	n/a	n/a	n/a	456.557	AF01ANS.jpg
430.9	0.514	Blank	Blank	33.143	n/a	4	12	1	n/a	101	n/a	3	n/a	n/a	n/a	n/a	457.054	n/a
431.43	0.497	angry	Picture	32.629	n/a	4	12	2	n/a	102	120	3	n/a	n/a	n/a	n/a	457.585	AM35ANS.jpg
431.928	0.514	Blank	Blank	32.115	n/a	4	12	2	n/a	102	n/a	3	n/a	n/a	n/a	n/a	458.082	n/a
432.458	0.497	angry	Picture	31.601	n/a	4	12	3	n/a	103	114	3	n/a	n/a	n/a	n/a	458.613	AM22ANS.jpg
432.956	0.514	Blank	Blank	31.088	n/a	4	12	3	n/a	103	n/a	3	n/a	n/a	n/a	n/a	459.11	n/a
433.486	0.497	angry	Picture	30.573	n/a	4	12	4	n/a	104	109	3	n/a	n/a	n/a	n/a	459.64	AM10ANS.jpg
433.984	0.514	Blank	Blank	30.06	n/a	4	12	4	n/a	104	n/a	3	n/a	n/a	n/a	n/a	460.138	n/a
434.514	0.497	angry	Picture	29.546	n/a	4	12	5	n/a	105	96	3	n/a	n/a	n/a	n/a	460.668	AF26ANS.jpg
435.012	0.514	Blank	Blank	29.032	n/a	4	12	5	n/a	105	n/a	3	n/a	n/a	n/a	n/a	461.166	n/a
435.542	0.497	angry	Picture	28.518	n/a	4	12	6	n/a	106	82	3	n/a	n/a	n/a	n/a	461.696	AF03ANS.jpg
436.039	0.514	Blank	Blank	28.004	n/a	4	12	6	n/a	106	n/a	3	n/a	n/a	n/a	n/a	462.194	n/a
436.57	0.497	angry	Picture	27.49	n/a	4	12	7	n/a	107	97	3	n/a	n/a	n/a	n/a	462.724	BF28ANS.jpg
437.067	0.514	Blank	Blank	26.976	n/a	4	12	7	n/a	107	n/a	3	n/a	n/a	n/a	n/a	463.221	n/a
437.598	0.497	angry	Picture	26.462	n/a	4	12	8	n/a	108	115	3	n/a	n/a	n/a	n/a	463.752	AM23ANS.jpg
438.095	0.514	Blank	Blank	25.948	n/a	4	12	8	n/a	108	n/a	3	n/a	n/a	n/a	n/a	464.249	n/a
438.626	0.497	angry	Picture	25.434	n/a	4	12	9	n/a	109	91	3	n/a	n/a	n/a	n/a	464.78	AF20ANS.jpg
439.123	0.514	Blank	Blank	24.92	n/a	4	12	9	n/a	109	n/a	3	n/a	n/a	n/a	n/a	465.277	n/a
439.654	0.497	angry	Picture	24.406	n/a	4	12	10	n/a	110	87	3	n/a	n/a	n/a	n/a	465.808	BF11ANS.jpg
440.151	0.514	Blank	Blank	23.892	n/a	4	12	10	n/a	110	n/a	3	n/a	n/a	n/a	n/a	466.305	n/a
440.681	0.497	angry	Picture	23.378	n/a	4	12	11	n/a	111	85	3	n/a	n/a	n/a	n/a	466.836	BF07ANS.jpg
441.179	0.514	Blank	Blank	22.864	n/a	4	12	11	n/a	111	n/a	3	n/a	n/a	n/a	n/a	467.333	n/a
441.709	0.497	angry	Picture	22.351	n/a	4	12	12	n/a	112	110	3	n/a	n/a	n/a	n/a	467.863	AM11ANS.jpg
442.207	0.514	Blank	Blank	21.837	n/a	4	12	12	n/a	112	n/a	3	n/a	n/a	n/a	n/a	468.361	n/a
442.737	0.497	angry	Picture	21.323	n/a	4	12	13	n/a	113	111	3	n/a	n/a	n/a	n/a	468.891	BM12ANS.jpg
443.234	0.514	Blank	Blank	20.809	n/a	4	12	13	n/a	113	n/a	3	n/a	n/a	n/a	n/a	469.389	n/a
443.765	0.497	angry	Picture	20.295	n/a	4	12	14	n/a	114	103	3	n/a	n/a	n/a	n/a	469.919	AM04ANS.jpg
444.262	0.514	Blank	Blank	19.781	n/a	4	12	14	n/a	114	n/a	3	n/a	n/a	n/a	n/a	470.417	n/a
444.793	0.497	angry	Picture	19.267	n/a	4	12	15	n/a	115	101	3	n/a	n/a	n/a	n/a	470.947	AM01ANS.jpg
445.29	0.514	Blank	Blank	18.753	n/a	4	12	15	n/a	115	n/a	3	n/a	n/a	n/a	n/a	471.445	n/a
445.821	0.497	angry	Picture	18.239	n/a	4	12	16	n/a	116	104	3	n/a	n/a	n/a	n/a	471.975	BM05ANS.jpg
446.318	0.514	Blank	Blank	17.725	n/a	4	12	16	n/a	116	n/a	3	n/a	n/a	n/a	n/a	472.472	n/a
446.849	0.497	angry	Picture	17.211	n/a	4	12	17	n/a	117	107	3	n/a	n/a	n/a	n/a	473.003	BM08ANS.jpg
447.346	0.514	Blank	Blank	16.697	n/a	4	12	17	n/a	117	n/a	3	n/a	n/a	n/a	n/a	473.5	n/a
447.877	0.497	angry	Picture	16.183	n/a	4	12	18	n/a	118	98	3	n/a	n/a	n/a	n/a	474.031	BF29ANS.jpg
448.374	0.514	Blank	Blank	15.669	n/a	4	12	18	n/a	118	n/a	3	n/a	n/a	n/a	n/a	474.528	n/a
448.904	0.497	angry	Picture	15.155	n/a	4	12	19	n/a	119	99	3	n/a	n/a	n/a	n/a	475.059	AF31ANS.jpg
449.402	0.514	Blank	Blank	14.641	n/a	4	12	19	n/a	119	n/a	3	n/a	n/a	n/a	n/a	475.556	n/a
449.932	0.497	angry	Picture	14.127	n/a	4	12	20	n/a	120	108	3	n/a	n/a	n/a	n/a	476.087	AM09ANS.jpg
450.43	0.514	Blank	Blank	13.613	n/a	4	12	20	n/a	120	n/a	3	n/a	n/a	n/a	n/a	476.584	n/a
450.96	10.014	ITI	Fixation+	3.583	n/a	4	n/a	n/a	n/a	n/a	n/a	n/a	n/a	n/a	n/a	n/a	477.114	n/a
464.557	n/a	ConfirmRating	Rate	n/a	3.581	4	n/a	n/a	0	n/a	n/a	n/a	2	Angry	34	49	490.711	n/a
467.031	n/a	ConfirmRating	Rate	n/a	2.453	4	n/a	n/a	1	n/a	n/a	n/a	3	Angry	40	49	493.185	n/a
