onset	duration	trial_type	event_type	time_until_response	response_time	trial_number	block_num_within_trial	image_seq_num_within_block	question_seq_num_within_block	image_seq_num	picture_number	condition	question_type	block_type	rating	rating_computed	onset_uncorrected	KDEV_imagefile
0.012	10.014	ITI	Fixation+	96.334	n/a	1	n/a	n/a	n/a	n/a	n/a	n/a	n/a	n/a	n/a	n/a	29.372	n/a
10.042	0.497	happy	Picture	95.82	n/a	1	1	1	n/a	1	108	3	n/a	n/a	n/a	n/a	39.403	AM09ANS.jpg
10.539	0.514	Blank	Blank	95.306	n/a	1	1	1	n/a	1	n/a	3	n/a	n/a	n/a	n/a	39.9	n/a
11.07	0.497	happy	Picture	94.792	n/a	1	1	2	n/a	2	99	3	n/a	n/a	n/a	n/a	40.43	AF31ANS.jpg
11.567	0.514	Blank	Blank	94.278	n/a	1	1	2	n/a	2	n/a	3	n/a	n/a	n/a	n/a	40.928	n/a
12.098	0.497	happy	Picture	93.764	n/a	1	1	3	n/a	3	98	3	n/a	n/a	n/a	n/a	41.458	BF29ANS.jpg
12.595	0.514	Blank	Blank	93.25	n/a	1	1	3	n/a	3	n/a	3	n/a	n/a	n/a	n/a	41.956	n/a
13.126	0.497	happy	Picture	92.736	n/a	1	1	4	n/a	4	107	3	n/a	n/a	n/a	n/a	42.486	BM08ANS.jpg
13.623	0.514	Blank	Blank	92.222	n/a	1	1	4	n/a	4	n/a	3	n/a	n/a	n/a	n/a	42.983	n/a
14.154	0.497	happy	Picture	91.708	n/a	1	1	5	n/a	5	104	3	n/a	n/a	n/a	n/a	43.514	BM05ANS.jpg
14.651	0.514	Blank	Blank	91.194	n/a	1	1	5	n/a	5	n/a	3	n/a	n/a	n/a	n/a	44.011	n/a
15.181	0.497	happy	Picture	90.68	n/a	1	1	6	n/a	6	101	3	n/a	n/a	n/a	n/a	44.542	AM01ANS.jpg
15.679	0.514	Blank	Blank	90.166	n/a	1	1	6	n/a	6	n/a	3	n/a	n/a	n/a	n/a	45.039	n/a
16.209	0.497	happy	Picture	89.652	n/a	1	1	7	n/a	7	103	3	n/a	n/a	n/a	n/a	45.57	AM04ANS.jpg
16.707	0.514	Blank	Blank	89.138	n/a	1	1	7	n/a	7	n/a	3	n/a	n/a	n/a	n/a	46.067	n/a
17.237	0.497	happy	Picture	88.625	n/a	1	1	8	n/a	8	111	3	n/a	n/a	n/a	n/a	46.598	BM12ANS.jpg
17.735	0.514	Blank	Blank	88.111	n/a	1	1	8	n/a	8	n/a	3	n/a	n/a	n/a	n/a	47.095	n/a
18.265	0.497	happy	Picture	87.597	n/a	1	1	9	n/a	9	110	3	n/a	n/a	n/a	n/a	47.626	AM11ANS.jpg
18.763	0.514	Blank	Blank	87.083	n/a	1	1	9	n/a	9	n/a	3	n/a	n/a	n/a	n/a	48.123	n/a
19.293	0.497	happy	Picture	86.569	n/a	1	1	10	n/a	10	85	3	n/a	n/a	n/a	n/a	48.654	BF07ANS.jpg
19.79	0.514	Blank	Blank	86.055	n/a	1	1	10	n/a	10	n/a	3	n/a	n/a	n/a	n/a	49.151	n/a
20.321	0.497	happy	Picture	85.541	n/a	1	1	11	n/a	11	87	3	n/a	n/a	n/a	n/a	49.681	BF11ANS.jpg
20.818	0.514	Blank	Blank	85.027	n/a	1	1	11	n/a	11	n/a	3	n/a	n/a	n/a	n/a	50.179	n/a
21.349	0.497	happy	Picture	84.513	n/a	1	1	12	n/a	12	91	3	n/a	n/a	n/a	n/a	50.709	AF20ANS.jpg
21.846	0.514	Blank	Blank	83.999	n/a	1	1	12	n/a	12	n/a	3	n/a	n/a	n/a	n/a	51.207	n/a
22.377	0.497	happy	Picture	83.485	n/a	1	1	13	n/a	13	115	3	n/a	n/a	n/a	n/a	51.737	AM23ANS.jpg
22.874	0.514	Blank	Blank	82.971	n/a	1	1	13	n/a	13	n/a	3	n/a	n/a	n/a	n/a	52.234	n/a
23.405	0.497	happy	Picture	82.457	n/a	1	1	14	n/a	14	97	3	n/a	n/a	n/a	n/a	52.765	BF28ANS.jpg
23.902	0.514	Blank	Blank	81.943	n/a	1	1	14	n/a	14	n/a	3	n/a	n/a	n/a	n/a	53.262	n/a
24.433	0.497	happy	Picture	81.429	n/a	1	1	15	n/a	15	82	3	n/a	n/a	n/a	n/a	53.793	AF03ANS.jpg
24.93	0.514	Blank	Blank	80.915	n/a	1	1	15	n/a	15	n/a	3	n/a	n/a	n/a	n/a	54.29	n/a
25.46	0.497	happy	Picture	80.401	n/a	1	1	16	n/a	16	96	3	n/a	n/a	n/a	n/a	54.821	AF26ANS.jpg
25.958	0.514	Blank	Blank	79.887	n/a	1	1	16	n/a	16	n/a	3	n/a	n/a	n/a	n/a	55.318	n/a
26.488	0.497	happy	Picture	79.374	n/a	1	1	17	n/a	17	109	3	n/a	n/a	n/a	n/a	55.849	AM10ANS.jpg
26.986	0.514	Blank	Blank	78.86	n/a	1	1	17	n/a	17	n/a	3	n/a	n/a	n/a	n/a	56.346	n/a
27.516	0.497	happy	Picture	78.346	n/a	1	1	18	n/a	18	114	3	n/a	n/a	n/a	n/a	56.877	AM22ANS.jpg
28.014	0.514	Blank	Blank	77.832	n/a	1	1	18	n/a	18	n/a	3	n/a	n/a	n/a	n/a	57.374	n/a
28.544	0.497	happy	Picture	77.318	n/a	1	1	19	n/a	19	120	3	n/a	n/a	n/a	n/a	57.904	AM35ANS.jpg
29.041	0.514	Blank	Blank	76.804	n/a	1	1	19	n/a	19	n/a	3	n/a	n/a	n/a	n/a	58.402	n/a
29.572	0.497	happy	Picture	76.29	n/a	1	1	20	n/a	20	81	3	n/a	n/a	n/a	n/a	58.932	AF01ANS.jpg
30.069	0.514	Blank	Blank	75.776	n/a	1	1	20	n/a	20	n/a	3	n/a	n/a	n/a	n/a	59.43	n/a
30.6	10.014	ITI	Fixation+	65.746	n/a	1	n/a	n/a	n/a	n/a	n/a	n/a	n/a	n/a	n/a	n/a	59.96	n/a
40.63	0.497	neutral	Picture	65.232	n/a	1	2	1	n/a	21	28	1	n/a	n/a	n/a	n/a	69.99	AM09NES.jpg
41.127	0.514	Blank	Blank	64.718	n/a	1	2	1	n/a	21	n/a	1	n/a	n/a	n/a	n/a	70.488	n/a
41.658	0.497	neutral	Picture	64.204	n/a	1	2	2	n/a	22	27	1	n/a	n/a	n/a	n/a	71.018	BM08NES.jpg
42.155	0.514	Blank	Blank	63.69	n/a	1	2	2	n/a	22	n/a	1	n/a	n/a	n/a	n/a	71.516	n/a
42.686	0.497	neutral	Picture	63.176	n/a	1	2	3	n/a	23	16	1	n/a	n/a	n/a	n/a	72.046	AF26NES.jpg
43.183	0.514	Blank	Blank	62.662	n/a	1	2	3	n/a	23	n/a	1	n/a	n/a	n/a	n/a	72.543	n/a
43.714	0.497	neutral	Picture	62.148	n/a	1	2	4	n/a	24	3	1	n/a	n/a	n/a	n/a	73.074	BF04NES.jpg
44.211	0.514	Blank	Blank	61.634	n/a	1	2	4	n/a	24	n/a	1	n/a	n/a	n/a	n/a	73.571	n/a
44.742	0.497	neutral	Picture	61.12	n/a	1	2	5	n/a	25	32	1	n/a	n/a	n/a	n/a	74.102	AM14NES.jpg
45.239	0.514	Blank	Blank	60.606	n/a	1	2	5	n/a	25	n/a	1	n/a	n/a	n/a	n/a	74.599	n/a
45.769	0.497	neutral	Picture	60.092	n/a	1	2	6	n/a	26	37	1	n/a	n/a	n/a	n/a	75.13	BM25NES.jpg
46.267	0.514	Blank	Blank	59.578	n/a	1	2	6	n/a	26	n/a	1	n/a	n/a	n/a	n/a	75.627	n/a
46.797	0.497	neutral	Picture	59.064	n/a	1	2	7	n/a	27	15	1	n/a	n/a	n/a	n/a	76.158	AF25NES.jpg
47.295	0.514	Blank	Blank	58.551	n/a	1	2	7	n/a	27	n/a	1	n/a	n/a	n/a	n/a	76.655	n/a
47.825	0.497	neutral	Picture	58.037	n/a	1	2	8	n/a	28	23	1	n/a	n/a	n/a	n/a	77.186	AM04NES.jpg
48.323	0.514	Blank	Blank	57.523	n/a	1	2	8	n/a	28	n/a	1	n/a	n/a	n/a	n/a	77.683	n/a
48.853	0.497	neutral	Picture	57.009	n/a	1	2	9	n/a	29	34	1	n/a	n/a	n/a	n/a	78.213	AM22NES.jpg
49.35	0.514	Blank	Blank	56.495	n/a	1	2	9	n/a	29	n/a	1	n/a	n/a	n/a	n/a	78.711	n/a
49.881	0.497	neutral	Picture	55.981	n/a	1	2	10	n/a	30	24	1	n/a	n/a	n/a	n/a	79.241	BM05NES.jpg
50.378	0.514	Blank	Blank	55.467	n/a	1	2	10	n/a	30	n/a	1	n/a	n/a	n/a	n/a	79.739	n/a
50.909	0.497	neutral	Picture	54.953	n/a	1	2	11	n/a	31	12	1	n/a	n/a	n/a	n/a	80.269	AF21NES.jpg
51.406	0.514	Blank	Blank	54.439	n/a	1	2	11	n/a	31	n/a	1	n/a	n/a	n/a	n/a	80.767	n/a
51.937	0.497	neutral	Picture	53.925	n/a	1	2	12	n/a	32	6	1	n/a	n/a	n/a	n/a	81.297	AF09NES.jpg
52.434	0.514	Blank	Blank	53.411	n/a	1	2	12	n/a	32	n/a	1	n/a	n/a	n/a	n/a	81.794	n/a
52.965	0.497	neutral	Picture	52.897	n/a	1	2	13	n/a	33	17	1	n/a	n/a	n/a	n/a	82.325	BF28NES.jpg
53.462	0.514	Blank	Blank	52.383	n/a	1	2	13	n/a	33	n/a	1	n/a	n/a	n/a	n/a	82.822	n/a
53.993	0.497	neutral	Picture	51.869	n/a	1	2	14	n/a	34	2	1	n/a	n/a	n/a	n/a	83.353	AF03NES.jpg
54.49	0.514	Blank	Blank	51.355	n/a	1	2	14	n/a	34	n/a	1	n/a	n/a	n/a	n/a	83.85	n/a
55.02	0.497	neutral	Picture	50.841	n/a	1	2	15	n/a	35	9	1	n/a	n/a	n/a	n/a	84.381	AF17NES.jpg
55.518	0.514	Blank	Blank	50.327	n/a	1	2	15	n/a	35	n/a	1	n/a	n/a	n/a	n/a	84.878	n/a
56.048	0.497	neutral	Picture	49.814	n/a	1	2	16	n/a	36	25	1	n/a	n/a	n/a	n/a	85.409	BM06NES.jpg
56.546	0.514	Blank	Blank	49.3	n/a	1	2	16	n/a	36	n/a	1	n/a	n/a	n/a	n/a	85.906	n/a
57.076	0.497	neutral	Picture	48.786	n/a	1	2	17	n/a	37	8	1	n/a	n/a	n/a	n/a	86.437	AF14NES.jpg
57.573	0.514	Blank	Blank	48.272	n/a	1	2	17	n/a	37	n/a	1	n/a	n/a	n/a	n/a	86.934	n/a
58.104	0.497	neutral	Picture	47.758	n/a	1	2	18	n/a	38	19	1	n/a	n/a	n/a	n/a	87.464	AF31NES.jpg
58.601	0.514	Blank	Blank	47.244	n/a	1	2	18	n/a	38	n/a	1	n/a	n/a	n/a	n/a	87.962	n/a
59.132	0.497	neutral	Picture	46.73	n/a	1	2	19	n/a	39	14	1	n/a	n/a	n/a	n/a	88.492	AF23NES.jpg
59.629	0.514	Blank	Blank	46.216	n/a	1	2	19	n/a	39	n/a	1	n/a	n/a	n/a	n/a	88.99	n/a
60.16	0.497	neutral	Picture	45.702	n/a	1	2	20	n/a	40	4	1	n/a	n/a	n/a	n/a	89.52	AF05NES.jpg
60.657	0.514	Blank	Blank	45.188	n/a	1	2	20	n/a	40	n/a	1	n/a	n/a	n/a	n/a	90.018	n/a
61.188	10.014	ITI	Fixation+	35.158	n/a	1	n/a	n/a	n/a	n/a	n/a	n/a	n/a	n/a	n/a	n/a	90.548	n/a
71.218	0.497	happy	Picture	34.644	n/a	1	3	1	n/a	41	84	3	n/a	n/a	n/a	n/a	100.578	AF05ANS.jpg
71.715	0.514	Blank	Blank	34.13	n/a	1	3	1	n/a	41	n/a	3	n/a	n/a	n/a	n/a	101.076	n/a
72.246	0.497	happy	Picture	33.616	n/a	1	3	2	n/a	42	92	3	n/a	n/a	n/a	n/a	101.606	AF21ANS.jpg
72.743	0.514	Blank	Blank	33.102	n/a	1	3	2	n/a	42	n/a	3	n/a	n/a	n/a	n/a	102.103	n/a
73.274	0.497	happy	Picture	32.588	n/a	1	3	3	n/a	43	86	3	n/a	n/a	n/a	n/a	102.634	AF09ANS.jpg
73.771	0.514	Blank	Blank	32.074	n/a	1	3	3	n/a	43	n/a	3	n/a	n/a	n/a	n/a	103.131	n/a
74.302	0.497	happy	Picture	31.56	n/a	1	3	4	n/a	44	93	3	n/a	n/a	n/a	n/a	103.662	BF22ANS.jpg
74.799	0.514	Blank	Blank	31.046	n/a	1	3	4	n/a	44	n/a	3	n/a	n/a	n/a	n/a	104.159	n/a
75.329	0.497	happy	Picture	30.532	n/a	1	3	5	n/a	45	88	3	n/a	n/a	n/a	n/a	104.69	AF14ANS.jpg
75.827	0.514	Blank	Blank	30.018	n/a	1	3	5	n/a	45	n/a	3	n/a	n/a	n/a	n/a	105.187	n/a
76.357	0.497	happy	Picture	29.504	n/a	1	3	6	n/a	46	113	3	n/a	n/a	n/a	n/a	105.718	AM21ANS.jpg
76.855	0.514	Blank	Blank	28.99	n/a	1	3	6	n/a	46	n/a	3	n/a	n/a	n/a	n/a	106.215	n/a
77.385	0.497	happy	Picture	28.477	n/a	1	3	7	n/a	47	95	3	n/a	n/a	n/a	n/a	106.746	AF25ANS.jpg
77.883	0.514	Blank	Blank	27.963	n/a	1	3	7	n/a	47	n/a	3	n/a	n/a	n/a	n/a	107.243	n/a
78.413	0.497	happy	Picture	27.449	n/a	1	3	8	n/a	48	102	3	n/a	n/a	n/a	n/a	107.773	BM03ANS.jpg
78.91	0.514	Blank	Blank	26.935	n/a	1	3	8	n/a	48	n/a	3	n/a	n/a	n/a	n/a	108.271	n/a
79.441	0.497	happy	Picture	26.421	n/a	1	3	9	n/a	49	112	3	n/a	n/a	n/a	n/a	108.801	AM14ANS.jpg
79.938	0.514	Blank	Blank	25.907	n/a	1	3	9	n/a	49	n/a	3	n/a	n/a	n/a	n/a	109.299	n/a
80.469	0.497	happy	Picture	25.393	n/a	1	3	10	n/a	50	83	3	n/a	n/a	n/a	n/a	109.829	BF04ANS.jpg
80.966	0.514	Blank	Blank	24.879	n/a	1	3	10	n/a	50	n/a	3	n/a	n/a	n/a	n/a	110.327	n/a
81.497	0.497	happy	Picture	24.365	n/a	1	3	11	n/a	51	90	3	n/a	n/a	n/a	n/a	110.857	AF18ANS.jpg
81.994	0.514	Blank	Blank	23.851	n/a	1	3	11	n/a	51	n/a	3	n/a	n/a	n/a	n/a	111.355	n/a
82.525	0.497	happy	Picture	23.337	n/a	1	3	12	n/a	52	117	3	n/a	n/a	n/a	n/a	111.885	BM25ANS.jpg
83.022	0.514	Blank	Blank	22.823	n/a	1	3	12	n/a	52	n/a	3	n/a	n/a	n/a	n/a	112.382	n/a
83.552	0.497	happy	Picture	22.309	n/a	1	3	13	n/a	53	94	3	n/a	n/a	n/a	n/a	112.913	AF23ANS.jpg
84.05	0.514	Blank	Blank	21.795	n/a	1	3	13	n/a	53	n/a	3	n/a	n/a	n/a	n/a	113.41	n/a
84.58	0.497	happy	Picture	21.281	n/a	1	3	14	n/a	54	106	3	n/a	n/a	n/a	n/a	113.941	AM07ANS.jpg
85.078	0.514	Blank	Blank	20.767	n/a	1	3	14	n/a	54	n/a	3	n/a	n/a	n/a	n/a	114.438	n/a
85.608	0.497	happy	Picture	20.254	n/a	1	3	15	n/a	55	105	3	n/a	n/a	n/a	n/a	114.969	BM06ANS.jpg
86.106	0.514	Blank	Blank	19.74	n/a	1	3	15	n/a	55	n/a	3	n/a	n/a	n/a	n/a	115.466	n/a
86.636	0.497	happy	Picture	19.226	n/a	1	3	16	n/a	56	116	3	n/a	n/a	n/a	n/a	115.997	BM24ANS.jpg
87.133	0.514	Blank	Blank	18.712	n/a	1	3	16	n/a	56	n/a	3	n/a	n/a	n/a	n/a	116.494	n/a
87.664	0.497	happy	Picture	18.198	n/a	1	3	17	n/a	57	89	3	n/a	n/a	n/a	n/a	117.025	AF17ANS.jpg
88.161	0.514	Blank	Blank	17.684	n/a	1	3	17	n/a	57	n/a	3	n/a	n/a	n/a	n/a	117.522	n/a
88.692	0.497	happy	Picture	17.17	n/a	1	3	18	n/a	58	118	3	n/a	n/a	n/a	n/a	118.052	BM26ANS.jpg
89.189	0.514	Blank	Blank	16.656	n/a	1	3	18	n/a	58	n/a	3	n/a	n/a	n/a	n/a	118.55	n/a
89.72	0.497	happy	Picture	16.142	n/a	1	3	19	n/a	59	100	3	n/a	n/a	n/a	n/a	119.08	AF32ANS.jpg
90.217	0.514	Blank	Blank	15.628	n/a	1	3	19	n/a	59	n/a	3	n/a	n/a	n/a	n/a	119.578	n/a
90.748	0.497	happy	Picture	15.114	n/a	1	3	20	n/a	60	119	3	n/a	n/a	n/a	n/a	120.108	BM28ANS.jpg
91.245	0.514	Blank	Blank	14.6	n/a	1	3	20	n/a	60	n/a	3	n/a	n/a	n/a	n/a	120.606	n/a
91.776	10.014	ITI	Fixation+	4.57	n/a	1	n/a	n/a	n/a	n/a	n/a	n/a	n/a	n/a	n/a	n/a	121.136	n/a
106.359	n/a	ConfirmRating	Rate	n/a	4.559	1	n/a	n/a	0	n/a	n/a	n/a	2	Happy	97	57	135.72	n/a
109.327	n/a	ConfirmRating	Rate	n/a	2.951	1	n/a	n/a	1	n/a	n/a	n/a	3	Happy	0	45	138.687	n/a
109.349	10.014	ITI	Fixation+	95.061	n/a	2	n/a	n/a	n/a	n/a	n/a	n/a	n/a	n/a	n/a	n/a	138.709	n/a
119.379	0.497	angry	Picture	94.547	n/a	2	4	1	n/a	61	79	2	n/a	n/a	n/a	n/a	148.74	BM28HAS.jpg
119.877	0.514	Blank	Blank	94.033	n/a	2	4	1	n/a	61	n/a	2	n/a	n/a	n/a	n/a	149.237	n/a
120.407	0.497	angry	Picture	93.519	n/a	2	4	2	n/a	62	61	2	n/a	n/a	n/a	n/a	149.768	AM01HAS.jpg
120.905	0.514	Blank	Blank	93.005	n/a	2	4	2	n/a	62	n/a	2	n/a	n/a	n/a	n/a	150.265	n/a
121.435	0.497	angry	Picture	92.491	n/a	2	4	3	n/a	63	57	2	n/a	n/a	n/a	n/a	150.796	BF28HAS.jpg
121.932	0.514	Blank	Blank	91.977	n/a	2	4	3	n/a	63	n/a	2	n/a	n/a	n/a	n/a	151.293	n/a
122.463	0.497	angry	Picture	91.463	n/a	2	4	4	n/a	64	77	2	n/a	n/a	n/a	n/a	151.823	BM25HAS.jpg
122.96	0.514	Blank	Blank	90.949	n/a	2	4	4	n/a	64	n/a	2	n/a	n/a	n/a	n/a	152.321	n/a
123.491	0.497	angry	Picture	90.435	n/a	2	4	5	n/a	65	47	2	n/a	n/a	n/a	n/a	152.851	BF11HAS.jpg
123.988	0.514	Blank	Blank	89.921	n/a	2	4	5	n/a	65	n/a	2	n/a	n/a	n/a	n/a	153.349	n/a
124.519	0.497	angry	Picture	89.407	n/a	2	4	6	n/a	66	50	2	n/a	n/a	n/a	n/a	153.879	AF18HAS.jpg
125.016	0.514	Blank	Blank	88.893	n/a	2	4	6	n/a	66	n/a	2	n/a	n/a	n/a	n/a	154.376	n/a
125.547	0.497	angry	Picture	88.379	n/a	2	4	7	n/a	67	78	2	n/a	n/a	n/a	n/a	154.907	BM26HAS.jpg
126.044	0.514	Blank	Blank	87.866	n/a	2	4	7	n/a	67	n/a	2	n/a	n/a	n/a	n/a	155.404	n/a
126.575	0.497	angry	Picture	87.352	n/a	2	4	8	n/a	68	45	2	n/a	n/a	n/a	n/a	155.935	BF07HAS.jpg
127.072	0.514	Blank	Blank	86.838	n/a	2	4	8	n/a	68	n/a	2	n/a	n/a	n/a	n/a	156.432	n/a
127.602	0.497	angry	Picture	86.324	n/a	2	4	9	n/a	69	56	2	n/a	n/a	n/a	n/a	156.963	AF26HAS.jpg
128.1	0.514	Blank	Blank	85.81	n/a	2	4	9	n/a	69	n/a	2	n/a	n/a	n/a	n/a	157.46	n/a
128.63	0.497	angry	Picture	85.296	n/a	2	4	10	n/a	70	65	2	n/a	n/a	n/a	n/a	157.991	BM06HAS.jpg
129.128	0.514	Blank	Blank	84.782	n/a	2	4	10	n/a	70	n/a	2	n/a	n/a	n/a	n/a	158.488	n/a
129.658	0.497	angry	Picture	84.268	n/a	2	4	11	n/a	71	73	2	n/a	n/a	n/a	n/a	159.019	AM21HAS.jpg
130.155	0.514	Blank	Blank	83.754	n/a	2	4	11	n/a	71	n/a	2	n/a	n/a	n/a	n/a	159.516	n/a
130.686	0.497	angry	Picture	83.24	n/a	2	4	12	n/a	72	41	2	n/a	n/a	n/a	n/a	160.047	AF01HAS.jpg
131.183	0.514	Blank	Blank	82.726	n/a	2	4	12	n/a	72	n/a	2	n/a	n/a	n/a	n/a	160.544	n/a
131.714	0.497	angry	Picture	82.212	n/a	2	4	13	n/a	73	59	2	n/a	n/a	n/a	n/a	161.074	AF31HAS.jpg
132.211	0.514	Blank	Blank	81.698	n/a	2	4	13	n/a	73	n/a	2	n/a	n/a	n/a	n/a	161.572	n/a
132.742	0.497	angry	Picture	81.184	n/a	2	4	14	n/a	74	64	2	n/a	n/a	n/a	n/a	162.102	BM05HAS.jpg
133.239	0.514	Blank	Blank	80.67	n/a	2	4	14	n/a	74	n/a	2	n/a	n/a	n/a	n/a	162.6	n/a
133.77	0.497	angry	Picture	80.156	n/a	2	4	15	n/a	75	68	2	n/a	n/a	n/a	n/a	163.13	AM09HAS.jpg
134.267	0.514	Blank	Blank	79.642	n/a	2	4	15	n/a	75	n/a	2	n/a	n/a	n/a	n/a	163.627	n/a
134.798	0.497	angry	Picture	79.129	n/a	2	4	16	n/a	76	54	2	n/a	n/a	n/a	n/a	164.158	AF23HAS.jpg
135.295	0.514	Blank	Blank	78.615	n/a	2	4	16	n/a	76	n/a	2	n/a	n/a	n/a	n/a	164.655	n/a
135.826	0.497	angry	Picture	78.101	n/a	2	4	17	n/a	77	53	2	n/a	n/a	n/a	n/a	165.186	BF22HAS.jpg
136.323	0.514	Blank	Blank	77.587	n/a	2	4	17	n/a	77	n/a	2	n/a	n/a	n/a	n/a	165.683	n/a
136.853	0.497	angry	Picture	77.073	n/a	2	4	18	n/a	78	44	2	n/a	n/a	n/a	n/a	166.214	AF05HAS.jpg
137.351	0.514	Blank	Blank	76.559	n/a	2	4	18	n/a	78	n/a	2	n/a	n/a	n/a	n/a	166.711	n/a
137.881	0.497	angry	Picture	76.045	n/a	2	4	19	n/a	79	52	2	n/a	n/a	n/a	n/a	167.242	AF21HAS.jpg
138.379	0.514	Blank	Blank	75.531	n/a	2	4	19	n/a	79	n/a	2	n/a	n/a	n/a	n/a	167.739	n/a
138.909	0.497	angry	Picture	75.017	n/a	2	4	20	n/a	80	62	2	n/a	n/a	n/a	n/a	168.269	BM03HAS.jpg
139.406	0.514	Blank	Blank	74.503	n/a	2	4	20	n/a	80	n/a	2	n/a	n/a	n/a	n/a	168.767	n/a
139.937	10.014	ITI	Fixation+	64.473	n/a	2	n/a	n/a	n/a	n/a	n/a	n/a	n/a	n/a	n/a	n/a	169.297	n/a
149.967	0.497	neutral	Picture	63.959	n/a	2	5	1	n/a	81	23	1	n/a	n/a	n/a	n/a	179.328	AM04NES.jpg
150.465	0.514	Blank	Blank	63.445	n/a	2	5	1	n/a	81	n/a	1	n/a	n/a	n/a	n/a	179.825	n/a
150.995	0.497	neutral	Picture	62.931	n/a	2	5	2	n/a	82	29	1	n/a	n/a	n/a	n/a	180.356	AM10NES.jpg
151.493	0.514	Blank	Blank	62.417	n/a	2	5	2	n/a	82	n/a	1	n/a	n/a	n/a	n/a	180.853	n/a
152.023	0.497	neutral	Picture	61.903	n/a	2	5	3	n/a	83	24	1	n/a	n/a	n/a	n/a	181.383	BM05NES.jpg
152.52	0.514	Blank	Blank	61.389	n/a	2	5	3	n/a	83	n/a	1	n/a	n/a	n/a	n/a	181.881	n/a
153.051	0.497	neutral	Picture	60.875	n/a	2	5	4	n/a	84	12	1	n/a	n/a	n/a	n/a	182.411	AF21NES.jpg
153.548	0.514	Blank	Blank	60.361	n/a	2	5	4	n/a	84	n/a	1	n/a	n/a	n/a	n/a	182.909	n/a
154.079	0.497	neutral	Picture	59.847	n/a	2	5	5	n/a	85	13	1	n/a	n/a	n/a	n/a	183.439	BF22NES.jpg
154.576	0.514	Blank	Blank	59.333	n/a	2	5	5	n/a	85	n/a	1	n/a	n/a	n/a	n/a	183.936	n/a
155.107	0.497	neutral	Picture	58.819	n/a	2	5	6	n/a	86	17	1	n/a	n/a	n/a	n/a	184.467	BF28NES.jpg
155.604	0.514	Blank	Blank	58.306	n/a	2	5	6	n/a	86	n/a	1	n/a	n/a	n/a	n/a	184.964	n/a
156.135	0.497	neutral	Picture	57.792	n/a	2	5	7	n/a	87	4	1	n/a	n/a	n/a	n/a	185.495	AF05NES.jpg
156.632	0.514	Blank	Blank	57.278	n/a	2	5	7	n/a	87	n/a	1	n/a	n/a	n/a	n/a	185.992	n/a
157.162	0.497	neutral	Picture	56.764	n/a	2	5	8	n/a	88	11	1	n/a	n/a	n/a	n/a	186.523	AF20NES.jpg
157.66	0.514	Blank	Blank	56.25	n/a	2	5	8	n/a	88	n/a	1	n/a	n/a	n/a	n/a	187.02	n/a
158.19	0.497	neutral	Picture	55.736	n/a	2	5	9	n/a	89	22	1	n/a	n/a	n/a	n/a	187.551	BM03NES.jpg
158.688	0.514	Blank	Blank	55.222	n/a	2	5	9	n/a	89	n/a	1	n/a	n/a	n/a	n/a	188.048	n/a
159.218	0.497	neutral	Picture	54.708	n/a	2	5	10	n/a	90	15	1	n/a	n/a	n/a	n/a	188.579	AF25NES.jpg
159.715	0.514	Blank	Blank	54.194	n/a	2	5	10	n/a	90	n/a	1	n/a	n/a	n/a	n/a	189.076	n/a
160.246	0.497	neutral	Picture	53.68	n/a	2	5	11	n/a	91	19	1	n/a	n/a	n/a	n/a	189.607	AF31NES.jpg
160.743	0.514	Blank	Blank	53.166	n/a	2	5	11	n/a	91	n/a	1	n/a	n/a	n/a	n/a	190.104	n/a
161.274	0.497	neutral	Picture	52.652	n/a	2	5	12	n/a	92	9	1	n/a	n/a	n/a	n/a	190.634	AF17NES.jpg
161.771	0.514	Blank	Blank	52.138	n/a	2	5	12	n/a	92	n/a	1	n/a	n/a	n/a	n/a	191.132	n/a
162.302	0.497	neutral	Picture	51.624	n/a	2	5	13	n/a	93	14	1	n/a	n/a	n/a	n/a	191.662	AF23NES.jpg
162.799	0.514	Blank	Blank	51.11	n/a	2	5	13	n/a	93	n/a	1	n/a	n/a	n/a	n/a	192.16	n/a
163.33	0.497	neutral	Picture	50.596	n/a	2	5	14	n/a	94	36	1	n/a	n/a	n/a	n/a	192.69	BM24NES.jpg
163.827	0.514	Blank	Blank	50.082	n/a	2	5	14	n/a	94	n/a	1	n/a	n/a	n/a	n/a	193.188	n/a
164.358	0.497	neutral	Picture	49.569	n/a	2	5	15	n/a	95	34	1	n/a	n/a	n/a	n/a	193.718	AM22NES.jpg
164.855	0.514	Blank	Blank	49.055	n/a	2	5	15	n/a	95	n/a	1	n/a	n/a	n/a	n/a	194.215	n/a
165.386	0.497	neutral	Picture	48.541	n/a	2	5	16	n/a	96	10	1	n/a	n/a	n/a	n/a	194.746	AF18NES.jpg
165.883	0.514	Blank	Blank	48.027	n/a	2	5	16	n/a	96	n/a	1	n/a	n/a	n/a	n/a	195.243	n/a
166.413	0.497	neutral	Picture	47.513	n/a	2	5	17	n/a	97	5	1	n/a	n/a	n/a	n/a	195.774	BF07NES.jpg
166.911	0.514	Blank	Blank	46.999	n/a	2	5	17	n/a	97	n/a	1	n/a	n/a	n/a	n/a	196.271	n/a
167.441	0.497	neutral	Picture	46.485	n/a	2	5	18	n/a	98	25	1	n/a	n/a	n/a	n/a	196.802	BM06NES.jpg
167.939	0.514	Blank	Blank	45.971	n/a	2	5	18	n/a	98	n/a	1	n/a	n/a	n/a	n/a	197.299	n/a
168.469	0.497	neutral	Picture	45.457	n/a	2	5	19	n/a	99	39	1	n/a	n/a	n/a	n/a	197.83	AM28NES.jpg
168.966	0.514	Blank	Blank	44.943	n/a	2	5	19	n/a	99	n/a	1	n/a	n/a	n/a	n/a	198.327	n/a
169.497	0.497	neutral	Picture	44.429	n/a	2	5	20	n/a	100	33	1	n/a	n/a	n/a	n/a	198.857	AM21NES.jpg
169.994	0.514	Blank	Blank	43.915	n/a	2	5	20	n/a	100	n/a	1	n/a	n/a	n/a	n/a	199.355	n/a
170.525	10.014	ITI	Fixation+	33.885	n/a	2	n/a	n/a	n/a	n/a	n/a	n/a	n/a	n/a	n/a	n/a	199.885	n/a
180.555	0.497	angry	Picture	33.371	n/a	2	6	1	n/a	101	74	2	n/a	n/a	n/a	n/a	209.916	AM22HAS.jpg
181.053	0.514	Blank	Blank	32.857	n/a	2	6	1	n/a	101	n/a	2	n/a	n/a	n/a	n/a	210.413	n/a
181.583	0.497	angry	Picture	32.343	n/a	2	6	2	n/a	102	76	2	n/a	n/a	n/a	n/a	210.943	BM24HAS.jpg
182.08	0.514	Blank	Blank	31.829	n/a	2	6	2	n/a	102	n/a	2	n/a	n/a	n/a	n/a	211.441	n/a
182.611	0.497	angry	Picture	31.315	n/a	2	6	3	n/a	103	80	2	n/a	n/a	n/a	n/a	211.971	BM35HAS.jpg
183.108	0.514	Blank	Blank	30.801	n/a	2	6	3	n/a	103	n/a	2	n/a	n/a	n/a	n/a	212.469	n/a
183.639	0.497	angry	Picture	30.287	n/a	2	6	4	n/a	104	75	2	n/a	n/a	n/a	n/a	212.999	AM23HAS.jpg
184.136	0.514	Blank	Blank	29.773	n/a	2	6	4	n/a	104	n/a	2	n/a	n/a	n/a	n/a	213.496	n/a
184.667	0.497	angry	Picture	29.26	n/a	2	6	5	n/a	105	49	2	n/a	n/a	n/a	n/a	214.027	AF17HAS.jpg
185.164	0.514	Blank	Blank	28.745	n/a	2	6	5	n/a	105	n/a	2	n/a	n/a	n/a	n/a	214.524	n/a
185.695	0.497	angry	Picture	28.232	n/a	2	6	6	n/a	106	43	2	n/a	n/a	n/a	n/a	215.055	BF04HAS.jpg
186.192	0.514	Blank	Blank	27.718	n/a	2	6	6	n/a	106	n/a	2	n/a	n/a	n/a	n/a	215.552	n/a
186.722	0.497	angry	Picture	27.204	n/a	2	6	7	n/a	107	70	2	n/a	n/a	n/a	n/a	216.083	BM11HAS.jpg
187.22	0.514	Blank	Blank	26.69	n/a	2	6	7	n/a	107	n/a	2	n/a	n/a	n/a	n/a	216.58	n/a
187.75	0.497	angry	Picture	26.176	n/a	2	6	8	n/a	108	66	2	n/a	n/a	n/a	n/a	217.111	BM07HAS.jpg
188.248	0.514	Blank	Blank	25.662	n/a	2	6	8	n/a	108	n/a	2	n/a	n/a	n/a	n/a	217.608	n/a
188.778	0.497	angry	Picture	25.148	n/a	2	6	9	n/a	109	48	2	n/a	n/a	n/a	n/a	218.139	AF14HAS.jpg
189.276	0.514	Blank	Blank	24.634	n/a	2	6	9	n/a	109	n/a	2	n/a	n/a	n/a	n/a	218.636	n/a
189.806	0.497	angry	Picture	24.12	n/a	2	6	10	n/a	110	58	2	n/a	n/a	n/a	n/a	219.167	BF29HAS.jpg
190.303	0.514	Blank	Blank	23.606	n/a	2	6	10	n/a	110	n/a	2	n/a	n/a	n/a	n/a	219.664	n/a
190.834	0.497	angry	Picture	23.092	n/a	2	6	11	n/a	111	63	2	n/a	n/a	n/a	n/a	220.194	AM04HAS.jpg
191.331	0.514	Blank	Blank	22.578	n/a	2	6	11	n/a	111	n/a	2	n/a	n/a	n/a	n/a	220.692	n/a
191.862	0.497	angry	Picture	22.064	n/a	2	6	12	n/a	112	72	2	n/a	n/a	n/a	n/a	221.222	AM14HAS.jpg
192.359	0.514	Blank	Blank	21.55	n/a	2	6	12	n/a	112	n/a	2	n/a	n/a	n/a	n/a	221.72	n/a
192.89	0.497	angry	Picture	21.036	n/a	2	6	13	n/a	113	55	2	n/a	n/a	n/a	n/a	222.25	AF25HAS.jpg
193.387	0.514	Blank	Blank	20.522	n/a	2	6	13	n/a	113	n/a	2	n/a	n/a	n/a	n/a	222.748	n/a
193.918	0.497	angry	Picture	20.008	n/a	2	6	14	n/a	114	42	2	n/a	n/a	n/a	n/a	223.278	AF03HAS.jpg
194.415	0.514	Blank	Blank	19.495	n/a	2	6	14	n/a	114	n/a	2	n/a	n/a	n/a	n/a	223.775	n/a
194.946	0.497	angry	Picture	18.981	n/a	2	6	15	n/a	115	60	2	n/a	n/a	n/a	n/a	224.306	AF32HAS.jpg
195.443	0.514	Blank	Blank	18.467	n/a	2	6	15	n/a	115	n/a	2	n/a	n/a	n/a	n/a	224.803	n/a
195.973	0.497	angry	Picture	17.953	n/a	2	6	16	n/a	116	67	2	n/a	n/a	n/a	n/a	225.334	BM08HAS.jpg
196.471	0.514	Blank	Blank	17.439	n/a	2	6	16	n/a	116	n/a	2	n/a	n/a	n/a	n/a	225.831	n/a
197.001	0.497	angry	Picture	16.925	n/a	2	6	17	n/a	117	51	2	n/a	n/a	n/a	n/a	226.362	AF20HAS.jpg
197.499	0.514	Blank	Blank	16.411	n/a	2	6	17	n/a	117	n/a	2	n/a	n/a	n/a	n/a	226.859	n/a
198.029	0.497	angry	Picture	15.897	n/a	2	6	18	n/a	118	71	2	n/a	n/a	n/a	n/a	227.39	BM12HAS.jpg
198.526	0.514	Blank	Blank	15.383	n/a	2	6	18	n/a	118	n/a	2	n/a	n/a	n/a	n/a	227.887	n/a
199.057	0.497	angry	Picture	14.869	n/a	2	6	19	n/a	119	69	2	n/a	n/a	n/a	n/a	228.417	AM10HAS.jpg
199.554	0.514	Blank	Blank	14.355	n/a	2	6	19	n/a	119	n/a	2	n/a	n/a	n/a	n/a	228.915	n/a
200.085	0.497	angry	Picture	13.841	n/a	2	6	20	n/a	120	46	2	n/a	n/a	n/a	n/a	229.445	AF09HAS.jpg
200.582	0.514	Blank	Blank	13.327	n/a	2	6	20	n/a	120	n/a	2	n/a	n/a	n/a	n/a	229.943	n/a
201.113	10.014	ITI	Fixation+	3.297	n/a	2	n/a	n/a	n/a	n/a	n/a	n/a	n/a	n/a	n/a	n/a	230.473	n/a
214.423	n/a	ConfirmRating	Rate	n/a	3.283	2	n/a	n/a	0	n/a	n/a	n/a	2	Angry	19	49	243.784	n/a
218.398	n/a	ConfirmRating	Rate	n/a	3.962	2	n/a	n/a	1	n/a	n/a	n/a	3	Angry	19	48	247.758	n/a
218.421	15.004	Rest	Picture	n/a	n/a	n/a	n/a	n/a	n/a	n/a	n/a	n/a	0	n/a	0	0	247.781	n/a
233.441	10.014	ITI	Fixation+	95.534	n/a	3	n/a	n/a	n/a	n/a	n/a	n/a	n/a	n/a	n/a	n/a	262.802	n/a
243.472	0.497	happy	Picture	95.02	n/a	3	7	1	n/a	1	108	3	n/a	n/a	n/a	n/a	272.832	AM09ANS.jpg
243.969	0.514	Blank	Blank	94.506	n/a	3	7	1	n/a	1	n/a	3	n/a	n/a	n/a	n/a	273.329	n/a
244.5	0.497	happy	Picture	93.992	n/a	3	7	2	n/a	2	99	3	n/a	n/a	n/a	n/a	273.86	AF31ANS.jpg
244.997	0.514	Blank	Blank	93.478	n/a	3	7	2	n/a	2	n/a	3	n/a	n/a	n/a	n/a	274.357	n/a
245.527	0.497	happy	Picture	92.964	n/a	3	7	3	n/a	3	98	3	n/a	n/a	n/a	n/a	274.888	BF29ANS.jpg
246.025	0.514	Blank	Blank	92.45	n/a	3	7	3	n/a	3	n/a	3	n/a	n/a	n/a	n/a	275.385	n/a
246.555	0.497	happy	Picture	91.936	n/a	3	7	4	n/a	4	107	3	n/a	n/a	n/a	n/a	275.916	BM08ANS.jpg
247.053	0.514	Blank	Blank	91.422	n/a	3	7	4	n/a	4	n/a	3	n/a	n/a	n/a	n/a	276.413	n/a
247.583	0.497	happy	Picture	90.908	n/a	3	7	5	n/a	5	104	3	n/a	n/a	n/a	n/a	276.944	BM05ANS.jpg
248.081	0.514	Blank	Blank	90.394	n/a	3	7	5	n/a	5	n/a	3	n/a	n/a	n/a	n/a	277.441	n/a
248.611	0.497	happy	Picture	89.88	n/a	3	7	6	n/a	6	101	3	n/a	n/a	n/a	n/a	277.971	AM01ANS.jpg
249.109	0.514	Blank	Blank	89.366	n/a	3	7	6	n/a	6	n/a	3	n/a	n/a	n/a	n/a	278.469	n/a
249.639	0.497	happy	Picture	88.852	n/a	3	7	7	n/a	7	103	3	n/a	n/a	n/a	n/a	278.999	AM04ANS.jpg
250.136	0.514	Blank	Blank	88.338	n/a	3	7	7	n/a	7	n/a	3	n/a	n/a	n/a	n/a	279.497	n/a
250.667	0.497	happy	Picture	87.824	n/a	3	7	8	n/a	8	111	3	n/a	n/a	n/a	n/a	280.027	BM12ANS.jpg
251.164	0.514	Blank	Blank	87.31	n/a	3	7	8	n/a	8	n/a	3	n/a	n/a	n/a	n/a	280.525	n/a
251.695	0.497	happy	Picture	86.797	n/a	3	7	9	n/a	9	110	3	n/a	n/a	n/a	n/a	281.055	AM11ANS.jpg
252.192	0.514	Blank	Blank	86.283	n/a	3	7	9	n/a	9	n/a	3	n/a	n/a	n/a	n/a	281.553	n/a
252.723	0.497	happy	Picture	85.769	n/a	3	7	10	n/a	10	85	3	n/a	n/a	n/a	n/a	282.083	BF07ANS.jpg
253.22	0.514	Blank	Blank	85.255	n/a	3	7	10	n/a	10	n/a	3	n/a	n/a	n/a	n/a	282.58	n/a
253.751	0.497	happy	Picture	84.741	n/a	3	7	11	n/a	11	87	3	n/a	n/a	n/a	n/a	283.111	BF11ANS.jpg
254.248	0.514	Blank	Blank	84.227	n/a	3	7	11	n/a	11	n/a	3	n/a	n/a	n/a	n/a	283.608	n/a
254.778	0.497	happy	Picture	83.713	n/a	3	7	12	n/a	12	91	3	n/a	n/a	n/a	n/a	284.139	AF20ANS.jpg
255.276	0.514	Blank	Blank	83.199	n/a	3	7	12	n/a	12	n/a	3	n/a	n/a	n/a	n/a	284.636	n/a
255.806	0.497	happy	Picture	82.685	n/a	3	7	13	n/a	13	115	3	n/a	n/a	n/a	n/a	285.167	AM23ANS.jpg
256.304	0.514	Blank	Blank	82.171	n/a	3	7	13	n/a	13	n/a	3	n/a	n/a	n/a	n/a	285.664	n/a
256.834	0.497	happy	Picture	81.657	n/a	3	7	14	n/a	14	97	3	n/a	n/a	n/a	n/a	286.195	BF28ANS.jpg
257.332	0.514	Blank	Blank	81.143	n/a	3	7	14	n/a	14	n/a	3	n/a	n/a	n/a	n/a	286.692	n/a
257.862	0.497	happy	Picture	80.629	n/a	3	7	15	n/a	15	82	3	n/a	n/a	n/a	n/a	287.223	AF03ANS.jpg
258.359	0.514	Blank	Blank	80.115	n/a	3	7	15	n/a	15	n/a	3	n/a	n/a	n/a	n/a	287.72	n/a
258.89	0.497	happy	Picture	79.601	n/a	3	7	16	n/a	16	96	3	n/a	n/a	n/a	n/a	288.25	AF26ANS.jpg
259.387	0.514	Blank	Blank	79.087	n/a	3	7	16	n/a	16	n/a	3	n/a	n/a	n/a	n/a	288.748	n/a
259.918	0.497	happy	Picture	78.573	n/a	3	7	17	n/a	17	109	3	n/a	n/a	n/a	n/a	289.278	AM10ANS.jpg
260.415	0.514	Blank	Blank	78.059	n/a	3	7	17	n/a	17	n/a	3	n/a	n/a	n/a	n/a	289.776	n/a
260.946	0.497	happy	Picture	77.546	n/a	3	7	18	n/a	18	114	3	n/a	n/a	n/a	n/a	290.306	AM22ANS.jpg
261.443	0.514	Blank	Blank	77.032	n/a	3	7	18	n/a	18	n/a	3	n/a	n/a	n/a	n/a	290.803	n/a
261.974	0.497	happy	Picture	76.518	n/a	3	7	19	n/a	19	120	3	n/a	n/a	n/a	n/a	291.334	AM35ANS.jpg
262.471	0.514	Blank	Blank	76.004	n/a	3	7	19	n/a	19	n/a	3	n/a	n/a	n/a	n/a	291.831	n/a
263.001	0.497	happy	Picture	75.49	n/a	3	7	20	n/a	20	81	3	n/a	n/a	n/a	n/a	292.362	AF01ANS.jpg
263.499	0.514	Blank	Blank	74.976	n/a	3	7	20	n/a	20	n/a	3	n/a	n/a	n/a	n/a	292.859	n/a
264.029	10.014	ITI	Fixation+	64.946	n/a	3	n/a	n/a	n/a	n/a	n/a	n/a	n/a	n/a	n/a	n/a	293.39	n/a
274.06	0.497	neutral	Picture	64.432	n/a	3	8	1	n/a	21	28	1	n/a	n/a	n/a	n/a	303.42	AM09NES.jpg
274.557	0.514	Blank	Blank	63.918	n/a	3	8	1	n/a	21	n/a	1	n/a	n/a	n/a	n/a	303.917	n/a
275.087	0.497	neutral	Picture	63.404	n/a	3	8	2	n/a	22	27	1	n/a	n/a	n/a	n/a	304.448	BM08NES.jpg
275.585	0.514	Blank	Blank	62.89	n/a	3	8	2	n/a	22	n/a	1	n/a	n/a	n/a	n/a	304.945	n/a
276.115	0.497	neutral	Picture	62.376	n/a	3	8	3	n/a	23	16	1	n/a	n/a	n/a	n/a	305.476	AF26NES.jpg
276.613	0.514	Blank	Blank	61.862	n/a	3	8	3	n/a	23	n/a	1	n/a	n/a	n/a	n/a	305.973	n/a
277.143	0.497	neutral	Picture	61.348	n/a	3	8	4	n/a	24	3	1	n/a	n/a	n/a	n/a	306.504	BF04NES.jpg
277.641	0.514	Blank	Blank	60.834	n/a	3	8	4	n/a	24	n/a	1	n/a	n/a	n/a	n/a	307.001	n/a
278.171	0.497	neutral	Picture	60.32	n/a	3	8	5	n/a	25	32	1	n/a	n/a	n/a	n/a	307.531	AM14NES.jpg
278.668	0.514	Blank	Blank	59.806	n/a	3	8	5	n/a	25	n/a	1	n/a	n/a	n/a	n/a	308.029	n/a
279.199	0.497	neutral	Picture	59.292	n/a	3	8	6	n/a	26	37	1	n/a	n/a	n/a	n/a	308.559	BM25NES.jpg
279.696	0.514	Blank	Blank	58.778	n/a	3	8	6	n/a	26	n/a	1	n/a	n/a	n/a	n/a	309.057	n/a
280.227	0.497	neutral	Picture	58.264	n/a	3	8	7	n/a	27	15	1	n/a	n/a	n/a	n/a	309.587	AF25NES.jpg
280.724	0.514	Blank	Blank	57.75	n/a	3	8	7	n/a	27	n/a	1	n/a	n/a	n/a	n/a	310.085	n/a
281.255	0.497	neutral	Picture	57.237	n/a	3	8	8	n/a	28	23	1	n/a	n/a	n/a	n/a	310.615	AM04NES.jpg
281.752	0.514	Blank	Blank	56.723	n/a	3	8	8	n/a	28	n/a	1	n/a	n/a	n/a	n/a	311.113	n/a
282.283	0.497	neutral	Picture	56.209	n/a	3	8	9	n/a	29	34	1	n/a	n/a	n/a	n/a	311.643	AM22NES.jpg
282.78	0.514	Blank	Blank	55.695	n/a	3	8	9	n/a	29	n/a	1	n/a	n/a	n/a	n/a	312.14	n/a
283.311	0.497	neutral	Picture	55.181	n/a	3	8	10	n/a	30	24	1	n/a	n/a	n/a	n/a	312.671	BM05NES.jpg
283.808	0.514	Blank	Blank	54.667	n/a	3	8	10	n/a	30	n/a	1	n/a	n/a	n/a	n/a	313.168	n/a
284.338	0.497	neutral	Picture	54.153	n/a	3	8	11	n/a	31	12	1	n/a	n/a	n/a	n/a	313.699	AF21NES.jpg
284.836	0.514	Blank	Blank	53.639	n/a	3	8	11	n/a	31	n/a	1	n/a	n/a	n/a	n/a	314.196	n/a
285.366	0.497	neutral	Picture	53.125	n/a	3	8	12	n/a	32	6	1	n/a	n/a	n/a	n/a	314.727	AF09NES.jpg
285.864	0.514	Blank	Blank	52.611	n/a	3	8	12	n/a	32	n/a	1	n/a	n/a	n/a	n/a	315.224	n/a
286.394	0.497	neutral	Picture	52.097	n/a	3	8	13	n/a	33	17	1	n/a	n/a	n/a	n/a	315.755	BF28NES.jpg
286.892	0.514	Blank	Blank	51.583	n/a	3	8	13	n/a	33	n/a	1	n/a	n/a	n/a	n/a	316.252	n/a
287.422	0.497	neutral	Picture	51.069	n/a	3	8	14	n/a	34	2	1	n/a	n/a	n/a	n/a	316.783	AF03NES.jpg
287.919	0.514	Blank	Blank	50.555	n/a	3	8	14	n/a	34	n/a	1	n/a	n/a	n/a	n/a	317.28	n/a
288.45	0.497	neutral	Picture	50.041	n/a	3	8	15	n/a	35	9	1	n/a	n/a	n/a	n/a	317.81	AF17NES.jpg
288.947	0.514	Blank	Blank	49.527	n/a	3	8	15	n/a	35	n/a	1	n/a	n/a	n/a	n/a	318.308	n/a
289.478	0.497	neutral	Picture	49.014	n/a	3	8	16	n/a	36	25	1	n/a	n/a	n/a	n/a	318.838	BM06NES.jpg
289.975	0.514	Blank	Blank	48.5	n/a	3	8	16	n/a	36	n/a	1	n/a	n/a	n/a	n/a	319.336	n/a
290.506	0.497	neutral	Picture	47.986	n/a	3	8	17	n/a	37	8	1	n/a	n/a	n/a	n/a	319.866	AF14NES.jpg
291.003	0.514	Blank	Blank	47.472	n/a	3	8	17	n/a	37	n/a	1	n/a	n/a	n/a	n/a	320.363	n/a
291.534	0.497	neutral	Picture	46.958	n/a	3	8	18	n/a	38	19	1	n/a	n/a	n/a	n/a	320.894	AF31NES.jpg
292.031	0.514	Blank	Blank	46.444	n/a	3	8	18	n/a	38	n/a	1	n/a	n/a	n/a	n/a	321.391	n/a
292.562	0.497	neutral	Picture	45.93	n/a	3	8	19	n/a	39	14	1	n/a	n/a	n/a	n/a	321.922	AF23NES.jpg
293.059	0.514	Blank	Blank	45.416	n/a	3	8	19	n/a	39	n/a	1	n/a	n/a	n/a	n/a	322.419	n/a
293.589	0.497	neutral	Picture	44.902	n/a	3	8	20	n/a	40	4	1	n/a	n/a	n/a	n/a	322.95	AF05NES.jpg
294.087	0.514	Blank	Blank	44.388	n/a	3	8	20	n/a	40	n/a	1	n/a	n/a	n/a	n/a	323.447	n/a
294.617	10.014	ITI	Fixation+	34.358	n/a	3	n/a	n/a	n/a	n/a	n/a	n/a	n/a	n/a	n/a	n/a	323.978	n/a
304.648	0.497	happy	Picture	33.844	n/a	3	9	1	n/a	41	84	3	n/a	n/a	n/a	n/a	334.008	AF05ANS.jpg
305.145	0.514	Blank	Blank	33.33	n/a	3	9	1	n/a	41	n/a	3	n/a	n/a	n/a	n/a	334.505	n/a
305.675	0.497	happy	Picture	32.816	n/a	3	9	2	n/a	42	92	3	n/a	n/a	n/a	n/a	335.036	AF21ANS.jpg
306.173	0.514	Blank	Blank	32.302	n/a	3	9	2	n/a	42	n/a	3	n/a	n/a	n/a	n/a	335.533	n/a
306.703	0.497	happy	Picture	31.788	n/a	3	9	3	n/a	43	86	3	n/a	n/a	n/a	n/a	336.064	AF09ANS.jpg
307.201	0.514	Blank	Blank	31.274	n/a	3	9	3	n/a	43	n/a	3	n/a	n/a	n/a	n/a	336.561	n/a
307.731	0.497	happy	Picture	30.76	n/a	3	9	4	n/a	44	93	3	n/a	n/a	n/a	n/a	337.091	BF22ANS.jpg
308.229	0.514	Blank	Blank	30.246	n/a	3	9	4	n/a	44	n/a	3	n/a	n/a	n/a	n/a	337.589	n/a
308.759	0.497	happy	Picture	29.732	n/a	3	9	5	n/a	45	88	3	n/a	n/a	n/a	n/a	338.119	AF14ANS.jpg
309.256	0.514	Blank	Blank	29.218	n/a	3	9	5	n/a	45	n/a	3	n/a	n/a	n/a	n/a	338.617	n/a
309.787	0.497	happy	Picture	28.704	n/a	3	9	6	n/a	46	113	3	n/a	n/a	n/a	n/a	339.147	AM21ANS.jpg
310.284	0.514	Blank	Blank	28.19	n/a	3	9	6	n/a	46	n/a	3	n/a	n/a	n/a	n/a	339.645	n/a
310.815	0.497	happy	Picture	27.677	n/a	3	9	7	n/a	47	95	3	n/a	n/a	n/a	n/a	340.175	AF25ANS.jpg
311.312	0.514	Blank	Blank	27.163	n/a	3	9	7	n/a	47	n/a	3	n/a	n/a	n/a	n/a	340.673	n/a
311.843	0.497	happy	Picture	26.649	n/a	3	9	8	n/a	48	102	3	n/a	n/a	n/a	n/a	341.203	BM03ANS.jpg
312.34	0.514	Blank	Blank	26.135	n/a	3	9	8	n/a	48	n/a	3	n/a	n/a	n/a	n/a	341.7	n/a
312.871	0.497	happy	Picture	25.621	n/a	3	9	9	n/a	49	112	3	n/a	n/a	n/a	n/a	342.231	AM14ANS.jpg
313.368	0.514	Blank	Blank	25.107	n/a	3	9	9	n/a	49	n/a	3	n/a	n/a	n/a	n/a	342.728	n/a
313.898	0.497	happy	Picture	24.593	n/a	3	9	10	n/a	50	83	3	n/a	n/a	n/a	n/a	343.259	BF04ANS.jpg
314.396	0.514	Blank	Blank	24.079	n/a	3	9	10	n/a	50	n/a	3	n/a	n/a	n/a	n/a	343.756	n/a
314.926	0.497	happy	Picture	23.565	n/a	3	9	11	n/a	51	90	3	n/a	n/a	n/a	n/a	344.287	AF18ANS.jpg
315.424	0.514	Blank	Blank	23.051	n/a	3	9	11	n/a	51	n/a	3	n/a	n/a	n/a	n/a	344.784	n/a
315.954	0.497	happy	Picture	22.537	n/a	3	9	12	n/a	52	117	3	n/a	n/a	n/a	n/a	345.315	BM25ANS.jpg
316.452	0.514	Blank	Blank	22.023	n/a	3	9	12	n/a	52	n/a	3	n/a	n/a	n/a	n/a	345.812	n/a
316.982	0.497	happy	Picture	21.509	n/a	3	9	13	n/a	53	94	3	n/a	n/a	n/a	n/a	346.342	AF23ANS.jpg
317.48	0.514	Blank	Blank	20.995	n/a	3	9	13	n/a	53	n/a	3	n/a	n/a	n/a	n/a	346.84	n/a
318.01	0.497	happy	Picture	20.481	n/a	3	9	14	n/a	54	106	3	n/a	n/a	n/a	n/a	347.37	AM07ANS.jpg
318.507	0.514	Blank	Blank	19.967	n/a	3	9	14	n/a	54	n/a	3	n/a	n/a	n/a	n/a	347.868	n/a
319.038	0.497	happy	Picture	19.453	n/a	3	9	15	n/a	55	105	3	n/a	n/a	n/a	n/a	348.398	BM06ANS.jpg
319.535	0.514	Blank	Blank	18.939	n/a	3	9	15	n/a	55	n/a	3	n/a	n/a	n/a	n/a	348.896	n/a
320.066	0.497	happy	Picture	18.426	n/a	3	9	16	n/a	56	116	3	n/a	n/a	n/a	n/a	349.426	BM24ANS.jpg
320.563	0.514	Blank	Blank	17.912	n/a	3	9	16	n/a	56	n/a	3	n/a	n/a	n/a	n/a	349.923	n/a
321.094	0.497	happy	Picture	17.398	n/a	3	9	17	n/a	57	89	3	n/a	n/a	n/a	n/a	350.454	AF17ANS.jpg
321.591	0.514	Blank	Blank	16.884	n/a	3	9	17	n/a	57	n/a	3	n/a	n/a	n/a	n/a	350.951	n/a
322.121	0.497	happy	Picture	16.37	n/a	3	9	18	n/a	58	118	3	n/a	n/a	n/a	n/a	351.482	BM26ANS.jpg
322.619	0.514	Blank	Blank	15.856	n/a	3	9	18	n/a	58	n/a	3	n/a	n/a	n/a	n/a	351.979	n/a
323.149	0.497	happy	Picture	15.342	n/a	3	9	19	n/a	59	100	3	n/a	n/a	n/a	n/a	352.51	AF32ANS.jpg
323.647	0.514	Blank	Blank	14.828	n/a	3	9	19	n/a	59	n/a	3	n/a	n/a	n/a	n/a	353.007	n/a
324.177	0.497	happy	Picture	14.314	n/a	3	9	20	n/a	60	119	3	n/a	n/a	n/a	n/a	353.538	BM28ANS.jpg
324.675	0.514	Blank	Blank	13.8	n/a	3	9	20	n/a	60	n/a	3	n/a	n/a	n/a	n/a	354.035	n/a
325.205	10.014	ITI	Fixation+	3.77	n/a	3	n/a	n/a	n/a	n/a	n/a	n/a	n/a	n/a	n/a	n/a	354.566	n/a
338.989	n/a	ConfirmRating	Rate	n/a	3.764	3	n/a	n/a	0	n/a	n/a	n/a	2	Happy	90	55	368.349	n/a
340.776	n/a	ConfirmRating	Rate	n/a	1.774	3	n/a	n/a	1	n/a	n/a	n/a	3	Happy	17	47	370.136	n/a
340.806	10.014	ITI	Fixation+	93.65	n/a	4	n/a	n/a	n/a	n/a	n/a	n/a	n/a	n/a	n/a	n/a	370.166	n/a
350.836	0.497	angry	Picture	93.136	n/a	4	10	1	n/a	61	79	2	n/a	n/a	n/a	n/a	380.196	BM28HAS.jpg
351.333	0.514	Blank	Blank	92.622	n/a	4	10	1	n/a	61	n/a	2	n/a	n/a	n/a	n/a	380.694	n/a
351.864	0.497	angry	Picture	92.108	n/a	4	10	2	n/a	62	61	2	n/a	n/a	n/a	n/a	381.224	AM01HAS.jpg
352.361	0.514	Blank	Blank	91.594	n/a	4	10	2	n/a	62	n/a	2	n/a	n/a	n/a	n/a	381.722	n/a
352.892	0.497	angry	Picture	91.08	n/a	4	10	3	n/a	63	57	2	n/a	n/a	n/a	n/a	382.252	BF28HAS.jpg
353.389	0.514	Blank	Blank	90.566	n/a	4	10	3	n/a	63	n/a	2	n/a	n/a	n/a	n/a	382.75	n/a
353.92	0.497	angry	Picture	90.052	n/a	4	10	4	n/a	64	77	2	n/a	n/a	n/a	n/a	383.28	BM25HAS.jpg
354.417	0.514	Blank	Blank	89.538	n/a	4	10	4	n/a	64	n/a	2	n/a	n/a	n/a	n/a	383.777	n/a
354.948	0.497	angry	Picture	89.024	n/a	4	10	5	n/a	65	47	2	n/a	n/a	n/a	n/a	384.308	BF11HAS.jpg
355.445	0.514	Blank	Blank	88.51	n/a	4	10	5	n/a	65	n/a	2	n/a	n/a	n/a	n/a	384.805	n/a
355.975	0.497	angry	Picture	87.996	n/a	4	10	6	n/a	66	50	2	n/a	n/a	n/a	n/a	385.336	AF18HAS.jpg
356.473	0.514	Blank	Blank	87.482	n/a	4	10	6	n/a	66	n/a	2	n/a	n/a	n/a	n/a	385.833	n/a
357.003	0.497	angry	Picture	86.969	n/a	4	10	7	n/a	67	78	2	n/a	n/a	n/a	n/a	386.364	BM26HAS.jpg
357.501	0.514	Blank	Blank	86.455	n/a	4	10	7	n/a	67	n/a	2	n/a	n/a	n/a	n/a	386.861	n/a
358.031	0.497	angry	Picture	85.941	n/a	4	10	8	n/a	68	45	2	n/a	n/a	n/a	n/a	387.392	BF07HAS.jpg
358.529	0.514	Blank	Blank	85.427	n/a	4	10	8	n/a	68	n/a	2	n/a	n/a	n/a	n/a	387.889	n/a
359.059	0.497	angry	Picture	84.913	n/a	4	10	9	n/a	69	56	2	n/a	n/a	n/a	n/a	388.42	AF26HAS.jpg
359.557	0.514	Blank	Blank	84.399	n/a	4	10	9	n/a	69	n/a	2	n/a	n/a	n/a	n/a	388.917	n/a
360.087	0.497	angry	Picture	83.885	n/a	4	10	10	n/a	70	65	2	n/a	n/a	n/a	n/a	389.447	BM06HAS.jpg
360.584	0.514	Blank	Blank	83.371	n/a	4	10	10	n/a	70	n/a	2	n/a	n/a	n/a	n/a	389.945	n/a
361.115	0.497	angry	Picture	82.857	n/a	4	10	11	n/a	71	73	2	n/a	n/a	n/a	n/a	390.475	AM21HAS.jpg
361.612	0.514	Blank	Blank	82.343	n/a	4	10	11	n/a	71	n/a	2	n/a	n/a	n/a	n/a	390.973	n/a
362.143	0.497	angry	Picture	81.829	n/a	4	10	12	n/a	72	41	2	n/a	n/a	n/a	n/a	391.503	AF01HAS.jpg
362.64	0.514	Blank	Blank	81.315	n/a	4	10	12	n/a	72	n/a	2	n/a	n/a	n/a	n/a	392.0	n/a
363.171	0.497	angry	Picture	80.801	n/a	4	10	13	n/a	73	59	2	n/a	n/a	n/a	n/a	392.531	AF31HAS.jpg
363.668	0.514	Blank	Blank	80.287	n/a	4	10	13	n/a	73	n/a	2	n/a	n/a	n/a	n/a	393.028	n/a
364.198	0.497	angry	Picture	79.773	n/a	4	10	14	n/a	74	64	2	n/a	n/a	n/a	n/a	393.559	BM05HAS.jpg
364.696	0.514	Blank	Blank	79.259	n/a	4	10	14	n/a	74	n/a	2	n/a	n/a	n/a	n/a	394.056	n/a
365.226	0.497	angry	Picture	78.745	n/a	4	10	15	n/a	75	68	2	n/a	n/a	n/a	n/a	394.587	AM09HAS.jpg
365.724	0.514	Blank	Blank	78.232	n/a	4	10	15	n/a	75	n/a	2	n/a	n/a	n/a	n/a	395.084	n/a
366.254	0.497	angry	Picture	77.717	n/a	4	10	16	n/a	76	54	2	n/a	n/a	n/a	n/a	395.615	AF23HAS.jpg
366.752	0.514	Blank	Blank	77.204	n/a	4	10	16	n/a	76	n/a	2	n/a	n/a	n/a	n/a	396.112	n/a
367.282	0.497	angry	Picture	76.69	n/a	4	10	17	n/a	77	53	2	n/a	n/a	n/a	n/a	396.643	BF22HAS.jpg
367.78	0.514	Blank	Blank	76.176	n/a	4	10	17	n/a	77	n/a	2	n/a	n/a	n/a	n/a	397.14	n/a
368.31	0.497	angry	Picture	75.662	n/a	4	10	18	n/a	78	44	2	n/a	n/a	n/a	n/a	397.671	AF05HAS.jpg
368.807	0.514	Blank	Blank	75.148	n/a	4	10	18	n/a	78	n/a	2	n/a	n/a	n/a	n/a	398.168	n/a
369.338	0.497	angry	Picture	74.634	n/a	4	10	19	n/a	79	52	2	n/a	n/a	n/a	n/a	398.698	AF21HAS.jpg
369.835	0.514	Blank	Blank	74.12	n/a	4	10	19	n/a	79	n/a	2	n/a	n/a	n/a	n/a	399.196	n/a
370.366	0.497	angry	Picture	73.606	n/a	4	10	20	n/a	80	62	2	n/a	n/a	n/a	n/a	399.726	BM03HAS.jpg
370.863	0.514	Blank	Blank	73.092	n/a	4	10	20	n/a	80	n/a	2	n/a	n/a	n/a	n/a	400.224	n/a
371.394	10.014	ITI	Fixation+	63.062	n/a	4	n/a	n/a	n/a	n/a	n/a	n/a	n/a	n/a	n/a	n/a	400.754	n/a
381.424	0.497	neutral	Picture	62.548	n/a	4	11	1	n/a	81	23	1	n/a	n/a	n/a	n/a	410.784	AM04NES.jpg
381.921	0.514	Blank	Blank	62.034	n/a	4	11	1	n/a	81	n/a	1	n/a	n/a	n/a	n/a	411.282	n/a
382.452	0.497	neutral	Picture	61.52	n/a	4	11	2	n/a	82	29	1	n/a	n/a	n/a	n/a	411.812	AM10NES.jpg
382.949	0.514	Blank	Blank	61.006	n/a	4	11	2	n/a	82	n/a	1	n/a	n/a	n/a	n/a	412.31	n/a
383.48	0.497	neutral	Picture	60.492	n/a	4	11	3	n/a	83	24	1	n/a	n/a	n/a	n/a	412.84	BM05NES.jpg
383.977	0.514	Blank	Blank	59.978	n/a	4	11	3	n/a	83	n/a	1	n/a	n/a	n/a	n/a	413.337	n/a
384.508	0.497	neutral	Picture	59.464	n/a	4	11	4	n/a	84	12	1	n/a	n/a	n/a	n/a	413.868	AF21NES.jpg
385.005	0.514	Blank	Blank	58.95	n/a	4	11	4	n/a	84	n/a	1	n/a	n/a	n/a	n/a	414.365	n/a
385.535	0.497	neutral	Picture	58.436	n/a	4	11	5	n/a	85	13	1	n/a	n/a	n/a	n/a	414.896	BF22NES.jpg
386.033	0.514	Blank	Blank	57.922	n/a	4	11	5	n/a	85	n/a	1	n/a	n/a	n/a	n/a	415.393	n/a
386.563	0.497	neutral	Picture	57.408	n/a	4	11	6	n/a	86	17	1	n/a	n/a	n/a	n/a	415.924	BF28NES.jpg
387.061	0.514	Blank	Blank	56.894	n/a	4	11	6	n/a	86	n/a	1	n/a	n/a	n/a	n/a	416.421	n/a
387.591	0.497	neutral	Picture	56.381	n/a	4	11	7	n/a	87	4	1	n/a	n/a	n/a	n/a	416.952	AF05NES.jpg
388.089	0.514	Blank	Blank	55.867	n/a	4	11	7	n/a	87	n/a	1	n/a	n/a	n/a	n/a	417.449	n/a
388.619	0.497	neutral	Picture	55.353	n/a	4	11	8	n/a	88	11	1	n/a	n/a	n/a	n/a	417.979	AF20NES.jpg
389.116	0.514	Blank	Blank	54.839	n/a	4	11	8	n/a	88	n/a	1	n/a	n/a	n/a	n/a	418.477	n/a
389.647	0.497	neutral	Picture	54.325	n/a	4	11	9	n/a	89	22	1	n/a	n/a	n/a	n/a	419.007	BM03NES.jpg
390.144	0.514	Blank	Blank	53.811	n/a	4	11	9	n/a	89	n/a	1	n/a	n/a	n/a	n/a	419.505	n/a
390.675	0.497	neutral	Picture	53.297	n/a	4	11	10	n/a	90	15	1	n/a	n/a	n/a	n/a	420.035	AF25NES.jpg
391.172	0.514	Blank	Blank	52.783	n/a	4	11	10	n/a	90	n/a	1	n/a	n/a	n/a	n/a	420.533	n/a
391.703	0.497	neutral	Picture	52.269	n/a	4	11	11	n/a	91	19	1	n/a	n/a	n/a	n/a	421.063	AF31NES.jpg
392.2	0.514	Blank	Blank	51.755	n/a	4	11	11	n/a	91	n/a	1	n/a	n/a	n/a	n/a	421.56	n/a
392.731	0.497	neutral	Picture	51.241	n/a	4	11	12	n/a	92	9	1	n/a	n/a	n/a	n/a	422.091	AF17NES.jpg
393.228	0.514	Blank	Blank	50.727	n/a	4	11	12	n/a	92	n/a	1	n/a	n/a	n/a	n/a	422.588	n/a
393.759	0.497	neutral	Picture	50.213	n/a	4	11	13	n/a	93	14	1	n/a	n/a	n/a	n/a	423.119	AF23NES.jpg
394.256	0.514	Blank	Blank	49.699	n/a	4	11	13	n/a	93	n/a	1	n/a	n/a	n/a	n/a	423.616	n/a
394.786	0.497	neutral	Picture	49.185	n/a	4	11	14	n/a	94	36	1	n/a	n/a	n/a	n/a	424.147	BM24NES.jpg
395.284	0.514	Blank	Blank	48.671	n/a	4	11	14	n/a	94	n/a	1	n/a	n/a	n/a	n/a	424.644	n/a
395.814	0.497	neutral	Picture	48.157	n/a	4	11	15	n/a	95	34	1	n/a	n/a	n/a	n/a	425.175	AM22NES.jpg
396.312	0.514	Blank	Blank	47.644	n/a	4	11	15	n/a	95	n/a	1	n/a	n/a	n/a	n/a	425.672	n/a
396.842	0.497	neutral	Picture	47.13	n/a	4	11	16	n/a	96	10	1	n/a	n/a	n/a	n/a	426.203	AF18NES.jpg
397.34	0.514	Blank	Blank	46.616	n/a	4	11	16	n/a	96	n/a	1	n/a	n/a	n/a	n/a	426.7	n/a
397.87	0.497	neutral	Picture	46.102	n/a	4	11	17	n/a	97	5	1	n/a	n/a	n/a	n/a	427.231	BF07NES.jpg
398.367	0.514	Blank	Blank	45.588	n/a	4	11	17	n/a	97	n/a	1	n/a	n/a	n/a	n/a	427.728	n/a
398.898	0.497	neutral	Picture	45.074	n/a	4	11	18	n/a	98	25	1	n/a	n/a	n/a	n/a	428.258	BM06NES.jpg
399.395	0.514	Blank	Blank	44.56	n/a	4	11	18	n/a	98	n/a	1	n/a	n/a	n/a	n/a	428.756	n/a
399.926	0.497	neutral	Picture	44.046	n/a	4	11	19	n/a	99	39	1	n/a	n/a	n/a	n/a	429.286	AM28NES.jpg
400.423	0.514	Blank	Blank	43.532	n/a	4	11	19	n/a	99	n/a	1	n/a	n/a	n/a	n/a	429.784	n/a
400.954	0.497	neutral	Picture	43.018	n/a	4	11	20	n/a	100	33	1	n/a	n/a	n/a	n/a	430.314	AM21NES.jpg
401.451	0.514	Blank	Blank	42.504	n/a	4	11	20	n/a	100	n/a	1	n/a	n/a	n/a	n/a	430.812	n/a
401.982	10.014	ITI	Fixation+	32.474	n/a	4	n/a	n/a	n/a	n/a	n/a	n/a	n/a	n/a	n/a	n/a	431.342	n/a
412.012	0.497	angry	Picture	31.96	n/a	4	12	1	n/a	101	74	2	n/a	n/a	n/a	n/a	441.372	AM22HAS.jpg
412.509	0.514	Blank	Blank	31.446	n/a	4	12	1	n/a	101	n/a	2	n/a	n/a	n/a	n/a	441.87	n/a
413.04	0.497	angry	Picture	30.932	n/a	4	12	2	n/a	102	76	2	n/a	n/a	n/a	n/a	442.4	BM24HAS.jpg
413.537	0.514	Blank	Blank	30.418	n/a	4	12	2	n/a	102	n/a	2	n/a	n/a	n/a	n/a	442.897	n/a
414.068	0.497	angry	Picture	29.904	n/a	4	12	3	n/a	103	80	2	n/a	n/a	n/a	n/a	443.428	BM35HAS.jpg
414.565	0.514	Blank	Blank	29.39	n/a	4	12	3	n/a	103	n/a	2	n/a	n/a	n/a	n/a	443.925	n/a
415.096	0.497	angry	Picture	28.876	n/a	4	12	4	n/a	104	75	2	n/a	n/a	n/a	n/a	444.456	AM23HAS.jpg
415.593	0.514	Blank	Blank	28.362	n/a	4	12	4	n/a	104	n/a	2	n/a	n/a	n/a	n/a	444.953	n/a
416.123	0.497	angry	Picture	27.849	n/a	4	12	5	n/a	105	49	2	n/a	n/a	n/a	n/a	445.484	AF17HAS.jpg
416.621	0.514	Blank	Blank	27.334	n/a	4	12	5	n/a	105	n/a	2	n/a	n/a	n/a	n/a	445.981	n/a
417.151	0.497	angry	Picture	26.821	n/a	4	12	6	n/a	106	43	2	n/a	n/a	n/a	n/a	446.512	BF04HAS.jpg
417.649	0.514	Blank	Blank	26.307	n/a	4	12	6	n/a	106	n/a	2	n/a	n/a	n/a	n/a	447.009	n/a
418.179	0.497	angry	Picture	25.793	n/a	4	12	7	n/a	107	70	2	n/a	n/a	n/a	n/a	447.539	BM11HAS.jpg
418.677	0.514	Blank	Blank	25.279	n/a	4	12	7	n/a	107	n/a	2	n/a	n/a	n/a	n/a	448.037	n/a
419.207	0.497	angry	Picture	24.765	n/a	4	12	8	n/a	108	66	2	n/a	n/a	n/a	n/a	448.567	BM07HAS.jpg
419.704	0.514	Blank	Blank	24.251	n/a	4	12	8	n/a	108	n/a	2	n/a	n/a	n/a	n/a	449.065	n/a
420.235	0.497	angry	Picture	23.737	n/a	4	12	9	n/a	109	48	2	n/a	n/a	n/a	n/a	449.595	AF14HAS.jpg
420.732	0.514	Blank	Blank	23.223	n/a	4	12	9	n/a	109	n/a	2	n/a	n/a	n/a	n/a	450.093	n/a
421.263	0.497	angry	Picture	22.709	n/a	4	12	10	n/a	110	58	2	n/a	n/a	n/a	n/a	450.623	BF29HAS.jpg
421.76	0.514	Blank	Blank	22.195	n/a	4	12	10	n/a	110	n/a	2	n/a	n/a	n/a	n/a	451.12	n/a
422.291	0.497	angry	Picture	21.681	n/a	4	12	11	n/a	111	63	2	n/a	n/a	n/a	n/a	451.651	AM04HAS.jpg
422.788	0.514	Blank	Blank	21.167	n/a	4	12	11	n/a	111	n/a	2	n/a	n/a	n/a	n/a	452.148	n/a
423.319	0.497	angry	Picture	20.653	n/a	4	12	12	n/a	112	72	2	n/a	n/a	n/a	n/a	452.679	AM14HAS.jpg
423.816	0.514	Blank	Blank	20.139	n/a	4	12	12	n/a	112	n/a	2	n/a	n/a	n/a	n/a	453.176	n/a
424.346	0.497	angry	Picture	19.625	n/a	4	12	13	n/a	113	55	2	n/a	n/a	n/a	n/a	453.707	AF25HAS.jpg
424.844	0.514	Blank	Blank	19.111	n/a	4	12	13	n/a	113	n/a	2	n/a	n/a	n/a	n/a	454.204	n/a
425.374	0.497	angry	Picture	18.598	n/a	4	12	14	n/a	114	42	2	n/a	n/a	n/a	n/a	454.735	AF03HAS.jpg
425.872	0.514	Blank	Blank	18.084	n/a	4	12	14	n/a	114	n/a	2	n/a	n/a	n/a	n/a	455.232	n/a
426.402	0.497	angry	Picture	17.57	n/a	4	12	15	n/a	115	60	2	n/a	n/a	n/a	n/a	455.763	AF32HAS.jpg
426.9	0.514	Blank	Blank	17.056	n/a	4	12	15	n/a	115	n/a	2	n/a	n/a	n/a	n/a	456.26	n/a
427.43	0.497	angry	Picture	16.542	n/a	4	12	16	n/a	116	67	2	n/a	n/a	n/a	n/a	456.791	BM08HAS.jpg
427.928	0.514	Blank	Blank	16.028	n/a	4	12	16	n/a	116	n/a	2	n/a	n/a	n/a	n/a	457.288	n/a
428.458	0.497	angry	Picture	15.514	n/a	4	12	17	n/a	117	51	2	n/a	n/a	n/a	n/a	457.818	AF20HAS.jpg
428.955	0.514	Blank	Blank	15.0	n/a	4	12	17	n/a	117	n/a	2	n/a	n/a	n/a	n/a	458.316	n/a
429.486	0.497	angry	Picture	14.486	n/a	4	12	18	n/a	118	71	2	n/a	n/a	n/a	n/a	458.846	BM12HAS.jpg
429.983	0.514	Blank	Blank	13.972	n/a	4	12	18	n/a	118	n/a	2	n/a	n/a	n/a	n/a	459.344	n/a
430.514	0.497	angry	Picture	13.458	n/a	4	12	19	n/a	119	69	2	n/a	n/a	n/a	n/a	459.874	AM10HAS.jpg
431.011	0.514	Blank	Blank	12.944	n/a	4	12	19	n/a	119	n/a	2	n/a	n/a	n/a	n/a	460.372	n/a
431.542	0.497	angry	Picture	12.43	n/a	4	12	20	n/a	120	46	2	n/a	n/a	n/a	n/a	460.902	AF09HAS.jpg
432.039	0.514	Blank	Blank	11.916	n/a	4	12	20	n/a	120	n/a	2	n/a	n/a	n/a	n/a	461.399	n/a
432.569	10.014	ITI	Fixation+	1.886	n/a	4	n/a	n/a	n/a	n/a	n/a	n/a	n/a	n/a	n/a	n/a	461.93	n/a
444.469	n/a	ConfirmRating	Rate	n/a	1.873	4	n/a	n/a	0	n/a	n/a	n/a	2	Angry	19	47	473.83	n/a
446.575	n/a	ConfirmRating	Rate	n/a	2.089	4	n/a	n/a	1	n/a	n/a	n/a	3	Angry	9	47	475.936	n/a
