onset	duration	trial_type	event_type	time_until_response	response_time	trial_number	block_num_within_trial	image_seq_num_within_block	question_seq_num_within_block	image_seq_num	picture_number	condition	question_type	block_type	rating	rating_computed	onset_uncorrected	KDEV_imagefile
0.012	10.014	ITI	Fixation+	103.291	n/a	1	n/a	n/a	n/a	n/a	n/a	n/a	n/a	n/a	n/a	n/a	30.533	n/a
10.042	0.497	happy	Picture	102.777	n/a	1	1	1	n/a	1	108	3	n/a	n/a	n/a	n/a	40.563	AM09ANS.jpg
10.539	0.514	Blank	Blank	102.263	n/a	1	1	1	n/a	1	n/a	3	n/a	n/a	n/a	n/a	41.06	n/a
11.07	0.497	happy	Picture	101.749	n/a	1	1	2	n/a	2	99	3	n/a	n/a	n/a	n/a	41.591	AF31ANS.jpg
11.567	0.514	Blank	Blank	101.235	n/a	1	1	2	n/a	2	n/a	3	n/a	n/a	n/a	n/a	42.088	n/a
12.098	0.497	happy	Picture	100.721	n/a	1	1	3	n/a	3	98	3	n/a	n/a	n/a	n/a	42.619	BF29ANS.jpg
12.595	0.514	Blank	Blank	100.207	n/a	1	1	3	n/a	3	n/a	3	n/a	n/a	n/a	n/a	43.116	n/a
13.126	0.497	happy	Picture	99.693	n/a	1	1	4	n/a	4	107	3	n/a	n/a	n/a	n/a	43.647	BM08ANS.jpg
13.623	0.514	Blank	Blank	99.179	n/a	1	1	4	n/a	4	n/a	3	n/a	n/a	n/a	n/a	44.144	n/a
14.154	0.497	happy	Picture	98.666	n/a	1	1	5	n/a	5	104	3	n/a	n/a	n/a	n/a	44.675	BM05ANS.jpg
14.651	0.514	Blank	Blank	98.152	n/a	1	1	5	n/a	5	n/a	3	n/a	n/a	n/a	n/a	45.172	n/a
15.181	0.497	happy	Picture	97.638	n/a	1	1	6	n/a	6	101	3	n/a	n/a	n/a	n/a	45.703	AM01ANS.jpg
15.679	0.514	Blank	Blank	97.124	n/a	1	1	6	n/a	6	n/a	3	n/a	n/a	n/a	n/a	46.2	n/a
16.209	0.497	happy	Picture	96.61	n/a	1	1	7	n/a	7	103	3	n/a	n/a	n/a	n/a	46.73	AM04ANS.jpg
16.707	0.514	Blank	Blank	96.096	n/a	1	1	7	n/a	7	n/a	3	n/a	n/a	n/a	n/a	47.228	n/a
17.237	0.497	happy	Picture	95.582	n/a	1	1	8	n/a	8	111	3	n/a	n/a	n/a	n/a	47.758	BM12ANS.jpg
17.735	0.514	Blank	Blank	95.068	n/a	1	1	8	n/a	8	n/a	3	n/a	n/a	n/a	n/a	48.256	n/a
18.265	0.497	happy	Picture	94.554	n/a	1	1	9	n/a	9	110	3	n/a	n/a	n/a	n/a	48.786	AM11ANS.jpg
18.763	0.514	Blank	Blank	94.04	n/a	1	1	9	n/a	9	n/a	3	n/a	n/a	n/a	n/a	49.284	n/a
19.293	0.497	happy	Picture	93.526	n/a	1	1	10	n/a	10	85	3	n/a	n/a	n/a	n/a	49.814	BF07ANS.jpg
19.79	0.514	Blank	Blank	93.012	n/a	1	1	10	n/a	10	n/a	3	n/a	n/a	n/a	n/a	50.312	n/a
20.321	0.497	happy	Picture	92.498	n/a	1	1	11	n/a	11	87	3	n/a	n/a	n/a	n/a	50.842	BF11ANS.jpg
20.818	0.514	Blank	Blank	91.984	n/a	1	1	11	n/a	11	n/a	3	n/a	n/a	n/a	n/a	51.339	n/a
21.349	0.497	happy	Picture	91.47	n/a	1	1	12	n/a	12	91	3	n/a	n/a	n/a	n/a	51.87	AF20ANS.jpg
21.846	0.514	Blank	Blank	90.956	n/a	1	1	12	n/a	12	n/a	3	n/a	n/a	n/a	n/a	52.367	n/a
22.377	0.497	happy	Picture	90.442	n/a	1	1	13	n/a	13	115	3	n/a	n/a	n/a	n/a	52.898	AM23ANS.jpg
22.874	0.514	Blank	Blank	89.928	n/a	1	1	13	n/a	13	n/a	3	n/a	n/a	n/a	n/a	53.395	n/a
23.404	0.497	happy	Picture	89.415	n/a	1	1	14	n/a	14	97	3	n/a	n/a	n/a	n/a	53.926	BF28ANS.jpg
23.902	0.514	Blank	Blank	88.901	n/a	1	1	14	n/a	14	n/a	3	n/a	n/a	n/a	n/a	54.423	n/a
24.432	0.497	happy	Picture	88.387	n/a	1	1	15	n/a	15	82	3	n/a	n/a	n/a	n/a	54.954	AF03ANS.jpg
24.93	0.514	Blank	Blank	87.873	n/a	1	1	15	n/a	15	n/a	3	n/a	n/a	n/a	n/a	55.451	n/a
25.46	0.497	happy	Picture	87.359	n/a	1	1	16	n/a	16	96	3	n/a	n/a	n/a	n/a	55.981	AF26ANS.jpg
25.958	0.514	Blank	Blank	86.845	n/a	1	1	16	n/a	16	n/a	3	n/a	n/a	n/a	n/a	56.479	n/a
26.488	0.497	happy	Picture	86.331	n/a	1	1	17	n/a	17	109	3	n/a	n/a	n/a	n/a	57.009	AM10ANS.jpg
26.986	0.514	Blank	Blank	85.817	n/a	1	1	17	n/a	17	n/a	3	n/a	n/a	n/a	n/a	57.507	n/a
27.516	0.497	happy	Picture	85.303	n/a	1	1	18	n/a	18	114	3	n/a	n/a	n/a	n/a	58.037	AM22ANS.jpg
28.014	0.514	Blank	Blank	84.789	n/a	1	1	18	n/a	18	n/a	3	n/a	n/a	n/a	n/a	58.535	n/a
28.544	0.497	happy	Picture	84.275	n/a	1	1	19	n/a	19	120	3	n/a	n/a	n/a	n/a	59.065	AM35ANS.jpg
29.041	0.514	Blank	Blank	83.761	n/a	1	1	19	n/a	19	n/a	3	n/a	n/a	n/a	n/a	59.563	n/a
29.572	0.497	happy	Picture	83.247	n/a	1	1	20	n/a	20	81	3	n/a	n/a	n/a	n/a	60.093	AF01ANS.jpg
30.069	0.514	Blank	Blank	82.733	n/a	1	1	20	n/a	20	n/a	3	n/a	n/a	n/a	n/a	60.59	n/a
30.6	10.014	ITI	Fixation+	72.703	n/a	1	n/a	n/a	n/a	n/a	n/a	n/a	n/a	n/a	n/a	n/a	61.121	n/a
40.63	0.497	neutral	Picture	72.189	n/a	1	2	1	n/a	21	28	1	n/a	n/a	n/a	n/a	71.151	AM09NES.jpg
41.127	0.514	Blank	Blank	71.675	n/a	1	2	1	n/a	21	n/a	1	n/a	n/a	n/a	n/a	71.649	n/a
41.658	0.497	neutral	Picture	71.161	n/a	1	2	2	n/a	22	27	1	n/a	n/a	n/a	n/a	72.179	BM08NES.jpg
42.155	0.514	Blank	Blank	70.647	n/a	1	2	2	n/a	22	n/a	1	n/a	n/a	n/a	n/a	72.676	n/a
42.686	0.497	neutral	Picture	70.133	n/a	1	2	3	n/a	23	16	1	n/a	n/a	n/a	n/a	73.207	AF26NES.jpg
43.183	0.514	Blank	Blank	69.619	n/a	1	2	3	n/a	23	n/a	1	n/a	n/a	n/a	n/a	73.704	n/a
43.714	0.497	neutral	Picture	69.105	n/a	1	2	4	n/a	24	3	1	n/a	n/a	n/a	n/a	74.235	BF04NES.jpg
44.211	0.514	Blank	Blank	68.591	n/a	1	2	4	n/a	24	n/a	1	n/a	n/a	n/a	n/a	74.732	n/a
44.742	0.497	neutral	Picture	68.078	n/a	1	2	5	n/a	25	32	1	n/a	n/a	n/a	n/a	75.263	AM14NES.jpg
45.239	0.514	Blank	Blank	67.564	n/a	1	2	5	n/a	25	n/a	1	n/a	n/a	n/a	n/a	75.76	n/a
45.769	0.497	neutral	Picture	67.05	n/a	1	2	6	n/a	26	37	1	n/a	n/a	n/a	n/a	76.291	BM25NES.jpg
46.267	0.514	Blank	Blank	66.536	n/a	1	2	6	n/a	26	n/a	1	n/a	n/a	n/a	n/a	76.788	n/a
46.797	0.497	neutral	Picture	66.022	n/a	1	2	7	n/a	27	15	1	n/a	n/a	n/a	n/a	77.319	AF25NES.jpg
47.295	0.514	Blank	Blank	65.508	n/a	1	2	7	n/a	27	n/a	1	n/a	n/a	n/a	n/a	77.816	n/a
47.825	0.497	neutral	Picture	64.994	n/a	1	2	8	n/a	28	23	1	n/a	n/a	n/a	n/a	78.346	AM04NES.jpg
48.323	0.514	Blank	Blank	64.48	n/a	1	2	8	n/a	28	n/a	1	n/a	n/a	n/a	n/a	78.844	n/a
48.853	0.497	neutral	Picture	63.966	n/a	1	2	9	n/a	29	34	1	n/a	n/a	n/a	n/a	79.374	AM22NES.jpg
49.351	0.514	Blank	Blank	63.452	n/a	1	2	9	n/a	29	n/a	1	n/a	n/a	n/a	n/a	79.872	n/a
49.881	0.497	neutral	Picture	62.938	n/a	1	2	10	n/a	30	24	1	n/a	n/a	n/a	n/a	80.402	BM05NES.jpg
50.378	0.514	Blank	Blank	62.424	n/a	1	2	10	n/a	30	n/a	1	n/a	n/a	n/a	n/a	80.9	n/a
50.909	0.497	neutral	Picture	61.91	n/a	1	2	11	n/a	31	12	1	n/a	n/a	n/a	n/a	81.43	AF21NES.jpg
51.406	0.514	Blank	Blank	61.396	n/a	1	2	11	n/a	31	n/a	1	n/a	n/a	n/a	n/a	81.927	n/a
51.937	0.497	neutral	Picture	60.882	n/a	1	2	12	n/a	32	6	1	n/a	n/a	n/a	n/a	82.458	AF09NES.jpg
52.434	0.514	Blank	Blank	60.368	n/a	1	2	12	n/a	32	n/a	1	n/a	n/a	n/a	n/a	82.955	n/a
52.965	0.497	neutral	Picture	59.854	n/a	1	2	13	n/a	33	17	1	n/a	n/a	n/a	n/a	83.486	BF28NES.jpg
53.462	0.514	Blank	Blank	59.34	n/a	1	2	13	n/a	33	n/a	1	n/a	n/a	n/a	n/a	83.983	n/a
53.993	0.497	neutral	Picture	58.827	n/a	1	2	14	n/a	34	2	1	n/a	n/a	n/a	n/a	84.514	AF03NES.jpg
54.49	0.514	Blank	Blank	58.313	n/a	1	2	14	n/a	34	n/a	1	n/a	n/a	n/a	n/a	85.011	n/a
55.021	0.497	neutral	Picture	57.799	n/a	1	2	15	n/a	35	9	1	n/a	n/a	n/a	n/a	85.542	AF17NES.jpg
55.518	0.514	Blank	Blank	57.285	n/a	1	2	15	n/a	35	n/a	1	n/a	n/a	n/a	n/a	86.039	n/a
56.048	0.497	neutral	Picture	56.771	n/a	1	2	16	n/a	36	25	1	n/a	n/a	n/a	n/a	86.57	BM06NES.jpg
56.546	0.514	Blank	Blank	56.257	n/a	1	2	16	n/a	36	n/a	1	n/a	n/a	n/a	n/a	87.067	n/a
57.076	0.497	neutral	Picture	55.743	n/a	1	2	17	n/a	37	8	1	n/a	n/a	n/a	n/a	87.597	AF14NES.jpg
57.574	0.514	Blank	Blank	55.229	n/a	1	2	17	n/a	37	n/a	1	n/a	n/a	n/a	n/a	88.095	n/a
58.104	0.497	neutral	Picture	54.715	n/a	1	2	18	n/a	38	19	1	n/a	n/a	n/a	n/a	88.625	AF31NES.jpg
58.601	0.514	Blank	Blank	54.201	n/a	1	2	18	n/a	38	n/a	1	n/a	n/a	n/a	n/a	89.123	n/a
59.132	0.497	neutral	Picture	53.687	n/a	1	2	19	n/a	39	14	1	n/a	n/a	n/a	n/a	89.653	AF23NES.jpg
59.629	0.514	Blank	Blank	53.173	n/a	1	2	19	n/a	39	n/a	1	n/a	n/a	n/a	n/a	90.151	n/a
60.16	0.497	neutral	Picture	52.659	n/a	1	2	20	n/a	40	4	1	n/a	n/a	n/a	n/a	90.681	AF05NES.jpg
60.657	0.514	Blank	Blank	52.145	n/a	1	2	20	n/a	40	n/a	1	n/a	n/a	n/a	n/a	91.178	n/a
61.188	10.014	ITI	Fixation+	42.115	n/a	1	n/a	n/a	n/a	n/a	n/a	n/a	n/a	n/a	n/a	n/a	91.709	n/a
71.218	0.497	happy	Picture	41.601	n/a	1	3	1	n/a	41	84	3	n/a	n/a	n/a	n/a	101.739	AF05ANS.jpg
71.715	0.514	Blank	Blank	41.087	n/a	1	3	1	n/a	41	n/a	3	n/a	n/a	n/a	n/a	102.237	n/a
72.246	0.497	happy	Picture	40.573	n/a	1	3	2	n/a	42	92	3	n/a	n/a	n/a	n/a	102.767	AF21ANS.jpg
72.743	0.514	Blank	Blank	40.059	n/a	1	3	2	n/a	42	n/a	3	n/a	n/a	n/a	n/a	103.264	n/a
73.274	0.497	happy	Picture	39.545	n/a	1	3	3	n/a	43	86	3	n/a	n/a	n/a	n/a	103.795	AF09ANS.jpg
73.771	0.514	Blank	Blank	39.031	n/a	1	3	3	n/a	43	n/a	3	n/a	n/a	n/a	n/a	104.292	n/a
74.302	0.497	happy	Picture	38.517	n/a	1	3	4	n/a	44	93	3	n/a	n/a	n/a	n/a	104.823	BF22ANS.jpg
74.799	0.514	Blank	Blank	38.003	n/a	1	3	4	n/a	44	n/a	3	n/a	n/a	n/a	n/a	105.32	n/a
75.33	0.497	happy	Picture	37.49	n/a	1	3	5	n/a	45	88	3	n/a	n/a	n/a	n/a	105.851	AF14ANS.jpg
75.827	0.514	Blank	Blank	36.976	n/a	1	3	5	n/a	45	n/a	3	n/a	n/a	n/a	n/a	106.348	n/a
76.357	0.497	happy	Picture	36.462	n/a	1	3	6	n/a	46	113	3	n/a	n/a	n/a	n/a	106.879	AM21ANS.jpg
76.855	0.514	Blank	Blank	35.948	n/a	1	3	6	n/a	46	n/a	3	n/a	n/a	n/a	n/a	107.376	n/a
77.385	0.497	happy	Picture	35.434	n/a	1	3	7	n/a	47	95	3	n/a	n/a	n/a	n/a	107.907	AF25ANS.jpg
77.883	0.514	Blank	Blank	34.92	n/a	1	3	7	n/a	47	n/a	3	n/a	n/a	n/a	n/a	108.404	n/a
78.413	0.497	happy	Picture	34.406	n/a	1	3	8	n/a	48	102	3	n/a	n/a	n/a	n/a	108.934	BM03ANS.jpg
78.911	0.514	Blank	Blank	33.892	n/a	1	3	8	n/a	48	n/a	3	n/a	n/a	n/a	n/a	109.432	n/a
79.441	0.497	happy	Picture	33.378	n/a	1	3	9	n/a	49	112	3	n/a	n/a	n/a	n/a	109.962	AM14ANS.jpg
79.939	0.514	Blank	Blank	32.864	n/a	1	3	9	n/a	49	n/a	3	n/a	n/a	n/a	n/a	110.46	n/a
80.469	0.497	happy	Picture	32.35	n/a	1	3	10	n/a	50	83	3	n/a	n/a	n/a	n/a	110.99	BF04ANS.jpg
80.966	0.514	Blank	Blank	31.836	n/a	1	3	10	n/a	50	n/a	3	n/a	n/a	n/a	n/a	111.488	n/a
81.497	0.497	happy	Picture	31.322	n/a	1	3	11	n/a	51	90	3	n/a	n/a	n/a	n/a	112.018	AF18ANS.jpg
81.994	0.514	Blank	Blank	30.808	n/a	1	3	11	n/a	51	n/a	3	n/a	n/a	n/a	n/a	112.516	n/a
82.525	0.497	happy	Picture	30.294	n/a	1	3	12	n/a	52	117	3	n/a	n/a	n/a	n/a	113.046	BM25ANS.jpg
83.022	0.514	Blank	Blank	29.78	n/a	1	3	12	n/a	52	n/a	3	n/a	n/a	n/a	n/a	113.543	n/a
83.553	0.497	happy	Picture	29.266	n/a	1	3	13	n/a	53	94	3	n/a	n/a	n/a	n/a	114.074	AF23ANS.jpg
84.05	0.514	Blank	Blank	28.752	n/a	1	3	13	n/a	53	n/a	3	n/a	n/a	n/a	n/a	114.571	n/a
84.581	0.497	happy	Picture	28.238	n/a	1	3	14	n/a	54	106	3	n/a	n/a	n/a	n/a	115.102	AM07ANS.jpg
85.078	0.514	Blank	Blank	27.725	n/a	1	3	14	n/a	54	n/a	3	n/a	n/a	n/a	n/a	115.599	n/a
85.608	0.497	happy	Picture	27.211	n/a	1	3	15	n/a	55	105	3	n/a	n/a	n/a	n/a	116.13	BM06ANS.jpg
86.106	0.514	Blank	Blank	26.697	n/a	1	3	15	n/a	55	n/a	3	n/a	n/a	n/a	n/a	116.627	n/a
86.636	0.497	happy	Picture	26.183	n/a	1	3	16	n/a	56	116	3	n/a	n/a	n/a	n/a	117.158	BM24ANS.jpg
87.134	0.514	Blank	Blank	25.669	n/a	1	3	16	n/a	56	n/a	3	n/a	n/a	n/a	n/a	117.655	n/a
87.664	0.497	happy	Picture	25.155	n/a	1	3	17	n/a	57	89	3	n/a	n/a	n/a	n/a	118.186	AF17ANS.jpg
88.162	0.514	Blank	Blank	24.641	n/a	1	3	17	n/a	57	n/a	3	n/a	n/a	n/a	n/a	118.683	n/a
88.692	0.497	happy	Picture	24.127	n/a	1	3	18	n/a	58	118	3	n/a	n/a	n/a	n/a	119.213	BM26ANS.jpg
89.19	0.514	Blank	Blank	23.613	n/a	1	3	18	n/a	58	n/a	3	n/a	n/a	n/a	n/a	119.711	n/a
89.72	0.497	happy	Picture	23.099	n/a	1	3	19	n/a	59	100	3	n/a	n/a	n/a	n/a	120.241	AF32ANS.jpg
90.217	0.514	Blank	Blank	22.585	n/a	1	3	19	n/a	59	n/a	3	n/a	n/a	n/a	n/a	120.739	n/a
90.748	0.497	happy	Picture	22.071	n/a	1	3	20	n/a	60	119	3	n/a	n/a	n/a	n/a	121.269	BM28ANS.jpg
91.245	0.514	Blank	Blank	21.557	n/a	1	3	20	n/a	60	n/a	3	n/a	n/a	n/a	n/a	121.766	n/a
91.776	10.014	ITI	Fixation+	11.527	n/a	1	n/a	n/a	n/a	n/a	n/a	n/a	n/a	n/a	n/a	n/a	122.297	n/a
113.316	n/a	ConfirmRating	Rate	n/a	11.489	1	n/a	n/a	0	n/a	n/a	n/a	2	Happy	44	49	143.838	n/a
116.582	n/a	ConfirmRating	Rate	n/a	3.249	1	n/a	n/a	1	n/a	n/a	n/a	3	Happy	0	48	147.104	n/a
116.611	10.014	ITI	Fixation+	104.728	n/a	2	n/a	n/a	n/a	n/a	n/a	n/a	n/a	n/a	n/a	n/a	147.132	n/a
126.641	0.497	angry	Picture	104.214	n/a	2	4	1	n/a	61	79	2	n/a	n/a	n/a	n/a	157.162	BM28HAS.jpg
127.139	0.514	Blank	Blank	103.7	n/a	2	4	1	n/a	61	n/a	2	n/a	n/a	n/a	n/a	157.66	n/a
127.669	0.497	angry	Picture	103.186	n/a	2	4	2	n/a	62	61	2	n/a	n/a	n/a	n/a	158.19	AM01HAS.jpg
128.166	0.514	Blank	Blank	102.672	n/a	2	4	2	n/a	62	n/a	2	n/a	n/a	n/a	n/a	158.688	n/a
128.697	0.497	angry	Picture	102.158	n/a	2	4	3	n/a	63	57	2	n/a	n/a	n/a	n/a	159.218	BF28HAS.jpg
129.194	0.514	Blank	Blank	101.644	n/a	2	4	3	n/a	63	n/a	2	n/a	n/a	n/a	n/a	159.715	n/a
129.725	0.497	angry	Picture	101.13	n/a	2	4	4	n/a	64	77	2	n/a	n/a	n/a	n/a	160.246	BM25HAS.jpg
130.222	0.514	Blank	Blank	100.616	n/a	2	4	4	n/a	64	n/a	2	n/a	n/a	n/a	n/a	160.743	n/a
130.753	0.497	angry	Picture	100.102	n/a	2	4	5	n/a	65	47	2	n/a	n/a	n/a	n/a	161.274	BF11HAS.jpg
131.25	0.514	Blank	Blank	99.588	n/a	2	4	5	n/a	65	n/a	2	n/a	n/a	n/a	n/a	161.771	n/a
131.781	0.497	angry	Picture	99.074	n/a	2	4	6	n/a	66	50	2	n/a	n/a	n/a	n/a	162.302	AF18HAS.jpg
132.278	0.514	Blank	Blank	98.56	n/a	2	4	6	n/a	66	n/a	2	n/a	n/a	n/a	n/a	162.799	n/a
132.809	0.497	angry	Picture	98.046	n/a	2	4	7	n/a	67	78	2	n/a	n/a	n/a	n/a	163.33	BM26HAS.jpg
133.306	0.514	Blank	Blank	97.532	n/a	2	4	7	n/a	67	n/a	2	n/a	n/a	n/a	n/a	163.827	n/a
133.836	0.497	angry	Picture	97.018	n/a	2	4	8	n/a	68	45	2	n/a	n/a	n/a	n/a	164.358	BF07HAS.jpg
134.334	0.514	Blank	Blank	96.505	n/a	2	4	8	n/a	68	n/a	2	n/a	n/a	n/a	n/a	164.855	n/a
134.864	0.497	angry	Picture	95.99	n/a	2	4	9	n/a	69	56	2	n/a	n/a	n/a	n/a	165.386	AF26HAS.jpg
135.362	0.514	Blank	Blank	95.477	n/a	2	4	9	n/a	69	n/a	2	n/a	n/a	n/a	n/a	165.883	n/a
135.892	0.497	angry	Picture	94.963	n/a	2	4	10	n/a	70	65	2	n/a	n/a	n/a	n/a	166.413	BM06HAS.jpg
136.39	0.514	Blank	Blank	94.449	n/a	2	4	10	n/a	70	n/a	2	n/a	n/a	n/a	n/a	166.911	n/a
136.92	0.497	angry	Picture	93.935	n/a	2	4	11	n/a	71	73	2	n/a	n/a	n/a	n/a	167.441	AM21HAS.jpg
137.418	0.514	Blank	Blank	93.421	n/a	2	4	11	n/a	71	n/a	2	n/a	n/a	n/a	n/a	167.939	n/a
137.948	0.497	angry	Picture	92.907	n/a	2	4	12	n/a	72	41	2	n/a	n/a	n/a	n/a	168.469	AF01HAS.jpg
138.445	0.514	Blank	Blank	92.393	n/a	2	4	12	n/a	72	n/a	2	n/a	n/a	n/a	n/a	168.966	n/a
138.976	0.497	angry	Picture	91.879	n/a	2	4	13	n/a	73	59	2	n/a	n/a	n/a	n/a	169.497	AF31HAS.jpg
139.473	0.514	Blank	Blank	91.365	n/a	2	4	13	n/a	73	n/a	2	n/a	n/a	n/a	n/a	169.994	n/a
140.004	0.497	angry	Picture	90.851	n/a	2	4	14	n/a	74	64	2	n/a	n/a	n/a	n/a	170.525	BM05HAS.jpg
140.501	0.514	Blank	Blank	90.337	n/a	2	4	14	n/a	74	n/a	2	n/a	n/a	n/a	n/a	171.022	n/a
141.032	0.497	angry	Picture	89.823	n/a	2	4	15	n/a	75	68	2	n/a	n/a	n/a	n/a	171.553	AM09HAS.jpg
141.529	0.514	Blank	Blank	89.309	n/a	2	4	15	n/a	75	n/a	2	n/a	n/a	n/a	n/a	172.05	n/a
142.06	0.497	angry	Picture	88.795	n/a	2	4	16	n/a	76	54	2	n/a	n/a	n/a	n/a	172.581	AF23HAS.jpg
142.557	0.514	Blank	Blank	88.281	n/a	2	4	16	n/a	76	n/a	2	n/a	n/a	n/a	n/a	173.078	n/a
143.087	0.497	angry	Picture	87.767	n/a	2	4	17	n/a	77	53	2	n/a	n/a	n/a	n/a	173.609	BF22HAS.jpg
143.585	0.514	Blank	Blank	87.254	n/a	2	4	17	n/a	77	n/a	2	n/a	n/a	n/a	n/a	174.106	n/a
144.115	0.497	angry	Picture	86.739	n/a	2	4	18	n/a	78	44	2	n/a	n/a	n/a	n/a	174.637	AF05HAS.jpg
144.613	0.514	Blank	Blank	86.226	n/a	2	4	18	n/a	78	n/a	2	n/a	n/a	n/a	n/a	175.134	n/a
145.143	0.497	angry	Picture	85.712	n/a	2	4	19	n/a	79	52	2	n/a	n/a	n/a	n/a	175.664	AF21HAS.jpg
145.641	0.514	Blank	Blank	85.198	n/a	2	4	19	n/a	79	n/a	2	n/a	n/a	n/a	n/a	176.162	n/a
146.171	0.497	angry	Picture	84.684	n/a	2	4	20	n/a	80	62	2	n/a	n/a	n/a	n/a	176.692	BM03HAS.jpg
146.668	0.514	Blank	Blank	84.17	n/a	2	4	20	n/a	80	n/a	2	n/a	n/a	n/a	n/a	177.19	n/a
147.199	10.014	ITI	Fixation+	74.14	n/a	2	n/a	n/a	n/a	n/a	n/a	n/a	n/a	n/a	n/a	n/a	177.72	n/a
157.229	0.497	neutral	Picture	73.626	n/a	2	5	1	n/a	81	23	1	n/a	n/a	n/a	n/a	187.75	AM04NES.jpg
157.727	0.514	Blank	Blank	73.112	n/a	2	5	1	n/a	81	n/a	1	n/a	n/a	n/a	n/a	188.248	n/a
158.257	0.497	neutral	Picture	72.598	n/a	2	5	2	n/a	82	29	1	n/a	n/a	n/a	n/a	188.778	AM10NES.jpg
158.755	0.514	Blank	Blank	72.084	n/a	2	5	2	n/a	82	n/a	1	n/a	n/a	n/a	n/a	189.276	n/a
159.285	0.497	neutral	Picture	71.57	n/a	2	5	3	n/a	83	24	1	n/a	n/a	n/a	n/a	189.806	BM05NES.jpg
159.782	0.514	Blank	Blank	71.056	n/a	2	5	3	n/a	83	n/a	1	n/a	n/a	n/a	n/a	190.304	n/a
160.313	0.497	neutral	Picture	70.542	n/a	2	5	4	n/a	84	12	1	n/a	n/a	n/a	n/a	190.834	AF21NES.jpg
160.81	0.514	Blank	Blank	70.028	n/a	2	5	4	n/a	84	n/a	1	n/a	n/a	n/a	n/a	191.332	n/a
161.341	0.497	neutral	Picture	69.514	n/a	2	5	5	n/a	85	13	1	n/a	n/a	n/a	n/a	191.862	BF22NES.jpg
161.838	0.514	Blank	Blank	69.0	n/a	2	5	5	n/a	85	n/a	1	n/a	n/a	n/a	n/a	192.359	n/a
162.369	0.497	neutral	Picture	68.486	n/a	2	5	6	n/a	86	17	1	n/a	n/a	n/a	n/a	192.89	BF28NES.jpg
162.866	0.514	Blank	Blank	67.972	n/a	2	5	6	n/a	86	n/a	1	n/a	n/a	n/a	n/a	193.387	n/a
163.397	0.497	neutral	Picture	67.458	n/a	2	5	7	n/a	87	4	1	n/a	n/a	n/a	n/a	193.918	AF05NES.jpg
163.894	0.514	Blank	Blank	66.944	n/a	2	5	7	n/a	87	n/a	1	n/a	n/a	n/a	n/a	194.415	n/a
164.424	0.497	neutral	Picture	66.43	n/a	2	5	8	n/a	88	11	1	n/a	n/a	n/a	n/a	194.946	AF20NES.jpg
164.922	0.514	Blank	Blank	65.916	n/a	2	5	8	n/a	88	n/a	1	n/a	n/a	n/a	n/a	195.443	n/a
165.452	0.497	neutral	Picture	65.403	n/a	2	5	9	n/a	89	22	1	n/a	n/a	n/a	n/a	195.974	BM03NES.jpg
165.95	0.514	Blank	Blank	64.889	n/a	2	5	9	n/a	89	n/a	1	n/a	n/a	n/a	n/a	196.471	n/a
166.48	0.497	neutral	Picture	64.375	n/a	2	5	10	n/a	90	15	1	n/a	n/a	n/a	n/a	197.001	AF25NES.jpg
166.978	0.514	Blank	Blank	63.861	n/a	2	5	10	n/a	90	n/a	1	n/a	n/a	n/a	n/a	197.499	n/a
167.508	0.497	neutral	Picture	63.347	n/a	2	5	11	n/a	91	19	1	n/a	n/a	n/a	n/a	198.029	AF31NES.jpg
168.006	0.514	Blank	Blank	62.833	n/a	2	5	11	n/a	91	n/a	1	n/a	n/a	n/a	n/a	198.527	n/a
168.536	0.497	neutral	Picture	62.319	n/a	2	5	12	n/a	92	9	1	n/a	n/a	n/a	n/a	199.057	AF17NES.jpg
169.033	0.514	Blank	Blank	61.805	n/a	2	5	12	n/a	92	n/a	1	n/a	n/a	n/a	n/a	199.555	n/a
169.564	0.497	neutral	Picture	61.291	n/a	2	5	13	n/a	93	14	1	n/a	n/a	n/a	n/a	200.085	AF23NES.jpg
170.061	0.514	Blank	Blank	60.777	n/a	2	5	13	n/a	93	n/a	1	n/a	n/a	n/a	n/a	200.583	n/a
170.592	0.497	neutral	Picture	60.263	n/a	2	5	14	n/a	94	36	1	n/a	n/a	n/a	n/a	201.113	BM24NES.jpg
171.089	0.514	Blank	Blank	59.749	n/a	2	5	14	n/a	94	n/a	1	n/a	n/a	n/a	n/a	201.61	n/a
171.62	0.497	neutral	Picture	59.235	n/a	2	5	15	n/a	95	34	1	n/a	n/a	n/a	n/a	202.141	AM22NES.jpg
172.117	0.514	Blank	Blank	58.721	n/a	2	5	15	n/a	95	n/a	1	n/a	n/a	n/a	n/a	202.638	n/a
172.648	0.497	neutral	Picture	58.207	n/a	2	5	16	n/a	96	10	1	n/a	n/a	n/a	n/a	203.169	AF18NES.jpg
173.145	0.514	Blank	Blank	57.693	n/a	2	5	16	n/a	96	n/a	1	n/a	n/a	n/a	n/a	203.666	n/a
173.675	0.497	neutral	Picture	57.179	n/a	2	5	17	n/a	97	5	1	n/a	n/a	n/a	n/a	204.197	BF07NES.jpg
174.173	0.514	Blank	Blank	56.665	n/a	2	5	17	n/a	97	n/a	1	n/a	n/a	n/a	n/a	204.694	n/a
174.703	0.497	neutral	Picture	56.151	n/a	2	5	18	n/a	98	25	1	n/a	n/a	n/a	n/a	205.225	BM06NES.jpg
175.201	0.514	Blank	Blank	55.637	n/a	2	5	18	n/a	98	n/a	1	n/a	n/a	n/a	n/a	205.722	n/a
175.731	0.497	neutral	Picture	55.124	n/a	2	5	19	n/a	99	39	1	n/a	n/a	n/a	n/a	206.252	AM28NES.jpg
176.229	0.514	Blank	Blank	54.61	n/a	2	5	19	n/a	99	n/a	1	n/a	n/a	n/a	n/a	206.75	n/a
176.759	0.497	neutral	Picture	54.096	n/a	2	5	20	n/a	100	33	1	n/a	n/a	n/a	n/a	207.28	AM21NES.jpg
177.257	0.514	Blank	Blank	53.582	n/a	2	5	20	n/a	100	n/a	1	n/a	n/a	n/a	n/a	207.778	n/a
177.787	10.014	ITI	Fixation+	43.552	n/a	2	n/a	n/a	n/a	n/a	n/a	n/a	n/a	n/a	n/a	n/a	208.308	n/a
187.817	0.497	angry	Picture	43.038	n/a	2	6	1	n/a	101	74	2	n/a	n/a	n/a	n/a	218.338	AM22HAS.jpg
188.315	0.514	Blank	Blank	42.524	n/a	2	6	1	n/a	101	n/a	2	n/a	n/a	n/a	n/a	218.836	n/a
188.845	0.497	angry	Picture	42.01	n/a	2	6	2	n/a	102	76	2	n/a	n/a	n/a	n/a	219.366	BM24HAS.jpg
189.343	0.514	Blank	Blank	41.496	n/a	2	6	2	n/a	102	n/a	2	n/a	n/a	n/a	n/a	219.864	n/a
189.873	0.497	angry	Picture	40.982	n/a	2	6	3	n/a	103	80	2	n/a	n/a	n/a	n/a	220.394	BM35HAS.jpg
190.37	0.514	Blank	Blank	40.468	n/a	2	6	3	n/a	103	n/a	2	n/a	n/a	n/a	n/a	220.892	n/a
190.901	0.497	angry	Picture	39.954	n/a	2	6	4	n/a	104	75	2	n/a	n/a	n/a	n/a	221.422	AM23HAS.jpg
191.398	0.514	Blank	Blank	39.44	n/a	2	6	4	n/a	104	n/a	2	n/a	n/a	n/a	n/a	221.919	n/a
191.929	0.497	angry	Picture	38.926	n/a	2	6	5	n/a	105	49	2	n/a	n/a	n/a	n/a	222.45	AF17HAS.jpg
192.426	0.514	Blank	Blank	38.412	n/a	2	6	5	n/a	105	n/a	2	n/a	n/a	n/a	n/a	222.947	n/a
192.957	0.497	angry	Picture	37.898	n/a	2	6	6	n/a	106	43	2	n/a	n/a	n/a	n/a	223.478	BF04HAS.jpg
193.454	0.514	Blank	Blank	37.384	n/a	2	6	6	n/a	106	n/a	2	n/a	n/a	n/a	n/a	223.975	n/a
193.985	0.497	angry	Picture	36.87	n/a	2	6	7	n/a	107	70	2	n/a	n/a	n/a	n/a	224.506	BM11HAS.jpg
194.482	0.514	Blank	Blank	36.356	n/a	2	6	7	n/a	107	n/a	2	n/a	n/a	n/a	n/a	225.003	n/a
195.013	0.497	angry	Picture	35.842	n/a	2	6	8	n/a	108	66	2	n/a	n/a	n/a	n/a	225.534	BM07HAS.jpg
195.51	0.514	Blank	Blank	35.328	n/a	2	6	8	n/a	108	n/a	2	n/a	n/a	n/a	n/a	226.031	n/a
196.04	0.497	angry	Picture	34.815	n/a	2	6	9	n/a	109	48	2	n/a	n/a	n/a	n/a	226.562	AF14HAS.jpg
196.538	0.514	Blank	Blank	34.3	n/a	2	6	9	n/a	109	n/a	2	n/a	n/a	n/a	n/a	227.059	n/a
197.068	0.497	angry	Picture	33.787	n/a	2	6	10	n/a	110	58	2	n/a	n/a	n/a	n/a	227.589	BF29HAS.jpg
197.566	0.514	Blank	Blank	33.273	n/a	2	6	10	n/a	110	n/a	2	n/a	n/a	n/a	n/a	228.087	n/a
198.096	0.497	angry	Picture	32.759	n/a	2	6	11	n/a	111	63	2	n/a	n/a	n/a	n/a	228.617	AM04HAS.jpg
198.594	0.514	Blank	Blank	32.245	n/a	2	6	11	n/a	111	n/a	2	n/a	n/a	n/a	n/a	229.115	n/a
199.124	0.497	angry	Picture	31.731	n/a	2	6	12	n/a	112	72	2	n/a	n/a	n/a	n/a	229.645	AM14HAS.jpg
199.621	0.514	Blank	Blank	31.217	n/a	2	6	12	n/a	112	n/a	2	n/a	n/a	n/a	n/a	230.143	n/a
200.152	0.497	angry	Picture	30.703	n/a	2	6	13	n/a	113	55	2	n/a	n/a	n/a	n/a	230.673	AF25HAS.jpg
200.649	0.514	Blank	Blank	30.189	n/a	2	6	13	n/a	113	n/a	2	n/a	n/a	n/a	n/a	231.171	n/a
201.18	0.497	angry	Picture	29.675	n/a	2	6	14	n/a	114	42	2	n/a	n/a	n/a	n/a	231.701	AF03HAS.jpg
201.677	0.514	Blank	Blank	29.161	n/a	2	6	14	n/a	114	n/a	2	n/a	n/a	n/a	n/a	232.198	n/a
202.208	0.497	angry	Picture	28.647	n/a	2	6	15	n/a	115	60	2	n/a	n/a	n/a	n/a	232.729	AF32HAS.jpg
202.705	0.514	Blank	Blank	28.133	n/a	2	6	15	n/a	115	n/a	2	n/a	n/a	n/a	n/a	233.226	n/a
203.236	0.497	angry	Picture	27.619	n/a	2	6	16	n/a	116	67	2	n/a	n/a	n/a	n/a	233.757	BM08HAS.jpg
203.733	0.514	Blank	Blank	27.105	n/a	2	6	16	n/a	116	n/a	2	n/a	n/a	n/a	n/a	234.254	n/a
204.263	0.497	angry	Picture	26.591	n/a	2	6	17	n/a	117	51	2	n/a	n/a	n/a	n/a	234.785	AF20HAS.jpg
204.761	0.514	Blank	Blank	26.077	n/a	2	6	17	n/a	117	n/a	2	n/a	n/a	n/a	n/a	235.282	n/a
205.291	0.497	angry	Picture	25.564	n/a	2	6	18	n/a	118	71	2	n/a	n/a	n/a	n/a	235.813	BM12HAS.jpg
205.789	0.514	Blank	Blank	25.049	n/a	2	6	18	n/a	118	n/a	2	n/a	n/a	n/a	n/a	236.31	n/a
206.319	0.497	angry	Picture	24.536	n/a	2	6	19	n/a	119	69	2	n/a	n/a	n/a	n/a	236.84	AM10HAS.jpg
206.817	0.514	Blank	Blank	24.022	n/a	2	6	19	n/a	119	n/a	2	n/a	n/a	n/a	n/a	237.338	n/a
207.347	0.497	angry	Picture	23.508	n/a	2	6	20	n/a	120	46	2	n/a	n/a	n/a	n/a	237.868	AF09HAS.jpg
207.845	0.514	Blank	Blank	22.994	n/a	2	6	20	n/a	120	n/a	2	n/a	n/a	n/a	n/a	238.366	n/a
208.375	10.014	ITI	Fixation+	12.964	n/a	2	n/a	n/a	n/a	n/a	n/a	n/a	n/a	n/a	n/a	n/a	238.896	n/a
231.352	n/a	ConfirmRating	Rate	n/a	12.948	2	n/a	n/a	0	n/a	n/a	n/a	2	Angry	31	49	261.873	n/a
234.142	n/a	ConfirmRating	Rate	n/a	2.785	2	n/a	n/a	1	n/a	n/a	n/a	3	Angry	19	48	264.663	n/a
234.172	15.004	Rest	Picture	n/a	n/a	n/a	n/a	n/a	n/a	n/a	n/a	n/a	0	n/a	0	0	264.693	n/a
249.192	10.014	ITI	Fixation+	95.305	n/a	3	n/a	n/a	n/a	n/a	n/a	n/a	n/a	n/a	n/a	n/a	279.713	n/a
259.222	0.497	happy	Picture	94.791	n/a	3	7	1	n/a	1	108	3	n/a	n/a	n/a	n/a	289.744	AM09ANS.jpg
259.72	0.514	Blank	Blank	94.277	n/a	3	7	1	n/a	1	n/a	3	n/a	n/a	n/a	n/a	290.241	n/a
260.25	0.497	happy	Picture	93.763	n/a	3	7	2	n/a	2	99	3	n/a	n/a	n/a	n/a	290.772	AF31ANS.jpg
260.748	0.514	Blank	Blank	93.249	n/a	3	7	2	n/a	2	n/a	3	n/a	n/a	n/a	n/a	291.269	n/a
261.278	0.497	happy	Picture	92.735	n/a	3	7	3	n/a	3	98	3	n/a	n/a	n/a	n/a	291.799	BF29ANS.jpg
261.776	0.514	Blank	Blank	92.221	n/a	3	7	3	n/a	3	n/a	3	n/a	n/a	n/a	n/a	292.297	n/a
262.306	0.497	happy	Picture	91.707	n/a	3	7	4	n/a	4	107	3	n/a	n/a	n/a	n/a	292.827	BM08ANS.jpg
262.803	0.514	Blank	Blank	91.194	n/a	3	7	4	n/a	4	n/a	3	n/a	n/a	n/a	n/a	293.325	n/a
263.334	0.497	happy	Picture	90.679	n/a	3	7	5	n/a	5	104	3	n/a	n/a	n/a	n/a	293.855	BM05ANS.jpg
263.831	0.514	Blank	Blank	90.166	n/a	3	7	5	n/a	5	n/a	3	n/a	n/a	n/a	n/a	294.353	n/a
264.362	0.497	happy	Picture	89.652	n/a	3	7	6	n/a	6	101	3	n/a	n/a	n/a	n/a	294.883	AM01ANS.jpg
264.859	0.514	Blank	Blank	89.138	n/a	3	7	6	n/a	6	n/a	3	n/a	n/a	n/a	n/a	295.38	n/a
265.39	0.497	happy	Picture	88.624	n/a	3	7	7	n/a	7	103	3	n/a	n/a	n/a	n/a	295.911	AM04ANS.jpg
265.887	0.514	Blank	Blank	88.11	n/a	3	7	7	n/a	7	n/a	3	n/a	n/a	n/a	n/a	296.408	n/a
266.418	0.497	happy	Picture	87.596	n/a	3	7	8	n/a	8	111	3	n/a	n/a	n/a	n/a	296.939	BM12ANS.jpg
266.915	0.514	Blank	Blank	87.082	n/a	3	7	8	n/a	8	n/a	3	n/a	n/a	n/a	n/a	297.436	n/a
267.446	0.497	happy	Picture	86.568	n/a	3	7	9	n/a	9	110	3	n/a	n/a	n/a	n/a	297.967	AM11ANS.jpg
267.943	0.514	Blank	Blank	86.054	n/a	3	7	9	n/a	9	n/a	3	n/a	n/a	n/a	n/a	298.464	n/a
268.474	0.497	happy	Picture	85.54	n/a	3	7	10	n/a	10	85	3	n/a	n/a	n/a	n/a	298.995	BF07ANS.jpg
268.971	0.514	Blank	Blank	85.026	n/a	3	7	10	n/a	10	n/a	3	n/a	n/a	n/a	n/a	299.492	n/a
269.501	0.497	happy	Picture	84.512	n/a	3	7	11	n/a	11	87	3	n/a	n/a	n/a	n/a	300.022	BF11ANS.jpg
269.999	0.514	Blank	Blank	83.998	n/a	3	7	11	n/a	11	n/a	3	n/a	n/a	n/a	n/a	300.52	n/a
270.529	0.497	happy	Picture	83.484	n/a	3	7	12	n/a	12	91	3	n/a	n/a	n/a	n/a	301.05	AF20ANS.jpg
271.027	0.514	Blank	Blank	82.97	n/a	3	7	12	n/a	12	n/a	3	n/a	n/a	n/a	n/a	301.548	n/a
271.557	0.497	happy	Picture	82.456	n/a	3	7	13	n/a	13	115	3	n/a	n/a	n/a	n/a	302.078	AM23ANS.jpg
272.054	0.514	Blank	Blank	81.943	n/a	3	7	13	n/a	13	n/a	3	n/a	n/a	n/a	n/a	302.576	n/a
272.585	0.497	happy	Picture	81.428	n/a	3	7	14	n/a	14	97	3	n/a	n/a	n/a	n/a	303.106	BF28ANS.jpg
273.082	0.514	Blank	Blank	80.915	n/a	3	7	14	n/a	14	n/a	3	n/a	n/a	n/a	n/a	303.604	n/a
273.613	0.497	happy	Picture	80.401	n/a	3	7	15	n/a	15	82	3	n/a	n/a	n/a	n/a	304.134	AF03ANS.jpg
274.11	0.514	Blank	Blank	79.887	n/a	3	7	15	n/a	15	n/a	3	n/a	n/a	n/a	n/a	304.632	n/a
274.641	0.497	happy	Picture	79.373	n/a	3	7	16	n/a	16	96	3	n/a	n/a	n/a	n/a	305.162	AF26ANS.jpg
275.138	0.514	Blank	Blank	78.859	n/a	3	7	16	n/a	16	n/a	3	n/a	n/a	n/a	n/a	305.659	n/a
275.669	0.497	happy	Picture	78.345	n/a	3	7	17	n/a	17	109	3	n/a	n/a	n/a	n/a	306.19	AM10ANS.jpg
276.166	0.514	Blank	Blank	77.831	n/a	3	7	17	n/a	17	n/a	3	n/a	n/a	n/a	n/a	306.687	n/a
276.697	0.497	happy	Picture	77.317	n/a	3	7	18	n/a	18	114	3	n/a	n/a	n/a	n/a	307.218	AM22ANS.jpg
277.194	0.514	Blank	Blank	76.803	n/a	3	7	18	n/a	18	n/a	3	n/a	n/a	n/a	n/a	307.715	n/a
277.724	0.497	happy	Picture	76.289	n/a	3	7	19	n/a	19	120	3	n/a	n/a	n/a	n/a	308.246	AM35ANS.jpg
278.222	0.514	Blank	Blank	75.775	n/a	3	7	19	n/a	19	n/a	3	n/a	n/a	n/a	n/a	308.743	n/a
278.752	0.497	happy	Picture	75.261	n/a	3	7	20	n/a	20	81	3	n/a	n/a	n/a	n/a	309.274	AF01ANS.jpg
279.25	0.514	Blank	Blank	74.747	n/a	3	7	20	n/a	20	n/a	3	n/a	n/a	n/a	n/a	309.771	n/a
279.78	10.014	ITI	Fixation+	64.717	n/a	3	n/a	n/a	n/a	n/a	n/a	n/a	n/a	n/a	n/a	n/a	310.301	n/a
289.81	0.497	neutral	Picture	64.203	n/a	3	8	1	n/a	21	28	1	n/a	n/a	n/a	n/a	320.332	AM09NES.jpg
290.308	0.514	Blank	Blank	63.689	n/a	3	8	1	n/a	21	n/a	1	n/a	n/a	n/a	n/a	320.829	n/a
290.838	0.497	neutral	Picture	63.175	n/a	3	8	2	n/a	22	27	1	n/a	n/a	n/a	n/a	321.36	BM08NES.jpg
291.336	0.514	Blank	Blank	62.661	n/a	3	8	2	n/a	22	n/a	1	n/a	n/a	n/a	n/a	321.857	n/a
291.866	0.497	neutral	Picture	62.147	n/a	3	8	3	n/a	23	16	1	n/a	n/a	n/a	n/a	322.387	AF26NES.jpg
292.364	0.514	Blank	Blank	61.633	n/a	3	8	3	n/a	23	n/a	1	n/a	n/a	n/a	n/a	322.885	n/a
292.894	0.497	neutral	Picture	61.119	n/a	3	8	4	n/a	24	3	1	n/a	n/a	n/a	n/a	323.415	BF04NES.jpg
293.391	0.514	Blank	Blank	60.606	n/a	3	8	4	n/a	24	n/a	1	n/a	n/a	n/a	n/a	323.913	n/a
293.922	0.497	neutral	Picture	60.091	n/a	3	8	5	n/a	25	32	1	n/a	n/a	n/a	n/a	324.443	AM14NES.jpg
294.419	0.514	Blank	Blank	59.578	n/a	3	8	5	n/a	25	n/a	1	n/a	n/a	n/a	n/a	324.941	n/a
294.95	0.497	neutral	Picture	59.064	n/a	3	8	6	n/a	26	37	1	n/a	n/a	n/a	n/a	325.471	BM25NES.jpg
295.447	0.514	Blank	Blank	58.55	n/a	3	8	6	n/a	26	n/a	1	n/a	n/a	n/a	n/a	325.969	n/a
295.978	0.497	neutral	Picture	58.036	n/a	3	8	7	n/a	27	15	1	n/a	n/a	n/a	n/a	326.499	AF25NES.jpg
296.475	0.514	Blank	Blank	57.522	n/a	3	8	7	n/a	27	n/a	1	n/a	n/a	n/a	n/a	326.996	n/a
297.006	0.497	neutral	Picture	57.008	n/a	3	8	8	n/a	28	23	1	n/a	n/a	n/a	n/a	327.527	AM04NES.jpg
297.503	0.514	Blank	Blank	56.494	n/a	3	8	8	n/a	28	n/a	1	n/a	n/a	n/a	n/a	328.024	n/a
298.034	0.497	neutral	Picture	55.98	n/a	3	8	9	n/a	29	34	1	n/a	n/a	n/a	n/a	328.555	AM22NES.jpg
298.531	0.514	Blank	Blank	55.466	n/a	3	8	9	n/a	29	n/a	1	n/a	n/a	n/a	n/a	329.052	n/a
299.061	0.497	neutral	Picture	54.952	n/a	3	8	10	n/a	30	24	1	n/a	n/a	n/a	n/a	329.583	BM05NES.jpg
299.559	0.514	Blank	Blank	54.438	n/a	3	8	10	n/a	30	n/a	1	n/a	n/a	n/a	n/a	330.08	n/a
300.089	0.497	neutral	Picture	53.924	n/a	3	8	11	n/a	31	12	1	n/a	n/a	n/a	n/a	330.611	AF21NES.jpg
300.587	0.514	Blank	Blank	53.41	n/a	3	8	11	n/a	31	n/a	1	n/a	n/a	n/a	n/a	331.108	n/a
301.117	0.497	neutral	Picture	52.896	n/a	3	8	12	n/a	32	6	1	n/a	n/a	n/a	n/a	331.639	AF09NES.jpg
301.615	0.514	Blank	Blank	52.382	n/a	3	8	12	n/a	32	n/a	1	n/a	n/a	n/a	n/a	332.136	n/a
302.145	0.497	neutral	Picture	51.868	n/a	3	8	13	n/a	33	17	1	n/a	n/a	n/a	n/a	332.666	BF28NES.jpg
302.642	0.514	Blank	Blank	51.354	n/a	3	8	13	n/a	33	n/a	1	n/a	n/a	n/a	n/a	333.164	n/a
303.173	0.497	neutral	Picture	50.84	n/a	3	8	14	n/a	34	2	1	n/a	n/a	n/a	n/a	333.694	AF03NES.jpg
303.67	0.514	Blank	Blank	50.327	n/a	3	8	14	n/a	34	n/a	1	n/a	n/a	n/a	n/a	334.192	n/a
304.201	0.497	neutral	Picture	49.813	n/a	3	8	15	n/a	35	9	1	n/a	n/a	n/a	n/a	334.722	AF17NES.jpg
304.698	0.514	Blank	Blank	49.299	n/a	3	8	15	n/a	35	n/a	1	n/a	n/a	n/a	n/a	335.219	n/a
305.229	0.497	neutral	Picture	48.785	n/a	3	8	16	n/a	36	25	1	n/a	n/a	n/a	n/a	335.75	BM06NES.jpg
305.726	0.514	Blank	Blank	48.271	n/a	3	8	16	n/a	36	n/a	1	n/a	n/a	n/a	n/a	336.247	n/a
306.257	0.497	neutral	Picture	47.757	n/a	3	8	17	n/a	37	8	1	n/a	n/a	n/a	n/a	336.778	AF14NES.jpg
306.754	0.514	Blank	Blank	47.243	n/a	3	8	17	n/a	37	n/a	1	n/a	n/a	n/a	n/a	337.275	n/a
307.285	0.497	neutral	Picture	46.729	n/a	3	8	18	n/a	38	19	1	n/a	n/a	n/a	n/a	337.806	AF31NES.jpg
307.782	0.514	Blank	Blank	46.215	n/a	3	8	18	n/a	38	n/a	1	n/a	n/a	n/a	n/a	338.303	n/a
308.313	0.497	neutral	Picture	45.701	n/a	3	8	19	n/a	39	14	1	n/a	n/a	n/a	n/a	338.834	AF23NES.jpg
308.81	0.514	Blank	Blank	45.187	n/a	3	8	19	n/a	39	n/a	1	n/a	n/a	n/a	n/a	339.331	n/a
309.34	0.497	neutral	Picture	44.673	n/a	3	8	20	n/a	40	4	1	n/a	n/a	n/a	n/a	339.862	AF05NES.jpg
309.838	0.514	Blank	Blank	44.159	n/a	3	8	20	n/a	40	n/a	1	n/a	n/a	n/a	n/a	340.359	n/a
310.368	10.014	ITI	Fixation+	34.129	n/a	3	n/a	n/a	n/a	n/a	n/a	n/a	n/a	n/a	n/a	n/a	340.889	n/a
320.398	0.497	happy	Picture	33.615	n/a	3	9	1	n/a	41	84	3	n/a	n/a	n/a	n/a	350.92	AF05ANS.jpg
320.896	0.514	Blank	Blank	33.101	n/a	3	9	1	n/a	41	n/a	3	n/a	n/a	n/a	n/a	351.417	n/a
321.426	0.497	happy	Picture	32.587	n/a	3	9	2	n/a	42	92	3	n/a	n/a	n/a	n/a	351.948	AF21ANS.jpg
321.924	0.514	Blank	Blank	32.073	n/a	3	9	2	n/a	42	n/a	3	n/a	n/a	n/a	n/a	352.445	n/a
322.454	0.497	happy	Picture	31.559	n/a	3	9	3	n/a	43	86	3	n/a	n/a	n/a	n/a	352.976	AF09ANS.jpg
322.952	0.514	Blank	Blank	31.045	n/a	3	9	3	n/a	43	n/a	3	n/a	n/a	n/a	n/a	353.473	n/a
323.482	0.497	happy	Picture	30.531	n/a	3	9	4	n/a	44	93	3	n/a	n/a	n/a	n/a	354.003	BF22ANS.jpg
323.979	0.514	Blank	Blank	30.017	n/a	3	9	4	n/a	44	n/a	3	n/a	n/a	n/a	n/a	354.501	n/a
324.51	0.497	happy	Picture	29.503	n/a	3	9	5	n/a	45	88	3	n/a	n/a	n/a	n/a	355.031	AF14ANS.jpg
325.007	0.514	Blank	Blank	28.99	n/a	3	9	5	n/a	45	n/a	3	n/a	n/a	n/a	n/a	355.529	n/a
325.538	0.497	happy	Picture	28.476	n/a	3	9	6	n/a	46	113	3	n/a	n/a	n/a	n/a	356.059	AM21ANS.jpg
326.035	0.514	Blank	Blank	27.962	n/a	3	9	6	n/a	46	n/a	3	n/a	n/a	n/a	n/a	356.557	n/a
326.566	0.497	happy	Picture	27.448	n/a	3	9	7	n/a	47	95	3	n/a	n/a	n/a	n/a	357.087	AF25ANS.jpg
327.063	0.514	Blank	Blank	26.934	n/a	3	9	7	n/a	47	n/a	3	n/a	n/a	n/a	n/a	357.584	n/a
327.594	0.497	happy	Picture	26.42	n/a	3	9	8	n/a	48	102	3	n/a	n/a	n/a	n/a	358.115	BM03ANS.jpg
328.091	0.514	Blank	Blank	25.906	n/a	3	9	8	n/a	48	n/a	3	n/a	n/a	n/a	n/a	358.612	n/a
328.622	0.497	happy	Picture	25.392	n/a	3	9	9	n/a	49	112	3	n/a	n/a	n/a	n/a	359.143	AM14ANS.jpg
329.119	0.514	Blank	Blank	24.878	n/a	3	9	9	n/a	49	n/a	3	n/a	n/a	n/a	n/a	359.64	n/a
329.649	0.497	happy	Picture	24.364	n/a	3	9	10	n/a	50	83	3	n/a	n/a	n/a	n/a	360.171	BF04ANS.jpg
330.147	0.514	Blank	Blank	23.85	n/a	3	9	10	n/a	50	n/a	3	n/a	n/a	n/a	n/a	360.668	n/a
330.677	0.497	happy	Picture	23.336	n/a	3	9	11	n/a	51	90	3	n/a	n/a	n/a	n/a	361.199	AF18ANS.jpg
331.175	0.514	Blank	Blank	22.822	n/a	3	9	11	n/a	51	n/a	3	n/a	n/a	n/a	n/a	361.696	n/a
331.705	0.497	happy	Picture	22.308	n/a	3	9	12	n/a	52	117	3	n/a	n/a	n/a	n/a	362.226	BM25ANS.jpg
332.203	0.514	Blank	Blank	21.794	n/a	3	9	12	n/a	52	n/a	3	n/a	n/a	n/a	n/a	362.724	n/a
332.733	0.497	happy	Picture	21.28	n/a	3	9	13	n/a	53	94	3	n/a	n/a	n/a	n/a	363.254	AF23ANS.jpg
333.231	0.514	Blank	Blank	20.766	n/a	3	9	13	n/a	53	n/a	3	n/a	n/a	n/a	n/a	363.752	n/a
333.761	0.497	happy	Picture	20.252	n/a	3	9	14	n/a	54	106	3	n/a	n/a	n/a	n/a	364.282	AM07ANS.jpg
334.258	0.514	Blank	Blank	19.738	n/a	3	9	14	n/a	54	n/a	3	n/a	n/a	n/a	n/a	364.78	n/a
334.789	0.497	happy	Picture	19.225	n/a	3	9	15	n/a	55	105	3	n/a	n/a	n/a	n/a	365.31	BM06ANS.jpg
335.286	0.514	Blank	Blank	18.711	n/a	3	9	15	n/a	55	n/a	3	n/a	n/a	n/a	n/a	365.808	n/a
335.817	0.497	happy	Picture	18.197	n/a	3	9	16	n/a	56	116	3	n/a	n/a	n/a	n/a	366.338	BM24ANS.jpg
336.314	0.514	Blank	Blank	17.683	n/a	3	9	16	n/a	56	n/a	3	n/a	n/a	n/a	n/a	366.835	n/a
336.845	0.497	happy	Picture	17.169	n/a	3	9	17	n/a	57	89	3	n/a	n/a	n/a	n/a	367.366	AF17ANS.jpg
337.342	0.514	Blank	Blank	16.655	n/a	3	9	17	n/a	57	n/a	3	n/a	n/a	n/a	n/a	367.863	n/a
337.873	0.497	happy	Picture	16.141	n/a	3	9	18	n/a	58	118	3	n/a	n/a	n/a	n/a	368.394	BM26ANS.jpg
338.37	0.514	Blank	Blank	15.627	n/a	3	9	18	n/a	58	n/a	3	n/a	n/a	n/a	n/a	368.891	n/a
338.9	0.497	happy	Picture	15.113	n/a	3	9	19	n/a	59	100	3	n/a	n/a	n/a	n/a	369.422	AF32ANS.jpg
339.398	0.514	Blank	Blank	14.599	n/a	3	9	19	n/a	59	n/a	3	n/a	n/a	n/a	n/a	369.919	n/a
339.928	0.497	happy	Picture	14.085	n/a	3	9	20	n/a	60	119	3	n/a	n/a	n/a	n/a	370.45	BM28ANS.jpg
340.426	0.514	Blank	Blank	13.571	n/a	3	9	20	n/a	60	n/a	3	n/a	n/a	n/a	n/a	370.947	n/a
340.956	10.014	ITI	Fixation+	3.541	n/a	3	n/a	n/a	n/a	n/a	n/a	n/a	n/a	n/a	n/a	n/a	371.478	n/a
354.511	n/a	ConfirmRating	Rate	n/a	3.532	3	n/a	n/a	0	n/a	n/a	n/a	2	Happy	32	50	385.032	n/a
357.588	n/a	ConfirmRating	Rate	n/a	3.067	3	n/a	n/a	1	n/a	n/a	n/a	3	Happy	3	47	388.109	n/a
357.618	10.014	ITI	Fixation+	95.028	n/a	4	n/a	n/a	n/a	n/a	n/a	n/a	n/a	n/a	n/a	n/a	388.139	n/a
367.648	0.497	angry	Picture	94.514	n/a	4	10	1	n/a	61	79	2	n/a	n/a	n/a	n/a	398.17	BM28HAS.jpg
368.146	0.514	Blank	Blank	94.0	n/a	4	10	1	n/a	61	n/a	2	n/a	n/a	n/a	n/a	398.667	n/a
368.676	0.497	angry	Picture	93.486	n/a	4	10	2	n/a	62	61	2	n/a	n/a	n/a	n/a	399.197	AM01HAS.jpg
369.173	0.514	Blank	Blank	92.972	n/a	4	10	2	n/a	62	n/a	2	n/a	n/a	n/a	n/a	399.695	n/a
369.704	0.497	angry	Picture	92.458	n/a	4	10	3	n/a	63	57	2	n/a	n/a	n/a	n/a	400.225	BF28HAS.jpg
370.201	0.514	Blank	Blank	91.944	n/a	4	10	3	n/a	63	n/a	2	n/a	n/a	n/a	n/a	400.723	n/a
370.732	0.497	angry	Picture	91.43	n/a	4	10	4	n/a	64	77	2	n/a	n/a	n/a	n/a	401.253	BM25HAS.jpg
371.229	0.514	Blank	Blank	90.916	n/a	4	10	4	n/a	64	n/a	2	n/a	n/a	n/a	n/a	401.75	n/a
371.76	0.497	angry	Picture	90.402	n/a	4	10	5	n/a	65	47	2	n/a	n/a	n/a	n/a	402.281	BF11HAS.jpg
372.257	0.514	Blank	Blank	89.889	n/a	4	10	5	n/a	65	n/a	2	n/a	n/a	n/a	n/a	402.778	n/a
372.788	0.497	angry	Picture	89.375	n/a	4	10	6	n/a	66	50	2	n/a	n/a	n/a	n/a	403.309	AF18HAS.jpg
373.285	0.514	Blank	Blank	88.861	n/a	4	10	6	n/a	66	n/a	2	n/a	n/a	n/a	n/a	403.806	n/a
373.816	0.497	angry	Picture	88.347	n/a	4	10	7	n/a	67	78	2	n/a	n/a	n/a	n/a	404.337	BM26HAS.jpg
374.313	0.514	Blank	Blank	87.833	n/a	4	10	7	n/a	67	n/a	2	n/a	n/a	n/a	n/a	404.834	n/a
374.844	0.497	angry	Picture	87.319	n/a	4	10	8	n/a	68	45	2	n/a	n/a	n/a	n/a	405.365	BF07HAS.jpg
375.341	0.514	Blank	Blank	86.805	n/a	4	10	8	n/a	68	n/a	2	n/a	n/a	n/a	n/a	405.862	n/a
375.871	0.497	angry	Picture	86.291	n/a	4	10	9	n/a	69	56	2	n/a	n/a	n/a	n/a	406.393	AF26HAS.jpg
376.369	0.514	Blank	Blank	85.777	n/a	4	10	9	n/a	69	n/a	2	n/a	n/a	n/a	n/a	406.89	n/a
376.899	0.497	angry	Picture	85.263	n/a	4	10	10	n/a	70	65	2	n/a	n/a	n/a	n/a	407.421	BM06HAS.jpg
377.397	0.514	Blank	Blank	84.749	n/a	4	10	10	n/a	70	n/a	2	n/a	n/a	n/a	n/a	407.918	n/a
377.927	0.497	angry	Picture	84.235	n/a	4	10	11	n/a	71	73	2	n/a	n/a	n/a	n/a	408.448	AM21HAS.jpg
378.424	0.514	Blank	Blank	83.721	n/a	4	10	11	n/a	71	n/a	2	n/a	n/a	n/a	n/a	408.946	n/a
378.955	0.497	angry	Picture	83.207	n/a	4	10	12	n/a	72	41	2	n/a	n/a	n/a	n/a	409.476	AF01HAS.jpg
379.452	0.514	Blank	Blank	82.693	n/a	4	10	12	n/a	72	n/a	2	n/a	n/a	n/a	n/a	409.974	n/a
379.983	0.497	angry	Picture	82.179	n/a	4	10	13	n/a	73	59	2	n/a	n/a	n/a	n/a	410.504	AF31HAS.jpg
380.48	0.514	Blank	Blank	81.665	n/a	4	10	13	n/a	73	n/a	2	n/a	n/a	n/a	n/a	411.002	n/a
381.011	0.497	angry	Picture	81.151	n/a	4	10	14	n/a	74	64	2	n/a	n/a	n/a	n/a	411.532	BM05HAS.jpg
381.508	0.514	Blank	Blank	80.637	n/a	4	10	14	n/a	74	n/a	2	n/a	n/a	n/a	n/a	412.029	n/a
382.039	0.497	angry	Picture	80.124	n/a	4	10	15	n/a	75	68	2	n/a	n/a	n/a	n/a	412.56	AM09HAS.jpg
382.536	0.514	Blank	Blank	79.61	n/a	4	10	15	n/a	75	n/a	2	n/a	n/a	n/a	n/a	413.057	n/a
383.067	0.497	angry	Picture	79.096	n/a	4	10	16	n/a	76	54	2	n/a	n/a	n/a	n/a	413.588	AF23HAS.jpg
383.564	0.514	Blank	Blank	78.582	n/a	4	10	16	n/a	76	n/a	2	n/a	n/a	n/a	n/a	414.085	n/a
384.094	0.497	angry	Picture	78.068	n/a	4	10	17	n/a	77	53	2	n/a	n/a	n/a	n/a	414.616	BF22HAS.jpg
384.592	0.514	Blank	Blank	77.554	n/a	4	10	17	n/a	77	n/a	2	n/a	n/a	n/a	n/a	415.113	n/a
385.122	0.497	angry	Picture	77.04	n/a	4	10	18	n/a	78	44	2	n/a	n/a	n/a	n/a	415.644	AF05HAS.jpg
385.62	0.514	Blank	Blank	76.526	n/a	4	10	18	n/a	78	n/a	2	n/a	n/a	n/a	n/a	416.141	n/a
386.15	0.497	angry	Picture	76.012	n/a	4	10	19	n/a	79	52	2	n/a	n/a	n/a	n/a	416.671	AF21HAS.jpg
386.648	0.514	Blank	Blank	75.498	n/a	4	10	19	n/a	79	n/a	2	n/a	n/a	n/a	n/a	417.169	n/a
387.178	0.497	angry	Picture	74.984	n/a	4	10	20	n/a	80	62	2	n/a	n/a	n/a	n/a	417.699	BM03HAS.jpg
387.676	0.514	Blank	Blank	74.47	n/a	4	10	20	n/a	80	n/a	2	n/a	n/a	n/a	n/a	418.197	n/a
388.206	10.014	ITI	Fixation+	64.44	n/a	4	n/a	n/a	n/a	n/a	n/a	n/a	n/a	n/a	n/a	n/a	418.727	n/a
398.236	0.497	neutral	Picture	63.926	n/a	4	11	1	n/a	81	23	1	n/a	n/a	n/a	n/a	428.757	AM04NES.jpg
398.734	0.514	Blank	Blank	63.412	n/a	4	11	1	n/a	81	n/a	1	n/a	n/a	n/a	n/a	429.255	n/a
399.264	0.497	neutral	Picture	62.898	n/a	4	11	2	n/a	82	29	1	n/a	n/a	n/a	n/a	429.785	AM10NES.jpg
399.762	0.514	Blank	Blank	62.384	n/a	4	11	2	n/a	82	n/a	1	n/a	n/a	n/a	n/a	430.283	n/a
400.292	0.497	neutral	Picture	61.87	n/a	4	11	3	n/a	83	24	1	n/a	n/a	n/a	n/a	430.813	BM05NES.jpg
400.789	0.514	Blank	Blank	61.356	n/a	4	11	3	n/a	83	n/a	1	n/a	n/a	n/a	n/a	431.311	n/a
401.32	0.497	neutral	Picture	60.842	n/a	4	11	4	n/a	84	12	1	n/a	n/a	n/a	n/a	431.841	AF21NES.jpg
401.817	0.514	Blank	Blank	60.328	n/a	4	11	4	n/a	84	n/a	1	n/a	n/a	n/a	n/a	432.339	n/a
402.348	0.497	neutral	Picture	59.815	n/a	4	11	5	n/a	85	13	1	n/a	n/a	n/a	n/a	432.869	BF22NES.jpg
402.845	0.514	Blank	Blank	59.3	n/a	4	11	5	n/a	85	n/a	1	n/a	n/a	n/a	n/a	433.366	n/a
403.376	0.497	neutral	Picture	58.787	n/a	4	11	6	n/a	86	17	1	n/a	n/a	n/a	n/a	433.897	BF28NES.jpg
403.873	0.514	Blank	Blank	58.273	n/a	4	11	6	n/a	86	n/a	1	n/a	n/a	n/a	n/a	434.394	n/a
404.404	0.497	neutral	Picture	57.759	n/a	4	11	7	n/a	87	4	1	n/a	n/a	n/a	n/a	434.925	AF05NES.jpg
404.901	0.514	Blank	Blank	57.245	n/a	4	11	7	n/a	87	n/a	1	n/a	n/a	n/a	n/a	435.422	n/a
405.431	0.497	neutral	Picture	56.731	n/a	4	11	8	n/a	88	11	1	n/a	n/a	n/a	n/a	435.953	AF20NES.jpg
405.929	0.514	Blank	Blank	56.217	n/a	4	11	8	n/a	88	n/a	1	n/a	n/a	n/a	n/a	436.45	n/a
406.459	0.497	neutral	Picture	55.703	n/a	4	11	9	n/a	89	22	1	n/a	n/a	n/a	n/a	436.981	BM03NES.jpg
406.957	0.514	Blank	Blank	55.189	n/a	4	11	9	n/a	89	n/a	1	n/a	n/a	n/a	n/a	437.478	n/a
407.487	0.497	neutral	Picture	54.675	n/a	4	11	10	n/a	90	15	1	n/a	n/a	n/a	n/a	438.009	AF25NES.jpg
407.985	0.514	Blank	Blank	54.161	n/a	4	11	10	n/a	90	n/a	1	n/a	n/a	n/a	n/a	438.506	n/a
408.515	0.497	neutral	Picture	53.647	n/a	4	11	11	n/a	91	19	1	n/a	n/a	n/a	n/a	439.036	AF31NES.jpg
409.013	0.514	Blank	Blank	53.133	n/a	4	11	11	n/a	91	n/a	1	n/a	n/a	n/a	n/a	439.534	n/a
409.543	0.497	neutral	Picture	52.619	n/a	4	11	12	n/a	92	9	1	n/a	n/a	n/a	n/a	440.064	AF17NES.jpg
410.04	0.514	Blank	Blank	52.105	n/a	4	11	12	n/a	92	n/a	1	n/a	n/a	n/a	n/a	440.562	n/a
410.571	0.497	neutral	Picture	51.591	n/a	4	11	13	n/a	93	14	1	n/a	n/a	n/a	n/a	441.092	AF23NES.jpg
411.068	0.514	Blank	Blank	51.077	n/a	4	11	13	n/a	93	n/a	1	n/a	n/a	n/a	n/a	441.589	n/a
411.599	0.497	neutral	Picture	50.564	n/a	4	11	14	n/a	94	36	1	n/a	n/a	n/a	n/a	442.12	BM24NES.jpg
412.096	0.514	Blank	Blank	50.05	n/a	4	11	14	n/a	94	n/a	1	n/a	n/a	n/a	n/a	442.617	n/a
412.627	0.497	neutral	Picture	49.536	n/a	4	11	15	n/a	95	34	1	n/a	n/a	n/a	n/a	443.148	AM22NES.jpg
413.124	0.514	Blank	Blank	49.022	n/a	4	11	15	n/a	95	n/a	1	n/a	n/a	n/a	n/a	443.645	n/a
413.655	0.497	neutral	Picture	48.508	n/a	4	11	16	n/a	96	10	1	n/a	n/a	n/a	n/a	444.176	AF18NES.jpg
414.152	0.514	Blank	Blank	47.994	n/a	4	11	16	n/a	96	n/a	1	n/a	n/a	n/a	n/a	444.673	n/a
414.683	0.497	neutral	Picture	47.48	n/a	4	11	17	n/a	97	5	1	n/a	n/a	n/a	n/a	445.204	BF07NES.jpg
415.18	0.514	Blank	Blank	46.966	n/a	4	11	17	n/a	97	n/a	1	n/a	n/a	n/a	n/a	445.701	n/a
415.71	0.497	neutral	Picture	46.452	n/a	4	11	18	n/a	98	25	1	n/a	n/a	n/a	n/a	446.232	BM06NES.jpg
416.208	0.514	Blank	Blank	45.938	n/a	4	11	18	n/a	98	n/a	1	n/a	n/a	n/a	n/a	446.729	n/a
416.738	0.497	neutral	Picture	45.424	n/a	4	11	19	n/a	99	39	1	n/a	n/a	n/a	n/a	447.26	AM28NES.jpg
417.236	0.514	Blank	Blank	44.91	n/a	4	11	19	n/a	99	n/a	1	n/a	n/a	n/a	n/a	447.757	n/a
417.766	0.497	neutral	Picture	44.396	n/a	4	11	20	n/a	100	33	1	n/a	n/a	n/a	n/a	448.287	AM21NES.jpg
418.264	0.514	Blank	Blank	43.882	n/a	4	11	20	n/a	100	n/a	1	n/a	n/a	n/a	n/a	448.785	n/a
418.794	10.014	ITI	Fixation+	33.852	n/a	4	n/a	n/a	n/a	n/a	n/a	n/a	n/a	n/a	n/a	n/a	449.315	n/a
428.824	0.497	angry	Picture	33.338	n/a	4	12	1	n/a	101	74	2	n/a	n/a	n/a	n/a	459.346	AM22HAS.jpg
429.322	0.514	Blank	Blank	32.824	n/a	4	12	1	n/a	101	n/a	2	n/a	n/a	n/a	n/a	459.843	n/a
429.852	0.497	angry	Picture	32.31	n/a	4	12	2	n/a	102	76	2	n/a	n/a	n/a	n/a	460.373	BM24HAS.jpg
430.35	0.514	Blank	Blank	31.796	n/a	4	12	2	n/a	102	n/a	2	n/a	n/a	n/a	n/a	460.871	n/a
430.88	0.497	angry	Picture	31.282	n/a	4	12	3	n/a	103	80	2	n/a	n/a	n/a	n/a	461.401	BM35HAS.jpg
431.377	0.514	Blank	Blank	30.768	n/a	4	12	3	n/a	103	n/a	2	n/a	n/a	n/a	n/a	461.899	n/a
431.908	0.497	angry	Picture	30.254	n/a	4	12	4	n/a	104	75	2	n/a	n/a	n/a	n/a	462.429	AM23HAS.jpg
432.405	0.514	Blank	Blank	29.74	n/a	4	12	4	n/a	104	n/a	2	n/a	n/a	n/a	n/a	462.927	n/a
432.936	0.497	angry	Picture	29.226	n/a	4	12	5	n/a	105	49	2	n/a	n/a	n/a	n/a	463.457	AF17HAS.jpg
433.433	0.514	Blank	Blank	28.712	n/a	4	12	5	n/a	105	n/a	2	n/a	n/a	n/a	n/a	463.954	n/a
433.964	0.497	angry	Picture	28.199	n/a	4	12	6	n/a	106	43	2	n/a	n/a	n/a	n/a	464.485	BF04HAS.jpg
434.461	0.514	Blank	Blank	27.685	n/a	4	12	6	n/a	106	n/a	2	n/a	n/a	n/a	n/a	464.982	n/a
434.992	0.497	angry	Picture	27.171	n/a	4	12	7	n/a	107	70	2	n/a	n/a	n/a	n/a	465.513	BM11HAS.jpg
435.489	0.514	Blank	Blank	26.657	n/a	4	12	7	n/a	107	n/a	2	n/a	n/a	n/a	n/a	466.01	n/a
436.02	0.497	angry	Picture	26.143	n/a	4	12	8	n/a	108	66	2	n/a	n/a	n/a	n/a	466.541	BM07HAS.jpg
436.517	0.514	Blank	Blank	25.629	n/a	4	12	8	n/a	108	n/a	2	n/a	n/a	n/a	n/a	467.038	n/a
437.047	0.497	angry	Picture	25.115	n/a	4	12	9	n/a	109	48	2	n/a	n/a	n/a	n/a	467.569	AF14HAS.jpg
437.545	0.514	Blank	Blank	24.601	n/a	4	12	9	n/a	109	n/a	2	n/a	n/a	n/a	n/a	468.066	n/a
438.075	0.497	angry	Picture	24.087	n/a	4	12	10	n/a	110	58	2	n/a	n/a	n/a	n/a	468.596	BF29HAS.jpg
438.573	0.514	Blank	Blank	23.573	n/a	4	12	10	n/a	110	n/a	2	n/a	n/a	n/a	n/a	469.094	n/a
439.103	0.497	angry	Picture	23.059	n/a	4	12	11	n/a	111	63	2	n/a	n/a	n/a	n/a	469.624	AM04HAS.jpg
439.601	0.514	Blank	Blank	22.545	n/a	4	12	11	n/a	111	n/a	2	n/a	n/a	n/a	n/a	470.122	n/a
440.131	0.497	angry	Picture	22.031	n/a	4	12	12	n/a	112	72	2	n/a	n/a	n/a	n/a	470.652	AM14HAS.jpg
440.628	0.514	Blank	Blank	21.517	n/a	4	12	12	n/a	112	n/a	2	n/a	n/a	n/a	n/a	471.15	n/a
441.159	0.497	angry	Picture	21.003	n/a	4	12	13	n/a	113	55	2	n/a	n/a	n/a	n/a	471.68	AF25HAS.jpg
441.656	0.514	Blank	Blank	20.489	n/a	4	12	13	n/a	113	n/a	2	n/a	n/a	n/a	n/a	472.178	n/a
442.187	0.497	angry	Picture	19.975	n/a	4	12	14	n/a	114	42	2	n/a	n/a	n/a	n/a	472.708	AF03HAS.jpg
442.684	0.514	Blank	Blank	19.462	n/a	4	12	14	n/a	114	n/a	2	n/a	n/a	n/a	n/a	473.205	n/a
443.215	0.497	angry	Picture	18.948	n/a	4	12	15	n/a	115	60	2	n/a	n/a	n/a	n/a	473.736	AF32HAS.jpg
443.712	0.514	Blank	Blank	18.434	n/a	4	12	15	n/a	115	n/a	2	n/a	n/a	n/a	n/a	474.233	n/a
444.243	0.497	angry	Picture	17.92	n/a	4	12	16	n/a	116	67	2	n/a	n/a	n/a	n/a	474.764	BM08HAS.jpg
444.74	0.514	Blank	Blank	17.406	n/a	4	12	16	n/a	116	n/a	2	n/a	n/a	n/a	n/a	475.261	n/a
445.271	0.497	angry	Picture	16.892	n/a	4	12	17	n/a	117	51	2	n/a	n/a	n/a	n/a	475.792	AF20HAS.jpg
445.768	0.514	Blank	Blank	16.378	n/a	4	12	17	n/a	117	n/a	2	n/a	n/a	n/a	n/a	476.289	n/a
446.298	0.497	angry	Picture	15.864	n/a	4	12	18	n/a	118	71	2	n/a	n/a	n/a	n/a	476.82	BM12HAS.jpg
446.796	0.514	Blank	Blank	15.35	n/a	4	12	18	n/a	118	n/a	2	n/a	n/a	n/a	n/a	477.317	n/a
447.326	0.497	angry	Picture	14.836	n/a	4	12	19	n/a	119	69	2	n/a	n/a	n/a	n/a	477.848	AM10HAS.jpg
447.824	0.514	Blank	Blank	14.322	n/a	4	12	19	n/a	119	n/a	2	n/a	n/a	n/a	n/a	478.345	n/a
448.354	0.497	angry	Picture	13.808	n/a	4	12	20	n/a	120	46	2	n/a	n/a	n/a	n/a	478.875	AF09HAS.jpg
448.852	0.514	Blank	Blank	13.294	n/a	4	12	20	n/a	120	n/a	2	n/a	n/a	n/a	n/a	479.373	n/a
449.382	10.014	ITI	Fixation+	3.264	n/a	4	n/a	n/a	n/a	n/a	n/a	n/a	n/a	n/a	n/a	n/a	479.903	n/a
462.66	n/a	ConfirmRating	Rate	n/a	3.25	4	n/a	n/a	0	n/a	n/a	n/a	2	Angry	17	48	493.181	n/a
464.881	n/a	ConfirmRating	Rate	n/a	2.205	4	n/a	n/a	1	n/a	n/a	n/a	3	Angry	1	49	495.402	n/a
