onset	duration	trial_type	event_type	time_until_response	response_time	trial_number	block_num_within_trial	image_seq_num_within_block	question_seq_num_within_block	image_seq_num	picture_number	condition	question_type	block_type	rating	rating_computed	onset_uncorrected	KDEV_imagefile
0.018	10.014	ITI	Fixation+	102.17	n/a	1	n/a	n/a	n/a	n/a	n/a	n/a	n/a	n/a	n/a	n/a	27.947	n/a
10.048	0.497	angry	Picture	101.656	n/a	1	1	1	n/a	1	46	2	n/a	n/a	n/a	n/a	37.977	AF09HAS.jpg
10.546	0.514	Blank	Blank	101.143	n/a	1	1	1	n/a	1	n/a	2	n/a	n/a	n/a	n/a	38.474	n/a
11.076	0.497	angry	Picture	100.629	n/a	1	1	2	n/a	2	69	2	n/a	n/a	n/a	n/a	39.005	AM10HAS.jpg
11.573	0.514	Blank	Blank	100.115	n/a	1	1	2	n/a	2	n/a	2	n/a	n/a	n/a	n/a	39.502	n/a
12.104	0.497	angry	Picture	99.601	n/a	1	1	3	n/a	3	71	2	n/a	n/a	n/a	n/a	40.032	BM12HAS.jpg
12.601	0.514	Blank	Blank	99.087	n/a	1	1	3	n/a	3	n/a	2	n/a	n/a	n/a	n/a	40.53	n/a
13.132	0.497	angry	Picture	98.573	n/a	1	1	4	n/a	4	51	2	n/a	n/a	n/a	n/a	41.06	AF20HAS.jpg
13.629	0.514	Blank	Blank	98.059	n/a	1	1	4	n/a	4	n/a	2	n/a	n/a	n/a	n/a	41.558	n/a
14.16	0.497	angry	Picture	97.545	n/a	1	1	5	n/a	5	67	2	n/a	n/a	n/a	n/a	42.088	BM08HAS.jpg
14.657	0.514	Blank	Blank	97.031	n/a	1	1	5	n/a	5	n/a	2	n/a	n/a	n/a	n/a	42.586	n/a
15.188	0.497	angry	Picture	96.517	n/a	1	1	6	n/a	6	60	2	n/a	n/a	n/a	n/a	43.116	AF32HAS.jpg
15.685	0.514	Blank	Blank	96.003	n/a	1	1	6	n/a	6	n/a	2	n/a	n/a	n/a	n/a	43.614	n/a
16.215	0.497	angry	Picture	95.489	n/a	1	1	7	n/a	7	42	2	n/a	n/a	n/a	n/a	44.144	AF03HAS.jpg
16.713	0.514	Blank	Blank	94.975	n/a	1	1	7	n/a	7	n/a	2	n/a	n/a	n/a	n/a	44.641	n/a
17.243	0.497	angry	Picture	94.461	n/a	1	1	8	n/a	8	55	2	n/a	n/a	n/a	n/a	45.172	AF25HAS.jpg
17.741	0.514	Blank	Blank	93.947	n/a	1	1	8	n/a	8	n/a	2	n/a	n/a	n/a	n/a	45.669	n/a
18.271	0.497	angry	Picture	93.433	n/a	1	1	9	n/a	9	72	2	n/a	n/a	n/a	n/a	46.2	AM14HAS.jpg
18.769	0.514	Blank	Blank	92.919	n/a	1	1	9	n/a	9	n/a	2	n/a	n/a	n/a	n/a	46.697	n/a
19.299	0.497	angry	Picture	92.405	n/a	1	1	10	n/a	10	63	2	n/a	n/a	n/a	n/a	47.228	AM04HAS.jpg
19.796	0.514	Blank	Blank	91.892	n/a	1	1	10	n/a	10	n/a	2	n/a	n/a	n/a	n/a	47.725	n/a
20.327	0.497	angry	Picture	91.378	n/a	1	1	11	n/a	11	58	2	n/a	n/a	n/a	n/a	48.256	BF29HAS.jpg
20.824	0.514	Blank	Blank	90.864	n/a	1	1	11	n/a	11	n/a	2	n/a	n/a	n/a	n/a	48.753	n/a
21.355	0.497	angry	Picture	90.35	n/a	1	1	12	n/a	12	48	2	n/a	n/a	n/a	n/a	49.283	AF14HAS.jpg
21.852	0.514	Blank	Blank	89.836	n/a	1	1	12	n/a	12	n/a	2	n/a	n/a	n/a	n/a	49.781	n/a
22.383	0.497	angry	Picture	89.322	n/a	1	1	13	n/a	13	66	2	n/a	n/a	n/a	n/a	50.311	BM07HAS.jpg
22.88	0.514	Blank	Blank	88.808	n/a	1	1	13	n/a	13	n/a	2	n/a	n/a	n/a	n/a	50.809	n/a
23.411	0.497	angry	Picture	88.294	n/a	1	1	14	n/a	14	70	2	n/a	n/a	n/a	n/a	51.339	BM11HAS.jpg
23.908	0.514	Blank	Blank	87.78	n/a	1	1	14	n/a	14	n/a	2	n/a	n/a	n/a	n/a	51.837	n/a
24.439	0.497	angry	Picture	87.266	n/a	1	1	15	n/a	15	43	2	n/a	n/a	n/a	n/a	52.367	BF04HAS.jpg
24.936	0.514	Blank	Blank	86.752	n/a	1	1	15	n/a	15	n/a	2	n/a	n/a	n/a	n/a	52.864	n/a
25.466	0.497	angry	Picture	86.238	n/a	1	1	16	n/a	16	49	2	n/a	n/a	n/a	n/a	53.395	AF17HAS.jpg
25.964	0.514	Blank	Blank	85.724	n/a	1	1	16	n/a	16	n/a	2	n/a	n/a	n/a	n/a	53.892	n/a
26.494	0.497	angry	Picture	85.21	n/a	1	1	17	n/a	17	75	2	n/a	n/a	n/a	n/a	54.423	AM23HAS.jpg
26.992	0.514	Blank	Blank	84.696	n/a	1	1	17	n/a	17	n/a	2	n/a	n/a	n/a	n/a	54.92	n/a
27.522	0.497	angry	Picture	84.182	n/a	1	1	18	n/a	18	80	2	n/a	n/a	n/a	n/a	55.451	BM35HAS.jpg
28.019	0.514	Blank	Blank	83.668	n/a	1	1	18	n/a	18	n/a	2	n/a	n/a	n/a	n/a	55.948	n/a
28.55	0.497	angry	Picture	83.155	n/a	1	1	19	n/a	19	76	2	n/a	n/a	n/a	n/a	56.479	BM24HAS.jpg
29.047	0.514	Blank	Blank	82.641	n/a	1	1	19	n/a	19	n/a	2	n/a	n/a	n/a	n/a	56.976	n/a
29.578	0.497	angry	Picture	82.127	n/a	1	1	20	n/a	20	74	2	n/a	n/a	n/a	n/a	57.507	AM22HAS.jpg
30.075	0.514	Blank	Blank	81.613	n/a	1	1	20	n/a	20	n/a	2	n/a	n/a	n/a	n/a	58.004	n/a
30.606	10.014	ITI	Fixation+	71.583	n/a	1	n/a	n/a	n/a	n/a	n/a	n/a	n/a	n/a	n/a	n/a	58.534	n/a
40.636	0.497	neutral	Picture	71.069	n/a	1	2	1	n/a	21	33	1	n/a	n/a	n/a	n/a	68.565	AM21NES.jpg
41.133	0.514	Blank	Blank	70.555	n/a	1	2	1	n/a	21	n/a	1	n/a	n/a	n/a	n/a	69.062	n/a
41.664	0.497	neutral	Picture	70.041	n/a	1	2	2	n/a	22	39	1	n/a	n/a	n/a	n/a	69.593	AM28NES.jpg
42.161	0.514	Blank	Blank	69.527	n/a	1	2	2	n/a	22	n/a	1	n/a	n/a	n/a	n/a	70.09	n/a
42.692	0.497	neutral	Picture	69.013	n/a	1	2	3	n/a	23	25	1	n/a	n/a	n/a	n/a	70.62	BM06NES.jpg
43.189	0.514	Blank	Blank	68.499	n/a	1	2	3	n/a	23	n/a	1	n/a	n/a	n/a	n/a	71.118	n/a
43.72	0.497	neutral	Picture	67.985	n/a	1	2	4	n/a	24	5	1	n/a	n/a	n/a	n/a	71.648	BF07NES.jpg
44.217	0.514	Blank	Blank	67.471	n/a	1	2	4	n/a	24	n/a	1	n/a	n/a	n/a	n/a	72.146	n/a
44.748	0.497	neutral	Picture	66.957	n/a	1	2	5	n/a	25	10	1	n/a	n/a	n/a	n/a	72.676	AF18NES.jpg
45.245	0.514	Blank	Blank	66.443	n/a	1	2	5	n/a	25	n/a	1	n/a	n/a	n/a	n/a	73.174	n/a
45.775	0.497	neutral	Picture	65.929	n/a	1	2	6	n/a	26	34	1	n/a	n/a	n/a	n/a	73.704	AM22NES.jpg
46.273	0.514	Blank	Blank	65.415	n/a	1	2	6	n/a	26	n/a	1	n/a	n/a	n/a	n/a	74.201	n/a
46.803	0.497	neutral	Picture	64.901	n/a	1	2	7	n/a	27	36	1	n/a	n/a	n/a	n/a	74.732	BM24NES.jpg
47.301	0.514	Blank	Blank	64.387	n/a	1	2	7	n/a	27	n/a	1	n/a	n/a	n/a	n/a	75.229	n/a
47.831	0.497	neutral	Picture	63.873	n/a	1	2	8	n/a	28	14	1	n/a	n/a	n/a	n/a	75.76	AF23NES.jpg
48.329	0.514	Blank	Blank	63.359	n/a	1	2	8	n/a	28	n/a	1	n/a	n/a	n/a	n/a	76.257	n/a
48.859	0.497	neutral	Picture	62.845	n/a	1	2	9	n/a	29	9	1	n/a	n/a	n/a	n/a	76.788	AF17NES.jpg
49.356	0.514	Blank	Blank	62.332	n/a	1	2	9	n/a	29	n/a	1	n/a	n/a	n/a	n/a	77.285	n/a
49.887	0.497	neutral	Picture	61.818	n/a	1	2	10	n/a	30	19	1	n/a	n/a	n/a	n/a	77.816	AF31NES.jpg
50.384	0.514	Blank	Blank	61.304	n/a	1	2	10	n/a	30	n/a	1	n/a	n/a	n/a	n/a	78.313	n/a
50.915	0.497	neutral	Picture	60.79	n/a	1	2	11	n/a	31	15	1	n/a	n/a	n/a	n/a	78.844	AF25NES.jpg
51.412	0.514	Blank	Blank	60.276	n/a	1	2	11	n/a	31	n/a	1	n/a	n/a	n/a	n/a	79.341	n/a
51.943	0.497	neutral	Picture	59.762	n/a	1	2	12	n/a	32	22	1	n/a	n/a	n/a	n/a	79.871	BM03NES.jpg
52.44	0.514	Blank	Blank	59.248	n/a	1	2	12	n/a	32	n/a	1	n/a	n/a	n/a	n/a	80.369	n/a
52.971	0.497	neutral	Picture	58.734	n/a	1	2	13	n/a	33	11	1	n/a	n/a	n/a	n/a	80.899	AF20NES.jpg
53.468	0.514	Blank	Blank	58.22	n/a	1	2	13	n/a	33	n/a	1	n/a	n/a	n/a	n/a	81.397	n/a
53.998	0.497	neutral	Picture	57.706	n/a	1	2	14	n/a	34	4	1	n/a	n/a	n/a	n/a	81.927	AF05NES.jpg
54.496	0.514	Blank	Blank	57.192	n/a	1	2	14	n/a	34	n/a	1	n/a	n/a	n/a	n/a	82.424	n/a
55.026	0.497	neutral	Picture	56.678	n/a	1	2	15	n/a	35	17	1	n/a	n/a	n/a	n/a	82.955	BF28NES.jpg
55.524	0.514	Blank	Blank	56.164	n/a	1	2	15	n/a	35	n/a	1	n/a	n/a	n/a	n/a	83.452	n/a
56.054	0.497	neutral	Picture	55.65	n/a	1	2	16	n/a	36	13	1	n/a	n/a	n/a	n/a	83.983	BF22NES.jpg
56.552	0.514	Blank	Blank	55.136	n/a	1	2	16	n/a	36	n/a	1	n/a	n/a	n/a	n/a	84.48	n/a
57.082	0.497	neutral	Picture	54.622	n/a	1	2	17	n/a	37	12	1	n/a	n/a	n/a	n/a	85.011	AF21NES.jpg
57.58	0.514	Blank	Blank	54.108	n/a	1	2	17	n/a	37	n/a	1	n/a	n/a	n/a	n/a	85.508	n/a
58.11	0.497	neutral	Picture	53.595	n/a	1	2	18	n/a	38	24	1	n/a	n/a	n/a	n/a	86.039	BM05NES.jpg
58.607	0.514	Blank	Blank	53.081	n/a	1	2	18	n/a	38	n/a	1	n/a	n/a	n/a	n/a	86.536	n/a
59.138	0.497	neutral	Picture	52.567	n/a	1	2	19	n/a	39	29	1	n/a	n/a	n/a	n/a	87.067	AM10NES.jpg
59.635	0.514	Blank	Blank	52.053	n/a	1	2	19	n/a	39	n/a	1	n/a	n/a	n/a	n/a	87.564	n/a
60.166	0.497	neutral	Picture	51.539	n/a	1	2	20	n/a	40	23	1	n/a	n/a	n/a	n/a	88.094	AM04NES.jpg
60.663	0.514	Blank	Blank	51.025	n/a	1	2	20	n/a	40	n/a	1	n/a	n/a	n/a	n/a	88.592	n/a
61.194	10.014	ITI	Fixation+	40.995	n/a	1	n/a	n/a	n/a	n/a	n/a	n/a	n/a	n/a	n/a	n/a	89.122	n/a
71.224	0.497	angry	Picture	40.481	n/a	1	3	1	n/a	41	62	2	n/a	n/a	n/a	n/a	99.153	BM03HAS.jpg
71.721	0.514	Blank	Blank	39.967	n/a	1	3	1	n/a	41	n/a	2	n/a	n/a	n/a	n/a	99.65	n/a
72.252	0.497	angry	Picture	39.453	n/a	1	3	2	n/a	42	52	2	n/a	n/a	n/a	n/a	100.18	AF21HAS.jpg
72.749	0.514	Blank	Blank	38.939	n/a	1	3	2	n/a	42	n/a	2	n/a	n/a	n/a	n/a	100.678	n/a
73.28	0.497	angry	Picture	38.425	n/a	1	3	3	n/a	43	44	2	n/a	n/a	n/a	n/a	101.208	AF05HAS.jpg
73.777	0.514	Blank	Blank	37.911	n/a	1	3	3	n/a	43	n/a	2	n/a	n/a	n/a	n/a	101.706	n/a
74.308	0.497	angry	Picture	37.397	n/a	1	3	4	n/a	44	53	2	n/a	n/a	n/a	n/a	102.236	BF22HAS.jpg
74.805	0.514	Blank	Blank	36.883	n/a	1	3	4	n/a	44	n/a	2	n/a	n/a	n/a	n/a	102.734	n/a
75.335	0.497	angry	Picture	36.369	n/a	1	3	5	n/a	45	54	2	n/a	n/a	n/a	n/a	103.264	AF23HAS.jpg
75.833	0.514	Blank	Blank	35.855	n/a	1	3	5	n/a	45	n/a	2	n/a	n/a	n/a	n/a	103.761	n/a
76.363	0.497	angry	Picture	35.341	n/a	1	3	6	n/a	46	68	2	n/a	n/a	n/a	n/a	104.292	AM09HAS.jpg
76.861	0.514	Blank	Blank	34.827	n/a	1	3	6	n/a	46	n/a	2	n/a	n/a	n/a	n/a	104.789	n/a
77.391	0.497	angry	Picture	34.313	n/a	1	3	7	n/a	47	64	2	n/a	n/a	n/a	n/a	105.32	BM05HAS.jpg
77.889	0.514	Blank	Blank	33.799	n/a	1	3	7	n/a	47	n/a	2	n/a	n/a	n/a	n/a	105.817	n/a
78.419	0.497	angry	Picture	33.285	n/a	1	3	8	n/a	48	59	2	n/a	n/a	n/a	n/a	106.348	AF31HAS.jpg
78.916	0.514	Blank	Blank	32.772	n/a	1	3	8	n/a	48	n/a	2	n/a	n/a	n/a	n/a	106.845	n/a
79.447	0.497	angry	Picture	32.258	n/a	1	3	9	n/a	49	41	2	n/a	n/a	n/a	n/a	107.376	AF01HAS.jpg
79.944	0.514	Blank	Blank	31.744	n/a	1	3	9	n/a	49	n/a	2	n/a	n/a	n/a	n/a	107.873	n/a
80.475	0.497	angry	Picture	31.23	n/a	1	3	10	n/a	50	73	2	n/a	n/a	n/a	n/a	108.403	AM21HAS.jpg
80.972	0.514	Blank	Blank	30.716	n/a	1	3	10	n/a	50	n/a	2	n/a	n/a	n/a	n/a	108.901	n/a
81.503	0.497	angry	Picture	30.202	n/a	1	3	11	n/a	51	65	2	n/a	n/a	n/a	n/a	109.431	BM06HAS.jpg
82.0	0.514	Blank	Blank	29.688	n/a	1	3	11	n/a	51	n/a	2	n/a	n/a	n/a	n/a	109.929	n/a
82.531	0.497	angry	Picture	29.174	n/a	1	3	12	n/a	52	56	2	n/a	n/a	n/a	n/a	110.459	AF26HAS.jpg
83.028	0.514	Blank	Blank	28.66	n/a	1	3	12	n/a	52	n/a	2	n/a	n/a	n/a	n/a	110.957	n/a
83.559	0.497	angry	Picture	28.146	n/a	1	3	13	n/a	53	45	2	n/a	n/a	n/a	n/a	111.487	BF07HAS.jpg
84.056	0.514	Blank	Blank	27.632	n/a	1	3	13	n/a	53	n/a	2	n/a	n/a	n/a	n/a	111.984	n/a
84.586	0.497	angry	Picture	27.118	n/a	1	3	14	n/a	54	78	2	n/a	n/a	n/a	n/a	112.515	BM26HAS.jpg
85.084	0.514	Blank	Blank	26.604	n/a	1	3	14	n/a	54	n/a	2	n/a	n/a	n/a	n/a	113.012	n/a
85.614	0.497	angry	Picture	26.09	n/a	1	3	15	n/a	55	50	2	n/a	n/a	n/a	n/a	113.543	AF18HAS.jpg
86.112	0.514	Blank	Blank	25.576	n/a	1	3	15	n/a	55	n/a	2	n/a	n/a	n/a	n/a	114.04	n/a
86.642	0.497	angry	Picture	25.062	n/a	1	3	16	n/a	56	47	2	n/a	n/a	n/a	n/a	114.571	BF11HAS.jpg
87.14	0.514	Blank	Blank	24.548	n/a	1	3	16	n/a	56	n/a	2	n/a	n/a	n/a	n/a	115.068	n/a
87.67	0.497	angry	Picture	24.034	n/a	1	3	17	n/a	57	77	2	n/a	n/a	n/a	n/a	115.599	BM25HAS.jpg
88.168	0.514	Blank	Blank	23.52	n/a	1	3	17	n/a	57	n/a	2	n/a	n/a	n/a	n/a	116.096	n/a
88.698	0.497	angry	Picture	23.007	n/a	1	3	18	n/a	58	57	2	n/a	n/a	n/a	n/a	116.627	BF28HAS.jpg
89.195	0.514	Blank	Blank	22.493	n/a	1	3	18	n/a	58	n/a	2	n/a	n/a	n/a	n/a	117.124	n/a
89.726	0.497	angry	Picture	21.979	n/a	1	3	19	n/a	59	61	2	n/a	n/a	n/a	n/a	117.654	AM01HAS.jpg
90.223	0.514	Blank	Blank	21.465	n/a	1	3	19	n/a	59	n/a	2	n/a	n/a	n/a	n/a	118.152	n/a
90.754	0.497	angry	Picture	20.951	n/a	1	3	20	n/a	60	79	2	n/a	n/a	n/a	n/a	118.682	BM28HAS.jpg
91.251	0.514	Blank	Blank	20.437	n/a	1	3	20	n/a	60	n/a	2	n/a	n/a	n/a	n/a	119.18	n/a
91.782	10.014	ITI	Fixation+	10.407	n/a	1	n/a	n/a	n/a	n/a	n/a	n/a	n/a	n/a	n/a	n/a	119.71	n/a
112.202	n/a	ConfirmRating	Rate	n/a	10.378	1	n/a	n/a	0	n/a	n/a	n/a	2	Angry	72	72	140.131	n/a
125.843	n/a	ConfirmRating	Rate	n/a	13.628	1	n/a	n/a	1	n/a	n/a	n/a	3	Angry	17	17	153.771	n/a
125.868	10.014	ITI	Fixation+	102.098	n/a	2	n/a	n/a	n/a	n/a	n/a	n/a	n/a	n/a	n/a	n/a	153.796	n/a
135.898	0.497	happy	Picture	101.584	n/a	2	4	1	n/a	61	119	3	n/a	n/a	n/a	n/a	163.827	BM28ANS.jpg
136.395	0.514	Blank	Blank	101.07	n/a	2	4	1	n/a	61	n/a	3	n/a	n/a	n/a	n/a	164.324	n/a
136.926	0.497	happy	Picture	100.556	n/a	2	4	2	n/a	62	100	3	n/a	n/a	n/a	n/a	164.854	AF32ANS.jpg
137.423	0.514	Blank	Blank	100.042	n/a	2	4	2	n/a	62	n/a	3	n/a	n/a	n/a	n/a	165.352	n/a
137.954	0.497	happy	Picture	99.528	n/a	2	4	3	n/a	63	118	3	n/a	n/a	n/a	n/a	165.882	BM26ANS.jpg
138.451	0.514	Blank	Blank	99.014	n/a	2	4	3	n/a	63	n/a	3	n/a	n/a	n/a	n/a	166.38	n/a
138.982	0.497	happy	Picture	98.5	n/a	2	4	4	n/a	64	89	3	n/a	n/a	n/a	n/a	166.91	AF17ANS.jpg
139.479	0.514	Blank	Blank	97.986	n/a	2	4	4	n/a	64	n/a	3	n/a	n/a	n/a	n/a	167.407	n/a
140.009	0.497	happy	Picture	97.472	n/a	2	4	5	n/a	65	116	3	n/a	n/a	n/a	n/a	167.938	BM24ANS.jpg
140.507	0.514	Blank	Blank	96.959	n/a	2	4	5	n/a	65	n/a	3	n/a	n/a	n/a	n/a	168.435	n/a
141.037	0.497	happy	Picture	96.445	n/a	2	4	6	n/a	66	105	3	n/a	n/a	n/a	n/a	168.966	BM06ANS.jpg
141.535	0.514	Blank	Blank	95.931	n/a	2	4	6	n/a	66	n/a	3	n/a	n/a	n/a	n/a	169.463	n/a
142.065	0.497	happy	Picture	95.417	n/a	2	4	7	n/a	67	106	3	n/a	n/a	n/a	n/a	169.994	AM07ANS.jpg
142.563	0.514	Blank	Blank	94.903	n/a	2	4	7	n/a	67	n/a	3	n/a	n/a	n/a	n/a	170.491	n/a
143.093	0.497	happy	Picture	94.389	n/a	2	4	8	n/a	68	94	3	n/a	n/a	n/a	n/a	171.022	AF23ANS.jpg
143.59	0.514	Blank	Blank	93.875	n/a	2	4	8	n/a	68	n/a	3	n/a	n/a	n/a	n/a	171.519	n/a
144.121	0.497	happy	Picture	93.361	n/a	2	4	9	n/a	69	117	3	n/a	n/a	n/a	n/a	172.049	BM25ANS.jpg
144.618	0.514	Blank	Blank	92.847	n/a	2	4	9	n/a	69	n/a	3	n/a	n/a	n/a	n/a	172.547	n/a
145.149	0.497	happy	Picture	92.333	n/a	2	4	10	n/a	70	90	3	n/a	n/a	n/a	n/a	173.077	AF18ANS.jpg
145.646	0.514	Blank	Blank	91.819	n/a	2	4	10	n/a	70	n/a	3	n/a	n/a	n/a	n/a	173.575	n/a
146.177	0.497	happy	Picture	91.305	n/a	2	4	11	n/a	71	83	3	n/a	n/a	n/a	n/a	174.105	BF04ANS.jpg
146.674	0.514	Blank	Blank	90.791	n/a	2	4	11	n/a	71	n/a	3	n/a	n/a	n/a	n/a	174.603	n/a
147.205	0.497	happy	Picture	90.277	n/a	2	4	12	n/a	72	112	3	n/a	n/a	n/a	n/a	175.133	AM14ANS.jpg
147.702	0.514	Blank	Blank	89.763	n/a	2	4	12	n/a	72	n/a	3	n/a	n/a	n/a	n/a	175.631	n/a
148.233	0.497	happy	Picture	89.249	n/a	2	4	13	n/a	73	102	3	n/a	n/a	n/a	n/a	176.161	BM03ANS.jpg
148.73	0.514	Blank	Blank	88.735	n/a	2	4	13	n/a	73	n/a	3	n/a	n/a	n/a	n/a	176.659	n/a
149.26	0.497	happy	Picture	88.222	n/a	2	4	14	n/a	74	95	3	n/a	n/a	n/a	n/a	177.189	AF25ANS.jpg
149.758	0.514	Blank	Blank	87.708	n/a	2	4	14	n/a	74	n/a	3	n/a	n/a	n/a	n/a	177.686	n/a
150.288	0.497	happy	Picture	87.194	n/a	2	4	15	n/a	75	113	3	n/a	n/a	n/a	n/a	178.217	AM21ANS.jpg
150.786	0.514	Blank	Blank	86.68	n/a	2	4	15	n/a	75	n/a	3	n/a	n/a	n/a	n/a	178.714	n/a
151.316	0.497	happy	Picture	86.166	n/a	2	4	16	n/a	76	88	3	n/a	n/a	n/a	n/a	179.245	AF14ANS.jpg
151.814	0.514	Blank	Blank	85.652	n/a	2	4	16	n/a	76	n/a	3	n/a	n/a	n/a	n/a	179.742	n/a
152.344	0.497	happy	Picture	85.138	n/a	2	4	17	n/a	77	93	3	n/a	n/a	n/a	n/a	180.273	BF22ANS.jpg
152.841	0.514	Blank	Blank	84.624	n/a	2	4	17	n/a	77	n/a	3	n/a	n/a	n/a	n/a	180.77	n/a
153.372	0.497	happy	Picture	84.11	n/a	2	4	18	n/a	78	86	3	n/a	n/a	n/a	n/a	181.3	AF09ANS.jpg
153.869	0.514	Blank	Blank	83.596	n/a	2	4	18	n/a	78	n/a	3	n/a	n/a	n/a	n/a	181.798	n/a
154.4	0.497	happy	Picture	83.082	n/a	2	4	19	n/a	79	92	3	n/a	n/a	n/a	n/a	182.328	AF21ANS.jpg
154.897	0.514	Blank	Blank	82.568	n/a	2	4	19	n/a	79	n/a	3	n/a	n/a	n/a	n/a	182.826	n/a
155.428	0.497	happy	Picture	82.054	n/a	2	4	20	n/a	80	84	3	n/a	n/a	n/a	n/a	183.356	AF05ANS.jpg
155.925	0.514	Blank	Blank	81.54	n/a	2	4	20	n/a	80	n/a	3	n/a	n/a	n/a	n/a	183.854	n/a
156.456	10.014	ITI	Fixation+	71.51	n/a	2	n/a	n/a	n/a	n/a	n/a	n/a	n/a	n/a	n/a	n/a	184.384	n/a
166.486	0.497	neutral	Picture	70.996	n/a	2	5	1	n/a	81	4	1	n/a	n/a	n/a	n/a	194.414	AF05NES.jpg
166.983	0.514	Blank	Blank	70.482	n/a	2	5	1	n/a	81	n/a	1	n/a	n/a	n/a	n/a	194.912	n/a
167.514	0.497	neutral	Picture	69.968	n/a	2	5	2	n/a	82	14	1	n/a	n/a	n/a	n/a	195.442	AF23NES.jpg
168.011	0.514	Blank	Blank	69.454	n/a	2	5	2	n/a	82	n/a	1	n/a	n/a	n/a	n/a	195.94	n/a
168.542	0.497	neutral	Picture	68.94	n/a	2	5	3	n/a	83	19	1	n/a	n/a	n/a	n/a	196.47	AF31NES.jpg
169.039	0.514	Blank	Blank	68.426	n/a	2	5	3	n/a	83	n/a	1	n/a	n/a	n/a	n/a	196.968	n/a
169.569	0.497	neutral	Picture	67.912	n/a	2	5	4	n/a	84	8	1	n/a	n/a	n/a	n/a	197.498	AF14NES.jpg
170.067	0.514	Blank	Blank	67.399	n/a	2	5	4	n/a	84	n/a	1	n/a	n/a	n/a	n/a	197.995	n/a
170.597	0.497	neutral	Picture	66.885	n/a	2	5	5	n/a	85	25	1	n/a	n/a	n/a	n/a	198.526	BM06NES.jpg
171.095	0.514	Blank	Blank	66.371	n/a	2	5	5	n/a	85	n/a	1	n/a	n/a	n/a	n/a	199.023	n/a
171.625	0.497	neutral	Picture	65.857	n/a	2	5	6	n/a	86	9	1	n/a	n/a	n/a	n/a	199.554	AF17NES.jpg
172.123	0.514	Blank	Blank	65.343	n/a	2	5	6	n/a	86	n/a	1	n/a	n/a	n/a	n/a	200.051	n/a
172.653	0.497	neutral	Picture	64.829	n/a	2	5	7	n/a	87	2	1	n/a	n/a	n/a	n/a	200.582	AF03NES.jpg
173.15	0.514	Blank	Blank	64.315	n/a	2	5	7	n/a	87	n/a	1	n/a	n/a	n/a	n/a	201.079	n/a
173.681	0.497	neutral	Picture	63.801	n/a	2	5	8	n/a	88	17	1	n/a	n/a	n/a	n/a	201.61	BF28NES.jpg
174.178	0.514	Blank	Blank	63.287	n/a	2	5	8	n/a	88	n/a	1	n/a	n/a	n/a	n/a	202.107	n/a
174.709	0.497	neutral	Picture	62.773	n/a	2	5	9	n/a	89	6	1	n/a	n/a	n/a	n/a	202.637	AF09NES.jpg
175.206	0.514	Blank	Blank	62.259	n/a	2	5	9	n/a	89	n/a	1	n/a	n/a	n/a	n/a	203.135	n/a
175.737	0.497	neutral	Picture	61.745	n/a	2	5	10	n/a	90	12	1	n/a	n/a	n/a	n/a	203.665	AF21NES.jpg
176.234	0.514	Blank	Blank	61.231	n/a	2	5	10	n/a	90	n/a	1	n/a	n/a	n/a	n/a	204.163	n/a
176.765	0.497	neutral	Picture	60.717	n/a	2	5	11	n/a	91	24	1	n/a	n/a	n/a	n/a	204.693	BM05NES.jpg
177.262	0.514	Blank	Blank	60.203	n/a	2	5	11	n/a	91	n/a	1	n/a	n/a	n/a	n/a	205.191	n/a
177.793	0.497	neutral	Picture	59.689	n/a	2	5	12	n/a	92	34	1	n/a	n/a	n/a	n/a	205.721	AM22NES.jpg
178.29	0.514	Blank	Blank	59.175	n/a	2	5	12	n/a	92	n/a	1	n/a	n/a	n/a	n/a	206.219	n/a
178.82	0.497	neutral	Picture	58.661	n/a	2	5	13	n/a	93	23	1	n/a	n/a	n/a	n/a	206.749	AM04NES.jpg
179.318	0.514	Blank	Blank	58.148	n/a	2	5	13	n/a	93	n/a	1	n/a	n/a	n/a	n/a	207.246	n/a
179.848	0.497	neutral	Picture	57.634	n/a	2	5	14	n/a	94	15	1	n/a	n/a	n/a	n/a	207.777	AF25NES.jpg
180.346	0.514	Blank	Blank	57.12	n/a	2	5	14	n/a	94	n/a	1	n/a	n/a	n/a	n/a	208.274	n/a
180.876	0.497	neutral	Picture	56.606	n/a	2	5	15	n/a	95	37	1	n/a	n/a	n/a	n/a	208.805	BM25NES.jpg
181.374	0.514	Blank	Blank	56.092	n/a	2	5	15	n/a	95	n/a	1	n/a	n/a	n/a	n/a	209.302	n/a
181.904	0.497	neutral	Picture	55.578	n/a	2	5	16	n/a	96	32	1	n/a	n/a	n/a	n/a	209.833	AM14NES.jpg
182.401	0.514	Blank	Blank	55.064	n/a	2	5	16	n/a	96	n/a	1	n/a	n/a	n/a	n/a	210.33	n/a
182.932	0.497	neutral	Picture	54.55	n/a	2	5	17	n/a	97	3	1	n/a	n/a	n/a	n/a	210.861	BF04NES.jpg
183.429	0.514	Blank	Blank	54.036	n/a	2	5	17	n/a	97	n/a	1	n/a	n/a	n/a	n/a	211.358	n/a
183.96	0.497	neutral	Picture	53.522	n/a	2	5	18	n/a	98	16	1	n/a	n/a	n/a	n/a	211.888	AF26NES.jpg
184.457	0.514	Blank	Blank	53.008	n/a	2	5	18	n/a	98	n/a	1	n/a	n/a	n/a	n/a	212.386	n/a
184.988	0.497	neutral	Picture	52.494	n/a	2	5	19	n/a	99	27	1	n/a	n/a	n/a	n/a	212.916	BM08NES.jpg
185.485	0.514	Blank	Blank	51.98	n/a	2	5	19	n/a	99	n/a	1	n/a	n/a	n/a	n/a	213.414	n/a
186.016	0.497	neutral	Picture	51.466	n/a	2	5	20	n/a	100	28	1	n/a	n/a	n/a	n/a	213.944	AM09NES.jpg
186.513	0.514	Blank	Blank	50.952	n/a	2	5	20	n/a	100	n/a	1	n/a	n/a	n/a	n/a	214.442	n/a
187.044	10.014	ITI	Fixation+	40.922	n/a	2	n/a	n/a	n/a	n/a	n/a	n/a	n/a	n/a	n/a	n/a	214.972	n/a
197.074	0.497	happy	Picture	40.408	n/a	2	6	1	n/a	101	81	3	n/a	n/a	n/a	n/a	225.002	AF01ANS.jpg
197.571	0.514	Blank	Blank	39.894	n/a	2	6	1	n/a	101	n/a	3	n/a	n/a	n/a	n/a	225.5	n/a
198.102	0.497	happy	Picture	39.38	n/a	2	6	2	n/a	102	120	3	n/a	n/a	n/a	n/a	226.03	AM35ANS.jpg
198.599	0.514	Blank	Blank	38.866	n/a	2	6	2	n/a	102	n/a	3	n/a	n/a	n/a	n/a	226.528	n/a
199.129	0.497	happy	Picture	38.352	n/a	2	6	3	n/a	103	114	3	n/a	n/a	n/a	n/a	227.058	AM22ANS.jpg
199.627	0.514	Blank	Blank	37.839	n/a	2	6	3	n/a	103	n/a	3	n/a	n/a	n/a	n/a	227.555	n/a
200.157	0.497	happy	Picture	37.325	n/a	2	6	4	n/a	104	109	3	n/a	n/a	n/a	n/a	228.086	AM10ANS.jpg
200.655	0.514	Blank	Blank	36.811	n/a	2	6	4	n/a	104	n/a	3	n/a	n/a	n/a	n/a	228.583	n/a
201.185	0.497	happy	Picture	36.297	n/a	2	6	5	n/a	105	96	3	n/a	n/a	n/a	n/a	229.114	AF26ANS.jpg
201.683	0.514	Blank	Blank	35.783	n/a	2	6	5	n/a	105	n/a	3	n/a	n/a	n/a	n/a	229.611	n/a
202.213	0.497	happy	Picture	35.269	n/a	2	6	6	n/a	106	82	3	n/a	n/a	n/a	n/a	230.142	AF03ANS.jpg
202.71	0.514	Blank	Blank	34.755	n/a	2	6	6	n/a	106	n/a	3	n/a	n/a	n/a	n/a	230.639	n/a
203.241	0.497	happy	Picture	34.241	n/a	2	6	7	n/a	107	97	3	n/a	n/a	n/a	n/a	231.17	BF28ANS.jpg
203.738	0.514	Blank	Blank	33.727	n/a	2	6	7	n/a	107	n/a	3	n/a	n/a	n/a	n/a	231.667	n/a
204.269	0.497	happy	Picture	33.213	n/a	2	6	8	n/a	108	115	3	n/a	n/a	n/a	n/a	232.197	AM23ANS.jpg
204.766	0.514	Blank	Blank	32.699	n/a	2	6	8	n/a	108	n/a	3	n/a	n/a	n/a	n/a	232.695	n/a
205.297	0.497	happy	Picture	32.185	n/a	2	6	9	n/a	109	91	3	n/a	n/a	n/a	n/a	233.225	AF20ANS.jpg
205.794	0.514	Blank	Blank	31.671	n/a	2	6	9	n/a	109	n/a	3	n/a	n/a	n/a	n/a	233.723	n/a
206.325	0.497	happy	Picture	31.157	n/a	2	6	10	n/a	110	87	3	n/a	n/a	n/a	n/a	234.253	BF11ANS.jpg
206.822	0.514	Blank	Blank	30.643	n/a	2	6	10	n/a	110	n/a	3	n/a	n/a	n/a	n/a	234.751	n/a
207.353	0.497	happy	Picture	30.129	n/a	2	6	11	n/a	111	85	3	n/a	n/a	n/a	n/a	235.281	BF07ANS.jpg
207.85	0.514	Blank	Blank	29.615	n/a	2	6	11	n/a	111	n/a	3	n/a	n/a	n/a	n/a	235.779	n/a
208.38	0.497	happy	Picture	29.101	n/a	2	6	12	n/a	112	110	3	n/a	n/a	n/a	n/a	236.309	AM11ANS.jpg
208.878	0.514	Blank	Blank	28.588	n/a	2	6	12	n/a	112	n/a	3	n/a	n/a	n/a	n/a	236.806	n/a
209.408	0.497	happy	Picture	28.073	n/a	2	6	13	n/a	113	111	3	n/a	n/a	n/a	n/a	237.337	BM12ANS.jpg
209.906	0.514	Blank	Blank	27.56	n/a	2	6	13	n/a	113	n/a	3	n/a	n/a	n/a	n/a	237.834	n/a
210.436	0.497	happy	Picture	27.046	n/a	2	6	14	n/a	114	103	3	n/a	n/a	n/a	n/a	238.365	AM04ANS.jpg
210.934	0.514	Blank	Blank	26.532	n/a	2	6	14	n/a	114	n/a	3	n/a	n/a	n/a	n/a	238.862	n/a
211.464	0.497	happy	Picture	26.018	n/a	2	6	15	n/a	115	101	3	n/a	n/a	n/a	n/a	239.393	AM01ANS.jpg
211.961	0.514	Blank	Blank	25.504	n/a	2	6	15	n/a	115	n/a	3	n/a	n/a	n/a	n/a	239.89	n/a
212.492	0.497	happy	Picture	24.99	n/a	2	6	16	n/a	116	104	3	n/a	n/a	n/a	n/a	240.421	BM05ANS.jpg
212.989	0.514	Blank	Blank	24.476	n/a	2	6	16	n/a	116	n/a	3	n/a	n/a	n/a	n/a	240.918	n/a
213.52	0.497	happy	Picture	23.962	n/a	2	6	17	n/a	117	107	3	n/a	n/a	n/a	n/a	241.448	BM08ANS.jpg
214.017	0.514	Blank	Blank	23.448	n/a	2	6	17	n/a	117	n/a	3	n/a	n/a	n/a	n/a	241.946	n/a
214.548	0.497	happy	Picture	22.934	n/a	2	6	18	n/a	118	98	3	n/a	n/a	n/a	n/a	242.476	BF29ANS.jpg
215.045	0.514	Blank	Blank	22.42	n/a	2	6	18	n/a	118	n/a	3	n/a	n/a	n/a	n/a	242.974	n/a
215.576	0.497	happy	Picture	21.906	n/a	2	6	19	n/a	119	99	3	n/a	n/a	n/a	n/a	243.504	AF31ANS.jpg
216.073	0.514	Blank	Blank	21.392	n/a	2	6	19	n/a	119	n/a	3	n/a	n/a	n/a	n/a	244.002	n/a
216.604	0.497	happy	Picture	20.878	n/a	2	6	20	n/a	120	108	3	n/a	n/a	n/a	n/a	244.532	AM09ANS.jpg
217.101	0.514	Blank	Blank	20.364	n/a	2	6	20	n/a	120	n/a	3	n/a	n/a	n/a	n/a	245.03	n/a
217.631	10.014	ITI	Fixation+	10.334	n/a	2	n/a	n/a	n/a	n/a	n/a	n/a	n/a	n/a	n/a	n/a	245.56	n/a
237.979	n/a	ConfirmRating	Rate	n/a	10.328	2	n/a	n/a	0	n/a	n/a	n/a	2	Happy	86	86	265.908	n/a
253.465	n/a	ConfirmRating	Rate	n/a	15.468	2	n/a	n/a	1	n/a	n/a	n/a	3	Happy	2	2	281.394	n/a
253.491	15.004	Rest	Picture	n/a	n/a	n/a	n/a	n/a	n/a	n/a	n/a	n/a	0	n/a	0	0	281.42	n/a
268.512	10.014	ITI	Fixation+	96.226	n/a	3	n/a	n/a	n/a	n/a	n/a	n/a	n/a	n/a	n/a	n/a	296.44	n/a
278.542	0.497	angry	Picture	95.712	n/a	3	7	1	n/a	1	46	2	n/a	n/a	n/a	n/a	306.471	AF09HAS.jpg
279.039	0.514	Blank	Blank	95.198	n/a	3	7	1	n/a	1	n/a	2	n/a	n/a	n/a	n/a	306.968	n/a
279.57	0.497	angry	Picture	94.684	n/a	3	7	2	n/a	2	69	2	n/a	n/a	n/a	n/a	307.498	AM10HAS.jpg
280.067	0.514	Blank	Blank	94.17	n/a	3	7	2	n/a	2	n/a	2	n/a	n/a	n/a	n/a	307.996	n/a
280.598	0.497	angry	Picture	93.656	n/a	3	7	3	n/a	3	71	2	n/a	n/a	n/a	n/a	308.526	BM12HAS.jpg
281.095	0.514	Blank	Blank	93.142	n/a	3	7	3	n/a	3	n/a	2	n/a	n/a	n/a	n/a	309.024	n/a
281.626	0.497	angry	Picture	92.628	n/a	3	7	4	n/a	4	51	2	n/a	n/a	n/a	n/a	309.554	AF20HAS.jpg
282.123	0.514	Blank	Blank	92.114	n/a	3	7	4	n/a	4	n/a	2	n/a	n/a	n/a	n/a	310.051	n/a
282.654	0.497	angry	Picture	91.6	n/a	3	7	5	n/a	5	67	2	n/a	n/a	n/a	n/a	310.582	BM08HAS.jpg
283.151	0.514	Blank	Blank	91.086	n/a	3	7	5	n/a	5	n/a	2	n/a	n/a	n/a	n/a	311.079	n/a
283.681	0.497	angry	Picture	90.572	n/a	3	7	6	n/a	6	60	2	n/a	n/a	n/a	n/a	311.61	AF32HAS.jpg
284.179	0.514	Blank	Blank	90.058	n/a	3	7	6	n/a	6	n/a	2	n/a	n/a	n/a	n/a	312.107	n/a
284.709	0.497	angry	Picture	89.544	n/a	3	7	7	n/a	7	42	2	n/a	n/a	n/a	n/a	312.638	AF03HAS.jpg
285.207	0.514	Blank	Blank	89.031	n/a	3	7	7	n/a	7	n/a	2	n/a	n/a	n/a	n/a	313.135	n/a
285.737	0.497	angry	Picture	88.517	n/a	3	7	8	n/a	8	55	2	n/a	n/a	n/a	n/a	313.666	AF25HAS.jpg
286.234	0.514	Blank	Blank	88.003	n/a	3	7	8	n/a	8	n/a	2	n/a	n/a	n/a	n/a	314.163	n/a
286.765	0.497	angry	Picture	87.489	n/a	3	7	9	n/a	9	72	2	n/a	n/a	n/a	n/a	314.694	AM14HAS.jpg
287.262	0.514	Blank	Blank	86.975	n/a	3	7	9	n/a	9	n/a	2	n/a	n/a	n/a	n/a	315.191	n/a
287.793	0.497	angry	Picture	86.461	n/a	3	7	10	n/a	10	63	2	n/a	n/a	n/a	n/a	315.721	AM04HAS.jpg
288.29	0.514	Blank	Blank	85.947	n/a	3	7	10	n/a	10	n/a	2	n/a	n/a	n/a	n/a	316.219	n/a
288.821	0.497	angry	Picture	85.433	n/a	3	7	11	n/a	11	58	2	n/a	n/a	n/a	n/a	316.749	BF29HAS.jpg
289.318	0.514	Blank	Blank	84.919	n/a	3	7	11	n/a	11	n/a	2	n/a	n/a	n/a	n/a	317.247	n/a
289.849	0.497	angry	Picture	84.405	n/a	3	7	12	n/a	12	48	2	n/a	n/a	n/a	n/a	317.777	AF14HAS.jpg
290.346	0.514	Blank	Blank	83.891	n/a	3	7	12	n/a	12	n/a	2	n/a	n/a	n/a	n/a	318.275	n/a
290.877	0.497	angry	Picture	83.377	n/a	3	7	13	n/a	13	66	2	n/a	n/a	n/a	n/a	318.805	BM07HAS.jpg
291.374	0.514	Blank	Blank	82.863	n/a	3	7	13	n/a	13	n/a	2	n/a	n/a	n/a	n/a	319.303	n/a
291.904	0.497	angry	Picture	82.349	n/a	3	7	14	n/a	14	70	2	n/a	n/a	n/a	n/a	319.833	BM11HAS.jpg
292.402	0.514	Blank	Blank	81.835	n/a	3	7	14	n/a	14	n/a	2	n/a	n/a	n/a	n/a	320.33	n/a
292.932	0.497	angry	Picture	81.321	n/a	3	7	15	n/a	15	43	2	n/a	n/a	n/a	n/a	320.861	BF04HAS.jpg
293.43	0.514	Blank	Blank	80.808	n/a	3	7	15	n/a	15	n/a	2	n/a	n/a	n/a	n/a	321.358	n/a
293.96	0.497	angry	Picture	80.293	n/a	3	7	16	n/a	16	49	2	n/a	n/a	n/a	n/a	321.889	AF17HAS.jpg
294.458	0.514	Blank	Blank	79.78	n/a	3	7	16	n/a	16	n/a	2	n/a	n/a	n/a	n/a	322.386	n/a
294.988	0.497	angry	Picture	79.266	n/a	3	7	17	n/a	17	75	2	n/a	n/a	n/a	n/a	322.917	AM23HAS.jpg
295.486	0.514	Blank	Blank	78.752	n/a	3	7	17	n/a	17	n/a	2	n/a	n/a	n/a	n/a	323.414	n/a
296.016	0.497	angry	Picture	78.238	n/a	3	7	18	n/a	18	80	2	n/a	n/a	n/a	n/a	323.945	BM35HAS.jpg
296.513	0.514	Blank	Blank	77.724	n/a	3	7	18	n/a	18	n/a	2	n/a	n/a	n/a	n/a	324.442	n/a
297.044	0.497	angry	Picture	77.21	n/a	3	7	19	n/a	19	76	2	n/a	n/a	n/a	n/a	324.973	BM24HAS.jpg
297.541	0.514	Blank	Blank	76.696	n/a	3	7	19	n/a	19	n/a	2	n/a	n/a	n/a	n/a	325.47	n/a
298.072	0.497	angry	Picture	76.182	n/a	3	7	20	n/a	20	74	2	n/a	n/a	n/a	n/a	326.0	AM22HAS.jpg
298.569	0.514	Blank	Blank	75.668	n/a	3	7	20	n/a	20	n/a	2	n/a	n/a	n/a	n/a	326.498	n/a
299.1	10.014	ITI	Fixation+	65.638	n/a	3	n/a	n/a	n/a	n/a	n/a	n/a	n/a	n/a	n/a	n/a	327.028	n/a
309.13	0.497	neutral	Picture	65.124	n/a	3	8	1	n/a	21	33	1	n/a	n/a	n/a	n/a	337.058	AM21NES.jpg
309.627	0.514	Blank	Blank	64.61	n/a	3	8	1	n/a	21	n/a	1	n/a	n/a	n/a	n/a	337.556	n/a
310.158	0.497	neutral	Picture	64.096	n/a	3	8	2	n/a	22	39	1	n/a	n/a	n/a	n/a	338.086	AM28NES.jpg
310.655	0.514	Blank	Blank	63.582	n/a	3	8	2	n/a	22	n/a	1	n/a	n/a	n/a	n/a	338.584	n/a
311.186	0.497	neutral	Picture	63.068	n/a	3	8	3	n/a	23	25	1	n/a	n/a	n/a	n/a	339.114	BM06NES.jpg
311.683	0.514	Blank	Blank	62.554	n/a	3	8	3	n/a	23	n/a	1	n/a	n/a	n/a	n/a	339.612	n/a
312.214	0.497	neutral	Picture	62.04	n/a	3	8	4	n/a	24	5	1	n/a	n/a	n/a	n/a	340.142	BF07NES.jpg
312.711	0.514	Blank	Blank	61.526	n/a	3	8	4	n/a	24	n/a	1	n/a	n/a	n/a	n/a	340.639	n/a
313.241	0.497	neutral	Picture	61.012	n/a	3	8	5	n/a	25	10	1	n/a	n/a	n/a	n/a	341.17	AF18NES.jpg
313.739	0.514	Blank	Blank	60.498	n/a	3	8	5	n/a	25	n/a	1	n/a	n/a	n/a	n/a	341.667	n/a
314.269	0.497	neutral	Picture	59.985	n/a	3	8	6	n/a	26	34	1	n/a	n/a	n/a	n/a	342.198	AM22NES.jpg
314.767	0.514	Blank	Blank	59.471	n/a	3	8	6	n/a	26	n/a	1	n/a	n/a	n/a	n/a	342.695	n/a
315.297	0.497	neutral	Picture	58.957	n/a	3	8	7	n/a	27	36	1	n/a	n/a	n/a	n/a	343.226	BM24NES.jpg
315.794	0.514	Blank	Blank	58.443	n/a	3	8	7	n/a	27	n/a	1	n/a	n/a	n/a	n/a	343.723	n/a
316.325	0.497	neutral	Picture	57.929	n/a	3	8	8	n/a	28	14	1	n/a	n/a	n/a	n/a	344.254	AF23NES.jpg
316.822	0.514	Blank	Blank	57.415	n/a	3	8	8	n/a	28	n/a	1	n/a	n/a	n/a	n/a	344.751	n/a
317.353	0.497	neutral	Picture	56.901	n/a	3	8	9	n/a	29	9	1	n/a	n/a	n/a	n/a	345.281	AF17NES.jpg
317.85	0.514	Blank	Blank	56.387	n/a	3	8	9	n/a	29	n/a	1	n/a	n/a	n/a	n/a	345.779	n/a
318.381	0.497	neutral	Picture	55.873	n/a	3	8	10	n/a	30	19	1	n/a	n/a	n/a	n/a	346.309	AF31NES.jpg
318.878	0.514	Blank	Blank	55.359	n/a	3	8	10	n/a	30	n/a	1	n/a	n/a	n/a	n/a	346.807	n/a
319.409	0.497	neutral	Picture	54.845	n/a	3	8	11	n/a	31	15	1	n/a	n/a	n/a	n/a	347.337	AF25NES.jpg
319.906	0.514	Blank	Blank	54.331	n/a	3	8	11	n/a	31	n/a	1	n/a	n/a	n/a	n/a	347.835	n/a
320.437	0.497	neutral	Picture	53.817	n/a	3	8	12	n/a	32	22	1	n/a	n/a	n/a	n/a	348.365	BM03NES.jpg
320.934	0.514	Blank	Blank	53.303	n/a	3	8	12	n/a	32	n/a	1	n/a	n/a	n/a	n/a	348.863	n/a
321.464	0.497	neutral	Picture	52.789	n/a	3	8	13	n/a	33	11	1	n/a	n/a	n/a	n/a	349.393	AF20NES.jpg
321.962	0.514	Blank	Blank	52.275	n/a	3	8	13	n/a	33	n/a	1	n/a	n/a	n/a	n/a	349.89	n/a
322.492	0.497	neutral	Picture	51.761	n/a	3	8	14	n/a	34	4	1	n/a	n/a	n/a	n/a	350.421	AF05NES.jpg
322.99	0.514	Blank	Blank	51.247	n/a	3	8	14	n/a	34	n/a	1	n/a	n/a	n/a	n/a	350.918	n/a
323.52	0.497	neutral	Picture	50.733	n/a	3	8	15	n/a	35	17	1	n/a	n/a	n/a	n/a	351.449	BF28NES.jpg
324.018	0.514	Blank	Blank	50.22	n/a	3	8	15	n/a	35	n/a	1	n/a	n/a	n/a	n/a	351.946	n/a
324.548	0.497	neutral	Picture	49.706	n/a	3	8	16	n/a	36	13	1	n/a	n/a	n/a	n/a	352.477	BF22NES.jpg
325.046	0.514	Blank	Blank	49.192	n/a	3	8	16	n/a	36	n/a	1	n/a	n/a	n/a	n/a	352.974	n/a
325.576	0.497	neutral	Picture	48.678	n/a	3	8	17	n/a	37	12	1	n/a	n/a	n/a	n/a	353.505	AF21NES.jpg
326.073	0.514	Blank	Blank	48.164	n/a	3	8	17	n/a	37	n/a	1	n/a	n/a	n/a	n/a	354.002	n/a
326.604	0.497	neutral	Picture	47.65	n/a	3	8	18	n/a	38	24	1	n/a	n/a	n/a	n/a	354.533	BM05NES.jpg
327.101	0.514	Blank	Blank	47.136	n/a	3	8	18	n/a	38	n/a	1	n/a	n/a	n/a	n/a	355.03	n/a
327.632	0.497	neutral	Picture	46.622	n/a	3	8	19	n/a	39	29	1	n/a	n/a	n/a	n/a	355.56	AM10NES.jpg
328.129	0.514	Blank	Blank	46.108	n/a	3	8	19	n/a	39	n/a	1	n/a	n/a	n/a	n/a	356.058	n/a
328.66	0.497	neutral	Picture	45.594	n/a	3	8	20	n/a	40	23	1	n/a	n/a	n/a	n/a	356.588	AM04NES.jpg
329.157	0.514	Blank	Blank	45.08	n/a	3	8	20	n/a	40	n/a	1	n/a	n/a	n/a	n/a	357.086	n/a
329.688	10.014	ITI	Fixation+	35.05	n/a	3	n/a	n/a	n/a	n/a	n/a	n/a	n/a	n/a	n/a	n/a	357.616	n/a
339.718	0.497	angry	Picture	34.536	n/a	3	9	1	n/a	41	62	2	n/a	n/a	n/a	n/a	367.646	BM03HAS.jpg
340.215	0.514	Blank	Blank	34.022	n/a	3	9	1	n/a	41	n/a	2	n/a	n/a	n/a	n/a	368.144	n/a
340.746	0.497	angry	Picture	33.508	n/a	3	9	2	n/a	42	52	2	n/a	n/a	n/a	n/a	368.674	AF21HAS.jpg
341.243	0.514	Blank	Blank	32.994	n/a	3	9	2	n/a	42	n/a	2	n/a	n/a	n/a	n/a	369.172	n/a
341.773	0.497	angry	Picture	32.48	n/a	3	9	3	n/a	43	44	2	n/a	n/a	n/a	n/a	369.702	AF05HAS.jpg
342.271	0.514	Blank	Blank	31.966	n/a	3	9	3	n/a	43	n/a	2	n/a	n/a	n/a	n/a	370.2	n/a
342.801	0.497	angry	Picture	31.452	n/a	3	9	4	n/a	44	53	2	n/a	n/a	n/a	n/a	370.73	BF22HAS.jpg
343.299	0.514	Blank	Blank	30.938	n/a	3	9	4	n/a	44	n/a	2	n/a	n/a	n/a	n/a	371.227	n/a
343.829	0.497	angry	Picture	30.425	n/a	3	9	5	n/a	45	54	2	n/a	n/a	n/a	n/a	371.758	AF23HAS.jpg
344.327	0.514	Blank	Blank	29.911	n/a	3	9	5	n/a	45	n/a	2	n/a	n/a	n/a	n/a	372.255	n/a
344.857	0.497	angry	Picture	29.397	n/a	3	9	6	n/a	46	68	2	n/a	n/a	n/a	n/a	372.786	AM09HAS.jpg
345.354	0.514	Blank	Blank	28.883	n/a	3	9	6	n/a	46	n/a	2	n/a	n/a	n/a	n/a	373.283	n/a
345.885	0.497	angry	Picture	28.369	n/a	3	9	7	n/a	47	64	2	n/a	n/a	n/a	n/a	373.814	BM05HAS.jpg
346.382	0.514	Blank	Blank	27.855	n/a	3	9	7	n/a	47	n/a	2	n/a	n/a	n/a	n/a	374.311	n/a
346.913	0.497	angry	Picture	27.341	n/a	3	9	8	n/a	48	59	2	n/a	n/a	n/a	n/a	374.841	AF31HAS.jpg
347.41	0.514	Blank	Blank	26.827	n/a	3	9	8	n/a	48	n/a	2	n/a	n/a	n/a	n/a	375.339	n/a
347.941	0.497	angry	Picture	26.313	n/a	3	9	9	n/a	49	41	2	n/a	n/a	n/a	n/a	375.869	AF01HAS.jpg
348.438	0.514	Blank	Blank	25.799	n/a	3	9	9	n/a	49	n/a	2	n/a	n/a	n/a	n/a	376.367	n/a
348.969	0.497	angry	Picture	25.285	n/a	3	9	10	n/a	50	73	2	n/a	n/a	n/a	n/a	376.897	AM21HAS.jpg
349.466	0.514	Blank	Blank	24.771	n/a	3	9	10	n/a	50	n/a	2	n/a	n/a	n/a	n/a	377.395	n/a
349.997	0.497	angry	Picture	24.257	n/a	3	9	11	n/a	51	65	2	n/a	n/a	n/a	n/a	377.925	BM06HAS.jpg
350.494	0.514	Blank	Blank	23.743	n/a	3	9	11	n/a	51	n/a	2	n/a	n/a	n/a	n/a	378.423	n/a
351.024	0.497	angry	Picture	23.229	n/a	3	9	12	n/a	52	56	2	n/a	n/a	n/a	n/a	378.953	AF26HAS.jpg
351.522	0.514	Blank	Blank	22.715	n/a	3	9	12	n/a	52	n/a	2	n/a	n/a	n/a	n/a	379.45	n/a
352.052	0.497	angry	Picture	22.201	n/a	3	9	13	n/a	53	45	2	n/a	n/a	n/a	n/a	379.981	BF07HAS.jpg
352.55	0.514	Blank	Blank	21.687	n/a	3	9	13	n/a	53	n/a	2	n/a	n/a	n/a	n/a	380.478	n/a
353.08	0.497	angry	Picture	21.174	n/a	3	9	14	n/a	54	78	2	n/a	n/a	n/a	n/a	381.009	BM26HAS.jpg
353.578	0.514	Blank	Blank	20.66	n/a	3	9	14	n/a	54	n/a	2	n/a	n/a	n/a	n/a	381.506	n/a
354.108	0.497	angry	Picture	20.146	n/a	3	9	15	n/a	55	50	2	n/a	n/a	n/a	n/a	382.037	AF18HAS.jpg
354.606	0.514	Blank	Blank	19.632	n/a	3	9	15	n/a	55	n/a	2	n/a	n/a	n/a	n/a	382.534	n/a
355.136	0.497	angry	Picture	19.118	n/a	3	9	16	n/a	56	47	2	n/a	n/a	n/a	n/a	383.065	BF11HAS.jpg
355.633	0.514	Blank	Blank	18.604	n/a	3	9	16	n/a	56	n/a	2	n/a	n/a	n/a	n/a	383.562	n/a
356.164	0.497	angry	Picture	18.09	n/a	3	9	17	n/a	57	77	2	n/a	n/a	n/a	n/a	384.092	BM25HAS.jpg
356.661	0.514	Blank	Blank	17.576	n/a	3	9	17	n/a	57	n/a	2	n/a	n/a	n/a	n/a	384.59	n/a
357.192	0.497	angry	Picture	17.062	n/a	3	9	18	n/a	58	57	2	n/a	n/a	n/a	n/a	385.12	BF28HAS.jpg
357.689	0.514	Blank	Blank	16.548	n/a	3	9	18	n/a	58	n/a	2	n/a	n/a	n/a	n/a	385.618	n/a
358.22	0.497	angry	Picture	16.034	n/a	3	9	19	n/a	59	61	2	n/a	n/a	n/a	n/a	386.148	AM01HAS.jpg
358.717	0.514	Blank	Blank	15.52	n/a	3	9	19	n/a	59	n/a	2	n/a	n/a	n/a	n/a	386.646	n/a
359.248	0.497	angry	Picture	15.006	n/a	3	9	20	n/a	60	79	2	n/a	n/a	n/a	n/a	387.176	BM28HAS.jpg
359.745	0.514	Blank	Blank	14.492	n/a	3	9	20	n/a	60	n/a	2	n/a	n/a	n/a	n/a	387.673	n/a
360.275	10.014	ITI	Fixation+	4.462	n/a	3	n/a	n/a	n/a	n/a	n/a	n/a	n/a	n/a	n/a	n/a	388.204	n/a
374.751	n/a	ConfirmRating	Rate	n/a	4.459	3	n/a	n/a	0	n/a	n/a	n/a	2	Angry	65	65	402.68	n/a
382.408	n/a	ConfirmRating	Rate	n/a	7.626	3	n/a	n/a	1	n/a	n/a	n/a	3	Angry	29	29	410.337	n/a
382.425	10.014	ITI	Fixation+	97.972	n/a	4	n/a	n/a	n/a	n/a	n/a	n/a	n/a	n/a	n/a	n/a	410.353	n/a
392.455	0.497	happy	Picture	97.458	n/a	4	10	1	n/a	61	119	3	n/a	n/a	n/a	n/a	420.384	BM28ANS.jpg
392.952	0.514	Blank	Blank	96.944	n/a	4	10	1	n/a	61	n/a	3	n/a	n/a	n/a	n/a	420.881	n/a
393.483	0.497	happy	Picture	96.43	n/a	4	10	2	n/a	62	100	3	n/a	n/a	n/a	n/a	421.411	AF32ANS.jpg
393.98	0.514	Blank	Blank	95.916	n/a	4	10	2	n/a	62	n/a	3	n/a	n/a	n/a	n/a	421.909	n/a
394.511	0.497	happy	Picture	95.402	n/a	4	10	3	n/a	63	118	3	n/a	n/a	n/a	n/a	422.439	BM26ANS.jpg
395.008	0.514	Blank	Blank	94.889	n/a	4	10	3	n/a	63	n/a	3	n/a	n/a	n/a	n/a	422.937	n/a
395.539	0.497	happy	Picture	94.375	n/a	4	10	4	n/a	64	89	3	n/a	n/a	n/a	n/a	423.467	AF17ANS.jpg
396.036	0.514	Blank	Blank	93.861	n/a	4	10	4	n/a	64	n/a	3	n/a	n/a	n/a	n/a	423.964	n/a
396.566	0.497	happy	Picture	93.347	n/a	4	10	5	n/a	65	116	3	n/a	n/a	n/a	n/a	424.495	BM24ANS.jpg
397.064	0.514	Blank	Blank	92.833	n/a	4	10	5	n/a	65	n/a	3	n/a	n/a	n/a	n/a	424.992	n/a
397.594	0.497	happy	Picture	92.319	n/a	4	10	6	n/a	66	105	3	n/a	n/a	n/a	n/a	425.523	BM06ANS.jpg
398.092	0.514	Blank	Blank	91.805	n/a	4	10	6	n/a	66	n/a	3	n/a	n/a	n/a	n/a	426.02	n/a
398.622	0.497	happy	Picture	91.291	n/a	4	10	7	n/a	67	106	3	n/a	n/a	n/a	n/a	426.551	AM07ANS.jpg
399.12	0.514	Blank	Blank	90.777	n/a	4	10	7	n/a	67	n/a	3	n/a	n/a	n/a	n/a	427.048	n/a
399.65	0.497	happy	Picture	90.263	n/a	4	10	8	n/a	68	94	3	n/a	n/a	n/a	n/a	427.579	AF23ANS.jpg
400.147	0.514	Blank	Blank	89.749	n/a	4	10	8	n/a	68	n/a	3	n/a	n/a	n/a	n/a	428.076	n/a
400.678	0.497	happy	Picture	89.235	n/a	4	10	9	n/a	69	117	3	n/a	n/a	n/a	n/a	428.607	BM25ANS.jpg
401.175	0.514	Blank	Blank	88.721	n/a	4	10	9	n/a	69	n/a	3	n/a	n/a	n/a	n/a	429.104	n/a
401.706	0.497	happy	Picture	88.207	n/a	4	10	10	n/a	70	90	3	n/a	n/a	n/a	n/a	429.635	AF18ANS.jpg
402.203	0.514	Blank	Blank	87.693	n/a	4	10	10	n/a	70	n/a	3	n/a	n/a	n/a	n/a	430.132	n/a
402.734	0.497	happy	Picture	87.179	n/a	4	10	11	n/a	71	83	3	n/a	n/a	n/a	n/a	430.662	BF04ANS.jpg
403.231	0.514	Blank	Blank	86.665	n/a	4	10	11	n/a	71	n/a	3	n/a	n/a	n/a	n/a	431.16	n/a
403.762	0.497	happy	Picture	86.152	n/a	4	10	12	n/a	72	112	3	n/a	n/a	n/a	n/a	431.69	AM14ANS.jpg
404.259	0.514	Blank	Blank	85.638	n/a	4	10	12	n/a	72	n/a	3	n/a	n/a	n/a	n/a	432.188	n/a
404.79	0.497	happy	Picture	85.124	n/a	4	10	13	n/a	73	102	3	n/a	n/a	n/a	n/a	432.718	BM03ANS.jpg
405.287	0.514	Blank	Blank	84.61	n/a	4	10	13	n/a	73	n/a	3	n/a	n/a	n/a	n/a	433.216	n/a
405.817	0.497	happy	Picture	84.096	n/a	4	10	14	n/a	74	95	3	n/a	n/a	n/a	n/a	433.746	AF25ANS.jpg
406.315	0.514	Blank	Blank	83.582	n/a	4	10	14	n/a	74	n/a	3	n/a	n/a	n/a	n/a	434.243	n/a
406.845	0.497	happy	Picture	83.068	n/a	4	10	15	n/a	75	113	3	n/a	n/a	n/a	n/a	434.774	AM21ANS.jpg
407.343	0.514	Blank	Blank	82.554	n/a	4	10	15	n/a	75	n/a	3	n/a	n/a	n/a	n/a	435.271	n/a
407.873	0.497	happy	Picture	82.04	n/a	4	10	16	n/a	76	88	3	n/a	n/a	n/a	n/a	435.802	AF14ANS.jpg
408.371	0.514	Blank	Blank	81.526	n/a	4	10	16	n/a	76	n/a	3	n/a	n/a	n/a	n/a	436.299	n/a
408.901	0.497	happy	Picture	81.012	n/a	4	10	17	n/a	77	93	3	n/a	n/a	n/a	n/a	436.83	BF22ANS.jpg
409.398	0.514	Blank	Blank	80.498	n/a	4	10	17	n/a	77	n/a	3	n/a	n/a	n/a	n/a	437.327	n/a
409.929	0.497	happy	Picture	79.984	n/a	4	10	18	n/a	78	86	3	n/a	n/a	n/a	n/a	437.858	AF09ANS.jpg
410.426	0.514	Blank	Blank	79.47	n/a	4	10	18	n/a	78	n/a	3	n/a	n/a	n/a	n/a	438.355	n/a
410.957	0.497	happy	Picture	78.956	n/a	4	10	19	n/a	79	92	3	n/a	n/a	n/a	n/a	438.885	AF21ANS.jpg
411.454	0.514	Blank	Blank	78.442	n/a	4	10	19	n/a	79	n/a	3	n/a	n/a	n/a	n/a	439.383	n/a
411.985	0.497	happy	Picture	77.928	n/a	4	10	20	n/a	80	84	3	n/a	n/a	n/a	n/a	439.913	AF05ANS.jpg
412.482	0.514	Blank	Blank	77.414	n/a	4	10	20	n/a	80	n/a	3	n/a	n/a	n/a	n/a	440.411	n/a
413.013	10.014	ITI	Fixation+	67.384	n/a	4	n/a	n/a	n/a	n/a	n/a	n/a	n/a	n/a	n/a	n/a	440.941	n/a
423.043	0.497	neutral	Picture	66.87	n/a	4	11	1	n/a	81	4	1	n/a	n/a	n/a	n/a	450.971	AF05NES.jpg
423.54	0.514	Blank	Blank	66.356	n/a	4	11	1	n/a	81	n/a	1	n/a	n/a	n/a	n/a	451.469	n/a
424.071	0.497	neutral	Picture	65.842	n/a	4	11	2	n/a	82	14	1	n/a	n/a	n/a	n/a	451.999	AF23NES.jpg
424.568	0.514	Blank	Blank	65.329	n/a	4	11	2	n/a	82	n/a	1	n/a	n/a	n/a	n/a	452.497	n/a
425.099	0.497	neutral	Picture	64.815	n/a	4	11	3	n/a	83	19	1	n/a	n/a	n/a	n/a	453.027	AF31NES.jpg
425.596	0.514	Blank	Blank	64.301	n/a	4	11	3	n/a	83	n/a	1	n/a	n/a	n/a	n/a	453.525	n/a
426.126	0.497	neutral	Picture	63.787	n/a	4	11	4	n/a	84	8	1	n/a	n/a	n/a	n/a	454.055	AF14NES.jpg
426.624	0.514	Blank	Blank	63.273	n/a	4	11	4	n/a	84	n/a	1	n/a	n/a	n/a	n/a	454.552	n/a
427.154	0.497	neutral	Picture	62.759	n/a	4	11	5	n/a	85	25	1	n/a	n/a	n/a	n/a	455.083	BM06NES.jpg
427.652	0.514	Blank	Blank	62.245	n/a	4	11	5	n/a	85	n/a	1	n/a	n/a	n/a	n/a	455.58	n/a
428.182	0.497	neutral	Picture	61.731	n/a	4	11	6	n/a	86	9	1	n/a	n/a	n/a	n/a	456.111	AF17NES.jpg
428.68	0.514	Blank	Blank	61.217	n/a	4	11	6	n/a	86	n/a	1	n/a	n/a	n/a	n/a	456.608	n/a
429.21	0.497	neutral	Picture	60.703	n/a	4	11	7	n/a	87	2	1	n/a	n/a	n/a	n/a	457.139	AF03NES.jpg
429.707	0.514	Blank	Blank	60.189	n/a	4	11	7	n/a	87	n/a	1	n/a	n/a	n/a	n/a	457.636	n/a
430.238	0.497	neutral	Picture	59.675	n/a	4	11	8	n/a	88	17	1	n/a	n/a	n/a	n/a	458.167	BF28NES.jpg
430.735	0.514	Blank	Blank	59.161	n/a	4	11	8	n/a	88	n/a	1	n/a	n/a	n/a	n/a	458.664	n/a
431.266	0.497	neutral	Picture	58.647	n/a	4	11	9	n/a	89	6	1	n/a	n/a	n/a	n/a	459.195	AF09NES.jpg
431.763	0.514	Blank	Blank	58.133	n/a	4	11	9	n/a	89	n/a	1	n/a	n/a	n/a	n/a	459.692	n/a
432.294	0.497	neutral	Picture	57.619	n/a	4	11	10	n/a	90	12	1	n/a	n/a	n/a	n/a	460.222	AF21NES.jpg
432.791	0.514	Blank	Blank	57.105	n/a	4	11	10	n/a	90	n/a	1	n/a	n/a	n/a	n/a	460.72	n/a
433.322	0.497	neutral	Picture	56.592	n/a	4	11	11	n/a	91	24	1	n/a	n/a	n/a	n/a	461.25	BM05NES.jpg
433.819	0.514	Blank	Blank	56.078	n/a	4	11	11	n/a	91	n/a	1	n/a	n/a	n/a	n/a	461.748	n/a
434.35	0.497	neutral	Picture	55.564	n/a	4	11	12	n/a	92	34	1	n/a	n/a	n/a	n/a	462.278	AM22NES.jpg
434.847	0.514	Blank	Blank	55.05	n/a	4	11	12	n/a	92	n/a	1	n/a	n/a	n/a	n/a	462.776	n/a
435.377	0.497	neutral	Picture	54.536	n/a	4	11	13	n/a	93	23	1	n/a	n/a	n/a	n/a	463.306	AM04NES.jpg
435.875	0.514	Blank	Blank	54.022	n/a	4	11	13	n/a	93	n/a	1	n/a	n/a	n/a	n/a	463.803	n/a
436.405	0.497	neutral	Picture	53.508	n/a	4	11	14	n/a	94	15	1	n/a	n/a	n/a	n/a	464.334	AF25NES.jpg
436.903	0.514	Blank	Blank	52.994	n/a	4	11	14	n/a	94	n/a	1	n/a	n/a	n/a	n/a	464.831	n/a
437.433	0.497	neutral	Picture	52.48	n/a	4	11	15	n/a	95	37	1	n/a	n/a	n/a	n/a	465.362	BM25NES.jpg
437.931	0.514	Blank	Blank	51.966	n/a	4	11	15	n/a	95	n/a	1	n/a	n/a	n/a	n/a	465.859	n/a
438.461	0.497	neutral	Picture	51.452	n/a	4	11	16	n/a	96	32	1	n/a	n/a	n/a	n/a	466.39	AM14NES.jpg
438.958	0.514	Blank	Blank	50.938	n/a	4	11	16	n/a	96	n/a	1	n/a	n/a	n/a	n/a	466.887	n/a
439.489	0.497	neutral	Picture	50.424	n/a	4	11	17	n/a	97	3	1	n/a	n/a	n/a	n/a	467.418	BF04NES.jpg
439.986	0.514	Blank	Blank	49.91	n/a	4	11	17	n/a	97	n/a	1	n/a	n/a	n/a	n/a	467.915	n/a
440.517	0.497	neutral	Picture	49.396	n/a	4	11	18	n/a	98	16	1	n/a	n/a	n/a	n/a	468.445	AF26NES.jpg
441.014	0.514	Blank	Blank	48.882	n/a	4	11	18	n/a	98	n/a	1	n/a	n/a	n/a	n/a	468.943	n/a
441.545	0.497	neutral	Picture	48.368	n/a	4	11	19	n/a	99	27	1	n/a	n/a	n/a	n/a	469.473	BM08NES.jpg
442.042	0.514	Blank	Blank	47.854	n/a	4	11	19	n/a	99	n/a	1	n/a	n/a	n/a	n/a	469.971	n/a
442.573	0.497	neutral	Picture	47.341	n/a	4	11	20	n/a	100	28	1	n/a	n/a	n/a	n/a	470.501	AM09NES.jpg
443.07	0.514	Blank	Blank	46.827	n/a	4	11	20	n/a	100	n/a	1	n/a	n/a	n/a	n/a	470.999	n/a
443.601	10.014	ITI	Fixation+	36.796	n/a	4	n/a	n/a	n/a	n/a	n/a	n/a	n/a	n/a	n/a	n/a	471.529	n/a
453.631	0.497	happy	Picture	36.282	n/a	4	12	1	n/a	101	81	3	n/a	n/a	n/a	n/a	481.559	AF01ANS.jpg
454.128	0.514	Blank	Blank	35.769	n/a	4	12	1	n/a	101	n/a	3	n/a	n/a	n/a	n/a	482.057	n/a
454.659	0.497	happy	Picture	35.255	n/a	4	12	2	n/a	102	120	3	n/a	n/a	n/a	n/a	482.587	AM35ANS.jpg
455.156	0.514	Blank	Blank	34.741	n/a	4	12	2	n/a	102	n/a	3	n/a	n/a	n/a	n/a	483.085	n/a
455.686	0.497	happy	Picture	34.227	n/a	4	12	3	n/a	103	114	3	n/a	n/a	n/a	n/a	483.615	AM22ANS.jpg
456.184	0.514	Blank	Blank	33.713	n/a	4	12	3	n/a	103	n/a	3	n/a	n/a	n/a	n/a	484.113	n/a
456.714	0.497	happy	Picture	33.199	n/a	4	12	4	n/a	104	109	3	n/a	n/a	n/a	n/a	484.643	AM10ANS.jpg
457.212	0.514	Blank	Blank	32.685	n/a	4	12	4	n/a	104	n/a	3	n/a	n/a	n/a	n/a	485.14	n/a
457.742	0.497	happy	Picture	32.171	n/a	4	12	5	n/a	105	96	3	n/a	n/a	n/a	n/a	485.671	AF26ANS.jpg
458.24	0.514	Blank	Blank	31.657	n/a	4	12	5	n/a	105	n/a	3	n/a	n/a	n/a	n/a	486.168	n/a
458.77	0.497	happy	Picture	31.143	n/a	4	12	6	n/a	106	82	3	n/a	n/a	n/a	n/a	486.699	AF03ANS.jpg
459.267	0.514	Blank	Blank	30.629	n/a	4	12	6	n/a	106	n/a	3	n/a	n/a	n/a	n/a	487.196	n/a
459.798	0.497	happy	Picture	30.115	n/a	4	12	7	n/a	107	97	3	n/a	n/a	n/a	n/a	487.727	BF28ANS.jpg
460.295	0.514	Blank	Blank	29.601	n/a	4	12	7	n/a	107	n/a	3	n/a	n/a	n/a	n/a	488.224	n/a
460.826	0.497	happy	Picture	29.087	n/a	4	12	8	n/a	108	115	3	n/a	n/a	n/a	n/a	488.755	AM23ANS.jpg
461.323	0.514	Blank	Blank	28.573	n/a	4	12	8	n/a	108	n/a	3	n/a	n/a	n/a	n/a	489.252	n/a
461.854	0.497	happy	Picture	28.059	n/a	4	12	9	n/a	109	91	3	n/a	n/a	n/a	n/a	489.782	AF20ANS.jpg
462.351	0.514	Blank	Blank	27.545	n/a	4	12	9	n/a	109	n/a	3	n/a	n/a	n/a	n/a	490.28	n/a
462.882	0.497	happy	Picture	27.031	n/a	4	12	10	n/a	110	87	3	n/a	n/a	n/a	n/a	490.81	BF11ANS.jpg
463.379	0.514	Blank	Blank	26.518	n/a	4	12	10	n/a	110	n/a	3	n/a	n/a	n/a	n/a	491.308	n/a
463.91	0.497	happy	Picture	26.004	n/a	4	12	11	n/a	111	85	3	n/a	n/a	n/a	n/a	491.838	BF07ANS.jpg
464.407	0.514	Blank	Blank	25.49	n/a	4	12	11	n/a	111	n/a	3	n/a	n/a	n/a	n/a	492.336	n/a
464.938	0.497	happy	Picture	24.976	n/a	4	12	12	n/a	112	110	3	n/a	n/a	n/a	n/a	492.866	AM11ANS.jpg
465.435	0.514	Blank	Blank	24.462	n/a	4	12	12	n/a	112	n/a	3	n/a	n/a	n/a	n/a	493.363	n/a
465.965	0.497	happy	Picture	23.948	n/a	4	12	13	n/a	113	111	3	n/a	n/a	n/a	n/a	493.894	BM12ANS.jpg
466.463	0.514	Blank	Blank	23.434	n/a	4	12	13	n/a	113	n/a	3	n/a	n/a	n/a	n/a	494.391	n/a
466.993	0.497	happy	Picture	22.92	n/a	4	12	14	n/a	114	103	3	n/a	n/a	n/a	n/a	494.922	AM04ANS.jpg
467.491	0.514	Blank	Blank	22.406	n/a	4	12	14	n/a	114	n/a	3	n/a	n/a	n/a	n/a	495.419	n/a
468.021	0.497	happy	Picture	21.892	n/a	4	12	15	n/a	115	101	3	n/a	n/a	n/a	n/a	495.95	AM01ANS.jpg
468.518	0.514	Blank	Blank	21.378	n/a	4	12	15	n/a	115	n/a	3	n/a	n/a	n/a	n/a	496.447	n/a
469.049	0.497	happy	Picture	20.864	n/a	4	12	16	n/a	116	104	3	n/a	n/a	n/a	n/a	496.978	BM05ANS.jpg
469.546	0.514	Blank	Blank	20.35	n/a	4	12	16	n/a	116	n/a	3	n/a	n/a	n/a	n/a	497.475	n/a
470.077	0.497	happy	Picture	19.836	n/a	4	12	17	n/a	117	107	3	n/a	n/a	n/a	n/a	498.005	BM08ANS.jpg
470.574	0.514	Blank	Blank	19.322	n/a	4	12	17	n/a	117	n/a	3	n/a	n/a	n/a	n/a	498.503	n/a
471.105	0.497	happy	Picture	18.808	n/a	4	12	18	n/a	118	98	3	n/a	n/a	n/a	n/a	499.033	BF29ANS.jpg
471.602	0.514	Blank	Blank	18.294	n/a	4	12	18	n/a	118	n/a	3	n/a	n/a	n/a	n/a	499.531	n/a
472.133	0.497	happy	Picture	17.781	n/a	4	12	19	n/a	119	99	3	n/a	n/a	n/a	n/a	500.061	AF31ANS.jpg
472.63	0.514	Blank	Blank	17.267	n/a	4	12	19	n/a	119	n/a	3	n/a	n/a	n/a	n/a	500.559	n/a
473.161	0.497	happy	Picture	16.753	n/a	4	12	20	n/a	120	108	3	n/a	n/a	n/a	n/a	501.089	AM09ANS.jpg
473.658	0.514	Blank	Blank	16.239	n/a	4	12	20	n/a	120	n/a	3	n/a	n/a	n/a	n/a	501.587	n/a
474.188	10.014	ITI	Fixation+	6.209	n/a	4	n/a	n/a	n/a	n/a	n/a	n/a	n/a	n/a	n/a	n/a	502.117	n/a
490.411	n/a	ConfirmRating	Rate	n/a	6.2	4	n/a	n/a	0	n/a	n/a	n/a	2	Happy	75	75	518.339	n/a
500.779	n/a	ConfirmRating	Rate	n/a	10.345	4	n/a	n/a	1	n/a	n/a	n/a	3	Happy	13	13	528.708	n/a
