onset	duration	trial_type	event_type	time_until_response	response_time	trial_number	block_num_within_trial	image_seq_num_within_block	question_seq_num_within_block	image_seq_num	picture_number	condition	question_type	block_type	rating	rating_computed	onset_uncorrected	KDEV_imagefile
0.006	10.014	ITI	Fixation+	100.699	n/a	1	n/a	n/a	n/a	n/a	n/a	n/a	n/a	n/a	n/a	n/a	32.041	n/a
10.037	0.497	happy	Picture	100.185	n/a	1	1	1	n/a	1	46	2	n/a	n/a	n/a	n/a	42.072	AF09HAS.jpg
10.534	0.514	Blank	Blank	99.671	n/a	1	1	1	n/a	1	n/a	2	n/a	n/a	n/a	n/a	42.569	n/a
11.064	0.497	happy	Picture	99.157	n/a	1	1	2	n/a	2	69	2	n/a	n/a	n/a	n/a	43.099	AM10HAS.jpg
11.562	0.514	Blank	Blank	98.643	n/a	1	1	2	n/a	2	n/a	2	n/a	n/a	n/a	n/a	43.597	n/a
12.092	0.497	happy	Picture	98.129	n/a	1	1	3	n/a	3	71	2	n/a	n/a	n/a	n/a	44.127	BM12HAS.jpg
12.59	0.514	Blank	Blank	97.615	n/a	1	1	3	n/a	3	n/a	2	n/a	n/a	n/a	n/a	44.625	n/a
13.12	0.497	happy	Picture	97.101	n/a	1	1	4	n/a	4	51	2	n/a	n/a	n/a	n/a	45.155	AF20HAS.jpg
13.618	0.514	Blank	Blank	96.587	n/a	1	1	4	n/a	4	n/a	2	n/a	n/a	n/a	n/a	45.653	n/a
14.148	0.497	happy	Picture	96.073	n/a	1	1	5	n/a	5	67	2	n/a	n/a	n/a	n/a	46.183	BM08HAS.jpg
14.645	0.514	Blank	Blank	95.559	n/a	1	1	5	n/a	5	n/a	2	n/a	n/a	n/a	n/a	46.68	n/a
15.176	0.497	happy	Picture	95.045	n/a	1	1	6	n/a	6	60	2	n/a	n/a	n/a	n/a	47.211	AF32HAS.jpg
15.673	0.514	Blank	Blank	94.531	n/a	1	1	6	n/a	6	n/a	2	n/a	n/a	n/a	n/a	47.708	n/a
16.204	0.497	happy	Picture	94.017	n/a	1	1	7	n/a	7	42	2	n/a	n/a	n/a	n/a	48.239	AF03HAS.jpg
16.701	0.514	Blank	Blank	93.503	n/a	1	1	7	n/a	7	n/a	2	n/a	n/a	n/a	n/a	48.736	n/a
17.232	0.497	happy	Picture	92.989	n/a	1	1	8	n/a	8	55	2	n/a	n/a	n/a	n/a	49.267	AF25HAS.jpg
17.729	0.514	Blank	Blank	92.476	n/a	1	1	8	n/a	8	n/a	2	n/a	n/a	n/a	n/a	49.764	n/a
18.26	0.497	happy	Picture	91.962	n/a	1	1	9	n/a	9	72	2	n/a	n/a	n/a	n/a	50.295	AM14HAS.jpg
18.757	0.514	Blank	Blank	91.448	n/a	1	1	9	n/a	9	n/a	2	n/a	n/a	n/a	n/a	50.792	n/a
19.288	0.497	happy	Picture	90.934	n/a	1	1	10	n/a	10	63	2	n/a	n/a	n/a	n/a	51.322	AM04HAS.jpg
19.785	0.514	Blank	Blank	90.42	n/a	1	1	10	n/a	10	n/a	2	n/a	n/a	n/a	n/a	51.82	n/a
20.315	0.497	happy	Picture	89.906	n/a	1	1	11	n/a	11	58	2	n/a	n/a	n/a	n/a	52.35	BF29HAS.jpg
20.813	0.514	Blank	Blank	89.392	n/a	1	1	11	n/a	11	n/a	2	n/a	n/a	n/a	n/a	52.848	n/a
21.343	0.497	happy	Picture	88.878	n/a	1	1	12	n/a	12	48	2	n/a	n/a	n/a	n/a	53.378	AF14HAS.jpg
21.841	0.514	Blank	Blank	88.364	n/a	1	1	12	n/a	12	n/a	2	n/a	n/a	n/a	n/a	53.876	n/a
22.371	0.497	happy	Picture	87.85	n/a	1	1	13	n/a	13	66	2	n/a	n/a	n/a	n/a	54.406	BM07HAS.jpg
22.869	0.514	Blank	Blank	87.336	n/a	1	1	13	n/a	13	n/a	2	n/a	n/a	n/a	n/a	54.904	n/a
23.399	0.497	happy	Picture	86.822	n/a	1	1	14	n/a	14	70	2	n/a	n/a	n/a	n/a	55.434	BM11HAS.jpg
23.896	0.514	Blank	Blank	86.308	n/a	1	1	14	n/a	14	n/a	2	n/a	n/a	n/a	n/a	55.931	n/a
24.427	0.497	happy	Picture	85.794	n/a	1	1	15	n/a	15	43	2	n/a	n/a	n/a	n/a	56.462	BF04HAS.jpg
24.924	0.514	Blank	Blank	85.28	n/a	1	1	15	n/a	15	n/a	2	n/a	n/a	n/a	n/a	56.959	n/a
25.455	0.497	happy	Picture	84.766	n/a	1	1	16	n/a	16	49	2	n/a	n/a	n/a	n/a	57.49	AF17HAS.jpg
25.952	0.514	Blank	Blank	84.252	n/a	1	1	16	n/a	16	n/a	2	n/a	n/a	n/a	n/a	57.987	n/a
26.483	0.497	happy	Picture	83.739	n/a	1	1	17	n/a	17	75	2	n/a	n/a	n/a	n/a	58.518	AM23HAS.jpg
26.98	0.514	Blank	Blank	83.225	n/a	1	1	17	n/a	17	n/a	2	n/a	n/a	n/a	n/a	59.015	n/a
27.511	0.497	happy	Picture	82.711	n/a	1	1	18	n/a	18	80	2	n/a	n/a	n/a	n/a	59.545	BM35HAS.jpg
28.008	0.514	Blank	Blank	82.197	n/a	1	1	18	n/a	18	n/a	2	n/a	n/a	n/a	n/a	60.043	n/a
28.538	0.497	happy	Picture	81.683	n/a	1	1	19	n/a	19	76	2	n/a	n/a	n/a	n/a	60.573	BM24HAS.jpg
29.036	0.514	Blank	Blank	81.169	n/a	1	1	19	n/a	19	n/a	2	n/a	n/a	n/a	n/a	61.071	n/a
29.566	0.497	happy	Picture	80.655	n/a	1	1	20	n/a	20	74	2	n/a	n/a	n/a	n/a	61.601	AM22HAS.jpg
30.064	0.514	Blank	Blank	80.141	n/a	1	1	20	n/a	20	n/a	2	n/a	n/a	n/a	n/a	62.099	n/a
30.594	10.014	ITI	Fixation+	70.111	n/a	1	n/a	n/a	n/a	n/a	n/a	n/a	n/a	n/a	n/a	n/a	62.629	n/a
40.624	0.497	neutral	Picture	69.597	n/a	1	2	1	n/a	21	33	1	n/a	n/a	n/a	n/a	72.659	AM21NES.jpg
41.122	0.514	Blank	Blank	69.083	n/a	1	2	1	n/a	21	n/a	1	n/a	n/a	n/a	n/a	73.157	n/a
41.652	0.497	neutral	Picture	68.569	n/a	1	2	2	n/a	22	39	1	n/a	n/a	n/a	n/a	73.687	AM28NES.jpg
42.15	0.514	Blank	Blank	68.055	n/a	1	2	2	n/a	22	n/a	1	n/a	n/a	n/a	n/a	74.184	n/a
42.68	0.497	neutral	Picture	67.541	n/a	1	2	3	n/a	23	25	1	n/a	n/a	n/a	n/a	74.715	BM06NES.jpg
43.177	0.514	Blank	Blank	67.027	n/a	1	2	3	n/a	23	n/a	1	n/a	n/a	n/a	n/a	75.212	n/a
43.708	0.497	neutral	Picture	66.513	n/a	1	2	4	n/a	24	5	1	n/a	n/a	n/a	n/a	75.743	BF07NES.jpg
44.205	0.514	Blank	Blank	65.999	n/a	1	2	4	n/a	24	n/a	1	n/a	n/a	n/a	n/a	76.24	n/a
44.736	0.497	neutral	Picture	65.485	n/a	1	2	5	n/a	25	10	1	n/a	n/a	n/a	n/a	76.771	AF18NES.jpg
45.233	0.514	Blank	Blank	64.971	n/a	1	2	5	n/a	25	n/a	1	n/a	n/a	n/a	n/a	77.268	n/a
45.764	0.497	neutral	Picture	64.457	n/a	1	2	6	n/a	26	34	1	n/a	n/a	n/a	n/a	77.799	AM22NES.jpg
46.261	0.514	Blank	Blank	63.944	n/a	1	2	6	n/a	26	n/a	1	n/a	n/a	n/a	n/a	78.296	n/a
46.792	0.497	neutral	Picture	63.43	n/a	1	2	7	n/a	27	36	1	n/a	n/a	n/a	n/a	78.827	BM24NES.jpg
47.289	0.514	Blank	Blank	62.916	n/a	1	2	7	n/a	27	n/a	1	n/a	n/a	n/a	n/a	79.324	n/a
47.82	0.497	neutral	Picture	62.402	n/a	1	2	8	n/a	28	14	1	n/a	n/a	n/a	n/a	79.855	AF23NES.jpg
48.317	0.514	Blank	Blank	61.888	n/a	1	2	8	n/a	28	n/a	1	n/a	n/a	n/a	n/a	80.352	n/a
48.847	0.497	neutral	Picture	61.374	n/a	1	2	9	n/a	29	9	1	n/a	n/a	n/a	n/a	80.882	AF17NES.jpg
49.345	0.514	Blank	Blank	60.86	n/a	1	2	9	n/a	29	n/a	1	n/a	n/a	n/a	n/a	81.38	n/a
49.875	0.497	neutral	Picture	60.346	n/a	1	2	10	n/a	30	19	1	n/a	n/a	n/a	n/a	81.91	AF31NES.jpg
50.373	0.514	Blank	Blank	59.832	n/a	1	2	10	n/a	30	n/a	1	n/a	n/a	n/a	n/a	82.408	n/a
50.903	0.497	neutral	Picture	59.318	n/a	1	2	11	n/a	31	15	1	n/a	n/a	n/a	n/a	82.938	AF25NES.jpg
51.401	0.514	Blank	Blank	58.804	n/a	1	2	11	n/a	31	n/a	1	n/a	n/a	n/a	n/a	83.436	n/a
51.931	0.497	neutral	Picture	58.29	n/a	1	2	12	n/a	32	22	1	n/a	n/a	n/a	n/a	83.966	BM03NES.jpg
52.428	0.514	Blank	Blank	57.776	n/a	1	2	12	n/a	32	n/a	1	n/a	n/a	n/a	n/a	84.463	n/a
52.959	0.497	neutral	Picture	57.262	n/a	1	2	13	n/a	33	11	1	n/a	n/a	n/a	n/a	84.994	AF20NES.jpg
53.456	0.514	Blank	Blank	56.748	n/a	1	2	13	n/a	33	n/a	1	n/a	n/a	n/a	n/a	85.491	n/a
53.987	0.497	neutral	Picture	56.234	n/a	1	2	14	n/a	34	4	1	n/a	n/a	n/a	n/a	86.022	AF05NES.jpg
54.484	0.514	Blank	Blank	55.72	n/a	1	2	14	n/a	34	n/a	1	n/a	n/a	n/a	n/a	86.519	n/a
55.015	0.497	neutral	Picture	55.206	n/a	1	2	15	n/a	35	17	1	n/a	n/a	n/a	n/a	87.05	BF28NES.jpg
55.512	0.514	Blank	Blank	54.693	n/a	1	2	15	n/a	35	n/a	1	n/a	n/a	n/a	n/a	87.547	n/a
56.043	0.497	neutral	Picture	54.179	n/a	1	2	16	n/a	36	13	1	n/a	n/a	n/a	n/a	88.078	BF22NES.jpg
56.54	0.514	Blank	Blank	53.665	n/a	1	2	16	n/a	36	n/a	1	n/a	n/a	n/a	n/a	88.575	n/a
57.07	0.497	neutral	Picture	53.151	n/a	1	2	17	n/a	37	12	1	n/a	n/a	n/a	n/a	89.105	AF21NES.jpg
57.568	0.514	Blank	Blank	52.637	n/a	1	2	17	n/a	37	n/a	1	n/a	n/a	n/a	n/a	89.603	n/a
58.098	0.497	neutral	Picture	52.123	n/a	1	2	18	n/a	38	24	1	n/a	n/a	n/a	n/a	90.133	BM05NES.jpg
58.596	0.514	Blank	Blank	51.609	n/a	1	2	18	n/a	38	n/a	1	n/a	n/a	n/a	n/a	90.631	n/a
59.126	0.497	neutral	Picture	51.095	n/a	1	2	19	n/a	39	29	1	n/a	n/a	n/a	n/a	91.161	AM10NES.jpg
59.624	0.514	Blank	Blank	50.581	n/a	1	2	19	n/a	39	n/a	1	n/a	n/a	n/a	n/a	91.659	n/a
60.154	0.497	neutral	Picture	50.067	n/a	1	2	20	n/a	40	23	1	n/a	n/a	n/a	n/a	92.189	AM04NES.jpg
60.651	0.514	Blank	Blank	49.553	n/a	1	2	20	n/a	40	n/a	1	n/a	n/a	n/a	n/a	92.686	n/a
61.182	10.014	ITI	Fixation+	39.523	n/a	1	n/a	n/a	n/a	n/a	n/a	n/a	n/a	n/a	n/a	n/a	93.217	n/a
71.212	0.497	happy	Picture	39.009	n/a	1	3	1	n/a	41	62	2	n/a	n/a	n/a	n/a	103.247	BM03HAS.jpg
71.71	0.514	Blank	Blank	38.495	n/a	1	3	1	n/a	41	n/a	2	n/a	n/a	n/a	n/a	103.745	n/a
72.24	0.497	happy	Picture	37.981	n/a	1	3	2	n/a	42	52	2	n/a	n/a	n/a	n/a	104.275	AF21HAS.jpg
72.737	0.514	Blank	Blank	37.467	n/a	1	3	2	n/a	42	n/a	2	n/a	n/a	n/a	n/a	104.772	n/a
73.268	0.497	happy	Picture	36.953	n/a	1	3	3	n/a	43	44	2	n/a	n/a	n/a	n/a	105.303	AF05HAS.jpg
73.765	0.514	Blank	Blank	36.439	n/a	1	3	3	n/a	43	n/a	2	n/a	n/a	n/a	n/a	105.8	n/a
74.296	0.497	happy	Picture	35.925	n/a	1	3	4	n/a	44	53	2	n/a	n/a	n/a	n/a	106.331	BF22HAS.jpg
74.793	0.514	Blank	Blank	35.411	n/a	1	3	4	n/a	44	n/a	2	n/a	n/a	n/a	n/a	106.828	n/a
75.324	0.497	happy	Picture	34.898	n/a	1	3	5	n/a	45	54	2	n/a	n/a	n/a	n/a	107.359	AF23HAS.jpg
75.821	0.514	Blank	Blank	34.384	n/a	1	3	5	n/a	45	n/a	2	n/a	n/a	n/a	n/a	107.856	n/a
76.352	0.497	happy	Picture	33.87	n/a	1	3	6	n/a	46	68	2	n/a	n/a	n/a	n/a	108.386	AM09HAS.jpg
76.849	0.514	Blank	Blank	33.356	n/a	1	3	6	n/a	46	n/a	2	n/a	n/a	n/a	n/a	108.884	n/a
77.379	0.497	happy	Picture	32.842	n/a	1	3	7	n/a	47	64	2	n/a	n/a	n/a	n/a	109.414	BM05HAS.jpg
77.877	0.514	Blank	Blank	32.328	n/a	1	3	7	n/a	47	n/a	2	n/a	n/a	n/a	n/a	109.912	n/a
78.407	0.497	happy	Picture	31.814	n/a	1	3	8	n/a	48	59	2	n/a	n/a	n/a	n/a	110.442	AF31HAS.jpg
78.905	0.514	Blank	Blank	31.3	n/a	1	3	8	n/a	48	n/a	2	n/a	n/a	n/a	n/a	110.94	n/a
79.435	0.497	happy	Picture	30.786	n/a	1	3	9	n/a	49	41	2	n/a	n/a	n/a	n/a	111.47	AF01HAS.jpg
79.933	0.514	Blank	Blank	30.272	n/a	1	3	9	n/a	49	n/a	2	n/a	n/a	n/a	n/a	111.968	n/a
80.463	0.497	happy	Picture	29.758	n/a	1	3	10	n/a	50	73	2	n/a	n/a	n/a	n/a	112.498	AM21HAS.jpg
80.96	0.514	Blank	Blank	29.244	n/a	1	3	10	n/a	50	n/a	2	n/a	n/a	n/a	n/a	112.995	n/a
81.491	0.497	happy	Picture	28.73	n/a	1	3	11	n/a	51	65	2	n/a	n/a	n/a	n/a	113.526	BM06HAS.jpg
81.988	0.514	Blank	Blank	28.216	n/a	1	3	11	n/a	51	n/a	2	n/a	n/a	n/a	n/a	114.023	n/a
82.519	0.497	happy	Picture	27.702	n/a	1	3	12	n/a	52	56	2	n/a	n/a	n/a	n/a	114.554	AF26HAS.jpg
83.016	0.514	Blank	Blank	27.188	n/a	1	3	12	n/a	52	n/a	2	n/a	n/a	n/a	n/a	115.051	n/a
83.547	0.497	happy	Picture	26.675	n/a	1	3	13	n/a	53	45	2	n/a	n/a	n/a	n/a	115.582	BF07HAS.jpg
84.044	0.514	Blank	Blank	26.161	n/a	1	3	13	n/a	53	n/a	2	n/a	n/a	n/a	n/a	116.079	n/a
84.575	0.497	happy	Picture	25.647	n/a	1	3	14	n/a	54	78	2	n/a	n/a	n/a	n/a	116.61	BM26HAS.jpg
85.072	0.514	Blank	Blank	25.133	n/a	1	3	14	n/a	54	n/a	2	n/a	n/a	n/a	n/a	117.107	n/a
85.602	0.497	happy	Picture	24.619	n/a	1	3	15	n/a	55	50	2	n/a	n/a	n/a	n/a	117.637	AF18HAS.jpg
86.1	0.514	Blank	Blank	24.105	n/a	1	3	15	n/a	55	n/a	2	n/a	n/a	n/a	n/a	118.135	n/a
86.63	0.497	happy	Picture	23.591	n/a	1	3	16	n/a	56	47	2	n/a	n/a	n/a	n/a	118.665	BF11HAS.jpg
87.128	0.514	Blank	Blank	23.077	n/a	1	3	16	n/a	56	n/a	2	n/a	n/a	n/a	n/a	119.163	n/a
87.658	0.497	happy	Picture	22.563	n/a	1	3	17	n/a	57	77	2	n/a	n/a	n/a	n/a	119.693	BM25HAS.jpg
88.156	0.514	Blank	Blank	22.049	n/a	1	3	17	n/a	57	n/a	2	n/a	n/a	n/a	n/a	120.191	n/a
88.686	0.497	happy	Picture	21.535	n/a	1	3	18	n/a	58	57	2	n/a	n/a	n/a	n/a	120.721	BF28HAS.jpg
89.184	0.514	Blank	Blank	21.021	n/a	1	3	18	n/a	58	n/a	2	n/a	n/a	n/a	n/a	121.219	n/a
89.714	0.497	happy	Picture	20.507	n/a	1	3	19	n/a	59	61	2	n/a	n/a	n/a	n/a	121.749	AM01HAS.jpg
90.211	0.514	Blank	Blank	19.993	n/a	1	3	19	n/a	59	n/a	2	n/a	n/a	n/a	n/a	122.246	n/a
90.742	0.497	happy	Picture	19.479	n/a	1	3	20	n/a	60	79	2	n/a	n/a	n/a	n/a	122.777	BM28HAS.jpg
91.239	0.514	Blank	Blank	18.965	n/a	1	3	20	n/a	60	n/a	2	n/a	n/a	n/a	n/a	123.274	n/a
91.77	10.014	ITI	Fixation+	8.935	n/a	1	n/a	n/a	n/a	n/a	n/a	n/a	n/a	n/a	n/a	n/a	123.805	n/a
110.719	n/a	ConfirmRating	Rate	n/a	8.92	1	n/a	n/a	0	n/a	n/a	n/a	2	Happy	70	51	142.754	n/a
118.709	n/a	ConfirmRating	Rate	n/a	7.975	1	n/a	n/a	1	n/a	n/a	n/a	3	Happy	31	49	150.744	n/a
118.727	10.014	ITI	Fixation+	98.154	n/a	2	n/a	n/a	n/a	n/a	n/a	n/a	n/a	n/a	n/a	n/a	150.762	n/a
128.757	0.497	angry	Picture	97.64	n/a	2	4	1	n/a	61	119	3	n/a	n/a	n/a	n/a	160.792	BM28ANS.jpg
129.254	0.514	Blank	Blank	97.126	n/a	2	4	1	n/a	61	n/a	3	n/a	n/a	n/a	n/a	161.289	n/a
129.785	0.497	angry	Picture	96.612	n/a	2	4	2	n/a	62	100	3	n/a	n/a	n/a	n/a	161.82	AF32ANS.jpg
130.282	0.514	Blank	Blank	96.098	n/a	2	4	2	n/a	62	n/a	3	n/a	n/a	n/a	n/a	162.317	n/a
130.813	0.497	angry	Picture	95.584	n/a	2	4	3	n/a	63	118	3	n/a	n/a	n/a	n/a	162.848	BM26ANS.jpg
131.31	0.514	Blank	Blank	95.07	n/a	2	4	3	n/a	63	n/a	3	n/a	n/a	n/a	n/a	163.345	n/a
131.841	0.497	angry	Picture	94.556	n/a	2	4	4	n/a	64	89	3	n/a	n/a	n/a	n/a	163.876	AF17ANS.jpg
132.338	0.514	Blank	Blank	94.042	n/a	2	4	4	n/a	64	n/a	3	n/a	n/a	n/a	n/a	164.373	n/a
132.869	0.497	angry	Picture	93.529	n/a	2	4	5	n/a	65	116	3	n/a	n/a	n/a	n/a	164.904	BM24ANS.jpg
133.366	0.514	Blank	Blank	93.014	n/a	2	4	5	n/a	65	n/a	3	n/a	n/a	n/a	n/a	165.401	n/a
133.896	0.497	angry	Picture	92.501	n/a	2	4	6	n/a	66	105	3	n/a	n/a	n/a	n/a	165.931	BM06ANS.jpg
134.394	0.514	Blank	Blank	91.987	n/a	2	4	6	n/a	66	n/a	3	n/a	n/a	n/a	n/a	166.429	n/a
134.924	0.497	angry	Picture	91.473	n/a	2	4	7	n/a	67	106	3	n/a	n/a	n/a	n/a	166.959	AM07ANS.jpg
135.422	0.514	Blank	Blank	90.959	n/a	2	4	7	n/a	67	n/a	3	n/a	n/a	n/a	n/a	167.457	n/a
135.952	0.497	angry	Picture	90.445	n/a	2	4	8	n/a	68	94	3	n/a	n/a	n/a	n/a	167.987	AF23ANS.jpg
136.45	0.514	Blank	Blank	89.931	n/a	2	4	8	n/a	68	n/a	3	n/a	n/a	n/a	n/a	168.484	n/a
136.98	0.497	angry	Picture	89.417	n/a	2	4	9	n/a	69	117	3	n/a	n/a	n/a	n/a	169.015	BM25ANS.jpg
137.477	0.514	Blank	Blank	88.903	n/a	2	4	9	n/a	69	n/a	3	n/a	n/a	n/a	n/a	169.512	n/a
138.008	0.497	angry	Picture	88.389	n/a	2	4	10	n/a	70	90	3	n/a	n/a	n/a	n/a	170.043	AF18ANS.jpg
138.505	0.514	Blank	Blank	87.875	n/a	2	4	10	n/a	70	n/a	3	n/a	n/a	n/a	n/a	170.54	n/a
139.036	0.497	angry	Picture	87.361	n/a	2	4	11	n/a	71	83	3	n/a	n/a	n/a	n/a	171.071	BF04ANS.jpg
139.533	0.514	Blank	Blank	86.847	n/a	2	4	11	n/a	71	n/a	3	n/a	n/a	n/a	n/a	171.568	n/a
140.064	0.497	angry	Picture	86.333	n/a	2	4	12	n/a	72	112	3	n/a	n/a	n/a	n/a	172.099	AM14ANS.jpg
140.561	0.514	Blank	Blank	85.819	n/a	2	4	12	n/a	72	n/a	3	n/a	n/a	n/a	n/a	172.596	n/a
141.091	0.497	angry	Picture	85.305	n/a	2	4	13	n/a	73	102	3	n/a	n/a	n/a	n/a	173.126	BM03ANS.jpg
141.589	0.514	Blank	Blank	84.792	n/a	2	4	13	n/a	73	n/a	3	n/a	n/a	n/a	n/a	173.624	n/a
142.119	0.497	angry	Picture	84.278	n/a	2	4	14	n/a	74	95	3	n/a	n/a	n/a	n/a	174.154	AF25ANS.jpg
142.617	0.514	Blank	Blank	83.764	n/a	2	4	14	n/a	74	n/a	3	n/a	n/a	n/a	n/a	174.652	n/a
143.147	0.497	angry	Picture	83.25	n/a	2	4	15	n/a	75	113	3	n/a	n/a	n/a	n/a	175.182	AM21ANS.jpg
143.645	0.514	Blank	Blank	82.736	n/a	2	4	15	n/a	75	n/a	3	n/a	n/a	n/a	n/a	175.68	n/a
144.175	0.497	angry	Picture	82.222	n/a	2	4	16	n/a	76	88	3	n/a	n/a	n/a	n/a	176.21	AF14ANS.jpg
144.673	0.514	Blank	Blank	81.708	n/a	2	4	16	n/a	76	n/a	3	n/a	n/a	n/a	n/a	176.708	n/a
145.203	0.497	angry	Picture	81.194	n/a	2	4	17	n/a	77	93	3	n/a	n/a	n/a	n/a	177.238	BF22ANS.jpg
145.7	0.514	Blank	Blank	80.68	n/a	2	4	17	n/a	77	n/a	3	n/a	n/a	n/a	n/a	177.735	n/a
146.231	0.497	angry	Picture	80.166	n/a	2	4	18	n/a	78	86	3	n/a	n/a	n/a	n/a	178.266	AF09ANS.jpg
146.728	0.514	Blank	Blank	79.652	n/a	2	4	18	n/a	78	n/a	3	n/a	n/a	n/a	n/a	178.763	n/a
147.259	0.497	angry	Picture	79.138	n/a	2	4	19	n/a	79	92	3	n/a	n/a	n/a	n/a	179.294	AF21ANS.jpg
147.756	0.514	Blank	Blank	78.624	n/a	2	4	19	n/a	79	n/a	3	n/a	n/a	n/a	n/a	179.791	n/a
148.287	0.497	angry	Picture	78.11	n/a	2	4	20	n/a	80	84	3	n/a	n/a	n/a	n/a	180.322	AF05ANS.jpg
148.784	0.514	Blank	Blank	77.596	n/a	2	4	20	n/a	80	n/a	3	n/a	n/a	n/a	n/a	180.819	n/a
149.315	10.014	ITI	Fixation+	67.566	n/a	2	n/a	n/a	n/a	n/a	n/a	n/a	n/a	n/a	n/a	n/a	181.35	n/a
159.345	0.497	neutral	Picture	67.052	n/a	2	5	1	n/a	81	4	1	n/a	n/a	n/a	n/a	191.38	AF05NES.jpg
159.842	0.514	Blank	Blank	66.538	n/a	2	5	1	n/a	81	n/a	1	n/a	n/a	n/a	n/a	191.877	n/a
160.373	0.497	neutral	Picture	66.024	n/a	2	5	2	n/a	82	14	1	n/a	n/a	n/a	n/a	192.408	AF23NES.jpg
160.87	0.514	Blank	Blank	65.51	n/a	2	5	2	n/a	82	n/a	1	n/a	n/a	n/a	n/a	192.905	n/a
161.4	0.497	neutral	Picture	64.997	n/a	2	5	3	n/a	83	19	1	n/a	n/a	n/a	n/a	193.435	AF31NES.jpg
161.898	0.514	Blank	Blank	64.483	n/a	2	5	3	n/a	83	n/a	1	n/a	n/a	n/a	n/a	193.933	n/a
162.428	0.497	neutral	Picture	63.969	n/a	2	5	4	n/a	84	8	1	n/a	n/a	n/a	n/a	194.463	AF14NES.jpg
162.926	0.514	Blank	Blank	63.455	n/a	2	5	4	n/a	84	n/a	1	n/a	n/a	n/a	n/a	194.961	n/a
163.456	0.497	neutral	Picture	62.941	n/a	2	5	5	n/a	85	25	1	n/a	n/a	n/a	n/a	195.491	BM06NES.jpg
163.954	0.514	Blank	Blank	62.427	n/a	2	5	5	n/a	85	n/a	1	n/a	n/a	n/a	n/a	195.989	n/a
164.484	0.497	neutral	Picture	61.913	n/a	2	5	6	n/a	86	9	1	n/a	n/a	n/a	n/a	196.519	AF17NES.jpg
164.982	0.514	Blank	Blank	61.399	n/a	2	5	6	n/a	86	n/a	1	n/a	n/a	n/a	n/a	197.017	n/a
165.512	0.497	neutral	Picture	60.885	n/a	2	5	7	n/a	87	2	1	n/a	n/a	n/a	n/a	197.547	AF03NES.jpg
166.009	0.514	Blank	Blank	60.371	n/a	2	5	7	n/a	87	n/a	1	n/a	n/a	n/a	n/a	198.044	n/a
166.54	0.497	neutral	Picture	59.857	n/a	2	5	8	n/a	88	17	1	n/a	n/a	n/a	n/a	198.575	BF28NES.jpg
167.037	0.514	Blank	Blank	59.343	n/a	2	5	8	n/a	88	n/a	1	n/a	n/a	n/a	n/a	199.072	n/a
167.568	0.497	neutral	Picture	58.829	n/a	2	5	9	n/a	89	6	1	n/a	n/a	n/a	n/a	199.603	AF09NES.jpg
168.065	0.514	Blank	Blank	58.315	n/a	2	5	9	n/a	89	n/a	1	n/a	n/a	n/a	n/a	200.1	n/a
168.596	0.497	neutral	Picture	57.801	n/a	2	5	10	n/a	90	12	1	n/a	n/a	n/a	n/a	200.631	AF21NES.jpg
169.093	0.514	Blank	Blank	57.287	n/a	2	5	10	n/a	90	n/a	1	n/a	n/a	n/a	n/a	201.128	n/a
169.624	0.497	neutral	Picture	56.773	n/a	2	5	11	n/a	91	24	1	n/a	n/a	n/a	n/a	201.659	BM05NES.jpg
170.121	0.514	Blank	Blank	56.26	n/a	2	5	11	n/a	91	n/a	1	n/a	n/a	n/a	n/a	202.156	n/a
170.651	0.497	neutral	Picture	55.746	n/a	2	5	12	n/a	92	34	1	n/a	n/a	n/a	n/a	202.686	AM22NES.jpg
171.149	0.514	Blank	Blank	55.232	n/a	2	5	12	n/a	92	n/a	1	n/a	n/a	n/a	n/a	203.184	n/a
171.679	0.497	neutral	Picture	54.718	n/a	2	5	13	n/a	93	23	1	n/a	n/a	n/a	n/a	203.714	AM04NES.jpg
172.177	0.514	Blank	Blank	54.204	n/a	2	5	13	n/a	93	n/a	1	n/a	n/a	n/a	n/a	204.212	n/a
172.707	0.497	neutral	Picture	53.69	n/a	2	5	14	n/a	94	15	1	n/a	n/a	n/a	n/a	204.742	AF25NES.jpg
173.204	0.514	Blank	Blank	53.176	n/a	2	5	14	n/a	94	n/a	1	n/a	n/a	n/a	n/a	205.239	n/a
173.735	0.497	neutral	Picture	52.662	n/a	2	5	15	n/a	95	37	1	n/a	n/a	n/a	n/a	205.77	BM25NES.jpg
174.232	0.514	Blank	Blank	52.148	n/a	2	5	15	n/a	95	n/a	1	n/a	n/a	n/a	n/a	206.267	n/a
174.763	0.497	neutral	Picture	51.634	n/a	2	5	16	n/a	96	32	1	n/a	n/a	n/a	n/a	206.798	AM14NES.jpg
175.26	0.514	Blank	Blank	51.12	n/a	2	5	16	n/a	96	n/a	1	n/a	n/a	n/a	n/a	207.295	n/a
175.791	0.497	neutral	Picture	50.606	n/a	2	5	17	n/a	97	3	1	n/a	n/a	n/a	n/a	207.826	BF04NES.jpg
176.288	0.514	Blank	Blank	50.092	n/a	2	5	17	n/a	97	n/a	1	n/a	n/a	n/a	n/a	208.323	n/a
176.819	0.497	neutral	Picture	49.578	n/a	2	5	18	n/a	98	16	1	n/a	n/a	n/a	n/a	208.854	AF26NES.jpg
177.316	0.514	Blank	Blank	49.064	n/a	2	5	18	n/a	98	n/a	1	n/a	n/a	n/a	n/a	209.351	n/a
177.847	0.497	neutral	Picture	48.55	n/a	2	5	19	n/a	99	27	1	n/a	n/a	n/a	n/a	209.882	BM08NES.jpg
178.344	0.514	Blank	Blank	48.036	n/a	2	5	19	n/a	99	n/a	1	n/a	n/a	n/a	n/a	210.379	n/a
178.875	0.497	neutral	Picture	47.523	n/a	2	5	20	n/a	100	28	1	n/a	n/a	n/a	n/a	210.91	AM09NES.jpg
179.372	0.514	Blank	Blank	47.008	n/a	2	5	20	n/a	100	n/a	1	n/a	n/a	n/a	n/a	211.407	n/a
179.902	10.014	ITI	Fixation+	36.978	n/a	2	n/a	n/a	n/a	n/a	n/a	n/a	n/a	n/a	n/a	n/a	211.937	n/a
189.933	0.497	angry	Picture	36.464	n/a	2	6	1	n/a	101	81	3	n/a	n/a	n/a	n/a	221.968	AF01ANS.jpg
190.43	0.514	Blank	Blank	35.951	n/a	2	6	1	n/a	101	n/a	3	n/a	n/a	n/a	n/a	222.465	n/a
190.96	0.497	angry	Picture	35.437	n/a	2	6	2	n/a	102	120	3	n/a	n/a	n/a	n/a	222.995	AM35ANS.jpg
191.458	0.514	Blank	Blank	34.923	n/a	2	6	2	n/a	102	n/a	3	n/a	n/a	n/a	n/a	223.493	n/a
191.988	0.497	angry	Picture	34.409	n/a	2	6	3	n/a	103	114	3	n/a	n/a	n/a	n/a	224.023	AM22ANS.jpg
192.486	0.514	Blank	Blank	33.895	n/a	2	6	3	n/a	103	n/a	3	n/a	n/a	n/a	n/a	224.521	n/a
193.016	0.497	angry	Picture	33.381	n/a	2	6	4	n/a	104	109	3	n/a	n/a	n/a	n/a	225.051	AM10ANS.jpg
193.513	0.514	Blank	Blank	32.867	n/a	2	6	4	n/a	104	n/a	3	n/a	n/a	n/a	n/a	225.548	n/a
194.044	0.497	angry	Picture	32.353	n/a	2	6	5	n/a	105	96	3	n/a	n/a	n/a	n/a	226.079	AF26ANS.jpg
194.541	0.514	Blank	Blank	31.839	n/a	2	6	5	n/a	105	n/a	3	n/a	n/a	n/a	n/a	226.576	n/a
195.072	0.497	angry	Picture	31.325	n/a	2	6	6	n/a	106	82	3	n/a	n/a	n/a	n/a	227.107	AF03ANS.jpg
195.569	0.514	Blank	Blank	30.811	n/a	2	6	6	n/a	106	n/a	3	n/a	n/a	n/a	n/a	227.604	n/a
196.1	0.497	angry	Picture	30.297	n/a	2	6	7	n/a	107	97	3	n/a	n/a	n/a	n/a	228.135	BF28ANS.jpg
196.597	0.514	Blank	Blank	29.783	n/a	2	6	7	n/a	107	n/a	3	n/a	n/a	n/a	n/a	228.632	n/a
197.128	0.497	angry	Picture	29.269	n/a	2	6	8	n/a	108	115	3	n/a	n/a	n/a	n/a	229.163	AM23ANS.jpg
197.625	0.514	Blank	Blank	28.755	n/a	2	6	8	n/a	108	n/a	3	n/a	n/a	n/a	n/a	229.66	n/a
198.156	0.497	angry	Picture	28.241	n/a	2	6	9	n/a	109	91	3	n/a	n/a	n/a	n/a	230.191	AF20ANS.jpg
198.653	0.514	Blank	Blank	27.727	n/a	2	6	9	n/a	109	n/a	3	n/a	n/a	n/a	n/a	230.688	n/a
199.183	0.497	angry	Picture	27.214	n/a	2	6	10	n/a	110	87	3	n/a	n/a	n/a	n/a	231.218	BF11ANS.jpg
199.681	0.514	Blank	Blank	26.7	n/a	2	6	10	n/a	110	n/a	3	n/a	n/a	n/a	n/a	231.716	n/a
200.211	0.497	angry	Picture	26.186	n/a	2	6	11	n/a	111	85	3	n/a	n/a	n/a	n/a	232.246	BF07ANS.jpg
200.709	0.514	Blank	Blank	25.672	n/a	2	6	11	n/a	111	n/a	3	n/a	n/a	n/a	n/a	232.744	n/a
201.239	0.497	angry	Picture	25.158	n/a	2	6	12	n/a	112	110	3	n/a	n/a	n/a	n/a	233.274	AM11ANS.jpg
201.737	0.514	Blank	Blank	24.644	n/a	2	6	12	n/a	112	n/a	3	n/a	n/a	n/a	n/a	233.772	n/a
202.267	0.497	angry	Picture	24.13	n/a	2	6	13	n/a	113	111	3	n/a	n/a	n/a	n/a	234.302	BM12ANS.jpg
202.764	0.514	Blank	Blank	23.616	n/a	2	6	13	n/a	113	n/a	3	n/a	n/a	n/a	n/a	234.799	n/a
203.295	0.497	angry	Picture	23.102	n/a	2	6	14	n/a	114	103	3	n/a	n/a	n/a	n/a	235.33	AM04ANS.jpg
203.792	0.514	Blank	Blank	22.588	n/a	2	6	14	n/a	114	n/a	3	n/a	n/a	n/a	n/a	235.827	n/a
204.323	0.497	angry	Picture	22.074	n/a	2	6	15	n/a	115	101	3	n/a	n/a	n/a	n/a	236.358	AM01ANS.jpg
204.82	0.514	Blank	Blank	21.56	n/a	2	6	15	n/a	115	n/a	3	n/a	n/a	n/a	n/a	236.855	n/a
205.351	0.497	angry	Picture	21.046	n/a	2	6	16	n/a	116	104	3	n/a	n/a	n/a	n/a	237.386	BM05ANS.jpg
205.848	0.514	Blank	Blank	20.532	n/a	2	6	16	n/a	116	n/a	3	n/a	n/a	n/a	n/a	237.883	n/a
206.379	0.497	angry	Picture	20.018	n/a	2	6	17	n/a	117	107	3	n/a	n/a	n/a	n/a	238.414	BM08ANS.jpg
206.876	0.514	Blank	Blank	19.504	n/a	2	6	17	n/a	117	n/a	3	n/a	n/a	n/a	n/a	238.911	n/a
207.406	0.497	angry	Picture	18.99	n/a	2	6	18	n/a	118	98	3	n/a	n/a	n/a	n/a	239.441	BF29ANS.jpg
207.904	0.514	Blank	Blank	18.477	n/a	2	6	18	n/a	118	n/a	3	n/a	n/a	n/a	n/a	239.939	n/a
208.434	0.497	angry	Picture	17.963	n/a	2	6	19	n/a	119	99	3	n/a	n/a	n/a	n/a	240.469	AF31ANS.jpg
208.932	0.514	Blank	Blank	17.449	n/a	2	6	19	n/a	119	n/a	3	n/a	n/a	n/a	n/a	240.967	n/a
209.462	0.497	angry	Picture	16.935	n/a	2	6	20	n/a	120	108	3	n/a	n/a	n/a	n/a	241.497	AM09ANS.jpg
209.96	0.514	Blank	Blank	16.421	n/a	2	6	20	n/a	120	n/a	3	n/a	n/a	n/a	n/a	241.995	n/a
210.49	10.014	ITI	Fixation+	6.391	n/a	2	n/a	n/a	n/a	n/a	n/a	n/a	n/a	n/a	n/a	n/a	242.525	n/a
226.894	n/a	ConfirmRating	Rate	n/a	6.383	2	n/a	n/a	0	n/a	n/a	n/a	2	Angry	32	49	258.929	n/a
233.915	n/a	ConfirmRating	Rate	n/a	6.996	2	n/a	n/a	1	n/a	n/a	n/a	3	Angry	29	49	265.95	n/a
233.932	15.004	Rest	Picture	n/a	n/a	n/a	n/a	n/a	n/a	n/a	n/a	n/a	0	n/a	0	0	265.967	n/a
248.953	10.014	ITI	Fixation+	100.673	n/a	3	n/a	n/a	n/a	n/a	n/a	n/a	n/a	n/a	n/a	n/a	280.988	n/a
258.983	0.497	happy	Picture	100.159	n/a	3	7	1	n/a	1	46	2	n/a	n/a	n/a	n/a	291.018	AF09HAS.jpg
259.48	0.514	Blank	Blank	99.645	n/a	3	7	1	n/a	1	n/a	2	n/a	n/a	n/a	n/a	291.515	n/a
260.011	0.497	happy	Picture	99.131	n/a	3	7	2	n/a	2	69	2	n/a	n/a	n/a	n/a	292.046	AM10HAS.jpg
260.508	0.514	Blank	Blank	98.617	n/a	3	7	2	n/a	2	n/a	2	n/a	n/a	n/a	n/a	292.543	n/a
261.039	0.497	happy	Picture	98.103	n/a	3	7	3	n/a	3	71	2	n/a	n/a	n/a	n/a	293.074	BM12HAS.jpg
261.536	0.514	Blank	Blank	97.589	n/a	3	7	3	n/a	3	n/a	2	n/a	n/a	n/a	n/a	293.571	n/a
262.067	0.497	happy	Picture	97.075	n/a	3	7	4	n/a	4	51	2	n/a	n/a	n/a	n/a	294.102	AF20HAS.jpg
262.564	0.514	Blank	Blank	96.561	n/a	3	7	4	n/a	4	n/a	2	n/a	n/a	n/a	n/a	294.599	n/a
263.095	0.497	happy	Picture	96.047	n/a	3	7	5	n/a	5	67	2	n/a	n/a	n/a	n/a	295.13	BM08HAS.jpg
263.592	0.514	Blank	Blank	95.533	n/a	3	7	5	n/a	5	n/a	2	n/a	n/a	n/a	n/a	295.627	n/a
264.122	0.497	happy	Picture	95.019	n/a	3	7	6	n/a	6	60	2	n/a	n/a	n/a	n/a	296.157	AF32HAS.jpg
264.62	0.514	Blank	Blank	94.505	n/a	3	7	6	n/a	6	n/a	2	n/a	n/a	n/a	n/a	296.655	n/a
265.15	0.497	happy	Picture	93.991	n/a	3	7	7	n/a	7	42	2	n/a	n/a	n/a	n/a	297.185	AF03HAS.jpg
265.648	0.514	Blank	Blank	93.477	n/a	3	7	7	n/a	7	n/a	2	n/a	n/a	n/a	n/a	297.683	n/a
266.178	0.497	happy	Picture	92.963	n/a	3	7	8	n/a	8	55	2	n/a	n/a	n/a	n/a	298.213	AF25HAS.jpg
266.676	0.514	Blank	Blank	92.449	n/a	3	7	8	n/a	8	n/a	2	n/a	n/a	n/a	n/a	298.711	n/a
267.206	0.497	happy	Picture	91.935	n/a	3	7	9	n/a	9	72	2	n/a	n/a	n/a	n/a	299.241	AM14HAS.jpg
267.703	0.514	Blank	Blank	91.422	n/a	3	7	9	n/a	9	n/a	2	n/a	n/a	n/a	n/a	299.738	n/a
268.234	0.497	happy	Picture	90.908	n/a	3	7	10	n/a	10	63	2	n/a	n/a	n/a	n/a	300.269	AM04HAS.jpg
268.731	0.514	Blank	Blank	90.394	n/a	3	7	10	n/a	10	n/a	2	n/a	n/a	n/a	n/a	300.766	n/a
269.262	0.497	happy	Picture	89.88	n/a	3	7	11	n/a	11	58	2	n/a	n/a	n/a	n/a	301.297	BF29HAS.jpg
269.759	0.514	Blank	Blank	89.366	n/a	3	7	11	n/a	11	n/a	2	n/a	n/a	n/a	n/a	301.794	n/a
270.29	0.497	happy	Picture	88.852	n/a	3	7	12	n/a	12	48	2	n/a	n/a	n/a	n/a	302.325	AF14HAS.jpg
270.787	0.514	Blank	Blank	88.338	n/a	3	7	12	n/a	12	n/a	2	n/a	n/a	n/a	n/a	302.822	n/a
271.318	0.497	happy	Picture	87.824	n/a	3	7	13	n/a	13	66	2	n/a	n/a	n/a	n/a	303.353	BM07HAS.jpg
271.815	0.514	Blank	Blank	87.31	n/a	3	7	13	n/a	13	n/a	2	n/a	n/a	n/a	n/a	303.85	n/a
272.345	0.497	happy	Picture	86.796	n/a	3	7	14	n/a	14	70	2	n/a	n/a	n/a	n/a	304.38	BM11HAS.jpg
272.843	0.514	Blank	Blank	86.282	n/a	3	7	14	n/a	14	n/a	2	n/a	n/a	n/a	n/a	304.878	n/a
273.373	0.497	happy	Picture	85.768	n/a	3	7	15	n/a	15	43	2	n/a	n/a	n/a	n/a	305.408	BF04HAS.jpg
273.871	0.514	Blank	Blank	85.254	n/a	3	7	15	n/a	15	n/a	2	n/a	n/a	n/a	n/a	305.906	n/a
274.401	0.497	happy	Picture	84.74	n/a	3	7	16	n/a	16	49	2	n/a	n/a	n/a	n/a	306.436	AF17HAS.jpg
274.899	0.514	Blank	Blank	84.226	n/a	3	7	16	n/a	16	n/a	2	n/a	n/a	n/a	n/a	306.934	n/a
275.429	0.497	happy	Picture	83.712	n/a	3	7	17	n/a	17	75	2	n/a	n/a	n/a	n/a	307.464	AM23HAS.jpg
275.927	0.514	Blank	Blank	83.199	n/a	3	7	17	n/a	17	n/a	2	n/a	n/a	n/a	n/a	307.962	n/a
276.457	0.497	happy	Picture	82.685	n/a	3	7	18	n/a	18	80	2	n/a	n/a	n/a	n/a	308.492	BM35HAS.jpg
276.954	0.514	Blank	Blank	82.171	n/a	3	7	18	n/a	18	n/a	2	n/a	n/a	n/a	n/a	308.989	n/a
277.485	0.497	happy	Picture	81.657	n/a	3	7	19	n/a	19	76	2	n/a	n/a	n/a	n/a	309.52	BM24HAS.jpg
277.982	0.514	Blank	Blank	81.143	n/a	3	7	19	n/a	19	n/a	2	n/a	n/a	n/a	n/a	310.017	n/a
278.513	0.497	happy	Picture	80.629	n/a	3	7	20	n/a	20	74	2	n/a	n/a	n/a	n/a	310.548	AM22HAS.jpg
279.01	0.514	Blank	Blank	80.115	n/a	3	7	20	n/a	20	n/a	2	n/a	n/a	n/a	n/a	311.045	n/a
279.541	10.014	ITI	Fixation+	70.085	n/a	3	n/a	n/a	n/a	n/a	n/a	n/a	n/a	n/a	n/a	n/a	311.576	n/a
289.571	0.497	neutral	Picture	69.571	n/a	3	8	1	n/a	21	33	1	n/a	n/a	n/a	n/a	321.606	AM21NES.jpg
290.068	0.514	Blank	Blank	69.057	n/a	3	8	1	n/a	21	n/a	1	n/a	n/a	n/a	n/a	322.103	n/a
290.599	0.497	neutral	Picture	68.543	n/a	3	8	2	n/a	22	39	1	n/a	n/a	n/a	n/a	322.634	AM28NES.jpg
291.096	0.514	Blank	Blank	68.029	n/a	3	8	2	n/a	22	n/a	1	n/a	n/a	n/a	n/a	323.131	n/a
291.626	0.497	neutral	Picture	67.515	n/a	3	8	3	n/a	23	25	1	n/a	n/a	n/a	n/a	323.661	BM06NES.jpg
292.124	0.514	Blank	Blank	67.001	n/a	3	8	3	n/a	23	n/a	1	n/a	n/a	n/a	n/a	324.159	n/a
292.654	0.497	neutral	Picture	66.487	n/a	3	8	4	n/a	24	5	1	n/a	n/a	n/a	n/a	324.689	BF07NES.jpg
293.152	0.514	Blank	Blank	65.973	n/a	3	8	4	n/a	24	n/a	1	n/a	n/a	n/a	n/a	325.187	n/a
293.682	0.497	neutral	Picture	65.459	n/a	3	8	5	n/a	25	10	1	n/a	n/a	n/a	n/a	325.717	AF18NES.jpg
294.18	0.514	Blank	Blank	64.945	n/a	3	8	5	n/a	25	n/a	1	n/a	n/a	n/a	n/a	326.215	n/a
294.71	0.497	neutral	Picture	64.431	n/a	3	8	6	n/a	26	34	1	n/a	n/a	n/a	n/a	326.745	AM22NES.jpg
295.207	0.514	Blank	Blank	63.917	n/a	3	8	6	n/a	26	n/a	1	n/a	n/a	n/a	n/a	327.243	n/a
295.738	0.497	neutral	Picture	63.404	n/a	3	8	7	n/a	27	36	1	n/a	n/a	n/a	n/a	327.773	BM24NES.jpg
296.235	0.514	Blank	Blank	62.889	n/a	3	8	7	n/a	27	n/a	1	n/a	n/a	n/a	n/a	328.27	n/a
296.766	0.497	neutral	Picture	62.376	n/a	3	8	8	n/a	28	14	1	n/a	n/a	n/a	n/a	328.801	AF23NES.jpg
297.263	0.514	Blank	Blank	61.862	n/a	3	8	8	n/a	28	n/a	1	n/a	n/a	n/a	n/a	329.298	n/a
297.794	0.497	neutral	Picture	61.348	n/a	3	8	9	n/a	29	9	1	n/a	n/a	n/a	n/a	329.829	AF17NES.jpg
298.291	0.514	Blank	Blank	60.834	n/a	3	8	9	n/a	29	n/a	1	n/a	n/a	n/a	n/a	330.326	n/a
298.822	0.497	neutral	Picture	60.32	n/a	3	8	10	n/a	30	19	1	n/a	n/a	n/a	n/a	330.857	AF31NES.jpg
299.319	0.514	Blank	Blank	59.806	n/a	3	8	10	n/a	30	n/a	1	n/a	n/a	n/a	n/a	331.354	n/a
299.85	0.497	neutral	Picture	59.292	n/a	3	8	11	n/a	31	15	1	n/a	n/a	n/a	n/a	331.885	AF25NES.jpg
300.347	0.514	Blank	Blank	58.778	n/a	3	8	11	n/a	31	n/a	1	n/a	n/a	n/a	n/a	332.382	n/a
300.878	0.497	neutral	Picture	58.264	n/a	3	8	12	n/a	32	22	1	n/a	n/a	n/a	n/a	332.913	BM03NES.jpg
301.375	0.514	Blank	Blank	57.75	n/a	3	8	12	n/a	32	n/a	1	n/a	n/a	n/a	n/a	333.41	n/a
301.905	0.497	neutral	Picture	57.236	n/a	3	8	13	n/a	33	11	1	n/a	n/a	n/a	n/a	333.94	AF20NES.jpg
302.403	0.514	Blank	Blank	56.722	n/a	3	8	13	n/a	33	n/a	1	n/a	n/a	n/a	n/a	334.438	n/a
302.933	0.497	neutral	Picture	56.208	n/a	3	8	14	n/a	34	4	1	n/a	n/a	n/a	n/a	334.968	AF05NES.jpg
303.431	0.514	Blank	Blank	55.694	n/a	3	8	14	n/a	34	n/a	1	n/a	n/a	n/a	n/a	335.466	n/a
303.961	0.497	neutral	Picture	55.18	n/a	3	8	15	n/a	35	17	1	n/a	n/a	n/a	n/a	335.996	BF28NES.jpg
304.458	0.514	Blank	Blank	54.667	n/a	3	8	15	n/a	35	n/a	1	n/a	n/a	n/a	n/a	336.493	n/a
304.989	0.497	neutral	Picture	54.152	n/a	3	8	16	n/a	36	13	1	n/a	n/a	n/a	n/a	337.024	BF22NES.jpg
305.486	0.514	Blank	Blank	53.639	n/a	3	8	16	n/a	36	n/a	1	n/a	n/a	n/a	n/a	337.521	n/a
306.017	0.497	neutral	Picture	53.125	n/a	3	8	17	n/a	37	12	1	n/a	n/a	n/a	n/a	338.052	AF21NES.jpg
306.514	0.514	Blank	Blank	52.611	n/a	3	8	17	n/a	37	n/a	1	n/a	n/a	n/a	n/a	338.549	n/a
307.045	0.497	neutral	Picture	52.097	n/a	3	8	18	n/a	38	24	1	n/a	n/a	n/a	n/a	339.08	BM05NES.jpg
307.542	0.514	Blank	Blank	51.583	n/a	3	8	18	n/a	38	n/a	1	n/a	n/a	n/a	n/a	339.577	n/a
308.073	0.497	neutral	Picture	51.069	n/a	3	8	19	n/a	39	29	1	n/a	n/a	n/a	n/a	340.108	AM10NES.jpg
308.57	0.514	Blank	Blank	50.555	n/a	3	8	19	n/a	39	n/a	1	n/a	n/a	n/a	n/a	340.605	n/a
309.101	0.497	neutral	Picture	50.041	n/a	3	8	20	n/a	40	23	1	n/a	n/a	n/a	n/a	341.135	AM04NES.jpg
309.598	0.514	Blank	Blank	49.527	n/a	3	8	20	n/a	40	n/a	1	n/a	n/a	n/a	n/a	341.633	n/a
310.128	10.014	ITI	Fixation+	39.497	n/a	3	n/a	n/a	n/a	n/a	n/a	n/a	n/a	n/a	n/a	n/a	342.163	n/a
320.159	0.497	happy	Picture	38.983	n/a	3	9	1	n/a	41	62	2	n/a	n/a	n/a	n/a	352.194	BM03HAS.jpg
320.656	0.514	Blank	Blank	38.469	n/a	3	9	1	n/a	41	n/a	2	n/a	n/a	n/a	n/a	352.691	n/a
321.186	0.497	happy	Picture	37.955	n/a	3	9	2	n/a	42	52	2	n/a	n/a	n/a	n/a	353.221	AF21HAS.jpg
321.684	0.514	Blank	Blank	37.441	n/a	3	9	2	n/a	42	n/a	2	n/a	n/a	n/a	n/a	353.719	n/a
322.214	0.497	happy	Picture	36.927	n/a	3	9	3	n/a	43	44	2	n/a	n/a	n/a	n/a	354.249	AF05HAS.jpg
322.712	0.514	Blank	Blank	36.413	n/a	3	9	3	n/a	43	n/a	2	n/a	n/a	n/a	n/a	354.747	n/a
323.242	0.497	happy	Picture	35.899	n/a	3	9	4	n/a	44	53	2	n/a	n/a	n/a	n/a	355.277	BF22HAS.jpg
323.74	0.514	Blank	Blank	35.385	n/a	3	9	4	n/a	44	n/a	2	n/a	n/a	n/a	n/a	355.775	n/a
324.27	0.497	happy	Picture	34.872	n/a	3	9	5	n/a	45	54	2	n/a	n/a	n/a	n/a	356.305	AF23HAS.jpg
324.767	0.514	Blank	Blank	34.358	n/a	3	9	5	n/a	45	n/a	2	n/a	n/a	n/a	n/a	356.802	n/a
325.298	0.497	happy	Picture	33.844	n/a	3	9	6	n/a	46	68	2	n/a	n/a	n/a	n/a	357.333	AM09HAS.jpg
325.795	0.514	Blank	Blank	33.33	n/a	3	9	6	n/a	46	n/a	2	n/a	n/a	n/a	n/a	357.83	n/a
326.326	0.497	happy	Picture	32.816	n/a	3	9	7	n/a	47	64	2	n/a	n/a	n/a	n/a	358.361	BM05HAS.jpg
326.823	0.514	Blank	Blank	32.302	n/a	3	9	7	n/a	47	n/a	2	n/a	n/a	n/a	n/a	358.858	n/a
327.354	0.497	happy	Picture	31.788	n/a	3	9	8	n/a	48	59	2	n/a	n/a	n/a	n/a	359.389	AF31HAS.jpg
327.851	0.514	Blank	Blank	31.274	n/a	3	9	8	n/a	48	n/a	2	n/a	n/a	n/a	n/a	359.886	n/a
328.382	0.497	happy	Picture	30.76	n/a	3	9	9	n/a	49	41	2	n/a	n/a	n/a	n/a	360.417	AF01HAS.jpg
328.879	0.514	Blank	Blank	30.246	n/a	3	9	9	n/a	49	n/a	2	n/a	n/a	n/a	n/a	360.914	n/a
329.409	0.497	happy	Picture	29.732	n/a	3	9	10	n/a	50	73	2	n/a	n/a	n/a	n/a	361.445	AM21HAS.jpg
329.907	0.514	Blank	Blank	29.218	n/a	3	9	10	n/a	50	n/a	2	n/a	n/a	n/a	n/a	361.942	n/a
330.437	0.497	happy	Picture	28.704	n/a	3	9	11	n/a	51	65	2	n/a	n/a	n/a	n/a	362.472	BM06HAS.jpg
330.935	0.514	Blank	Blank	28.19	n/a	3	9	11	n/a	51	n/a	2	n/a	n/a	n/a	n/a	362.97	n/a
331.465	0.497	happy	Picture	27.676	n/a	3	9	12	n/a	52	56	2	n/a	n/a	n/a	n/a	363.5	AF26HAS.jpg
331.963	0.514	Blank	Blank	27.162	n/a	3	9	12	n/a	52	n/a	2	n/a	n/a	n/a	n/a	363.998	n/a
332.493	0.497	happy	Picture	26.648	n/a	3	9	13	n/a	53	45	2	n/a	n/a	n/a	n/a	364.528	BF07HAS.jpg
332.99	0.514	Blank	Blank	26.134	n/a	3	9	13	n/a	53	n/a	2	n/a	n/a	n/a	n/a	365.026	n/a
333.521	0.497	happy	Picture	25.621	n/a	3	9	14	n/a	54	78	2	n/a	n/a	n/a	n/a	365.556	BM26HAS.jpg
334.018	0.514	Blank	Blank	25.107	n/a	3	9	14	n/a	54	n/a	2	n/a	n/a	n/a	n/a	366.053	n/a
334.549	0.497	happy	Picture	24.593	n/a	3	9	15	n/a	55	50	2	n/a	n/a	n/a	n/a	366.584	AF18HAS.jpg
335.046	0.514	Blank	Blank	24.079	n/a	3	9	15	n/a	55	n/a	2	n/a	n/a	n/a	n/a	367.081	n/a
335.577	0.497	happy	Picture	23.565	n/a	3	9	16	n/a	56	47	2	n/a	n/a	n/a	n/a	367.612	BF11HAS.jpg
336.074	0.514	Blank	Blank	23.051	n/a	3	9	16	n/a	56	n/a	2	n/a	n/a	n/a	n/a	368.109	n/a
336.605	0.497	happy	Picture	22.537	n/a	3	9	17	n/a	57	77	2	n/a	n/a	n/a	n/a	368.64	BM25HAS.jpg
337.102	0.514	Blank	Blank	22.023	n/a	3	9	17	n/a	57	n/a	2	n/a	n/a	n/a	n/a	369.137	n/a
337.633	0.497	happy	Picture	21.509	n/a	3	9	18	n/a	58	57	2	n/a	n/a	n/a	n/a	369.668	BF28HAS.jpg
338.13	0.514	Blank	Blank	20.995	n/a	3	9	18	n/a	58	n/a	2	n/a	n/a	n/a	n/a	370.165	n/a
338.66	0.497	happy	Picture	20.481	n/a	3	9	19	n/a	59	61	2	n/a	n/a	n/a	n/a	370.695	AM01HAS.jpg
339.158	0.514	Blank	Blank	19.967	n/a	3	9	19	n/a	59	n/a	2	n/a	n/a	n/a	n/a	371.193	n/a
339.688	0.497	happy	Picture	19.453	n/a	3	9	20	n/a	60	79	2	n/a	n/a	n/a	n/a	371.723	BM28HAS.jpg
340.186	0.514	Blank	Blank	18.939	n/a	3	9	20	n/a	60	n/a	2	n/a	n/a	n/a	n/a	372.221	n/a
340.716	10.014	ITI	Fixation+	8.909	n/a	3	n/a	n/a	n/a	n/a	n/a	n/a	n/a	n/a	n/a	n/a	372.751	n/a
359.639	n/a	ConfirmRating	Rate	n/a	8.903	3	n/a	n/a	0	n/a	n/a	n/a	2	Happy	60	51	391.674	n/a
363.031	n/a	ConfirmRating	Rate	n/a	3.366	3	n/a	n/a	1	n/a	n/a	n/a	3	Happy	39	49	395.066	n/a
363.048	10.014	ITI	Fixation+	96.091	n/a	4	n/a	n/a	n/a	n/a	n/a	n/a	n/a	n/a	n/a	n/a	395.083	n/a
373.078	0.497	angry	Picture	95.577	n/a	4	10	1	n/a	61	119	3	n/a	n/a	n/a	n/a	405.113	BM28ANS.jpg
373.575	0.514	Blank	Blank	95.063	n/a	4	10	1	n/a	61	n/a	3	n/a	n/a	n/a	n/a	405.61	n/a
374.106	0.497	angry	Picture	94.549	n/a	4	10	2	n/a	62	100	3	n/a	n/a	n/a	n/a	406.141	AF32ANS.jpg
374.603	0.514	Blank	Blank	94.035	n/a	4	10	2	n/a	62	n/a	3	n/a	n/a	n/a	n/a	406.638	n/a
375.134	0.497	angry	Picture	93.521	n/a	4	10	3	n/a	63	118	3	n/a	n/a	n/a	n/a	407.169	BM26ANS.jpg
375.631	0.514	Blank	Blank	93.007	n/a	4	10	3	n/a	63	n/a	3	n/a	n/a	n/a	n/a	407.666	n/a
376.162	0.497	angry	Picture	92.493	n/a	4	10	4	n/a	64	89	3	n/a	n/a	n/a	n/a	408.197	AF17ANS.jpg
376.659	0.514	Blank	Blank	91.979	n/a	4	10	4	n/a	64	n/a	3	n/a	n/a	n/a	n/a	408.694	n/a
377.189	0.497	angry	Picture	91.465	n/a	4	10	5	n/a	65	116	3	n/a	n/a	n/a	n/a	409.224	BM24ANS.jpg
377.687	0.514	Blank	Blank	90.951	n/a	4	10	5	n/a	65	n/a	3	n/a	n/a	n/a	n/a	409.722	n/a
378.217	0.497	angry	Picture	90.437	n/a	4	10	6	n/a	66	105	3	n/a	n/a	n/a	n/a	410.252	BM06ANS.jpg
378.715	0.514	Blank	Blank	89.923	n/a	4	10	6	n/a	66	n/a	3	n/a	n/a	n/a	n/a	410.75	n/a
379.245	0.497	angry	Picture	89.409	n/a	4	10	7	n/a	67	106	3	n/a	n/a	n/a	n/a	411.28	AM07ANS.jpg
379.743	0.514	Blank	Blank	88.895	n/a	4	10	7	n/a	67	n/a	3	n/a	n/a	n/a	n/a	411.778	n/a
380.273	0.497	angry	Picture	88.381	n/a	4	10	8	n/a	68	94	3	n/a	n/a	n/a	n/a	412.308	AF23ANS.jpg
380.77	0.514	Blank	Blank	87.868	n/a	4	10	8	n/a	68	n/a	3	n/a	n/a	n/a	n/a	412.805	n/a
381.301	0.497	angry	Picture	87.354	n/a	4	10	9	n/a	69	117	3	n/a	n/a	n/a	n/a	413.336	BM25ANS.jpg
381.798	0.514	Blank	Blank	86.84	n/a	4	10	9	n/a	69	n/a	3	n/a	n/a	n/a	n/a	413.833	n/a
382.329	0.497	angry	Picture	86.326	n/a	4	10	10	n/a	70	90	3	n/a	n/a	n/a	n/a	414.364	AF18ANS.jpg
382.826	0.514	Blank	Blank	85.812	n/a	4	10	10	n/a	70	n/a	3	n/a	n/a	n/a	n/a	414.861	n/a
383.357	0.497	angry	Picture	85.298	n/a	4	10	11	n/a	71	83	3	n/a	n/a	n/a	n/a	415.392	BF04ANS.jpg
383.854	0.514	Blank	Blank	84.784	n/a	4	10	11	n/a	71	n/a	3	n/a	n/a	n/a	n/a	415.889	n/a
384.385	0.497	angry	Picture	84.27	n/a	4	10	12	n/a	72	112	3	n/a	n/a	n/a	n/a	416.42	AM14ANS.jpg
384.882	0.514	Blank	Blank	83.756	n/a	4	10	12	n/a	72	n/a	3	n/a	n/a	n/a	n/a	416.917	n/a
385.413	0.497	angry	Picture	83.242	n/a	4	10	13	n/a	73	102	3	n/a	n/a	n/a	n/a	417.447	BM03ANS.jpg
385.91	0.514	Blank	Blank	82.728	n/a	4	10	13	n/a	73	n/a	3	n/a	n/a	n/a	n/a	417.945	n/a
386.44	0.497	angry	Picture	82.214	n/a	4	10	14	n/a	74	95	3	n/a	n/a	n/a	n/a	418.475	AF25ANS.jpg
386.938	0.514	Blank	Blank	81.7	n/a	4	10	14	n/a	74	n/a	3	n/a	n/a	n/a	n/a	418.973	n/a
387.468	0.497	angry	Picture	81.186	n/a	4	10	15	n/a	75	113	3	n/a	n/a	n/a	n/a	419.503	AM21ANS.jpg
387.966	0.514	Blank	Blank	80.672	n/a	4	10	15	n/a	75	n/a	3	n/a	n/a	n/a	n/a	420.001	n/a
388.496	0.497	angry	Picture	80.158	n/a	4	10	16	n/a	76	88	3	n/a	n/a	n/a	n/a	420.531	AF14ANS.jpg
388.994	0.514	Blank	Blank	79.644	n/a	4	10	16	n/a	76	n/a	3	n/a	n/a	n/a	n/a	421.029	n/a
389.524	0.497	angry	Picture	79.13	n/a	4	10	17	n/a	77	93	3	n/a	n/a	n/a	n/a	421.559	BF22ANS.jpg
390.021	0.514	Blank	Blank	78.617	n/a	4	10	17	n/a	77	n/a	3	n/a	n/a	n/a	n/a	422.056	n/a
390.552	0.497	angry	Picture	78.103	n/a	4	10	18	n/a	78	86	3	n/a	n/a	n/a	n/a	422.587	AF09ANS.jpg
391.049	0.514	Blank	Blank	77.589	n/a	4	10	18	n/a	78	n/a	3	n/a	n/a	n/a	n/a	423.084	n/a
391.58	0.497	angry	Picture	77.075	n/a	4	10	19	n/a	79	92	3	n/a	n/a	n/a	n/a	423.615	AF21ANS.jpg
392.077	0.514	Blank	Blank	76.561	n/a	4	10	19	n/a	79	n/a	3	n/a	n/a	n/a	n/a	424.112	n/a
392.608	0.497	angry	Picture	76.047	n/a	4	10	20	n/a	80	84	3	n/a	n/a	n/a	n/a	424.643	AF05ANS.jpg
393.105	0.514	Blank	Blank	75.533	n/a	4	10	20	n/a	80	n/a	3	n/a	n/a	n/a	n/a	425.14	n/a
393.636	10.014	ITI	Fixation+	65.503	n/a	4	n/a	n/a	n/a	n/a	n/a	n/a	n/a	n/a	n/a	n/a	425.671	n/a
403.666	0.497	neutral	Picture	64.989	n/a	4	11	1	n/a	81	4	1	n/a	n/a	n/a	n/a	435.701	AF05NES.jpg
404.163	0.514	Blank	Blank	64.475	n/a	4	11	1	n/a	81	n/a	1	n/a	n/a	n/a	n/a	436.198	n/a
404.694	0.497	neutral	Picture	63.961	n/a	4	11	2	n/a	82	14	1	n/a	n/a	n/a	n/a	436.729	AF23NES.jpg
405.191	0.514	Blank	Blank	63.447	n/a	4	11	2	n/a	82	n/a	1	n/a	n/a	n/a	n/a	437.226	n/a
405.721	0.497	neutral	Picture	62.933	n/a	4	11	3	n/a	83	19	1	n/a	n/a	n/a	n/a	437.757	AF31NES.jpg
406.219	0.514	Blank	Blank	62.419	n/a	4	11	3	n/a	83	n/a	1	n/a	n/a	n/a	n/a	438.254	n/a
406.749	0.497	neutral	Picture	61.905	n/a	4	11	4	n/a	84	8	1	n/a	n/a	n/a	n/a	438.784	AF14NES.jpg
407.247	0.514	Blank	Blank	61.391	n/a	4	11	4	n/a	84	n/a	1	n/a	n/a	n/a	n/a	439.282	n/a
407.777	0.497	neutral	Picture	60.877	n/a	4	11	5	n/a	85	25	1	n/a	n/a	n/a	n/a	439.812	BM06NES.jpg
408.275	0.514	Blank	Blank	60.363	n/a	4	11	5	n/a	85	n/a	1	n/a	n/a	n/a	n/a	440.31	n/a
408.805	0.497	neutral	Picture	59.849	n/a	4	11	6	n/a	86	9	1	n/a	n/a	n/a	n/a	440.84	AF17NES.jpg
409.303	0.514	Blank	Blank	59.335	n/a	4	11	6	n/a	86	n/a	1	n/a	n/a	n/a	n/a	441.337	n/a
409.833	0.497	neutral	Picture	58.821	n/a	4	11	7	n/a	87	2	1	n/a	n/a	n/a	n/a	441.868	AF03NES.jpg
410.33	0.514	Blank	Blank	58.308	n/a	4	11	7	n/a	87	n/a	1	n/a	n/a	n/a	n/a	442.365	n/a
410.861	0.497	neutral	Picture	57.794	n/a	4	11	8	n/a	88	17	1	n/a	n/a	n/a	n/a	442.896	BF28NES.jpg
411.358	0.514	Blank	Blank	57.28	n/a	4	11	8	n/a	88	n/a	1	n/a	n/a	n/a	n/a	443.393	n/a
411.889	0.497	neutral	Picture	56.766	n/a	4	11	9	n/a	89	6	1	n/a	n/a	n/a	n/a	443.924	AF09NES.jpg
412.386	0.514	Blank	Blank	56.252	n/a	4	11	9	n/a	89	n/a	1	n/a	n/a	n/a	n/a	444.421	n/a
412.917	0.497	neutral	Picture	55.738	n/a	4	11	10	n/a	90	12	1	n/a	n/a	n/a	n/a	444.952	AF21NES.jpg
413.414	0.514	Blank	Blank	55.224	n/a	4	11	10	n/a	90	n/a	1	n/a	n/a	n/a	n/a	445.449	n/a
413.944	0.497	neutral	Picture	54.71	n/a	4	11	11	n/a	91	24	1	n/a	n/a	n/a	n/a	445.979	BM05NES.jpg
414.442	0.514	Blank	Blank	54.196	n/a	4	11	11	n/a	91	n/a	1	n/a	n/a	n/a	n/a	446.477	n/a
414.972	0.497	neutral	Picture	53.682	n/a	4	11	12	n/a	92	34	1	n/a	n/a	n/a	n/a	447.007	AM22NES.jpg
415.47	0.514	Blank	Blank	53.168	n/a	4	11	12	n/a	92	n/a	1	n/a	n/a	n/a	n/a	447.505	n/a
416.0	0.497	neutral	Picture	52.654	n/a	4	11	13	n/a	93	23	1	n/a	n/a	n/a	n/a	448.035	AM04NES.jpg
416.498	0.514	Blank	Blank	52.14	n/a	4	11	13	n/a	93	n/a	1	n/a	n/a	n/a	n/a	448.533	n/a
417.028	0.497	neutral	Picture	51.626	n/a	4	11	14	n/a	94	15	1	n/a	n/a	n/a	n/a	449.063	AF25NES.jpg
417.525	0.514	Blank	Blank	51.112	n/a	4	11	14	n/a	94	n/a	1	n/a	n/a	n/a	n/a	449.56	n/a
418.056	0.497	neutral	Picture	50.598	n/a	4	11	15	n/a	95	37	1	n/a	n/a	n/a	n/a	450.091	BM25NES.jpg
418.553	0.514	Blank	Blank	50.084	n/a	4	11	15	n/a	95	n/a	1	n/a	n/a	n/a	n/a	450.588	n/a
419.084	0.497	neutral	Picture	49.571	n/a	4	11	16	n/a	96	32	1	n/a	n/a	n/a	n/a	451.119	AM14NES.jpg
419.581	0.514	Blank	Blank	49.057	n/a	4	11	16	n/a	96	n/a	1	n/a	n/a	n/a	n/a	451.616	n/a
420.112	0.497	neutral	Picture	48.543	n/a	4	11	17	n/a	97	3	1	n/a	n/a	n/a	n/a	452.147	BF04NES.jpg
420.609	0.514	Blank	Blank	48.029	n/a	4	11	17	n/a	97	n/a	1	n/a	n/a	n/a	n/a	452.644	n/a
421.14	0.497	neutral	Picture	47.515	n/a	4	11	18	n/a	98	16	1	n/a	n/a	n/a	n/a	453.175	AF26NES.jpg
421.637	0.514	Blank	Blank	47.001	n/a	4	11	18	n/a	98	n/a	1	n/a	n/a	n/a	n/a	453.672	n/a
422.168	0.497	neutral	Picture	46.487	n/a	4	11	19	n/a	99	27	1	n/a	n/a	n/a	n/a	454.203	BM08NES.jpg
422.665	0.514	Blank	Blank	45.973	n/a	4	11	19	n/a	99	n/a	1	n/a	n/a	n/a	n/a	454.7	n/a
423.196	0.497	neutral	Picture	45.459	n/a	4	11	20	n/a	100	28	1	n/a	n/a	n/a	n/a	455.231	AM09NES.jpg
423.693	0.514	Blank	Blank	44.945	n/a	4	11	20	n/a	100	n/a	1	n/a	n/a	n/a	n/a	455.728	n/a
424.223	10.014	ITI	Fixation+	34.915	n/a	4	n/a	n/a	n/a	n/a	n/a	n/a	n/a	n/a	n/a	n/a	456.258	n/a
434.254	0.497	angry	Picture	34.401	n/a	4	12	1	n/a	101	81	3	n/a	n/a	n/a	n/a	466.288	AF01ANS.jpg
434.751	0.514	Blank	Blank	33.887	n/a	4	12	1	n/a	101	n/a	3	n/a	n/a	n/a	n/a	466.786	n/a
435.281	0.497	angry	Picture	33.373	n/a	4	12	2	n/a	102	120	3	n/a	n/a	n/a	n/a	467.316	AM35ANS.jpg
435.779	0.514	Blank	Blank	32.859	n/a	4	12	2	n/a	102	n/a	3	n/a	n/a	n/a	n/a	467.814	n/a
436.309	0.497	angry	Picture	32.345	n/a	4	12	3	n/a	103	114	3	n/a	n/a	n/a	n/a	468.344	AM22ANS.jpg
436.807	0.514	Blank	Blank	31.831	n/a	4	12	3	n/a	103	n/a	3	n/a	n/a	n/a	n/a	468.842	n/a
437.337	0.497	angry	Picture	31.317	n/a	4	12	4	n/a	104	109	3	n/a	n/a	n/a	n/a	469.372	AM10ANS.jpg
437.835	0.514	Blank	Blank	30.803	n/a	4	12	4	n/a	104	n/a	3	n/a	n/a	n/a	n/a	469.87	n/a
438.365	0.497	angry	Picture	30.289	n/a	4	12	5	n/a	105	96	3	n/a	n/a	n/a	n/a	470.4	AF26ANS.jpg
438.862	0.514	Blank	Blank	29.776	n/a	4	12	5	n/a	105	n/a	3	n/a	n/a	n/a	n/a	470.897	n/a
439.393	0.497	angry	Picture	29.262	n/a	4	12	6	n/a	106	82	3	n/a	n/a	n/a	n/a	471.428	AF03ANS.jpg
439.89	0.514	Blank	Blank	28.748	n/a	4	12	6	n/a	106	n/a	3	n/a	n/a	n/a	n/a	471.925	n/a
440.421	0.497	angry	Picture	28.234	n/a	4	12	7	n/a	107	97	3	n/a	n/a	n/a	n/a	472.456	BF28ANS.jpg
440.918	0.514	Blank	Blank	27.72	n/a	4	12	7	n/a	107	n/a	3	n/a	n/a	n/a	n/a	472.953	n/a
441.449	0.497	angry	Picture	27.206	n/a	4	12	8	n/a	108	115	3	n/a	n/a	n/a	n/a	473.484	AM23ANS.jpg
441.946	0.514	Blank	Blank	26.692	n/a	4	12	8	n/a	108	n/a	3	n/a	n/a	n/a	n/a	473.981	n/a
442.476	0.497	angry	Picture	26.178	n/a	4	12	9	n/a	109	91	3	n/a	n/a	n/a	n/a	474.512	AF20ANS.jpg
442.974	0.514	Blank	Blank	25.664	n/a	4	12	9	n/a	109	n/a	3	n/a	n/a	n/a	n/a	475.009	n/a
443.504	0.497	angry	Picture	25.15	n/a	4	12	10	n/a	110	87	3	n/a	n/a	n/a	n/a	475.539	BF11ANS.jpg
444.002	0.514	Blank	Blank	24.636	n/a	4	12	10	n/a	110	n/a	3	n/a	n/a	n/a	n/a	476.037	n/a
444.532	0.497	angry	Picture	24.122	n/a	4	12	11	n/a	111	85	3	n/a	n/a	n/a	n/a	476.567	BF07ANS.jpg
445.03	0.514	Blank	Blank	23.608	n/a	4	12	11	n/a	111	n/a	3	n/a	n/a	n/a	n/a	477.065	n/a
445.56	0.497	angry	Picture	23.094	n/a	4	12	12	n/a	112	110	3	n/a	n/a	n/a	n/a	477.595	AM11ANS.jpg
446.058	0.514	Blank	Blank	22.58	n/a	4	12	12	n/a	112	n/a	3	n/a	n/a	n/a	n/a	478.093	n/a
446.588	0.497	angry	Picture	22.066	n/a	4	12	13	n/a	113	111	3	n/a	n/a	n/a	n/a	478.623	BM12ANS.jpg
447.085	0.514	Blank	Blank	21.552	n/a	4	12	13	n/a	113	n/a	3	n/a	n/a	n/a	n/a	479.12	n/a
447.616	0.497	angry	Picture	21.039	n/a	4	12	14	n/a	114	103	3	n/a	n/a	n/a	n/a	479.651	AM04ANS.jpg
448.113	0.514	Blank	Blank	20.525	n/a	4	12	14	n/a	114	n/a	3	n/a	n/a	n/a	n/a	480.148	n/a
448.644	0.497	angry	Picture	20.011	n/a	4	12	15	n/a	115	101	3	n/a	n/a	n/a	n/a	480.679	AM01ANS.jpg
449.141	0.514	Blank	Blank	19.497	n/a	4	12	15	n/a	115	n/a	3	n/a	n/a	n/a	n/a	481.176	n/a
449.672	0.497	angry	Picture	18.983	n/a	4	12	16	n/a	116	104	3	n/a	n/a	n/a	n/a	481.707	BM05ANS.jpg
450.169	0.514	Blank	Blank	18.469	n/a	4	12	16	n/a	116	n/a	3	n/a	n/a	n/a	n/a	482.204	n/a
450.7	0.497	angry	Picture	17.955	n/a	4	12	17	n/a	117	107	3	n/a	n/a	n/a	n/a	482.735	BM08ANS.jpg
451.197	0.514	Blank	Blank	17.441	n/a	4	12	17	n/a	117	n/a	3	n/a	n/a	n/a	n/a	483.232	n/a
451.727	0.497	angry	Picture	16.927	n/a	4	12	18	n/a	118	98	3	n/a	n/a	n/a	n/a	483.762	BF29ANS.jpg
452.225	0.514	Blank	Blank	16.413	n/a	4	12	18	n/a	118	n/a	3	n/a	n/a	n/a	n/a	484.26	n/a
452.755	0.497	angry	Picture	15.899	n/a	4	12	19	n/a	119	99	3	n/a	n/a	n/a	n/a	484.79	AF31ANS.jpg
453.253	0.514	Blank	Blank	15.385	n/a	4	12	19	n/a	119	n/a	3	n/a	n/a	n/a	n/a	485.288	n/a
453.783	0.497	angry	Picture	14.871	n/a	4	12	20	n/a	120	108	3	n/a	n/a	n/a	n/a	485.818	AM09ANS.jpg
454.281	0.514	Blank	Blank	14.357	n/a	4	12	20	n/a	120	n/a	3	n/a	n/a	n/a	n/a	486.316	n/a
454.811	10.014	ITI	Fixation+	4.327	n/a	4	n/a	n/a	n/a	n/a	n/a	n/a	n/a	n/a	n/a	n/a	486.846	n/a
469.152	n/a	ConfirmRating	Rate	n/a	4.327	4	n/a	n/a	0	n/a	n/a	n/a	2	Angry	36	49	501.187	n/a
473.157	n/a	ConfirmRating	Rate	n/a	3.979	4	n/a	n/a	1	n/a	n/a	n/a	3	Angry	31	48	505.192	n/a
