onset	duration	trial_type	event_type	time_until_response	response_time	trial_number	block_num_within_trial	image_seq_num_within_block	question_seq_num_within_block	image_seq_num	picture_number	condition	question_type	block_type	rating	rating_computed	onset_uncorrected	KDEV_imagefile
0.007	10.014	ITI	Fixation+	98.287	n/a	1	n/a	n/a	n/a	n/a	n/a	n/a	n/a	n/a	n/a	n/a	28.543	n/a
10.038	0.497	happy	Picture	97.773	n/a	1	1	1	n/a	1	46	2	n/a	n/a	n/a	n/a	38.574	AF09HAS.jpg
10.535	0.514	Blank	Blank	97.259	n/a	1	1	1	n/a	1	n/a	2	n/a	n/a	n/a	n/a	39.071	n/a
11.065	0.497	happy	Picture	96.745	n/a	1	1	2	n/a	2	69	2	n/a	n/a	n/a	n/a	39.601	AM10HAS.jpg
11.563	0.514	Blank	Blank	96.231	n/a	1	1	2	n/a	2	n/a	2	n/a	n/a	n/a	n/a	40.099	n/a
12.093	0.497	happy	Picture	95.717	n/a	1	1	3	n/a	3	71	2	n/a	n/a	n/a	n/a	40.629	BM12HAS.jpg
12.591	0.514	Blank	Blank	95.203	n/a	1	1	3	n/a	3	n/a	2	n/a	n/a	n/a	n/a	41.127	n/a
13.121	0.497	happy	Picture	94.689	n/a	1	1	4	n/a	4	51	2	n/a	n/a	n/a	n/a	41.657	AF20HAS.jpg
13.619	0.514	Blank	Blank	94.175	n/a	1	1	4	n/a	4	n/a	2	n/a	n/a	n/a	n/a	42.155	n/a
14.149	0.497	happy	Picture	93.661	n/a	1	1	5	n/a	5	67	2	n/a	n/a	n/a	n/a	42.685	BM08HAS.jpg
14.646	0.514	Blank	Blank	93.147	n/a	1	1	5	n/a	5	n/a	2	n/a	n/a	n/a	n/a	43.182	n/a
15.177	0.497	happy	Picture	92.633	n/a	1	1	6	n/a	6	60	2	n/a	n/a	n/a	n/a	43.713	AF32HAS.jpg
15.674	0.514	Blank	Blank	92.119	n/a	1	1	6	n/a	6	n/a	2	n/a	n/a	n/a	n/a	44.21	n/a
16.205	0.497	happy	Picture	91.605	n/a	1	1	7	n/a	7	42	2	n/a	n/a	n/a	n/a	44.741	AF03HAS.jpg
16.702	0.514	Blank	Blank	91.091	n/a	1	1	7	n/a	7	n/a	2	n/a	n/a	n/a	n/a	45.238	n/a
17.233	0.497	happy	Picture	90.578	n/a	1	1	8	n/a	8	55	2	n/a	n/a	n/a	n/a	45.769	AF25HAS.jpg
17.73	0.514	Blank	Blank	90.064	n/a	1	1	8	n/a	8	n/a	2	n/a	n/a	n/a	n/a	46.266	n/a
18.261	0.497	happy	Picture	89.55	n/a	1	1	9	n/a	9	72	2	n/a	n/a	n/a	n/a	46.797	AM14HAS.jpg
18.758	0.514	Blank	Blank	89.036	n/a	1	1	9	n/a	9	n/a	2	n/a	n/a	n/a	n/a	47.294	n/a
19.288	0.497	happy	Picture	88.522	n/a	1	1	10	n/a	10	63	2	n/a	n/a	n/a	n/a	47.825	AM04HAS.jpg
19.786	0.514	Blank	Blank	88.008	n/a	1	1	10	n/a	10	n/a	2	n/a	n/a	n/a	n/a	48.322	n/a
20.316	0.497	happy	Picture	87.494	n/a	1	1	11	n/a	11	58	2	n/a	n/a	n/a	n/a	48.852	BF29HAS.jpg
20.814	0.514	Blank	Blank	86.98	n/a	1	1	11	n/a	11	n/a	2	n/a	n/a	n/a	n/a	49.35	n/a
21.344	0.497	happy	Picture	86.466	n/a	1	1	12	n/a	12	48	2	n/a	n/a	n/a	n/a	49.88	AF14HAS.jpg
21.842	0.514	Blank	Blank	85.952	n/a	1	1	12	n/a	12	n/a	2	n/a	n/a	n/a	n/a	50.378	n/a
22.372	0.497	happy	Picture	85.438	n/a	1	1	13	n/a	13	66	2	n/a	n/a	n/a	n/a	50.908	BM07HAS.jpg
22.87	0.514	Blank	Blank	84.924	n/a	1	1	13	n/a	13	n/a	2	n/a	n/a	n/a	n/a	51.406	n/a
23.4	0.497	happy	Picture	84.41	n/a	1	1	14	n/a	14	70	2	n/a	n/a	n/a	n/a	51.936	BM11HAS.jpg
23.897	0.514	Blank	Blank	83.896	n/a	1	1	14	n/a	14	n/a	2	n/a	n/a	n/a	n/a	52.433	n/a
24.428	0.497	happy	Picture	83.382	n/a	1	1	15	n/a	15	43	2	n/a	n/a	n/a	n/a	52.964	BF04HAS.jpg
24.925	0.514	Blank	Blank	82.868	n/a	1	1	15	n/a	15	n/a	2	n/a	n/a	n/a	n/a	53.461	n/a
25.456	0.497	happy	Picture	82.354	n/a	1	1	16	n/a	16	49	2	n/a	n/a	n/a	n/a	53.992	AF17HAS.jpg
25.953	0.514	Blank	Blank	81.841	n/a	1	1	16	n/a	16	n/a	2	n/a	n/a	n/a	n/a	54.489	n/a
26.484	0.497	happy	Picture	81.327	n/a	1	1	17	n/a	17	75	2	n/a	n/a	n/a	n/a	55.02	AM23HAS.jpg
26.981	0.514	Blank	Blank	80.813	n/a	1	1	17	n/a	17	n/a	2	n/a	n/a	n/a	n/a	55.517	n/a
27.512	0.497	happy	Picture	80.299	n/a	1	1	18	n/a	18	80	2	n/a	n/a	n/a	n/a	56.048	BM35HAS.jpg
28.009	0.514	Blank	Blank	79.785	n/a	1	1	18	n/a	18	n/a	2	n/a	n/a	n/a	n/a	56.545	n/a
28.539	0.497	happy	Picture	79.271	n/a	1	1	19	n/a	19	76	2	n/a	n/a	n/a	n/a	57.075	BM24HAS.jpg
29.037	0.514	Blank	Blank	78.757	n/a	1	1	19	n/a	19	n/a	2	n/a	n/a	n/a	n/a	57.573	n/a
29.567	0.497	happy	Picture	78.243	n/a	1	1	20	n/a	20	74	2	n/a	n/a	n/a	n/a	58.103	AM22HAS.jpg
30.065	0.514	Blank	Blank	77.729	n/a	1	1	20	n/a	20	n/a	2	n/a	n/a	n/a	n/a	58.601	n/a
30.595	10.014	ITI	Fixation+	67.699	n/a	1	n/a	n/a	n/a	n/a	n/a	n/a	n/a	n/a	n/a	n/a	59.131	n/a
40.625	0.497	neutral	Picture	67.185	n/a	1	2	1	n/a	21	33	1	n/a	n/a	n/a	n/a	69.161	AM21NES.jpg
41.123	0.514	Blank	Blank	66.671	n/a	1	2	1	n/a	21	n/a	1	n/a	n/a	n/a	n/a	69.659	n/a
41.653	0.497	neutral	Picture	66.157	n/a	1	2	2	n/a	22	39	1	n/a	n/a	n/a	n/a	70.189	AM28NES.jpg
42.151	0.514	Blank	Blank	65.643	n/a	1	2	2	n/a	22	n/a	1	n/a	n/a	n/a	n/a	70.687	n/a
42.681	0.497	neutral	Picture	65.129	n/a	1	2	3	n/a	23	25	1	n/a	n/a	n/a	n/a	71.217	BM06NES.jpg
43.179	0.514	Blank	Blank	64.615	n/a	1	2	3	n/a	23	n/a	1	n/a	n/a	n/a	n/a	71.715	n/a
43.709	0.497	neutral	Picture	64.101	n/a	1	2	4	n/a	24	5	1	n/a	n/a	n/a	n/a	72.245	BF07NES.jpg
44.207	0.514	Blank	Blank	63.587	n/a	1	2	4	n/a	24	n/a	1	n/a	n/a	n/a	n/a	72.743	n/a
44.737	0.497	neutral	Picture	63.073	n/a	1	2	5	n/a	25	10	1	n/a	n/a	n/a	n/a	73.273	AF18NES.jpg
45.234	0.514	Blank	Blank	62.559	n/a	1	2	5	n/a	25	n/a	1	n/a	n/a	n/a	n/a	73.77	n/a
45.765	0.497	neutral	Picture	62.045	n/a	1	2	6	n/a	26	34	1	n/a	n/a	n/a	n/a	74.301	AM22NES.jpg
46.262	0.514	Blank	Blank	61.531	n/a	1	2	6	n/a	26	n/a	1	n/a	n/a	n/a	n/a	74.798	n/a
46.793	0.497	neutral	Picture	61.018	n/a	1	2	7	n/a	27	36	1	n/a	n/a	n/a	n/a	75.329	BM24NES.jpg
47.29	0.514	Blank	Blank	60.504	n/a	1	2	7	n/a	27	n/a	1	n/a	n/a	n/a	n/a	75.826	n/a
47.821	0.497	neutral	Picture	59.99	n/a	1	2	8	n/a	28	14	1	n/a	n/a	n/a	n/a	76.357	AF23NES.jpg
48.318	0.514	Blank	Blank	59.476	n/a	1	2	8	n/a	28	n/a	1	n/a	n/a	n/a	n/a	76.854	n/a
48.849	0.497	neutral	Picture	58.962	n/a	1	2	9	n/a	29	9	1	n/a	n/a	n/a	n/a	77.385	AF17NES.jpg
49.346	0.514	Blank	Blank	58.448	n/a	1	2	9	n/a	29	n/a	1	n/a	n/a	n/a	n/a	77.882	n/a
49.876	0.497	neutral	Picture	57.934	n/a	1	2	10	n/a	30	19	1	n/a	n/a	n/a	n/a	78.412	AF31NES.jpg
50.374	0.514	Blank	Blank	57.42	n/a	1	2	10	n/a	30	n/a	1	n/a	n/a	n/a	n/a	78.91	n/a
50.904	0.497	neutral	Picture	56.906	n/a	1	2	11	n/a	31	15	1	n/a	n/a	n/a	n/a	79.44	AF25NES.jpg
51.402	0.514	Blank	Blank	56.392	n/a	1	2	11	n/a	31	n/a	1	n/a	n/a	n/a	n/a	79.938	n/a
51.932	0.497	neutral	Picture	55.878	n/a	1	2	12	n/a	32	22	1	n/a	n/a	n/a	n/a	80.468	BM03NES.jpg
52.43	0.514	Blank	Blank	55.364	n/a	1	2	12	n/a	32	n/a	1	n/a	n/a	n/a	n/a	80.966	n/a
52.96	0.497	neutral	Picture	54.85	n/a	1	2	13	n/a	33	11	1	n/a	n/a	n/a	n/a	81.496	AF20NES.jpg
53.457	0.514	Blank	Blank	54.336	n/a	1	2	13	n/a	33	n/a	1	n/a	n/a	n/a	n/a	81.993	n/a
53.988	0.497	neutral	Picture	53.822	n/a	1	2	14	n/a	34	4	1	n/a	n/a	n/a	n/a	82.524	AF05NES.jpg
54.485	0.514	Blank	Blank	53.308	n/a	1	2	14	n/a	34	n/a	1	n/a	n/a	n/a	n/a	83.021	n/a
55.016	0.497	neutral	Picture	52.794	n/a	1	2	15	n/a	35	17	1	n/a	n/a	n/a	n/a	83.552	BF28NES.jpg
55.513	0.514	Blank	Blank	52.28	n/a	1	2	15	n/a	35	n/a	1	n/a	n/a	n/a	n/a	84.049	n/a
56.044	0.497	neutral	Picture	51.767	n/a	1	2	16	n/a	36	13	1	n/a	n/a	n/a	n/a	84.58	BF22NES.jpg
56.541	0.514	Blank	Blank	51.253	n/a	1	2	16	n/a	36	n/a	1	n/a	n/a	n/a	n/a	85.077	n/a
57.072	0.497	neutral	Picture	50.739	n/a	1	2	17	n/a	37	12	1	n/a	n/a	n/a	n/a	85.608	AF21NES.jpg
57.569	0.514	Blank	Blank	50.225	n/a	1	2	17	n/a	37	n/a	1	n/a	n/a	n/a	n/a	86.105	n/a
58.099	0.497	neutral	Picture	49.711	n/a	1	2	18	n/a	38	24	1	n/a	n/a	n/a	n/a	86.635	BM05NES.jpg
58.597	0.514	Blank	Blank	49.197	n/a	1	2	18	n/a	38	n/a	1	n/a	n/a	n/a	n/a	87.133	n/a
59.127	0.497	neutral	Picture	48.683	n/a	1	2	19	n/a	39	29	1	n/a	n/a	n/a	n/a	87.663	AM10NES.jpg
59.625	0.514	Blank	Blank	48.169	n/a	1	2	19	n/a	39	n/a	1	n/a	n/a	n/a	n/a	88.161	n/a
60.155	0.497	neutral	Picture	47.655	n/a	1	2	20	n/a	40	23	1	n/a	n/a	n/a	n/a	88.691	AM04NES.jpg
60.653	0.514	Blank	Blank	47.141	n/a	1	2	20	n/a	40	n/a	1	n/a	n/a	n/a	n/a	89.189	n/a
61.183	10.014	ITI	Fixation+	37.111	n/a	1	n/a	n/a	n/a	n/a	n/a	n/a	n/a	n/a	n/a	n/a	89.719	n/a
71.213	0.497	happy	Picture	36.597	n/a	1	3	1	n/a	41	62	2	n/a	n/a	n/a	n/a	99.749	BM03HAS.jpg
71.711	0.514	Blank	Blank	36.083	n/a	1	3	1	n/a	41	n/a	2	n/a	n/a	n/a	n/a	100.247	n/a
72.241	0.497	happy	Picture	35.569	n/a	1	3	2	n/a	42	52	2	n/a	n/a	n/a	n/a	100.777	AF21HAS.jpg
72.739	0.514	Blank	Blank	35.055	n/a	1	3	2	n/a	42	n/a	2	n/a	n/a	n/a	n/a	101.275	n/a
73.269	0.497	happy	Picture	34.541	n/a	1	3	3	n/a	43	44	2	n/a	n/a	n/a	n/a	101.805	AF05HAS.jpg
73.766	0.514	Blank	Blank	34.027	n/a	1	3	3	n/a	43	n/a	2	n/a	n/a	n/a	n/a	102.302	n/a
74.297	0.497	happy	Picture	33.513	n/a	1	3	4	n/a	44	53	2	n/a	n/a	n/a	n/a	102.833	BF22HAS.jpg
74.794	0.514	Blank	Blank	32.999	n/a	1	3	4	n/a	44	n/a	2	n/a	n/a	n/a	n/a	103.33	n/a
75.325	0.497	happy	Picture	32.485	n/a	1	3	5	n/a	45	54	2	n/a	n/a	n/a	n/a	103.861	AF23HAS.jpg
75.822	0.514	Blank	Blank	31.971	n/a	1	3	5	n/a	45	n/a	2	n/a	n/a	n/a	n/a	104.358	n/a
76.353	0.497	happy	Picture	31.458	n/a	1	3	6	n/a	46	68	2	n/a	n/a	n/a	n/a	104.889	AM09HAS.jpg
76.85	0.514	Blank	Blank	30.944	n/a	1	3	6	n/a	46	n/a	2	n/a	n/a	n/a	n/a	105.386	n/a
77.381	0.497	happy	Picture	30.43	n/a	1	3	7	n/a	47	64	2	n/a	n/a	n/a	n/a	105.917	BM05HAS.jpg
77.878	0.514	Blank	Blank	29.916	n/a	1	3	7	n/a	47	n/a	2	n/a	n/a	n/a	n/a	106.414	n/a
78.409	0.497	happy	Picture	29.402	n/a	1	3	8	n/a	48	59	2	n/a	n/a	n/a	n/a	106.945	AF31HAS.jpg
78.906	0.514	Blank	Blank	28.888	n/a	1	3	8	n/a	48	n/a	2	n/a	n/a	n/a	n/a	107.442	n/a
79.436	0.497	happy	Picture	28.374	n/a	1	3	9	n/a	49	41	2	n/a	n/a	n/a	n/a	107.972	AF01HAS.jpg
79.934	0.514	Blank	Blank	27.86	n/a	1	3	9	n/a	49	n/a	2	n/a	n/a	n/a	n/a	108.47	n/a
80.464	0.497	happy	Picture	27.346	n/a	1	3	10	n/a	50	73	2	n/a	n/a	n/a	n/a	109.0	AM21HAS.jpg
80.962	0.514	Blank	Blank	26.832	n/a	1	3	10	n/a	50	n/a	2	n/a	n/a	n/a	n/a	109.498	n/a
81.492	0.497	happy	Picture	26.318	n/a	1	3	11	n/a	51	65	2	n/a	n/a	n/a	n/a	110.028	BM06HAS.jpg
81.99	0.514	Blank	Blank	25.804	n/a	1	3	11	n/a	51	n/a	2	n/a	n/a	n/a	n/a	110.526	n/a
82.52	0.497	happy	Picture	25.29	n/a	1	3	12	n/a	52	56	2	n/a	n/a	n/a	n/a	111.056	AF26HAS.jpg
83.017	0.514	Blank	Blank	24.776	n/a	1	3	12	n/a	52	n/a	2	n/a	n/a	n/a	n/a	111.553	n/a
83.548	0.497	happy	Picture	24.262	n/a	1	3	13	n/a	53	45	2	n/a	n/a	n/a	n/a	112.084	BF07HAS.jpg
84.045	0.514	Blank	Blank	23.748	n/a	1	3	13	n/a	53	n/a	2	n/a	n/a	n/a	n/a	112.581	n/a
84.576	0.497	happy	Picture	23.234	n/a	1	3	14	n/a	54	78	2	n/a	n/a	n/a	n/a	113.112	BM26HAS.jpg
85.073	0.514	Blank	Blank	22.72	n/a	1	3	14	n/a	54	n/a	2	n/a	n/a	n/a	n/a	113.609	n/a
85.604	0.497	happy	Picture	22.207	n/a	1	3	15	n/a	55	50	2	n/a	n/a	n/a	n/a	114.14	AF18HAS.jpg
86.101	0.514	Blank	Blank	21.693	n/a	1	3	15	n/a	55	n/a	2	n/a	n/a	n/a	n/a	114.637	n/a
86.632	0.497	happy	Picture	21.179	n/a	1	3	16	n/a	56	47	2	n/a	n/a	n/a	n/a	115.168	BF11HAS.jpg
87.129	0.514	Blank	Blank	20.665	n/a	1	3	16	n/a	56	n/a	2	n/a	n/a	n/a	n/a	115.665	n/a
87.659	0.497	happy	Picture	20.151	n/a	1	3	17	n/a	57	77	2	n/a	n/a	n/a	n/a	116.195	BM25HAS.jpg
88.157	0.514	Blank	Blank	19.637	n/a	1	3	17	n/a	57	n/a	2	n/a	n/a	n/a	n/a	116.693	n/a
88.687	0.497	happy	Picture	19.123	n/a	1	3	18	n/a	58	57	2	n/a	n/a	n/a	n/a	117.223	BF28HAS.jpg
89.185	0.514	Blank	Blank	18.609	n/a	1	3	18	n/a	58	n/a	2	n/a	n/a	n/a	n/a	117.721	n/a
89.715	0.497	happy	Picture	18.095	n/a	1	3	19	n/a	59	61	2	n/a	n/a	n/a	n/a	118.251	AM01HAS.jpg
90.213	0.514	Blank	Blank	17.581	n/a	1	3	19	n/a	59	n/a	2	n/a	n/a	n/a	n/a	118.749	n/a
90.743	0.497	happy	Picture	17.067	n/a	1	3	20	n/a	60	79	2	n/a	n/a	n/a	n/a	119.279	BM28HAS.jpg
91.24	0.514	Blank	Blank	16.553	n/a	1	3	20	n/a	60	n/a	2	n/a	n/a	n/a	n/a	119.776	n/a
91.771	10.014	ITI	Fixation+	6.523	n/a	1	n/a	n/a	n/a	n/a	n/a	n/a	n/a	n/a	n/a	n/a	120.307	n/a
108.308	n/a	ConfirmRating	Rate	n/a	6.499	1	n/a	n/a	0	n/a	n/a	n/a	2	Happy	43	49	136.844	n/a
114.534	n/a	ConfirmRating	Rate	n/a	6.2	1	n/a	n/a	1	n/a	n/a	n/a	3	Happy	15	49	143.07	n/a
114.55	10.014	ITI	Fixation+	95.953	n/a	2	n/a	n/a	n/a	n/a	n/a	n/a	n/a	n/a	n/a	n/a	143.086	n/a
124.581	0.497	angry	Picture	95.439	n/a	2	4	1	n/a	61	119	3	n/a	n/a	n/a	n/a	153.117	BM28ANS.jpg
125.078	0.514	Blank	Blank	94.925	n/a	2	4	1	n/a	61	n/a	3	n/a	n/a	n/a	n/a	153.614	n/a
125.608	0.497	angry	Picture	94.411	n/a	2	4	2	n/a	62	100	3	n/a	n/a	n/a	n/a	154.144	AF32ANS.jpg
126.106	0.514	Blank	Blank	93.897	n/a	2	4	2	n/a	62	n/a	3	n/a	n/a	n/a	n/a	154.642	n/a
126.636	0.497	angry	Picture	93.383	n/a	2	4	3	n/a	63	118	3	n/a	n/a	n/a	n/a	155.172	BM26ANS.jpg
127.134	0.514	Blank	Blank	92.869	n/a	2	4	3	n/a	63	n/a	3	n/a	n/a	n/a	n/a	155.67	n/a
127.664	0.497	angry	Picture	92.355	n/a	2	4	4	n/a	64	89	3	n/a	n/a	n/a	n/a	156.2	AF17ANS.jpg
128.162	0.514	Blank	Blank	91.841	n/a	2	4	4	n/a	64	n/a	3	n/a	n/a	n/a	n/a	156.698	n/a
128.692	0.497	angry	Picture	91.328	n/a	2	4	5	n/a	65	116	3	n/a	n/a	n/a	n/a	157.228	BM24ANS.jpg
129.189	0.514	Blank	Blank	90.814	n/a	2	4	5	n/a	65	n/a	3	n/a	n/a	n/a	n/a	157.725	n/a
129.72	0.497	angry	Picture	90.3	n/a	2	4	6	n/a	66	105	3	n/a	n/a	n/a	n/a	158.256	BM06ANS.jpg
130.217	0.514	Blank	Blank	89.786	n/a	2	4	6	n/a	66	n/a	3	n/a	n/a	n/a	n/a	158.753	n/a
130.748	0.497	angry	Picture	89.272	n/a	2	4	7	n/a	67	106	3	n/a	n/a	n/a	n/a	159.284	AM07ANS.jpg
131.245	0.514	Blank	Blank	88.758	n/a	2	4	7	n/a	67	n/a	3	n/a	n/a	n/a	n/a	159.781	n/a
131.776	0.497	angry	Picture	88.244	n/a	2	4	8	n/a	68	94	3	n/a	n/a	n/a	n/a	160.312	AF23ANS.jpg
132.273	0.514	Blank	Blank	87.73	n/a	2	4	8	n/a	68	n/a	3	n/a	n/a	n/a	n/a	160.809	n/a
132.804	0.497	angry	Picture	87.216	n/a	2	4	9	n/a	69	117	3	n/a	n/a	n/a	n/a	161.34	BM25ANS.jpg
133.301	0.514	Blank	Blank	86.702	n/a	2	4	9	n/a	69	n/a	3	n/a	n/a	n/a	n/a	161.837	n/a
133.832	0.497	angry	Picture	86.188	n/a	2	4	10	n/a	70	90	3	n/a	n/a	n/a	n/a	162.368	AF18ANS.jpg
134.329	0.514	Blank	Blank	85.674	n/a	2	4	10	n/a	70	n/a	3	n/a	n/a	n/a	n/a	162.865	n/a
134.859	0.497	angry	Picture	85.16	n/a	2	4	11	n/a	71	83	3	n/a	n/a	n/a	n/a	163.395	BF04ANS.jpg
135.357	0.514	Blank	Blank	84.646	n/a	2	4	11	n/a	71	n/a	3	n/a	n/a	n/a	n/a	163.893	n/a
135.887	0.497	angry	Picture	84.132	n/a	2	4	12	n/a	72	112	3	n/a	n/a	n/a	n/a	164.423	AM14ANS.jpg
136.385	0.514	Blank	Blank	83.618	n/a	2	4	12	n/a	72	n/a	3	n/a	n/a	n/a	n/a	164.921	n/a
136.915	0.497	angry	Picture	83.105	n/a	2	4	13	n/a	73	102	3	n/a	n/a	n/a	n/a	165.451	BM03ANS.jpg
137.412	0.514	Blank	Blank	82.59	n/a	2	4	13	n/a	73	n/a	3	n/a	n/a	n/a	n/a	165.948	n/a
137.943	0.497	angry	Picture	82.077	n/a	2	4	14	n/a	74	95	3	n/a	n/a	n/a	n/a	166.479	AF25ANS.jpg
138.44	0.514	Blank	Blank	81.563	n/a	2	4	14	n/a	74	n/a	3	n/a	n/a	n/a	n/a	166.976	n/a
138.971	0.497	angry	Picture	81.049	n/a	2	4	15	n/a	75	113	3	n/a	n/a	n/a	n/a	167.507	AM21ANS.jpg
139.468	0.514	Blank	Blank	80.535	n/a	2	4	15	n/a	75	n/a	3	n/a	n/a	n/a	n/a	168.004	n/a
139.999	0.497	angry	Picture	80.021	n/a	2	4	16	n/a	76	88	3	n/a	n/a	n/a	n/a	168.535	AF14ANS.jpg
140.496	0.514	Blank	Blank	79.507	n/a	2	4	16	n/a	76	n/a	3	n/a	n/a	n/a	n/a	169.032	n/a
141.027	0.497	angry	Picture	78.993	n/a	2	4	17	n/a	77	93	3	n/a	n/a	n/a	n/a	169.563	BF22ANS.jpg
141.524	0.514	Blank	Blank	78.479	n/a	2	4	17	n/a	77	n/a	3	n/a	n/a	n/a	n/a	170.06	n/a
142.055	0.497	angry	Picture	77.965	n/a	2	4	18	n/a	78	86	3	n/a	n/a	n/a	n/a	170.591	AF09ANS.jpg
142.552	0.514	Blank	Blank	77.451	n/a	2	4	18	n/a	78	n/a	3	n/a	n/a	n/a	n/a	171.088	n/a
143.083	0.497	angry	Picture	76.937	n/a	2	4	19	n/a	79	92	3	n/a	n/a	n/a	n/a	171.619	AF21ANS.jpg
143.58	0.514	Blank	Blank	76.423	n/a	2	4	19	n/a	79	n/a	3	n/a	n/a	n/a	n/a	172.116	n/a
144.11	0.497	angry	Picture	75.909	n/a	2	4	20	n/a	80	84	3	n/a	n/a	n/a	n/a	172.646	AF05ANS.jpg
144.608	0.514	Blank	Blank	75.395	n/a	2	4	20	n/a	80	n/a	3	n/a	n/a	n/a	n/a	173.144	n/a
145.138	10.014	ITI	Fixation+	65.365	n/a	2	n/a	n/a	n/a	n/a	n/a	n/a	n/a	n/a	n/a	n/a	173.674	n/a
155.168	0.497	neutral	Picture	64.851	n/a	2	5	1	n/a	81	4	1	n/a	n/a	n/a	n/a	183.704	AF05NES.jpg
155.666	0.514	Blank	Blank	64.337	n/a	2	5	1	n/a	81	n/a	1	n/a	n/a	n/a	n/a	184.202	n/a
156.196	0.497	neutral	Picture	63.823	n/a	2	5	2	n/a	82	14	1	n/a	n/a	n/a	n/a	184.732	AF23NES.jpg
156.694	0.514	Blank	Blank	63.309	n/a	2	5	2	n/a	82	n/a	1	n/a	n/a	n/a	n/a	185.23	n/a
157.224	0.497	neutral	Picture	62.795	n/a	2	5	3	n/a	83	19	1	n/a	n/a	n/a	n/a	185.76	AF31NES.jpg
157.722	0.514	Blank	Blank	62.281	n/a	2	5	3	n/a	83	n/a	1	n/a	n/a	n/a	n/a	186.258	n/a
158.252	0.497	neutral	Picture	61.768	n/a	2	5	4	n/a	84	8	1	n/a	n/a	n/a	n/a	186.788	AF14NES.jpg
158.75	0.514	Blank	Blank	61.254	n/a	2	5	4	n/a	84	n/a	1	n/a	n/a	n/a	n/a	187.286	n/a
159.28	0.497	neutral	Picture	60.74	n/a	2	5	5	n/a	85	25	1	n/a	n/a	n/a	n/a	187.816	BM06NES.jpg
159.777	0.514	Blank	Blank	60.226	n/a	2	5	5	n/a	85	n/a	1	n/a	n/a	n/a	n/a	188.313	n/a
160.308	0.497	neutral	Picture	59.712	n/a	2	5	6	n/a	86	9	1	n/a	n/a	n/a	n/a	188.844	AF17NES.jpg
160.805	0.514	Blank	Blank	59.198	n/a	2	5	6	n/a	86	n/a	1	n/a	n/a	n/a	n/a	189.341	n/a
161.336	0.497	neutral	Picture	58.684	n/a	2	5	7	n/a	87	2	1	n/a	n/a	n/a	n/a	189.872	AF03NES.jpg
161.833	0.514	Blank	Blank	58.17	n/a	2	5	7	n/a	87	n/a	1	n/a	n/a	n/a	n/a	190.369	n/a
162.364	0.497	neutral	Picture	57.656	n/a	2	5	8	n/a	88	17	1	n/a	n/a	n/a	n/a	190.9	BF28NES.jpg
162.861	0.514	Blank	Blank	57.142	n/a	2	5	8	n/a	88	n/a	1	n/a	n/a	n/a	n/a	191.397	n/a
163.392	0.497	neutral	Picture	56.628	n/a	2	5	9	n/a	89	6	1	n/a	n/a	n/a	n/a	191.928	AF09NES.jpg
163.889	0.514	Blank	Blank	56.114	n/a	2	5	9	n/a	89	n/a	1	n/a	n/a	n/a	n/a	192.425	n/a
164.419	0.497	neutral	Picture	55.6	n/a	2	5	10	n/a	90	12	1	n/a	n/a	n/a	n/a	192.955	AF21NES.jpg
164.917	0.514	Blank	Blank	55.086	n/a	2	5	10	n/a	90	n/a	1	n/a	n/a	n/a	n/a	193.453	n/a
165.447	0.497	neutral	Picture	54.572	n/a	2	5	11	n/a	91	24	1	n/a	n/a	n/a	n/a	193.983	BM05NES.jpg
165.945	0.514	Blank	Blank	54.058	n/a	2	5	11	n/a	91	n/a	1	n/a	n/a	n/a	n/a	194.481	n/a
166.475	0.497	neutral	Picture	53.544	n/a	2	5	12	n/a	92	34	1	n/a	n/a	n/a	n/a	195.011	AM22NES.jpg
166.972	0.514	Blank	Blank	53.03	n/a	2	5	12	n/a	92	n/a	1	n/a	n/a	n/a	n/a	195.508	n/a
167.503	0.497	neutral	Picture	52.517	n/a	2	5	13	n/a	93	23	1	n/a	n/a	n/a	n/a	196.039	AM04NES.jpg
168.0	0.514	Blank	Blank	52.003	n/a	2	5	13	n/a	93	n/a	1	n/a	n/a	n/a	n/a	196.536	n/a
168.531	0.497	neutral	Picture	51.489	n/a	2	5	14	n/a	94	15	1	n/a	n/a	n/a	n/a	197.067	AF25NES.jpg
169.028	0.514	Blank	Blank	50.975	n/a	2	5	14	n/a	94	n/a	1	n/a	n/a	n/a	n/a	197.564	n/a
169.559	0.497	neutral	Picture	50.461	n/a	2	5	15	n/a	95	37	1	n/a	n/a	n/a	n/a	198.095	BM25NES.jpg
170.056	0.514	Blank	Blank	49.947	n/a	2	5	15	n/a	95	n/a	1	n/a	n/a	n/a	n/a	198.592	n/a
170.587	0.497	neutral	Picture	49.433	n/a	2	5	16	n/a	96	32	1	n/a	n/a	n/a	n/a	199.123	AM14NES.jpg
171.084	0.514	Blank	Blank	48.919	n/a	2	5	16	n/a	96	n/a	1	n/a	n/a	n/a	n/a	199.62	n/a
171.615	0.497	neutral	Picture	48.405	n/a	2	5	17	n/a	97	3	1	n/a	n/a	n/a	n/a	200.151	BF04NES.jpg
172.112	0.514	Blank	Blank	47.891	n/a	2	5	17	n/a	97	n/a	1	n/a	n/a	n/a	n/a	200.648	n/a
172.643	0.497	neutral	Picture	47.377	n/a	2	5	18	n/a	98	16	1	n/a	n/a	n/a	n/a	201.179	AF26NES.jpg
173.14	0.514	Blank	Blank	46.863	n/a	2	5	18	n/a	98	n/a	1	n/a	n/a	n/a	n/a	201.676	n/a
173.67	0.497	neutral	Picture	46.349	n/a	2	5	19	n/a	99	27	1	n/a	n/a	n/a	n/a	202.206	BM08NES.jpg
174.168	0.514	Blank	Blank	45.835	n/a	2	5	19	n/a	99	n/a	1	n/a	n/a	n/a	n/a	202.704	n/a
174.698	0.497	neutral	Picture	45.321	n/a	2	5	20	n/a	100	28	1	n/a	n/a	n/a	n/a	203.234	AM09NES.jpg
175.196	0.514	Blank	Blank	44.807	n/a	2	5	20	n/a	100	n/a	1	n/a	n/a	n/a	n/a	203.732	n/a
175.726	10.014	ITI	Fixation+	34.777	n/a	2	n/a	n/a	n/a	n/a	n/a	n/a	n/a	n/a	n/a	n/a	204.262	n/a
185.756	0.497	angry	Picture	34.263	n/a	2	6	1	n/a	101	81	3	n/a	n/a	n/a	n/a	214.292	AF01ANS.jpg
186.254	0.514	Blank	Blank	33.749	n/a	2	6	1	n/a	101	n/a	3	n/a	n/a	n/a	n/a	214.79	n/a
186.784	0.497	angry	Picture	33.235	n/a	2	6	2	n/a	102	120	3	n/a	n/a	n/a	n/a	215.32	AM35ANS.jpg
187.282	0.514	Blank	Blank	32.721	n/a	2	6	2	n/a	102	n/a	3	n/a	n/a	n/a	n/a	215.818	n/a
187.812	0.497	angry	Picture	32.208	n/a	2	6	3	n/a	103	114	3	n/a	n/a	n/a	n/a	216.348	AM22ANS.jpg
188.309	0.514	Blank	Blank	31.694	n/a	2	6	3	n/a	103	n/a	3	n/a	n/a	n/a	n/a	216.845	n/a
188.84	0.497	angry	Picture	31.18	n/a	2	6	4	n/a	104	109	3	n/a	n/a	n/a	n/a	217.376	AM10ANS.jpg
189.337	0.514	Blank	Blank	30.666	n/a	2	6	4	n/a	104	n/a	3	n/a	n/a	n/a	n/a	217.873	n/a
189.868	0.497	angry	Picture	30.152	n/a	2	6	5	n/a	105	96	3	n/a	n/a	n/a	n/a	218.404	AF26ANS.jpg
190.365	0.514	Blank	Blank	29.638	n/a	2	6	5	n/a	105	n/a	3	n/a	n/a	n/a	n/a	218.901	n/a
190.896	0.497	angry	Picture	29.124	n/a	2	6	6	n/a	106	82	3	n/a	n/a	n/a	n/a	219.432	AF03ANS.jpg
191.393	0.514	Blank	Blank	28.61	n/a	2	6	6	n/a	106	n/a	3	n/a	n/a	n/a	n/a	219.929	n/a
191.924	0.497	angry	Picture	28.096	n/a	2	6	7	n/a	107	97	3	n/a	n/a	n/a	n/a	220.46	BF28ANS.jpg
192.421	0.514	Blank	Blank	27.582	n/a	2	6	7	n/a	107	n/a	3	n/a	n/a	n/a	n/a	220.957	n/a
192.952	0.497	angry	Picture	27.068	n/a	2	6	8	n/a	108	115	3	n/a	n/a	n/a	n/a	221.488	AM23ANS.jpg
193.449	0.514	Blank	Blank	26.554	n/a	2	6	8	n/a	108	n/a	3	n/a	n/a	n/a	n/a	221.985	n/a
193.979	0.497	angry	Picture	26.04	n/a	2	6	9	n/a	109	91	3	n/a	n/a	n/a	n/a	222.515	AF20ANS.jpg
194.477	0.514	Blank	Blank	25.526	n/a	2	6	9	n/a	109	n/a	3	n/a	n/a	n/a	n/a	223.013	n/a
195.007	0.497	angry	Picture	25.012	n/a	2	6	10	n/a	110	87	3	n/a	n/a	n/a	n/a	223.543	BF11ANS.jpg
195.505	0.514	Blank	Blank	24.498	n/a	2	6	10	n/a	110	n/a	3	n/a	n/a	n/a	n/a	224.041	n/a
196.035	0.497	angry	Picture	23.984	n/a	2	6	11	n/a	111	85	3	n/a	n/a	n/a	n/a	224.571	BF07ANS.jpg
196.533	0.514	Blank	Blank	23.47	n/a	2	6	11	n/a	111	n/a	3	n/a	n/a	n/a	n/a	225.069	n/a
197.063	0.497	angry	Picture	22.957	n/a	2	6	12	n/a	112	110	3	n/a	n/a	n/a	n/a	225.599	AM11ANS.jpg
197.56	0.514	Blank	Blank	22.443	n/a	2	6	12	n/a	112	n/a	3	n/a	n/a	n/a	n/a	226.096	n/a
198.091	0.497	angry	Picture	21.929	n/a	2	6	13	n/a	113	111	3	n/a	n/a	n/a	n/a	226.627	BM12ANS.jpg
198.588	0.514	Blank	Blank	21.415	n/a	2	6	13	n/a	113	n/a	3	n/a	n/a	n/a	n/a	227.124	n/a
199.119	0.497	angry	Picture	20.901	n/a	2	6	14	n/a	114	103	3	n/a	n/a	n/a	n/a	227.655	AM04ANS.jpg
199.616	0.514	Blank	Blank	20.387	n/a	2	6	14	n/a	114	n/a	3	n/a	n/a	n/a	n/a	228.152	n/a
200.147	0.497	angry	Picture	19.873	n/a	2	6	15	n/a	115	101	3	n/a	n/a	n/a	n/a	228.683	AM01ANS.jpg
200.644	0.514	Blank	Blank	19.359	n/a	2	6	15	n/a	115	n/a	3	n/a	n/a	n/a	n/a	229.18	n/a
201.175	0.497	angry	Picture	18.845	n/a	2	6	16	n/a	116	104	3	n/a	n/a	n/a	n/a	229.711	BM05ANS.jpg
201.672	0.514	Blank	Blank	18.331	n/a	2	6	16	n/a	116	n/a	3	n/a	n/a	n/a	n/a	230.208	n/a
202.202	0.497	angry	Picture	17.817	n/a	2	6	17	n/a	117	107	3	n/a	n/a	n/a	n/a	230.738	BM08ANS.jpg
202.7	0.514	Blank	Blank	17.303	n/a	2	6	17	n/a	117	n/a	3	n/a	n/a	n/a	n/a	231.236	n/a
203.23	0.497	angry	Picture	16.789	n/a	2	6	18	n/a	118	98	3	n/a	n/a	n/a	n/a	231.766	BF29ANS.jpg
203.728	0.514	Blank	Blank	16.275	n/a	2	6	18	n/a	118	n/a	3	n/a	n/a	n/a	n/a	232.264	n/a
204.258	0.497	angry	Picture	15.761	n/a	2	6	19	n/a	119	99	3	n/a	n/a	n/a	n/a	232.794	AF31ANS.jpg
204.756	0.514	Blank	Blank	15.247	n/a	2	6	19	n/a	119	n/a	3	n/a	n/a	n/a	n/a	233.292	n/a
205.286	0.497	angry	Picture	14.733	n/a	2	6	20	n/a	120	108	3	n/a	n/a	n/a	n/a	233.822	AM09ANS.jpg
205.784	0.514	Blank	Blank	14.219	n/a	2	6	20	n/a	120	n/a	3	n/a	n/a	n/a	n/a	234.32	n/a
206.314	10.014	ITI	Fixation+	4.189	n/a	2	n/a	n/a	n/a	n/a	n/a	n/a	n/a	n/a	n/a	n/a	234.85	n/a
220.517	n/a	ConfirmRating	Rate	n/a	4.178	2	n/a	n/a	0	n/a	n/a	n/a	2	Angry	20	48	249.053	n/a
224.839	n/a	ConfirmRating	Rate	n/a	4.311	2	n/a	n/a	1	n/a	n/a	n/a	3	Angry	24	48	253.375	n/a
224.866	15.004	Rest	Picture	n/a	n/a	n/a	n/a	n/a	n/a	n/a	n/a	n/a	0	n/a	0	0	253.402	n/a
239.886	10.014	ITI	Fixation+	93.884	n/a	3	n/a	n/a	n/a	n/a	n/a	n/a	n/a	n/a	n/a	n/a	268.422	n/a
249.916	0.497	happy	Picture	93.37	n/a	3	7	1	n/a	1	46	2	n/a	n/a	n/a	n/a	278.452	AF09HAS.jpg
250.414	0.514	Blank	Blank	92.856	n/a	3	7	1	n/a	1	n/a	2	n/a	n/a	n/a	n/a	278.95	n/a
250.944	0.497	happy	Picture	92.342	n/a	3	7	2	n/a	2	69	2	n/a	n/a	n/a	n/a	279.48	AM10HAS.jpg
251.442	0.514	Blank	Blank	91.828	n/a	3	7	2	n/a	2	n/a	2	n/a	n/a	n/a	n/a	279.978	n/a
251.972	0.497	happy	Picture	91.314	n/a	3	7	3	n/a	3	71	2	n/a	n/a	n/a	n/a	280.508	BM12HAS.jpg
252.469	0.514	Blank	Blank	90.8	n/a	3	7	3	n/a	3	n/a	2	n/a	n/a	n/a	n/a	281.005	n/a
253.0	0.497	happy	Picture	90.286	n/a	3	7	4	n/a	4	51	2	n/a	n/a	n/a	n/a	281.536	AF20HAS.jpg
253.497	0.514	Blank	Blank	89.772	n/a	3	7	4	n/a	4	n/a	2	n/a	n/a	n/a	n/a	282.033	n/a
254.028	0.497	happy	Picture	89.258	n/a	3	7	5	n/a	5	67	2	n/a	n/a	n/a	n/a	282.564	BM08HAS.jpg
254.525	0.514	Blank	Blank	88.744	n/a	3	7	5	n/a	5	n/a	2	n/a	n/a	n/a	n/a	283.061	n/a
255.056	0.497	happy	Picture	88.23	n/a	3	7	6	n/a	6	60	2	n/a	n/a	n/a	n/a	283.592	AF32HAS.jpg
255.553	0.514	Blank	Blank	87.716	n/a	3	7	6	n/a	6	n/a	2	n/a	n/a	n/a	n/a	284.089	n/a
256.084	0.497	happy	Picture	87.202	n/a	3	7	7	n/a	7	42	2	n/a	n/a	n/a	n/a	284.62	AF03HAS.jpg
256.581	0.514	Blank	Blank	86.688	n/a	3	7	7	n/a	7	n/a	2	n/a	n/a	n/a	n/a	285.117	n/a
257.111	0.497	happy	Picture	86.174	n/a	3	7	8	n/a	8	55	2	n/a	n/a	n/a	n/a	285.647	AF25HAS.jpg
257.609	0.514	Blank	Blank	85.66	n/a	3	7	8	n/a	8	n/a	2	n/a	n/a	n/a	n/a	286.145	n/a
258.139	0.497	happy	Picture	85.146	n/a	3	7	9	n/a	9	72	2	n/a	n/a	n/a	n/a	286.675	AM14HAS.jpg
258.637	0.514	Blank	Blank	84.633	n/a	3	7	9	n/a	9	n/a	2	n/a	n/a	n/a	n/a	287.173	n/a
259.167	0.497	happy	Picture	84.118	n/a	3	7	10	n/a	10	63	2	n/a	n/a	n/a	n/a	287.703	AM04HAS.jpg
259.665	0.514	Blank	Blank	83.605	n/a	3	7	10	n/a	10	n/a	2	n/a	n/a	n/a	n/a	288.201	n/a
260.195	0.497	happy	Picture	83.091	n/a	3	7	11	n/a	11	58	2	n/a	n/a	n/a	n/a	288.731	BF29HAS.jpg
260.692	0.514	Blank	Blank	82.577	n/a	3	7	11	n/a	11	n/a	2	n/a	n/a	n/a	n/a	289.228	n/a
261.223	0.497	happy	Picture	82.063	n/a	3	7	12	n/a	12	48	2	n/a	n/a	n/a	n/a	289.759	AF14HAS.jpg
261.72	0.514	Blank	Blank	81.549	n/a	3	7	12	n/a	12	n/a	2	n/a	n/a	n/a	n/a	290.256	n/a
262.251	0.497	happy	Picture	81.035	n/a	3	7	13	n/a	13	66	2	n/a	n/a	n/a	n/a	290.787	BM07HAS.jpg
262.748	0.514	Blank	Blank	80.521	n/a	3	7	13	n/a	13	n/a	2	n/a	n/a	n/a	n/a	291.284	n/a
263.279	0.497	happy	Picture	80.007	n/a	3	7	14	n/a	14	70	2	n/a	n/a	n/a	n/a	291.815	BM11HAS.jpg
263.776	0.514	Blank	Blank	79.493	n/a	3	7	14	n/a	14	n/a	2	n/a	n/a	n/a	n/a	292.312	n/a
264.307	0.497	happy	Picture	78.979	n/a	3	7	15	n/a	15	43	2	n/a	n/a	n/a	n/a	292.843	BF04HAS.jpg
264.804	0.514	Blank	Blank	78.465	n/a	3	7	15	n/a	15	n/a	2	n/a	n/a	n/a	n/a	293.34	n/a
265.335	0.497	happy	Picture	77.951	n/a	3	7	16	n/a	16	49	2	n/a	n/a	n/a	n/a	293.871	AF17HAS.jpg
265.832	0.514	Blank	Blank	77.437	n/a	3	7	16	n/a	16	n/a	2	n/a	n/a	n/a	n/a	294.368	n/a
266.363	0.497	happy	Picture	76.923	n/a	3	7	17	n/a	17	75	2	n/a	n/a	n/a	n/a	294.899	AM23HAS.jpg
266.86	0.514	Blank	Blank	76.409	n/a	3	7	17	n/a	17	n/a	2	n/a	n/a	n/a	n/a	295.396	n/a
267.39	0.497	happy	Picture	75.896	n/a	3	7	18	n/a	18	80	2	n/a	n/a	n/a	n/a	295.926	BM35HAS.jpg
267.888	0.514	Blank	Blank	75.382	n/a	3	7	18	n/a	18	n/a	2	n/a	n/a	n/a	n/a	296.424	n/a
268.418	0.497	happy	Picture	74.868	n/a	3	7	19	n/a	19	76	2	n/a	n/a	n/a	n/a	296.954	BM24HAS.jpg
268.916	0.514	Blank	Blank	74.354	n/a	3	7	19	n/a	19	n/a	2	n/a	n/a	n/a	n/a	297.452	n/a
269.446	0.497	happy	Picture	73.84	n/a	3	7	20	n/a	20	74	2	n/a	n/a	n/a	n/a	297.982	AM22HAS.jpg
269.943	0.514	Blank	Blank	73.326	n/a	3	7	20	n/a	20	n/a	2	n/a	n/a	n/a	n/a	298.479	n/a
270.474	10.014	ITI	Fixation+	63.296	n/a	3	n/a	n/a	n/a	n/a	n/a	n/a	n/a	n/a	n/a	n/a	299.01	n/a
280.504	0.497	neutral	Picture	62.782	n/a	3	8	1	n/a	21	33	1	n/a	n/a	n/a	n/a	309.04	AM21NES.jpg
281.002	0.514	Blank	Blank	62.268	n/a	3	8	1	n/a	21	n/a	1	n/a	n/a	n/a	n/a	309.538	n/a
281.532	0.497	neutral	Picture	61.754	n/a	3	8	2	n/a	22	39	1	n/a	n/a	n/a	n/a	310.068	AM28NES.jpg
282.029	0.514	Blank	Blank	61.24	n/a	3	8	2	n/a	22	n/a	1	n/a	n/a	n/a	n/a	310.565	n/a
282.56	0.497	neutral	Picture	60.726	n/a	3	8	3	n/a	23	25	1	n/a	n/a	n/a	n/a	311.096	BM06NES.jpg
283.057	0.514	Blank	Blank	60.212	n/a	3	8	3	n/a	23	n/a	1	n/a	n/a	n/a	n/a	311.593	n/a
283.588	0.497	neutral	Picture	59.698	n/a	3	8	4	n/a	24	5	1	n/a	n/a	n/a	n/a	312.124	BF07NES.jpg
284.085	0.514	Blank	Blank	59.184	n/a	3	8	4	n/a	24	n/a	1	n/a	n/a	n/a	n/a	312.621	n/a
284.616	0.497	neutral	Picture	58.67	n/a	3	8	5	n/a	25	10	1	n/a	n/a	n/a	n/a	313.152	AF18NES.jpg
285.113	0.514	Blank	Blank	58.156	n/a	3	8	5	n/a	25	n/a	1	n/a	n/a	n/a	n/a	313.649	n/a
285.644	0.497	neutral	Picture	57.642	n/a	3	8	6	n/a	26	34	1	n/a	n/a	n/a	n/a	314.18	AM22NES.jpg
286.141	0.514	Blank	Blank	57.128	n/a	3	8	6	n/a	26	n/a	1	n/a	n/a	n/a	n/a	314.677	n/a
286.671	0.497	neutral	Picture	56.614	n/a	3	8	7	n/a	27	36	1	n/a	n/a	n/a	n/a	315.207	BM24NES.jpg
287.169	0.514	Blank	Blank	56.1	n/a	3	8	7	n/a	27	n/a	1	n/a	n/a	n/a	n/a	315.705	n/a
287.699	0.497	neutral	Picture	55.586	n/a	3	8	8	n/a	28	14	1	n/a	n/a	n/a	n/a	316.235	AF23NES.jpg
288.197	0.514	Blank	Blank	55.073	n/a	3	8	8	n/a	28	n/a	1	n/a	n/a	n/a	n/a	316.733	n/a
288.727	0.497	neutral	Picture	54.558	n/a	3	8	9	n/a	29	9	1	n/a	n/a	n/a	n/a	317.263	AF17NES.jpg
289.225	0.514	Blank	Blank	54.045	n/a	3	8	9	n/a	29	n/a	1	n/a	n/a	n/a	n/a	317.761	n/a
289.755	0.497	neutral	Picture	53.531	n/a	3	8	10	n/a	30	19	1	n/a	n/a	n/a	n/a	318.291	AF31NES.jpg
290.253	0.514	Blank	Blank	53.017	n/a	3	8	10	n/a	30	n/a	1	n/a	n/a	n/a	n/a	318.789	n/a
290.783	0.497	neutral	Picture	52.503	n/a	3	8	11	n/a	31	15	1	n/a	n/a	n/a	n/a	319.319	AF25NES.jpg
291.28	0.514	Blank	Blank	51.989	n/a	3	8	11	n/a	31	n/a	1	n/a	n/a	n/a	n/a	319.816	n/a
291.811	0.497	neutral	Picture	51.475	n/a	3	8	12	n/a	32	22	1	n/a	n/a	n/a	n/a	320.347	BM03NES.jpg
292.308	0.514	Blank	Blank	50.961	n/a	3	8	12	n/a	32	n/a	1	n/a	n/a	n/a	n/a	320.844	n/a
292.839	0.497	neutral	Picture	50.447	n/a	3	8	13	n/a	33	11	1	n/a	n/a	n/a	n/a	321.375	AF20NES.jpg
293.336	0.514	Blank	Blank	49.933	n/a	3	8	13	n/a	33	n/a	1	n/a	n/a	n/a	n/a	321.872	n/a
293.867	0.497	neutral	Picture	49.419	n/a	3	8	14	n/a	34	4	1	n/a	n/a	n/a	n/a	322.403	AF05NES.jpg
294.364	0.514	Blank	Blank	48.905	n/a	3	8	14	n/a	34	n/a	1	n/a	n/a	n/a	n/a	322.9	n/a
294.895	0.497	neutral	Picture	48.391	n/a	3	8	15	n/a	35	17	1	n/a	n/a	n/a	n/a	323.431	BF28NES.jpg
295.392	0.514	Blank	Blank	47.877	n/a	3	8	15	n/a	35	n/a	1	n/a	n/a	n/a	n/a	323.928	n/a
295.923	0.497	neutral	Picture	47.363	n/a	3	8	16	n/a	36	13	1	n/a	n/a	n/a	n/a	324.459	BF22NES.jpg
296.42	0.514	Blank	Blank	46.849	n/a	3	8	16	n/a	36	n/a	1	n/a	n/a	n/a	n/a	324.956	n/a
296.95	0.497	neutral	Picture	46.335	n/a	3	8	17	n/a	37	12	1	n/a	n/a	n/a	n/a	325.486	AF21NES.jpg
297.448	0.514	Blank	Blank	45.822	n/a	3	8	17	n/a	37	n/a	1	n/a	n/a	n/a	n/a	325.984	n/a
297.978	0.497	neutral	Picture	45.308	n/a	3	8	18	n/a	38	24	1	n/a	n/a	n/a	n/a	326.514	BM05NES.jpg
298.476	0.514	Blank	Blank	44.794	n/a	3	8	18	n/a	38	n/a	1	n/a	n/a	n/a	n/a	327.012	n/a
299.006	0.497	neutral	Picture	44.28	n/a	3	8	19	n/a	39	29	1	n/a	n/a	n/a	n/a	327.542	AM10NES.jpg
299.503	0.514	Blank	Blank	43.766	n/a	3	8	19	n/a	39	n/a	1	n/a	n/a	n/a	n/a	328.039	n/a
300.034	0.497	neutral	Picture	43.252	n/a	3	8	20	n/a	40	23	1	n/a	n/a	n/a	n/a	328.57	AM04NES.jpg
300.531	0.514	Blank	Blank	42.738	n/a	3	8	20	n/a	40	n/a	1	n/a	n/a	n/a	n/a	329.067	n/a
301.062	10.014	ITI	Fixation+	32.708	n/a	3	n/a	n/a	n/a	n/a	n/a	n/a	n/a	n/a	n/a	n/a	329.598	n/a
311.092	0.497	happy	Picture	32.194	n/a	3	9	1	n/a	41	62	2	n/a	n/a	n/a	n/a	339.628	BM03HAS.jpg
311.589	0.514	Blank	Blank	31.68	n/a	3	9	1	n/a	41	n/a	2	n/a	n/a	n/a	n/a	340.125	n/a
312.12	0.497	happy	Picture	31.166	n/a	3	9	2	n/a	42	52	2	n/a	n/a	n/a	n/a	340.656	AF21HAS.jpg
312.617	0.514	Blank	Blank	30.652	n/a	3	9	2	n/a	42	n/a	2	n/a	n/a	n/a	n/a	341.153	n/a
313.148	0.497	happy	Picture	30.138	n/a	3	9	3	n/a	43	44	2	n/a	n/a	n/a	n/a	341.684	AF05HAS.jpg
313.645	0.514	Blank	Blank	29.624	n/a	3	9	3	n/a	43	n/a	2	n/a	n/a	n/a	n/a	342.181	n/a
314.176	0.497	happy	Picture	29.11	n/a	3	9	4	n/a	44	53	2	n/a	n/a	n/a	n/a	342.712	BF22HAS.jpg
314.673	0.514	Blank	Blank	28.596	n/a	3	9	4	n/a	44	n/a	2	n/a	n/a	n/a	n/a	343.209	n/a
315.204	0.497	happy	Picture	28.082	n/a	3	9	5	n/a	45	54	2	n/a	n/a	n/a	n/a	343.74	AF23HAS.jpg
315.701	0.514	Blank	Blank	27.568	n/a	3	9	5	n/a	45	n/a	2	n/a	n/a	n/a	n/a	344.237	n/a
316.231	0.497	happy	Picture	27.054	n/a	3	9	6	n/a	46	68	2	n/a	n/a	n/a	n/a	344.767	AM09HAS.jpg
316.729	0.514	Blank	Blank	26.54	n/a	3	9	6	n/a	46	n/a	2	n/a	n/a	n/a	n/a	345.265	n/a
317.259	0.497	happy	Picture	26.026	n/a	3	9	7	n/a	47	64	2	n/a	n/a	n/a	n/a	345.795	BM05HAS.jpg
317.757	0.514	Blank	Blank	25.513	n/a	3	9	7	n/a	47	n/a	2	n/a	n/a	n/a	n/a	346.293	n/a
318.287	0.497	happy	Picture	24.998	n/a	3	9	8	n/a	48	59	2	n/a	n/a	n/a	n/a	346.823	AF31HAS.jpg
318.785	0.514	Blank	Blank	24.485	n/a	3	9	8	n/a	48	n/a	2	n/a	n/a	n/a	n/a	347.321	n/a
319.315	0.497	happy	Picture	23.971	n/a	3	9	9	n/a	49	41	2	n/a	n/a	n/a	n/a	347.851	AF01HAS.jpg
319.813	0.514	Blank	Blank	23.457	n/a	3	9	9	n/a	49	n/a	2	n/a	n/a	n/a	n/a	348.349	n/a
320.343	0.497	happy	Picture	22.943	n/a	3	9	10	n/a	50	73	2	n/a	n/a	n/a	n/a	348.879	AM21HAS.jpg
320.84	0.514	Blank	Blank	22.429	n/a	3	9	10	n/a	50	n/a	2	n/a	n/a	n/a	n/a	349.376	n/a
321.371	0.497	happy	Picture	21.915	n/a	3	9	11	n/a	51	65	2	n/a	n/a	n/a	n/a	349.907	BM06HAS.jpg
321.868	0.514	Blank	Blank	21.401	n/a	3	9	11	n/a	51	n/a	2	n/a	n/a	n/a	n/a	350.404	n/a
322.399	0.497	happy	Picture	20.887	n/a	3	9	12	n/a	52	56	2	n/a	n/a	n/a	n/a	350.935	AF26HAS.jpg
322.896	0.514	Blank	Blank	20.373	n/a	3	9	12	n/a	52	n/a	2	n/a	n/a	n/a	n/a	351.432	n/a
323.427	0.497	happy	Picture	19.859	n/a	3	9	13	n/a	53	45	2	n/a	n/a	n/a	n/a	351.963	BF07HAS.jpg
323.924	0.514	Blank	Blank	19.345	n/a	3	9	13	n/a	53	n/a	2	n/a	n/a	n/a	n/a	352.46	n/a
324.455	0.497	happy	Picture	18.831	n/a	3	9	14	n/a	54	78	2	n/a	n/a	n/a	n/a	352.991	BM26HAS.jpg
324.952	0.514	Blank	Blank	18.317	n/a	3	9	14	n/a	54	n/a	2	n/a	n/a	n/a	n/a	353.488	n/a
325.483	0.497	happy	Picture	17.803	n/a	3	9	15	n/a	55	50	2	n/a	n/a	n/a	n/a	354.019	AF18HAS.jpg
325.98	0.514	Blank	Blank	17.289	n/a	3	9	15	n/a	55	n/a	2	n/a	n/a	n/a	n/a	354.516	n/a
326.51	0.497	happy	Picture	16.775	n/a	3	9	16	n/a	56	47	2	n/a	n/a	n/a	n/a	355.046	BF11HAS.jpg
327.008	0.514	Blank	Blank	16.262	n/a	3	9	16	n/a	56	n/a	2	n/a	n/a	n/a	n/a	355.544	n/a
327.538	0.497	happy	Picture	15.748	n/a	3	9	17	n/a	57	77	2	n/a	n/a	n/a	n/a	356.074	BM25HAS.jpg
328.036	0.514	Blank	Blank	15.234	n/a	3	9	17	n/a	57	n/a	2	n/a	n/a	n/a	n/a	356.572	n/a
328.566	0.497	happy	Picture	14.72	n/a	3	9	18	n/a	58	57	2	n/a	n/a	n/a	n/a	357.102	BF28HAS.jpg
329.063	0.514	Blank	Blank	14.206	n/a	3	9	18	n/a	58	n/a	2	n/a	n/a	n/a	n/a	357.599	n/a
329.594	0.497	happy	Picture	13.692	n/a	3	9	19	n/a	59	61	2	n/a	n/a	n/a	n/a	358.13	AM01HAS.jpg
330.091	0.514	Blank	Blank	13.178	n/a	3	9	19	n/a	59	n/a	2	n/a	n/a	n/a	n/a	358.627	n/a
330.622	0.497	happy	Picture	12.664	n/a	3	9	20	n/a	60	79	2	n/a	n/a	n/a	n/a	359.158	BM28HAS.jpg
331.119	0.514	Blank	Blank	12.15	n/a	3	9	20	n/a	60	n/a	2	n/a	n/a	n/a	n/a	359.655	n/a
331.65	10.014	ITI	Fixation+	2.12	n/a	3	n/a	n/a	n/a	n/a	n/a	n/a	n/a	n/a	n/a	n/a	360.186	n/a
343.783	n/a	ConfirmRating	Rate	n/a	2.105	3	n/a	n/a	0	n/a	n/a	n/a	2	Happy	50	50	372.319	n/a
346.218	n/a	ConfirmRating	Rate	n/a	2.42	3	n/a	n/a	1	n/a	n/a	n/a	3	Happy	19	49	374.754	n/a
346.239	10.014	ITI	Fixation+	94.722	n/a	4	n/a	n/a	n/a	n/a	n/a	n/a	n/a	n/a	n/a	n/a	374.775	n/a
356.269	0.497	angry	Picture	94.208	n/a	4	10	1	n/a	61	119	3	n/a	n/a	n/a	n/a	384.805	BM28ANS.jpg
356.767	0.514	Blank	Blank	93.694	n/a	4	10	1	n/a	61	n/a	3	n/a	n/a	n/a	n/a	385.303	n/a
357.297	0.497	angry	Picture	93.18	n/a	4	10	2	n/a	62	100	3	n/a	n/a	n/a	n/a	385.833	AF32ANS.jpg
357.795	0.514	Blank	Blank	92.666	n/a	4	10	2	n/a	62	n/a	3	n/a	n/a	n/a	n/a	386.331	n/a
358.325	0.497	angry	Picture	92.152	n/a	4	10	3	n/a	63	118	3	n/a	n/a	n/a	n/a	386.861	BM26ANS.jpg
358.822	0.514	Blank	Blank	91.638	n/a	4	10	3	n/a	63	n/a	3	n/a	n/a	n/a	n/a	387.358	n/a
359.353	0.497	angry	Picture	91.124	n/a	4	10	4	n/a	64	89	3	n/a	n/a	n/a	n/a	387.889	AF17ANS.jpg
359.85	0.514	Blank	Blank	90.61	n/a	4	10	4	n/a	64	n/a	3	n/a	n/a	n/a	n/a	388.386	n/a
360.381	0.497	angry	Picture	90.096	n/a	4	10	5	n/a	65	116	3	n/a	n/a	n/a	n/a	388.917	BM24ANS.jpg
360.878	0.514	Blank	Blank	89.582	n/a	4	10	5	n/a	65	n/a	3	n/a	n/a	n/a	n/a	389.414	n/a
361.409	0.497	angry	Picture	89.068	n/a	4	10	6	n/a	66	105	3	n/a	n/a	n/a	n/a	389.945	BM06ANS.jpg
361.906	0.514	Blank	Blank	88.555	n/a	4	10	6	n/a	66	n/a	3	n/a	n/a	n/a	n/a	390.442	n/a
362.437	0.497	angry	Picture	88.041	n/a	4	10	7	n/a	67	106	3	n/a	n/a	n/a	n/a	390.973	AM07ANS.jpg
362.934	0.514	Blank	Blank	87.527	n/a	4	10	7	n/a	67	n/a	3	n/a	n/a	n/a	n/a	391.47	n/a
363.465	0.497	angry	Picture	87.013	n/a	4	10	8	n/a	68	94	3	n/a	n/a	n/a	n/a	392.001	AF23ANS.jpg
363.962	0.514	Blank	Blank	86.499	n/a	4	10	8	n/a	68	n/a	3	n/a	n/a	n/a	n/a	392.498	n/a
364.493	0.497	angry	Picture	85.985	n/a	4	10	9	n/a	69	117	3	n/a	n/a	n/a	n/a	393.029	BM25ANS.jpg
364.99	0.514	Blank	Blank	85.471	n/a	4	10	9	n/a	69	n/a	3	n/a	n/a	n/a	n/a	393.526	n/a
365.52	0.497	angry	Picture	84.957	n/a	4	10	10	n/a	70	90	3	n/a	n/a	n/a	n/a	394.056	AF18ANS.jpg
366.018	0.514	Blank	Blank	84.443	n/a	4	10	10	n/a	70	n/a	3	n/a	n/a	n/a	n/a	394.554	n/a
366.548	0.497	angry	Picture	83.929	n/a	4	10	11	n/a	71	83	3	n/a	n/a	n/a	n/a	395.084	BF04ANS.jpg
367.046	0.514	Blank	Blank	83.415	n/a	4	10	11	n/a	71	n/a	3	n/a	n/a	n/a	n/a	395.582	n/a
367.576	0.497	angry	Picture	82.901	n/a	4	10	12	n/a	72	112	3	n/a	n/a	n/a	n/a	396.112	AM14ANS.jpg
368.074	0.514	Blank	Blank	82.387	n/a	4	10	12	n/a	72	n/a	3	n/a	n/a	n/a	n/a	396.61	n/a
368.604	0.497	angry	Picture	81.873	n/a	4	10	13	n/a	73	102	3	n/a	n/a	n/a	n/a	397.14	BM03ANS.jpg
369.101	0.514	Blank	Blank	81.359	n/a	4	10	13	n/a	73	n/a	3	n/a	n/a	n/a	n/a	397.637	n/a
369.632	0.497	angry	Picture	80.846	n/a	4	10	14	n/a	74	95	3	n/a	n/a	n/a	n/a	398.168	AF25ANS.jpg
370.129	0.514	Blank	Blank	80.331	n/a	4	10	14	n/a	74	n/a	3	n/a	n/a	n/a	n/a	398.665	n/a
370.66	0.497	angry	Picture	79.818	n/a	4	10	15	n/a	75	113	3	n/a	n/a	n/a	n/a	399.196	AM21ANS.jpg
371.157	0.514	Blank	Blank	79.304	n/a	4	10	15	n/a	75	n/a	3	n/a	n/a	n/a	n/a	399.693	n/a
371.688	0.497	angry	Picture	78.79	n/a	4	10	16	n/a	76	88	3	n/a	n/a	n/a	n/a	400.224	AF14ANS.jpg
372.185	0.514	Blank	Blank	78.276	n/a	4	10	16	n/a	76	n/a	3	n/a	n/a	n/a	n/a	400.721	n/a
372.716	0.497	angry	Picture	77.762	n/a	4	10	17	n/a	77	93	3	n/a	n/a	n/a	n/a	401.252	BF22ANS.jpg
373.213	0.514	Blank	Blank	77.248	n/a	4	10	17	n/a	77	n/a	3	n/a	n/a	n/a	n/a	401.749	n/a
373.743	0.497	angry	Picture	76.734	n/a	4	10	18	n/a	78	86	3	n/a	n/a	n/a	n/a	402.279	AF09ANS.jpg
374.241	0.514	Blank	Blank	76.22	n/a	4	10	18	n/a	78	n/a	3	n/a	n/a	n/a	n/a	402.777	n/a
374.771	0.497	angry	Picture	75.706	n/a	4	10	19	n/a	79	92	3	n/a	n/a	n/a	n/a	403.307	AF21ANS.jpg
375.269	0.514	Blank	Blank	75.192	n/a	4	10	19	n/a	79	n/a	3	n/a	n/a	n/a	n/a	403.805	n/a
375.799	0.497	angry	Picture	74.678	n/a	4	10	20	n/a	80	84	3	n/a	n/a	n/a	n/a	404.335	AF05ANS.jpg
376.297	0.514	Blank	Blank	74.164	n/a	4	10	20	n/a	80	n/a	3	n/a	n/a	n/a	n/a	404.833	n/a
376.827	10.014	ITI	Fixation+	64.134	n/a	4	n/a	n/a	n/a	n/a	n/a	n/a	n/a	n/a	n/a	n/a	405.363	n/a
386.857	0.497	neutral	Picture	63.62	n/a	4	11	1	n/a	81	4	1	n/a	n/a	n/a	n/a	415.393	AF05NES.jpg
387.355	0.514	Blank	Blank	63.106	n/a	4	11	1	n/a	81	n/a	1	n/a	n/a	n/a	n/a	415.891	n/a
387.885	0.497	neutral	Picture	62.592	n/a	4	11	2	n/a	82	14	1	n/a	n/a	n/a	n/a	416.421	AF23NES.jpg
388.382	0.514	Blank	Blank	62.078	n/a	4	11	2	n/a	82	n/a	1	n/a	n/a	n/a	n/a	416.918	n/a
388.913	0.497	neutral	Picture	61.564	n/a	4	11	3	n/a	83	19	1	n/a	n/a	n/a	n/a	417.449	AF31NES.jpg
389.41	0.514	Blank	Blank	61.05	n/a	4	11	3	n/a	83	n/a	1	n/a	n/a	n/a	n/a	417.946	n/a
389.941	0.497	neutral	Picture	60.536	n/a	4	11	4	n/a	84	8	1	n/a	n/a	n/a	n/a	418.477	AF14NES.jpg
390.438	0.514	Blank	Blank	60.022	n/a	4	11	4	n/a	84	n/a	1	n/a	n/a	n/a	n/a	418.974	n/a
390.969	0.497	neutral	Picture	59.508	n/a	4	11	5	n/a	85	25	1	n/a	n/a	n/a	n/a	419.505	BM06NES.jpg
391.466	0.514	Blank	Blank	58.995	n/a	4	11	5	n/a	85	n/a	1	n/a	n/a	n/a	n/a	420.002	n/a
391.997	0.497	neutral	Picture	58.481	n/a	4	11	6	n/a	86	9	1	n/a	n/a	n/a	n/a	420.533	AF17NES.jpg
392.494	0.514	Blank	Blank	57.967	n/a	4	11	6	n/a	86	n/a	1	n/a	n/a	n/a	n/a	421.03	n/a
393.025	0.497	neutral	Picture	57.453	n/a	4	11	7	n/a	87	2	1	n/a	n/a	n/a	n/a	421.561	AF03NES.jpg
393.522	0.514	Blank	Blank	56.939	n/a	4	11	7	n/a	87	n/a	1	n/a	n/a	n/a	n/a	422.058	n/a
394.053	0.497	neutral	Picture	56.425	n/a	4	11	8	n/a	88	17	1	n/a	n/a	n/a	n/a	422.589	BF28NES.jpg
394.55	0.514	Blank	Blank	55.911	n/a	4	11	8	n/a	88	n/a	1	n/a	n/a	n/a	n/a	423.086	n/a
395.08	0.497	neutral	Picture	55.397	n/a	4	11	9	n/a	89	6	1	n/a	n/a	n/a	n/a	423.616	AF09NES.jpg
395.578	0.514	Blank	Blank	54.883	n/a	4	11	9	n/a	89	n/a	1	n/a	n/a	n/a	n/a	424.114	n/a
396.108	0.497	neutral	Picture	54.369	n/a	4	11	10	n/a	90	12	1	n/a	n/a	n/a	n/a	424.644	AF21NES.jpg
396.606	0.514	Blank	Blank	53.855	n/a	4	11	10	n/a	90	n/a	1	n/a	n/a	n/a	n/a	425.142	n/a
397.136	0.497	neutral	Picture	53.341	n/a	4	11	11	n/a	91	24	1	n/a	n/a	n/a	n/a	425.672	BM05NES.jpg
397.634	0.514	Blank	Blank	52.827	n/a	4	11	11	n/a	91	n/a	1	n/a	n/a	n/a	n/a	426.17	n/a
398.164	0.497	neutral	Picture	52.313	n/a	4	11	12	n/a	92	34	1	n/a	n/a	n/a	n/a	426.7	AM22NES.jpg
398.661	0.514	Blank	Blank	51.799	n/a	4	11	12	n/a	92	n/a	1	n/a	n/a	n/a	n/a	427.197	n/a
399.192	0.497	neutral	Picture	51.285	n/a	4	11	13	n/a	93	23	1	n/a	n/a	n/a	n/a	427.728	AM04NES.jpg
399.689	0.514	Blank	Blank	50.772	n/a	4	11	13	n/a	93	n/a	1	n/a	n/a	n/a	n/a	428.225	n/a
400.22	0.497	neutral	Picture	50.258	n/a	4	11	14	n/a	94	15	1	n/a	n/a	n/a	n/a	428.756	AF25NES.jpg
400.717	0.514	Blank	Blank	49.744	n/a	4	11	14	n/a	94	n/a	1	n/a	n/a	n/a	n/a	429.253	n/a
401.248	0.497	neutral	Picture	49.23	n/a	4	11	15	n/a	95	37	1	n/a	n/a	n/a	n/a	429.784	BM25NES.jpg
401.745	0.514	Blank	Blank	48.716	n/a	4	11	15	n/a	95	n/a	1	n/a	n/a	n/a	n/a	430.281	n/a
402.276	0.497	neutral	Picture	48.202	n/a	4	11	16	n/a	96	32	1	n/a	n/a	n/a	n/a	430.812	AM14NES.jpg
402.773	0.514	Blank	Blank	47.688	n/a	4	11	16	n/a	96	n/a	1	n/a	n/a	n/a	n/a	431.309	n/a
403.303	0.497	neutral	Picture	47.174	n/a	4	11	17	n/a	97	3	1	n/a	n/a	n/a	n/a	431.839	BF04NES.jpg
403.801	0.514	Blank	Blank	46.66	n/a	4	11	17	n/a	97	n/a	1	n/a	n/a	n/a	n/a	432.337	n/a
404.331	0.497	neutral	Picture	46.146	n/a	4	11	18	n/a	98	16	1	n/a	n/a	n/a	n/a	432.867	AF26NES.jpg
404.829	0.514	Blank	Blank	45.632	n/a	4	11	18	n/a	98	n/a	1	n/a	n/a	n/a	n/a	433.365	n/a
405.359	0.497	neutral	Picture	45.118	n/a	4	11	19	n/a	99	27	1	n/a	n/a	n/a	n/a	433.895	BM08NES.jpg
405.857	0.514	Blank	Blank	44.604	n/a	4	11	19	n/a	99	n/a	1	n/a	n/a	n/a	n/a	434.393	n/a
406.387	0.497	neutral	Picture	44.09	n/a	4	11	20	n/a	100	28	1	n/a	n/a	n/a	n/a	434.923	AM09NES.jpg
406.885	0.514	Blank	Blank	43.576	n/a	4	11	20	n/a	100	n/a	1	n/a	n/a	n/a	n/a	435.421	n/a
407.415	10.014	ITI	Fixation+	33.546	n/a	4	n/a	n/a	n/a	n/a	n/a	n/a	n/a	n/a	n/a	n/a	435.951	n/a
417.445	0.497	angry	Picture	33.032	n/a	4	12	1	n/a	101	81	3	n/a	n/a	n/a	n/a	445.981	AF01ANS.jpg
417.942	0.514	Blank	Blank	32.518	n/a	4	12	1	n/a	101	n/a	3	n/a	n/a	n/a	n/a	446.478	n/a
418.473	0.497	angry	Picture	32.004	n/a	4	12	2	n/a	102	120	3	n/a	n/a	n/a	n/a	447.009	AM35ANS.jpg
418.97	0.514	Blank	Blank	31.49	n/a	4	12	2	n/a	102	n/a	3	n/a	n/a	n/a	n/a	447.506	n/a
419.501	0.497	angry	Picture	30.976	n/a	4	12	3	n/a	103	114	3	n/a	n/a	n/a	n/a	448.037	AM22ANS.jpg
419.998	0.514	Blank	Blank	30.463	n/a	4	12	3	n/a	103	n/a	3	n/a	n/a	n/a	n/a	448.534	n/a
420.529	0.497	angry	Picture	29.948	n/a	4	12	4	n/a	104	109	3	n/a	n/a	n/a	n/a	449.065	AM10ANS.jpg
421.026	0.514	Blank	Blank	29.435	n/a	4	12	4	n/a	104	n/a	3	n/a	n/a	n/a	n/a	449.562	n/a
421.557	0.497	angry	Picture	28.921	n/a	4	12	5	n/a	105	96	3	n/a	n/a	n/a	n/a	450.093	AF26ANS.jpg
422.054	0.514	Blank	Blank	28.407	n/a	4	12	5	n/a	105	n/a	3	n/a	n/a	n/a	n/a	450.59	n/a
422.585	0.497	angry	Picture	27.893	n/a	4	12	6	n/a	106	82	3	n/a	n/a	n/a	n/a	451.121	AF03ANS.jpg
423.082	0.514	Blank	Blank	27.379	n/a	4	12	6	n/a	106	n/a	3	n/a	n/a	n/a	n/a	451.618	n/a
423.613	0.497	angry	Picture	26.865	n/a	4	12	7	n/a	107	97	3	n/a	n/a	n/a	n/a	452.149	BF28ANS.jpg
424.11	0.514	Blank	Blank	26.351	n/a	4	12	7	n/a	107	n/a	3	n/a	n/a	n/a	n/a	452.646	n/a
424.64	0.497	angry	Picture	25.837	n/a	4	12	8	n/a	108	115	3	n/a	n/a	n/a	n/a	453.176	AM23ANS.jpg
425.138	0.514	Blank	Blank	25.323	n/a	4	12	8	n/a	108	n/a	3	n/a	n/a	n/a	n/a	453.674	n/a
425.668	0.497	angry	Picture	24.809	n/a	4	12	9	n/a	109	91	3	n/a	n/a	n/a	n/a	454.204	AF20ANS.jpg
426.166	0.514	Blank	Blank	24.295	n/a	4	12	9	n/a	109	n/a	3	n/a	n/a	n/a	n/a	454.702	n/a
426.696	0.497	angry	Picture	23.781	n/a	4	12	10	n/a	110	87	3	n/a	n/a	n/a	n/a	455.232	BF11ANS.jpg
427.193	0.514	Blank	Blank	23.267	n/a	4	12	10	n/a	110	n/a	3	n/a	n/a	n/a	n/a	455.729	n/a
427.724	0.497	angry	Picture	22.753	n/a	4	12	11	n/a	111	85	3	n/a	n/a	n/a	n/a	456.26	BF07ANS.jpg
428.221	0.514	Blank	Blank	22.239	n/a	4	12	11	n/a	111	n/a	3	n/a	n/a	n/a	n/a	456.757	n/a
428.752	0.497	angry	Picture	21.725	n/a	4	12	12	n/a	112	110	3	n/a	n/a	n/a	n/a	457.288	AM11ANS.jpg
429.249	0.514	Blank	Blank	21.212	n/a	4	12	12	n/a	112	n/a	3	n/a	n/a	n/a	n/a	457.785	n/a
429.78	0.497	angry	Picture	20.697	n/a	4	12	13	n/a	113	111	3	n/a	n/a	n/a	n/a	458.316	BM12ANS.jpg
430.277	0.514	Blank	Blank	20.184	n/a	4	12	13	n/a	113	n/a	3	n/a	n/a	n/a	n/a	458.813	n/a
430.808	0.497	angry	Picture	19.67	n/a	4	12	14	n/a	114	103	3	n/a	n/a	n/a	n/a	459.344	AM04ANS.jpg
431.305	0.514	Blank	Blank	19.156	n/a	4	12	14	n/a	114	n/a	3	n/a	n/a	n/a	n/a	459.841	n/a
431.836	0.497	angry	Picture	18.642	n/a	4	12	15	n/a	115	101	3	n/a	n/a	n/a	n/a	460.372	AM01ANS.jpg
432.333	0.514	Blank	Blank	18.128	n/a	4	12	15	n/a	115	n/a	3	n/a	n/a	n/a	n/a	460.869	n/a
432.863	0.497	angry	Picture	17.614	n/a	4	12	16	n/a	116	104	3	n/a	n/a	n/a	n/a	461.399	BM05ANS.jpg
433.361	0.514	Blank	Blank	17.1	n/a	4	12	16	n/a	116	n/a	3	n/a	n/a	n/a	n/a	461.897	n/a
433.891	0.497	angry	Picture	16.586	n/a	4	12	17	n/a	117	107	3	n/a	n/a	n/a	n/a	462.427	BM08ANS.jpg
434.389	0.514	Blank	Blank	16.072	n/a	4	12	17	n/a	117	n/a	3	n/a	n/a	n/a	n/a	462.925	n/a
434.919	0.497	angry	Picture	15.558	n/a	4	12	18	n/a	118	98	3	n/a	n/a	n/a	n/a	463.455	BF29ANS.jpg
435.417	0.514	Blank	Blank	15.044	n/a	4	12	18	n/a	118	n/a	3	n/a	n/a	n/a	n/a	463.953	n/a
435.947	0.497	angry	Picture	14.53	n/a	4	12	19	n/a	119	99	3	n/a	n/a	n/a	n/a	464.483	AF31ANS.jpg
436.445	0.514	Blank	Blank	14.016	n/a	4	12	19	n/a	119	n/a	3	n/a	n/a	n/a	n/a	464.981	n/a
436.975	0.497	angry	Picture	13.502	n/a	4	12	20	n/a	120	108	3	n/a	n/a	n/a	n/a	465.511	AM09ANS.jpg
437.472	0.514	Blank	Blank	12.988	n/a	4	12	20	n/a	120	n/a	3	n/a	n/a	n/a	n/a	466.008	n/a
438.003	10.014	ITI	Fixation+	2.958	n/a	4	n/a	n/a	n/a	n/a	n/a	n/a	n/a	n/a	n/a	n/a	466.539	n/a
450.975	n/a	ConfirmRating	Rate	n/a	2.951	4	n/a	n/a	0	n/a	n/a	n/a	2	Angry	18	49	479.511	n/a
454.851	n/a	ConfirmRating	Rate	n/a	3.863	4	n/a	n/a	1	n/a	n/a	n/a	3	Angry	20	48	483.387	n/a
