onset	duration	trial_type	event_type	time_until_response	response_time	trial_number	block_num_within_trial	image_seq_num_within_block	question_seq_num_within_block	image_seq_num	picture_number	condition	question_type	block_type	rating	rating_computed	onset_uncorrected	KDEV_imagefile
0.007	10.014	ITI	Fixation+	96.614	n/a	1	n/a	n/a	n/a	n/a	n/a	n/a	n/a	n/a	n/a	n/a	29.372	n/a
10.037	0.497	happy	Picture	96.1	n/a	1	1	1	n/a	1	108	3	n/a	n/a	n/a	n/a	39.402	AM09ANS.jpg
10.534	0.514	Blank	Blank	95.586	n/a	1	1	1	n/a	1	n/a	3	n/a	n/a	n/a	n/a	39.9	n/a
11.065	0.497	happy	Picture	95.072	n/a	1	1	2	n/a	2	99	3	n/a	n/a	n/a	n/a	40.43	AF31ANS.jpg
11.562	0.514	Blank	Blank	94.558	n/a	1	1	2	n/a	2	n/a	3	n/a	n/a	n/a	n/a	40.927	n/a
12.093	0.497	happy	Picture	94.044	n/a	1	1	3	n/a	3	98	3	n/a	n/a	n/a	n/a	41.458	BF29ANS.jpg
12.59	0.514	Blank	Blank	93.53	n/a	1	1	3	n/a	3	n/a	3	n/a	n/a	n/a	n/a	41.955	n/a
13.121	0.497	happy	Picture	93.016	n/a	1	1	4	n/a	4	107	3	n/a	n/a	n/a	n/a	42.486	BM08ANS.jpg
13.618	0.514	Blank	Blank	92.502	n/a	1	1	4	n/a	4	n/a	3	n/a	n/a	n/a	n/a	42.983	n/a
14.149	0.497	happy	Picture	91.988	n/a	1	1	5	n/a	5	104	3	n/a	n/a	n/a	n/a	43.514	BM05ANS.jpg
14.646	0.514	Blank	Blank	91.474	n/a	1	1	5	n/a	5	n/a	3	n/a	n/a	n/a	n/a	44.011	n/a
15.177	0.497	happy	Picture	90.961	n/a	1	1	6	n/a	6	101	3	n/a	n/a	n/a	n/a	44.542	AM01ANS.jpg
15.674	0.514	Blank	Blank	90.447	n/a	1	1	6	n/a	6	n/a	3	n/a	n/a	n/a	n/a	45.039	n/a
16.204	0.497	happy	Picture	89.933	n/a	1	1	7	n/a	7	103	3	n/a	n/a	n/a	n/a	45.569	AM04ANS.jpg
16.702	0.514	Blank	Blank	89.419	n/a	1	1	7	n/a	7	n/a	3	n/a	n/a	n/a	n/a	46.067	n/a
17.232	0.497	happy	Picture	88.905	n/a	1	1	8	n/a	8	111	3	n/a	n/a	n/a	n/a	46.597	BM12ANS.jpg
17.73	0.514	Blank	Blank	88.391	n/a	1	1	8	n/a	8	n/a	3	n/a	n/a	n/a	n/a	47.095	n/a
18.26	0.497	happy	Picture	87.877	n/a	1	1	9	n/a	9	110	3	n/a	n/a	n/a	n/a	47.625	AM11ANS.jpg
18.757	0.514	Blank	Blank	87.363	n/a	1	1	9	n/a	9	n/a	3	n/a	n/a	n/a	n/a	48.123	n/a
19.288	0.497	happy	Picture	86.849	n/a	1	1	10	n/a	10	85	3	n/a	n/a	n/a	n/a	48.653	BF07ANS.jpg
19.785	0.514	Blank	Blank	86.335	n/a	1	1	10	n/a	10	n/a	3	n/a	n/a	n/a	n/a	49.15	n/a
20.316	0.497	happy	Picture	85.821	n/a	1	1	11	n/a	11	87	3	n/a	n/a	n/a	n/a	49.681	BF11ANS.jpg
20.813	0.514	Blank	Blank	85.307	n/a	1	1	11	n/a	11	n/a	3	n/a	n/a	n/a	n/a	50.178	n/a
21.344	0.497	happy	Picture	84.793	n/a	1	1	12	n/a	12	91	3	n/a	n/a	n/a	n/a	50.709	AF20ANS.jpg
21.841	0.514	Blank	Blank	84.279	n/a	1	1	12	n/a	12	n/a	3	n/a	n/a	n/a	n/a	51.206	n/a
22.372	0.497	happy	Picture	83.765	n/a	1	1	13	n/a	13	115	3	n/a	n/a	n/a	n/a	51.737	AM23ANS.jpg
22.869	0.514	Blank	Blank	83.251	n/a	1	1	13	n/a	13	n/a	3	n/a	n/a	n/a	n/a	52.234	n/a
23.399	0.497	happy	Picture	82.737	n/a	1	1	14	n/a	14	97	3	n/a	n/a	n/a	n/a	52.765	BF28ANS.jpg
23.897	0.514	Blank	Blank	82.224	n/a	1	1	14	n/a	14	n/a	3	n/a	n/a	n/a	n/a	53.262	n/a
24.427	0.497	happy	Picture	81.71	n/a	1	1	15	n/a	15	82	3	n/a	n/a	n/a	n/a	53.792	AF03ANS.jpg
24.925	0.514	Blank	Blank	81.196	n/a	1	1	15	n/a	15	n/a	3	n/a	n/a	n/a	n/a	54.29	n/a
25.455	0.497	happy	Picture	80.682	n/a	1	1	16	n/a	16	96	3	n/a	n/a	n/a	n/a	54.82	AF26ANS.jpg
25.953	0.514	Blank	Blank	80.168	n/a	1	1	16	n/a	16	n/a	3	n/a	n/a	n/a	n/a	55.318	n/a
26.483	0.497	happy	Picture	79.654	n/a	1	1	17	n/a	17	109	3	n/a	n/a	n/a	n/a	55.848	AM10ANS.jpg
26.98	0.514	Blank	Blank	79.14	n/a	1	1	17	n/a	17	n/a	3	n/a	n/a	n/a	n/a	56.346	n/a
27.511	0.497	happy	Picture	78.626	n/a	1	1	18	n/a	18	114	3	n/a	n/a	n/a	n/a	56.876	AM22ANS.jpg
28.008	0.514	Blank	Blank	78.112	n/a	1	1	18	n/a	18	n/a	3	n/a	n/a	n/a	n/a	57.373	n/a
28.539	0.497	happy	Picture	77.598	n/a	1	1	19	n/a	19	120	3	n/a	n/a	n/a	n/a	57.904	AM35ANS.jpg
29.036	0.514	Blank	Blank	77.084	n/a	1	1	19	n/a	19	n/a	3	n/a	n/a	n/a	n/a	58.401	n/a
29.567	0.497	happy	Picture	76.57	n/a	1	1	20	n/a	20	81	3	n/a	n/a	n/a	n/a	58.932	AF01ANS.jpg
30.064	0.514	Blank	Blank	76.056	n/a	1	1	20	n/a	20	n/a	3	n/a	n/a	n/a	n/a	59.429	n/a
30.595	10.014	ITI	Fixation+	66.026	n/a	1	n/a	n/a	n/a	n/a	n/a	n/a	n/a	n/a	n/a	n/a	59.96	n/a
40.625	0.497	neutral	Picture	65.512	n/a	1	2	1	n/a	21	28	1	n/a	n/a	n/a	n/a	69.99	AM09NES.jpg
41.122	0.514	Blank	Blank	64.998	n/a	1	2	1	n/a	21	n/a	1	n/a	n/a	n/a	n/a	70.487	n/a
41.653	0.497	neutral	Picture	64.484	n/a	1	2	2	n/a	22	27	1	n/a	n/a	n/a	n/a	71.018	BM08NES.jpg
42.15	0.514	Blank	Blank	63.97	n/a	1	2	2	n/a	22	n/a	1	n/a	n/a	n/a	n/a	71.515	n/a
42.68	0.497	neutral	Picture	63.456	n/a	1	2	3	n/a	23	16	1	n/a	n/a	n/a	n/a	72.046	AF26NES.jpg
43.178	0.514	Blank	Blank	62.943	n/a	1	2	3	n/a	23	n/a	1	n/a	n/a	n/a	n/a	72.543	n/a
43.708	0.497	neutral	Picture	62.429	n/a	1	2	4	n/a	24	3	1	n/a	n/a	n/a	n/a	73.073	BF04NES.jpg
44.206	0.514	Blank	Blank	61.915	n/a	1	2	4	n/a	24	n/a	1	n/a	n/a	n/a	n/a	73.571	n/a
44.736	0.497	neutral	Picture	61.401	n/a	1	2	5	n/a	25	32	1	n/a	n/a	n/a	n/a	74.101	AM14NES.jpg
45.234	0.514	Blank	Blank	60.887	n/a	1	2	5	n/a	25	n/a	1	n/a	n/a	n/a	n/a	74.599	n/a
45.764	0.497	neutral	Picture	60.373	n/a	1	2	6	n/a	26	37	1	n/a	n/a	n/a	n/a	75.129	BM25NES.jpg
46.261	0.514	Blank	Blank	59.859	n/a	1	2	6	n/a	26	n/a	1	n/a	n/a	n/a	n/a	75.627	n/a
46.792	0.497	neutral	Picture	59.345	n/a	1	2	7	n/a	27	15	1	n/a	n/a	n/a	n/a	76.157	AF25NES.jpg
47.289	0.514	Blank	Blank	58.831	n/a	1	2	7	n/a	27	n/a	1	n/a	n/a	n/a	n/a	76.654	n/a
47.82	0.497	neutral	Picture	58.317	n/a	1	2	8	n/a	28	23	1	n/a	n/a	n/a	n/a	77.185	AM04NES.jpg
48.317	0.514	Blank	Blank	57.803	n/a	1	2	8	n/a	28	n/a	1	n/a	n/a	n/a	n/a	77.682	n/a
48.848	0.497	neutral	Picture	57.289	n/a	1	2	9	n/a	29	34	1	n/a	n/a	n/a	n/a	78.213	AM22NES.jpg
49.345	0.514	Blank	Blank	56.775	n/a	1	2	9	n/a	29	n/a	1	n/a	n/a	n/a	n/a	78.71	n/a
49.876	0.497	neutral	Picture	56.261	n/a	1	2	10	n/a	30	24	1	n/a	n/a	n/a	n/a	79.241	BM05NES.jpg
50.373	0.514	Blank	Blank	55.747	n/a	1	2	10	n/a	30	n/a	1	n/a	n/a	n/a	n/a	79.738	n/a
50.904	0.497	neutral	Picture	55.233	n/a	1	2	11	n/a	31	12	1	n/a	n/a	n/a	n/a	80.269	AF21NES.jpg
51.401	0.514	Blank	Blank	54.72	n/a	1	2	11	n/a	31	n/a	1	n/a	n/a	n/a	n/a	80.766	n/a
51.931	0.497	neutral	Picture	54.206	n/a	1	2	12	n/a	32	6	1	n/a	n/a	n/a	n/a	81.296	AF09NES.jpg
52.429	0.514	Blank	Blank	53.692	n/a	1	2	12	n/a	32	n/a	1	n/a	n/a	n/a	n/a	81.794	n/a
52.959	0.497	neutral	Picture	53.178	n/a	1	2	13	n/a	33	17	1	n/a	n/a	n/a	n/a	82.324	BF28NES.jpg
53.457	0.514	Blank	Blank	52.664	n/a	1	2	13	n/a	33	n/a	1	n/a	n/a	n/a	n/a	82.822	n/a
53.987	0.497	neutral	Picture	52.15	n/a	1	2	14	n/a	34	2	1	n/a	n/a	n/a	n/a	83.352	AF03NES.jpg
54.484	0.514	Blank	Blank	51.636	n/a	1	2	14	n/a	34	n/a	1	n/a	n/a	n/a	n/a	83.85	n/a
55.015	0.497	neutral	Picture	51.122	n/a	1	2	15	n/a	35	9	1	n/a	n/a	n/a	n/a	84.38	AF17NES.jpg
55.512	0.514	Blank	Blank	50.608	n/a	1	2	15	n/a	35	n/a	1	n/a	n/a	n/a	n/a	84.877	n/a
56.043	0.497	neutral	Picture	50.094	n/a	1	2	16	n/a	36	25	1	n/a	n/a	n/a	n/a	85.408	BM06NES.jpg
56.54	0.514	Blank	Blank	49.58	n/a	1	2	16	n/a	36	n/a	1	n/a	n/a	n/a	n/a	85.905	n/a
57.071	0.497	neutral	Picture	49.066	n/a	1	2	17	n/a	37	8	1	n/a	n/a	n/a	n/a	86.436	AF14NES.jpg
57.568	0.514	Blank	Blank	48.552	n/a	1	2	17	n/a	37	n/a	1	n/a	n/a	n/a	n/a	86.933	n/a
58.099	0.497	neutral	Picture	48.038	n/a	1	2	18	n/a	38	19	1	n/a	n/a	n/a	n/a	87.464	AF31NES.jpg
58.596	0.514	Blank	Blank	47.524	n/a	1	2	18	n/a	38	n/a	1	n/a	n/a	n/a	n/a	87.961	n/a
59.127	0.497	neutral	Picture	47.01	n/a	1	2	19	n/a	39	14	1	n/a	n/a	n/a	n/a	88.492	AF23NES.jpg
59.624	0.514	Blank	Blank	46.496	n/a	1	2	19	n/a	39	n/a	1	n/a	n/a	n/a	n/a	88.989	n/a
60.154	0.497	neutral	Picture	45.983	n/a	1	2	20	n/a	40	4	1	n/a	n/a	n/a	n/a	89.519	AF05NES.jpg
60.652	0.514	Blank	Blank	45.469	n/a	1	2	20	n/a	40	n/a	1	n/a	n/a	n/a	n/a	90.017	n/a
61.182	10.014	ITI	Fixation+	35.439	n/a	1	n/a	n/a	n/a	n/a	n/a	n/a	n/a	n/a	n/a	n/a	90.547	n/a
71.212	0.497	happy	Picture	34.925	n/a	1	3	1	n/a	41	84	3	n/a	n/a	n/a	n/a	100.578	AF05ANS.jpg
71.71	0.514	Blank	Blank	34.411	n/a	1	3	1	n/a	41	n/a	3	n/a	n/a	n/a	n/a	101.075	n/a
72.24	0.497	happy	Picture	33.897	n/a	1	3	2	n/a	42	92	3	n/a	n/a	n/a	n/a	101.605	AF21ANS.jpg
72.738	0.514	Blank	Blank	33.383	n/a	1	3	2	n/a	42	n/a	3	n/a	n/a	n/a	n/a	102.103	n/a
73.268	0.497	happy	Picture	32.869	n/a	1	3	3	n/a	43	86	3	n/a	n/a	n/a	n/a	102.633	AF09ANS.jpg
73.766	0.514	Blank	Blank	32.355	n/a	1	3	3	n/a	43	n/a	3	n/a	n/a	n/a	n/a	103.131	n/a
74.296	0.497	happy	Picture	31.841	n/a	1	3	4	n/a	44	93	3	n/a	n/a	n/a	n/a	103.661	BF22ANS.jpg
74.793	0.514	Blank	Blank	31.327	n/a	1	3	4	n/a	44	n/a	3	n/a	n/a	n/a	n/a	104.159	n/a
75.324	0.497	happy	Picture	30.813	n/a	1	3	5	n/a	45	88	3	n/a	n/a	n/a	n/a	104.689	AF14ANS.jpg
75.821	0.514	Blank	Blank	30.299	n/a	1	3	5	n/a	45	n/a	3	n/a	n/a	n/a	n/a	105.186	n/a
76.352	0.497	happy	Picture	29.785	n/a	1	3	6	n/a	46	113	3	n/a	n/a	n/a	n/a	105.717	AM21ANS.jpg
76.849	0.514	Blank	Blank	29.271	n/a	1	3	6	n/a	46	n/a	3	n/a	n/a	n/a	n/a	106.214	n/a
77.38	0.497	happy	Picture	28.757	n/a	1	3	7	n/a	47	95	3	n/a	n/a	n/a	n/a	106.745	AF25ANS.jpg
77.877	0.514	Blank	Blank	28.243	n/a	1	3	7	n/a	47	n/a	3	n/a	n/a	n/a	n/a	107.242	n/a
78.408	0.497	happy	Picture	27.729	n/a	1	3	8	n/a	48	102	3	n/a	n/a	n/a	n/a	107.773	BM03ANS.jpg
78.905	0.514	Blank	Blank	27.215	n/a	1	3	8	n/a	48	n/a	3	n/a	n/a	n/a	n/a	108.27	n/a
79.435	0.497	happy	Picture	26.702	n/a	1	3	9	n/a	49	112	3	n/a	n/a	n/a	n/a	108.8	AM14ANS.jpg
79.933	0.514	Blank	Blank	26.188	n/a	1	3	9	n/a	49	n/a	3	n/a	n/a	n/a	n/a	109.298	n/a
80.463	0.497	happy	Picture	25.674	n/a	1	3	10	n/a	50	83	3	n/a	n/a	n/a	n/a	109.828	BF04ANS.jpg
80.961	0.514	Blank	Blank	25.16	n/a	1	3	10	n/a	50	n/a	3	n/a	n/a	n/a	n/a	110.326	n/a
81.491	0.497	happy	Picture	24.646	n/a	1	3	11	n/a	51	90	3	n/a	n/a	n/a	n/a	110.856	AF18ANS.jpg
81.989	0.514	Blank	Blank	24.132	n/a	1	3	11	n/a	51	n/a	3	n/a	n/a	n/a	n/a	111.354	n/a
82.519	0.497	happy	Picture	23.618	n/a	1	3	12	n/a	52	117	3	n/a	n/a	n/a	n/a	111.884	BM25ANS.jpg
83.016	0.514	Blank	Blank	23.104	n/a	1	3	12	n/a	52	n/a	3	n/a	n/a	n/a	n/a	112.382	n/a
83.547	0.497	happy	Picture	22.59	n/a	1	3	13	n/a	53	94	3	n/a	n/a	n/a	n/a	112.912	AF23ANS.jpg
84.044	0.514	Blank	Blank	22.076	n/a	1	3	13	n/a	53	n/a	3	n/a	n/a	n/a	n/a	113.409	n/a
84.575	0.497	happy	Picture	21.562	n/a	1	3	14	n/a	54	106	3	n/a	n/a	n/a	n/a	113.94	AM07ANS.jpg
85.072	0.514	Blank	Blank	21.048	n/a	1	3	14	n/a	54	n/a	3	n/a	n/a	n/a	n/a	114.437	n/a
85.603	0.497	happy	Picture	20.534	n/a	1	3	15	n/a	55	105	3	n/a	n/a	n/a	n/a	114.968	BM06ANS.jpg
86.1	0.514	Blank	Blank	20.02	n/a	1	3	15	n/a	55	n/a	3	n/a	n/a	n/a	n/a	115.465	n/a
86.631	0.497	happy	Picture	19.506	n/a	1	3	16	n/a	56	116	3	n/a	n/a	n/a	n/a	115.996	BM24ANS.jpg
87.128	0.514	Blank	Blank	18.992	n/a	1	3	16	n/a	56	n/a	3	n/a	n/a	n/a	n/a	116.493	n/a
87.659	0.497	happy	Picture	18.479	n/a	1	3	17	n/a	57	89	3	n/a	n/a	n/a	n/a	117.024	AF17ANS.jpg
88.156	0.514	Blank	Blank	17.965	n/a	1	3	17	n/a	57	n/a	3	n/a	n/a	n/a	n/a	117.521	n/a
88.686	0.497	happy	Picture	17.451	n/a	1	3	18	n/a	58	118	3	n/a	n/a	n/a	n/a	118.051	BM26ANS.jpg
89.184	0.514	Blank	Blank	16.937	n/a	1	3	18	n/a	58	n/a	3	n/a	n/a	n/a	n/a	118.549	n/a
89.714	0.497	happy	Picture	16.423	n/a	1	3	19	n/a	59	100	3	n/a	n/a	n/a	n/a	119.079	AF32ANS.jpg
90.212	0.514	Blank	Blank	15.909	n/a	1	3	19	n/a	59	n/a	3	n/a	n/a	n/a	n/a	119.577	n/a
90.742	0.497	happy	Picture	15.395	n/a	1	3	20	n/a	60	119	3	n/a	n/a	n/a	n/a	120.107	BM28ANS.jpg
91.24	0.514	Blank	Blank	14.881	n/a	1	3	20	n/a	60	n/a	3	n/a	n/a	n/a	n/a	120.605	n/a
91.77	10.014	ITI	Fixation+	4.851	n/a	1	n/a	n/a	n/a	n/a	n/a	n/a	n/a	n/a	n/a	n/a	121.135	n/a
106.634	n/a	ConfirmRating	Rate	n/a	4.825	1	n/a	n/a	0	n/a	n/a	n/a	2	Happy	29	49	135.999	n/a
114.866	n/a	ConfirmRating	Rate	n/a	8.223	1	n/a	n/a	1	n/a	n/a	n/a	3	Happy	0	46	144.231	n/a
114.897	10.014	ITI	Fixation+	103.95	n/a	2	n/a	n/a	n/a	n/a	n/a	n/a	n/a	n/a	n/a	n/a	144.262	n/a
124.927	0.497	angry	Picture	103.436	n/a	2	4	1	n/a	61	79	2	n/a	n/a	n/a	n/a	154.292	BM28HAS.jpg
125.425	0.514	Blank	Blank	102.922	n/a	2	4	1	n/a	61	n/a	2	n/a	n/a	n/a	n/a	154.79	n/a
125.955	0.497	angry	Picture	102.408	n/a	2	4	2	n/a	62	61	2	n/a	n/a	n/a	n/a	155.32	AM01HAS.jpg
126.453	0.514	Blank	Blank	101.894	n/a	2	4	2	n/a	62	n/a	2	n/a	n/a	n/a	n/a	155.818	n/a
126.983	0.497	angry	Picture	101.38	n/a	2	4	3	n/a	63	57	2	n/a	n/a	n/a	n/a	156.348	BF28HAS.jpg
127.48	0.514	Blank	Blank	100.866	n/a	2	4	3	n/a	63	n/a	2	n/a	n/a	n/a	n/a	156.846	n/a
128.011	0.497	angry	Picture	100.352	n/a	2	4	4	n/a	64	77	2	n/a	n/a	n/a	n/a	157.376	BM25HAS.jpg
128.508	0.514	Blank	Blank	99.838	n/a	2	4	4	n/a	64	n/a	2	n/a	n/a	n/a	n/a	157.873	n/a
129.039	0.497	angry	Picture	99.324	n/a	2	4	5	n/a	65	47	2	n/a	n/a	n/a	n/a	158.404	BF11HAS.jpg
129.536	0.514	Blank	Blank	98.81	n/a	2	4	5	n/a	65	n/a	2	n/a	n/a	n/a	n/a	158.901	n/a
130.067	0.497	angry	Picture	98.297	n/a	2	4	6	n/a	66	50	2	n/a	n/a	n/a	n/a	159.432	AF18HAS.jpg
130.564	0.514	Blank	Blank	97.783	n/a	2	4	6	n/a	66	n/a	2	n/a	n/a	n/a	n/a	159.929	n/a
131.095	0.497	angry	Picture	97.269	n/a	2	4	7	n/a	67	78	2	n/a	n/a	n/a	n/a	160.46	BM26HAS.jpg
131.592	0.514	Blank	Blank	96.755	n/a	2	4	7	n/a	67	n/a	2	n/a	n/a	n/a	n/a	160.957	n/a
132.122	0.497	angry	Picture	96.241	n/a	2	4	8	n/a	68	45	2	n/a	n/a	n/a	n/a	161.488	BF07HAS.jpg
132.62	0.514	Blank	Blank	95.727	n/a	2	4	8	n/a	68	n/a	2	n/a	n/a	n/a	n/a	161.985	n/a
133.15	0.497	angry	Picture	95.213	n/a	2	4	9	n/a	69	56	2	n/a	n/a	n/a	n/a	162.516	AF26HAS.jpg
133.648	0.514	Blank	Blank	94.699	n/a	2	4	9	n/a	69	n/a	2	n/a	n/a	n/a	n/a	163.013	n/a
134.178	0.497	angry	Picture	94.185	n/a	2	4	10	n/a	70	65	2	n/a	n/a	n/a	n/a	163.543	BM06HAS.jpg
134.676	0.514	Blank	Blank	93.671	n/a	2	4	10	n/a	70	n/a	2	n/a	n/a	n/a	n/a	164.041	n/a
135.206	0.497	angry	Picture	93.157	n/a	2	4	11	n/a	71	73	2	n/a	n/a	n/a	n/a	164.571	AM21HAS.jpg
135.703	0.514	Blank	Blank	92.643	n/a	2	4	11	n/a	71	n/a	2	n/a	n/a	n/a	n/a	165.069	n/a
136.234	0.497	angry	Picture	92.129	n/a	2	4	12	n/a	72	41	2	n/a	n/a	n/a	n/a	165.599	AF01HAS.jpg
136.731	0.514	Blank	Blank	91.615	n/a	2	4	12	n/a	72	n/a	2	n/a	n/a	n/a	n/a	166.096	n/a
137.262	0.497	angry	Picture	91.101	n/a	2	4	13	n/a	73	59	2	n/a	n/a	n/a	n/a	166.627	AF31HAS.jpg
137.759	0.514	Blank	Blank	90.587	n/a	2	4	13	n/a	73	n/a	2	n/a	n/a	n/a	n/a	167.124	n/a
138.29	0.497	angry	Picture	90.074	n/a	2	4	14	n/a	74	64	2	n/a	n/a	n/a	n/a	167.655	BM05HAS.jpg
138.787	0.514	Blank	Blank	89.56	n/a	2	4	14	n/a	74	n/a	2	n/a	n/a	n/a	n/a	168.152	n/a
139.318	0.497	angry	Picture	89.046	n/a	2	4	15	n/a	75	68	2	n/a	n/a	n/a	n/a	168.683	AM09HAS.jpg
139.815	0.514	Blank	Blank	88.532	n/a	2	4	15	n/a	75	n/a	2	n/a	n/a	n/a	n/a	169.18	n/a
140.345	0.497	angry	Picture	88.018	n/a	2	4	16	n/a	76	54	2	n/a	n/a	n/a	n/a	169.711	AF23HAS.jpg
140.843	0.514	Blank	Blank	87.504	n/a	2	4	16	n/a	76	n/a	2	n/a	n/a	n/a	n/a	170.208	n/a
141.373	0.497	angry	Picture	86.99	n/a	2	4	17	n/a	77	53	2	n/a	n/a	n/a	n/a	170.738	BF22HAS.jpg
141.871	0.514	Blank	Blank	86.476	n/a	2	4	17	n/a	77	n/a	2	n/a	n/a	n/a	n/a	171.236	n/a
142.401	0.497	angry	Picture	85.962	n/a	2	4	18	n/a	78	44	2	n/a	n/a	n/a	n/a	171.766	AF05HAS.jpg
142.899	0.514	Blank	Blank	85.448	n/a	2	4	18	n/a	78	n/a	2	n/a	n/a	n/a	n/a	172.264	n/a
143.429	0.497	angry	Picture	84.934	n/a	2	4	19	n/a	79	52	2	n/a	n/a	n/a	n/a	172.794	AF21HAS.jpg
143.926	0.514	Blank	Blank	84.42	n/a	2	4	19	n/a	79	n/a	2	n/a	n/a	n/a	n/a	173.292	n/a
144.457	0.497	angry	Picture	83.906	n/a	2	4	20	n/a	80	62	2	n/a	n/a	n/a	n/a	173.822	BM03HAS.jpg
144.954	0.514	Blank	Blank	83.392	n/a	2	4	20	n/a	80	n/a	2	n/a	n/a	n/a	n/a	174.32	n/a
145.485	10.014	ITI	Fixation+	73.362	n/a	2	n/a	n/a	n/a	n/a	n/a	n/a	n/a	n/a	n/a	n/a	174.85	n/a
155.515	0.497	neutral	Picture	72.848	n/a	2	5	1	n/a	81	23	1	n/a	n/a	n/a	n/a	184.88	AM04NES.jpg
156.012	0.514	Blank	Blank	72.334	n/a	2	5	1	n/a	81	n/a	1	n/a	n/a	n/a	n/a	185.377	n/a
156.543	0.497	neutral	Picture	71.82	n/a	2	5	2	n/a	82	29	1	n/a	n/a	n/a	n/a	185.908	AM10NES.jpg
157.04	0.514	Blank	Blank	71.306	n/a	2	5	2	n/a	82	n/a	1	n/a	n/a	n/a	n/a	186.405	n/a
157.571	0.497	neutral	Picture	70.793	n/a	2	5	3	n/a	83	24	1	n/a	n/a	n/a	n/a	186.936	BM05NES.jpg
158.068	0.514	Blank	Blank	70.279	n/a	2	5	3	n/a	83	n/a	1	n/a	n/a	n/a	n/a	187.433	n/a
158.599	0.497	neutral	Picture	69.765	n/a	2	5	4	n/a	84	12	1	n/a	n/a	n/a	n/a	187.964	AF21NES.jpg
159.096	0.514	Blank	Blank	69.251	n/a	2	5	4	n/a	84	n/a	1	n/a	n/a	n/a	n/a	188.461	n/a
159.626	0.497	neutral	Picture	68.737	n/a	2	5	5	n/a	85	13	1	n/a	n/a	n/a	n/a	188.992	BF22NES.jpg
160.124	0.514	Blank	Blank	68.223	n/a	2	5	5	n/a	85	n/a	1	n/a	n/a	n/a	n/a	189.489	n/a
160.654	0.497	neutral	Picture	67.709	n/a	2	5	6	n/a	86	17	1	n/a	n/a	n/a	n/a	190.019	BF28NES.jpg
161.152	0.514	Blank	Blank	67.195	n/a	2	5	6	n/a	86	n/a	1	n/a	n/a	n/a	n/a	190.517	n/a
161.682	0.497	neutral	Picture	66.681	n/a	2	5	7	n/a	87	4	1	n/a	n/a	n/a	n/a	191.047	AF05NES.jpg
162.18	0.514	Blank	Blank	66.167	n/a	2	5	7	n/a	87	n/a	1	n/a	n/a	n/a	n/a	191.545	n/a
162.71	0.497	neutral	Picture	65.653	n/a	2	5	8	n/a	88	11	1	n/a	n/a	n/a	n/a	192.075	AF20NES.jpg
163.207	0.514	Blank	Blank	65.139	n/a	2	5	8	n/a	88	n/a	1	n/a	n/a	n/a	n/a	192.573	n/a
163.738	0.497	neutral	Picture	64.625	n/a	2	5	9	n/a	89	22	1	n/a	n/a	n/a	n/a	193.103	BM03NES.jpg
164.235	0.514	Blank	Blank	64.111	n/a	2	5	9	n/a	89	n/a	1	n/a	n/a	n/a	n/a	193.601	n/a
164.766	0.497	neutral	Picture	63.597	n/a	2	5	10	n/a	90	15	1	n/a	n/a	n/a	n/a	194.131	AF25NES.jpg
165.263	0.514	Blank	Blank	63.083	n/a	2	5	10	n/a	90	n/a	1	n/a	n/a	n/a	n/a	194.628	n/a
165.794	0.497	neutral	Picture	62.57	n/a	2	5	11	n/a	91	19	1	n/a	n/a	n/a	n/a	195.159	AF31NES.jpg
166.291	0.514	Blank	Blank	62.055	n/a	2	5	11	n/a	91	n/a	1	n/a	n/a	n/a	n/a	195.656	n/a
166.822	0.497	neutral	Picture	61.542	n/a	2	5	12	n/a	92	9	1	n/a	n/a	n/a	n/a	196.187	AF17NES.jpg
167.319	0.514	Blank	Blank	61.028	n/a	2	5	12	n/a	92	n/a	1	n/a	n/a	n/a	n/a	196.684	n/a
167.849	0.497	neutral	Picture	60.514	n/a	2	5	13	n/a	93	14	1	n/a	n/a	n/a	n/a	197.215	AF23NES.jpg
168.347	0.514	Blank	Blank	60.0	n/a	2	5	13	n/a	93	n/a	1	n/a	n/a	n/a	n/a	197.712	n/a
168.877	0.497	neutral	Picture	59.486	n/a	2	5	14	n/a	94	36	1	n/a	n/a	n/a	n/a	198.243	BM24NES.jpg
169.375	0.514	Blank	Blank	58.972	n/a	2	5	14	n/a	94	n/a	1	n/a	n/a	n/a	n/a	198.74	n/a
169.905	0.497	neutral	Picture	58.458	n/a	2	5	15	n/a	95	34	1	n/a	n/a	n/a	n/a	199.27	AM22NES.jpg
170.403	0.514	Blank	Blank	57.944	n/a	2	5	15	n/a	95	n/a	1	n/a	n/a	n/a	n/a	199.768	n/a
170.933	0.497	neutral	Picture	57.43	n/a	2	5	16	n/a	96	10	1	n/a	n/a	n/a	n/a	200.298	AF18NES.jpg
171.43	0.514	Blank	Blank	56.916	n/a	2	5	16	n/a	96	n/a	1	n/a	n/a	n/a	n/a	200.796	n/a
171.961	0.497	neutral	Picture	56.402	n/a	2	5	17	n/a	97	5	1	n/a	n/a	n/a	n/a	201.326	BF07NES.jpg
172.458	0.514	Blank	Blank	55.888	n/a	2	5	17	n/a	97	n/a	1	n/a	n/a	n/a	n/a	201.823	n/a
172.989	0.497	neutral	Picture	55.374	n/a	2	5	18	n/a	98	25	1	n/a	n/a	n/a	n/a	202.354	BM06NES.jpg
173.486	0.514	Blank	Blank	54.86	n/a	2	5	18	n/a	98	n/a	1	n/a	n/a	n/a	n/a	202.851	n/a
174.017	0.497	neutral	Picture	54.346	n/a	2	5	19	n/a	99	39	1	n/a	n/a	n/a	n/a	203.382	AM28NES.jpg
174.514	0.514	Blank	Blank	53.833	n/a	2	5	19	n/a	99	n/a	1	n/a	n/a	n/a	n/a	203.879	n/a
175.045	0.497	neutral	Picture	53.319	n/a	2	5	20	n/a	100	33	1	n/a	n/a	n/a	n/a	204.41	AM21NES.jpg
175.542	0.514	Blank	Blank	52.805	n/a	2	5	20	n/a	100	n/a	1	n/a	n/a	n/a	n/a	204.907	n/a
176.073	10.014	ITI	Fixation+	42.775	n/a	2	n/a	n/a	n/a	n/a	n/a	n/a	n/a	n/a	n/a	n/a	205.438	n/a
186.103	0.497	angry	Picture	42.261	n/a	2	6	1	n/a	101	74	2	n/a	n/a	n/a	n/a	215.468	AM22HAS.jpg
186.6	0.514	Blank	Blank	41.747	n/a	2	6	1	n/a	101	n/a	2	n/a	n/a	n/a	n/a	215.965	n/a
187.131	0.497	angry	Picture	41.233	n/a	2	6	2	n/a	102	76	2	n/a	n/a	n/a	n/a	216.496	BM24HAS.jpg
187.628	0.514	Blank	Blank	40.719	n/a	2	6	2	n/a	102	n/a	2	n/a	n/a	n/a	n/a	216.993	n/a
188.158	0.497	angry	Picture	40.205	n/a	2	6	3	n/a	103	80	2	n/a	n/a	n/a	n/a	217.524	BM35HAS.jpg
188.656	0.514	Blank	Blank	39.691	n/a	2	6	3	n/a	103	n/a	2	n/a	n/a	n/a	n/a	218.021	n/a
189.186	0.497	angry	Picture	39.177	n/a	2	6	4	n/a	104	75	2	n/a	n/a	n/a	n/a	218.551	AM23HAS.jpg
189.684	0.514	Blank	Blank	38.663	n/a	2	6	4	n/a	104	n/a	2	n/a	n/a	n/a	n/a	219.049	n/a
190.214	0.497	angry	Picture	38.149	n/a	2	6	5	n/a	105	49	2	n/a	n/a	n/a	n/a	219.579	AF17HAS.jpg
190.712	0.514	Blank	Blank	37.635	n/a	2	6	5	n/a	105	n/a	2	n/a	n/a	n/a	n/a	220.077	n/a
191.242	0.497	angry	Picture	37.121	n/a	2	6	6	n/a	106	43	2	n/a	n/a	n/a	n/a	220.607	BF04HAS.jpg
191.739	0.514	Blank	Blank	36.607	n/a	2	6	6	n/a	106	n/a	2	n/a	n/a	n/a	n/a	221.105	n/a
192.27	0.497	angry	Picture	36.093	n/a	2	6	7	n/a	107	70	2	n/a	n/a	n/a	n/a	221.635	BM11HAS.jpg
192.767	0.514	Blank	Blank	35.579	n/a	2	6	7	n/a	107	n/a	2	n/a	n/a	n/a	n/a	222.132	n/a
193.298	0.497	angry	Picture	35.065	n/a	2	6	8	n/a	108	66	2	n/a	n/a	n/a	n/a	222.663	BM07HAS.jpg
193.795	0.514	Blank	Blank	34.552	n/a	2	6	8	n/a	108	n/a	2	n/a	n/a	n/a	n/a	223.16	n/a
194.326	0.497	angry	Picture	34.038	n/a	2	6	9	n/a	109	48	2	n/a	n/a	n/a	n/a	223.691	AF14HAS.jpg
194.823	0.514	Blank	Blank	33.524	n/a	2	6	9	n/a	109	n/a	2	n/a	n/a	n/a	n/a	224.188	n/a
195.354	0.497	angry	Picture	33.01	n/a	2	6	10	n/a	110	58	2	n/a	n/a	n/a	n/a	224.719	BF29HAS.jpg
195.851	0.514	Blank	Blank	32.496	n/a	2	6	10	n/a	110	n/a	2	n/a	n/a	n/a	n/a	225.216	n/a
196.381	0.497	angry	Picture	31.982	n/a	2	6	11	n/a	111	63	2	n/a	n/a	n/a	n/a	225.747	AM04HAS.jpg
196.879	0.514	Blank	Blank	31.468	n/a	2	6	11	n/a	111	n/a	2	n/a	n/a	n/a	n/a	226.244	n/a
197.409	0.497	angry	Picture	30.954	n/a	2	6	12	n/a	112	72	2	n/a	n/a	n/a	n/a	226.774	AM14HAS.jpg
197.907	0.514	Blank	Blank	30.44	n/a	2	6	12	n/a	112	n/a	2	n/a	n/a	n/a	n/a	227.272	n/a
198.437	0.497	angry	Picture	29.926	n/a	2	6	13	n/a	113	55	2	n/a	n/a	n/a	n/a	227.802	AF25HAS.jpg
198.935	0.514	Blank	Blank	29.412	n/a	2	6	13	n/a	113	n/a	2	n/a	n/a	n/a	n/a	228.3	n/a
199.465	0.497	angry	Picture	28.898	n/a	2	6	14	n/a	114	42	2	n/a	n/a	n/a	n/a	228.83	AF03HAS.jpg
199.962	0.514	Blank	Blank	28.384	n/a	2	6	14	n/a	114	n/a	2	n/a	n/a	n/a	n/a	229.328	n/a
200.493	0.497	angry	Picture	27.87	n/a	2	6	15	n/a	115	60	2	n/a	n/a	n/a	n/a	229.858	AF32HAS.jpg
200.99	0.514	Blank	Blank	27.356	n/a	2	6	15	n/a	115	n/a	2	n/a	n/a	n/a	n/a	230.355	n/a
201.521	0.497	angry	Picture	26.842	n/a	2	6	16	n/a	116	67	2	n/a	n/a	n/a	n/a	230.886	BM08HAS.jpg
202.018	0.514	Blank	Blank	26.329	n/a	2	6	16	n/a	116	n/a	2	n/a	n/a	n/a	n/a	231.383	n/a
202.549	0.497	angry	Picture	25.815	n/a	2	6	17	n/a	117	51	2	n/a	n/a	n/a	n/a	231.914	AF20HAS.jpg
203.046	0.514	Blank	Blank	25.301	n/a	2	6	17	n/a	117	n/a	2	n/a	n/a	n/a	n/a	232.411	n/a
203.577	0.497	angry	Picture	24.787	n/a	2	6	18	n/a	118	71	2	n/a	n/a	n/a	n/a	232.942	BM12HAS.jpg
204.074	0.514	Blank	Blank	24.273	n/a	2	6	18	n/a	118	n/a	2	n/a	n/a	n/a	n/a	233.439	n/a
204.605	0.497	angry	Picture	23.759	n/a	2	6	19	n/a	119	69	2	n/a	n/a	n/a	n/a	233.97	AM10HAS.jpg
205.102	0.514	Blank	Blank	23.245	n/a	2	6	19	n/a	119	n/a	2	n/a	n/a	n/a	n/a	234.467	n/a
205.632	0.497	angry	Picture	22.731	n/a	2	6	20	n/a	120	46	2	n/a	n/a	n/a	n/a	234.998	AF09HAS.jpg
206.13	0.514	Blank	Blank	22.217	n/a	2	6	20	n/a	120	n/a	2	n/a	n/a	n/a	n/a	235.495	n/a
206.66	10.014	ITI	Fixation+	12.187	n/a	2	n/a	n/a	n/a	n/a	n/a	n/a	n/a	n/a	n/a	n/a	236.025	n/a
228.861	n/a	ConfirmRating	Rate	n/a	12.185	2	n/a	n/a	0	n/a	n/a	n/a	2	Angry	26	48	258.226	n/a
235.856	n/a	ConfirmRating	Rate	n/a	6.98	2	n/a	n/a	1	n/a	n/a	n/a	3	Angry	17	47	265.221	n/a
235.888	15.004	Rest	Picture	n/a	n/a	n/a	n/a	n/a	n/a	n/a	n/a	n/a	0	n/a	0	0	265.254	n/a
250.909	10.014	ITI	Fixation+	95.481	n/a	3	n/a	n/a	n/a	n/a	n/a	n/a	n/a	n/a	n/a	n/a	280.274	n/a
260.939	0.497	happy	Picture	94.967	n/a	3	7	1	n/a	1	108	3	n/a	n/a	n/a	n/a	290.304	AM09ANS.jpg
261.436	0.514	Blank	Blank	94.454	n/a	3	7	1	n/a	1	n/a	3	n/a	n/a	n/a	n/a	290.801	n/a
261.967	0.497	happy	Picture	93.94	n/a	3	7	2	n/a	2	99	3	n/a	n/a	n/a	n/a	291.332	AF31ANS.jpg
262.464	0.514	Blank	Blank	93.426	n/a	3	7	2	n/a	2	n/a	3	n/a	n/a	n/a	n/a	291.829	n/a
262.995	0.497	happy	Picture	92.912	n/a	3	7	3	n/a	3	98	3	n/a	n/a	n/a	n/a	292.36	BF29ANS.jpg
263.492	0.514	Blank	Blank	92.398	n/a	3	7	3	n/a	3	n/a	3	n/a	n/a	n/a	n/a	292.857	n/a
264.023	0.497	happy	Picture	91.884	n/a	3	7	4	n/a	4	107	3	n/a	n/a	n/a	n/a	293.388	BM08ANS.jpg
264.52	0.514	Blank	Blank	91.37	n/a	3	7	4	n/a	4	n/a	3	n/a	n/a	n/a	n/a	293.885	n/a
265.05	0.497	happy	Picture	90.856	n/a	3	7	5	n/a	5	104	3	n/a	n/a	n/a	n/a	294.415	BM05ANS.jpg
265.548	0.514	Blank	Blank	90.342	n/a	3	7	5	n/a	5	n/a	3	n/a	n/a	n/a	n/a	294.913	n/a
266.078	0.497	happy	Picture	89.828	n/a	3	7	6	n/a	6	101	3	n/a	n/a	n/a	n/a	295.443	AM01ANS.jpg
266.576	0.514	Blank	Blank	89.314	n/a	3	7	6	n/a	6	n/a	3	n/a	n/a	n/a	n/a	295.941	n/a
267.106	0.497	happy	Picture	88.8	n/a	3	7	7	n/a	7	103	3	n/a	n/a	n/a	n/a	296.471	AM04ANS.jpg
267.603	0.514	Blank	Blank	88.286	n/a	3	7	7	n/a	7	n/a	3	n/a	n/a	n/a	n/a	296.969	n/a
268.134	0.497	happy	Picture	87.772	n/a	3	7	8	n/a	8	111	3	n/a	n/a	n/a	n/a	297.499	BM12ANS.jpg
268.631	0.514	Blank	Blank	87.258	n/a	3	7	8	n/a	8	n/a	3	n/a	n/a	n/a	n/a	297.996	n/a
269.162	0.497	happy	Picture	86.745	n/a	3	7	9	n/a	9	110	3	n/a	n/a	n/a	n/a	298.527	AM11ANS.jpg
269.659	0.514	Blank	Blank	86.231	n/a	3	7	9	n/a	9	n/a	3	n/a	n/a	n/a	n/a	299.024	n/a
270.19	0.497	happy	Picture	85.717	n/a	3	7	10	n/a	10	85	3	n/a	n/a	n/a	n/a	299.555	BF07ANS.jpg
270.687	0.514	Blank	Blank	85.203	n/a	3	7	10	n/a	10	n/a	3	n/a	n/a	n/a	n/a	300.052	n/a
271.218	0.497	happy	Picture	84.689	n/a	3	7	11	n/a	11	87	3	n/a	n/a	n/a	n/a	300.583	BF11ANS.jpg
271.715	0.514	Blank	Blank	84.175	n/a	3	7	11	n/a	11	n/a	3	n/a	n/a	n/a	n/a	301.08	n/a
272.245	0.497	happy	Picture	83.661	n/a	3	7	12	n/a	12	91	3	n/a	n/a	n/a	n/a	301.611	AF20ANS.jpg
272.743	0.514	Blank	Blank	83.147	n/a	3	7	12	n/a	12	n/a	3	n/a	n/a	n/a	n/a	302.108	n/a
273.273	0.497	happy	Picture	82.633	n/a	3	7	13	n/a	13	115	3	n/a	n/a	n/a	n/a	302.639	AM23ANS.jpg
273.771	0.514	Blank	Blank	82.119	n/a	3	7	13	n/a	13	n/a	3	n/a	n/a	n/a	n/a	303.136	n/a
274.301	0.497	happy	Picture	81.605	n/a	3	7	14	n/a	14	97	3	n/a	n/a	n/a	n/a	303.666	BF28ANS.jpg
274.799	0.514	Blank	Blank	81.091	n/a	3	7	14	n/a	14	n/a	3	n/a	n/a	n/a	n/a	304.164	n/a
275.329	0.497	happy	Picture	80.577	n/a	3	7	15	n/a	15	82	3	n/a	n/a	n/a	n/a	304.694	AF03ANS.jpg
275.827	0.514	Blank	Blank	80.063	n/a	3	7	15	n/a	15	n/a	3	n/a	n/a	n/a	n/a	305.192	n/a
276.357	0.497	happy	Picture	79.549	n/a	3	7	16	n/a	16	96	3	n/a	n/a	n/a	n/a	305.722	AF26ANS.jpg
276.854	0.514	Blank	Blank	79.035	n/a	3	7	16	n/a	16	n/a	3	n/a	n/a	n/a	n/a	306.219	n/a
277.385	0.497	happy	Picture	78.521	n/a	3	7	17	n/a	17	109	3	n/a	n/a	n/a	n/a	306.75	AM10ANS.jpg
277.882	0.514	Blank	Blank	78.007	n/a	3	7	17	n/a	17	n/a	3	n/a	n/a	n/a	n/a	307.247	n/a
278.413	0.497	happy	Picture	77.494	n/a	3	7	18	n/a	18	114	3	n/a	n/a	n/a	n/a	307.778	AM22ANS.jpg
278.91	0.514	Blank	Blank	76.98	n/a	3	7	18	n/a	18	n/a	3	n/a	n/a	n/a	n/a	308.275	n/a
279.441	0.497	happy	Picture	76.466	n/a	3	7	19	n/a	19	120	3	n/a	n/a	n/a	n/a	308.806	AM35ANS.jpg
279.938	0.514	Blank	Blank	75.952	n/a	3	7	19	n/a	19	n/a	3	n/a	n/a	n/a	n/a	309.303	n/a
280.469	0.497	happy	Picture	75.438	n/a	3	7	20	n/a	20	81	3	n/a	n/a	n/a	n/a	309.834	AF01ANS.jpg
280.966	0.514	Blank	Blank	74.924	n/a	3	7	20	n/a	20	n/a	3	n/a	n/a	n/a	n/a	310.331	n/a
281.496	10.014	ITI	Fixation+	64.894	n/a	3	n/a	n/a	n/a	n/a	n/a	n/a	n/a	n/a	n/a	n/a	310.861	n/a
291.526	0.497	neutral	Picture	64.38	n/a	3	8	1	n/a	21	28	1	n/a	n/a	n/a	n/a	320.892	AM09NES.jpg
292.024	0.514	Blank	Blank	63.866	n/a	3	8	1	n/a	21	n/a	1	n/a	n/a	n/a	n/a	321.389	n/a
292.554	0.497	neutral	Picture	63.352	n/a	3	8	2	n/a	22	27	1	n/a	n/a	n/a	n/a	321.92	BM08NES.jpg
293.052	0.514	Blank	Blank	62.838	n/a	3	8	2	n/a	22	n/a	1	n/a	n/a	n/a	n/a	322.417	n/a
293.582	0.497	neutral	Picture	62.324	n/a	3	8	3	n/a	23	16	1	n/a	n/a	n/a	n/a	322.947	AF26NES.jpg
294.08	0.514	Blank	Blank	61.81	n/a	3	8	3	n/a	23	n/a	1	n/a	n/a	n/a	n/a	323.445	n/a
294.61	0.497	neutral	Picture	61.296	n/a	3	8	4	n/a	24	3	1	n/a	n/a	n/a	n/a	323.975	BF04NES.jpg
295.108	0.514	Blank	Blank	60.782	n/a	3	8	4	n/a	24	n/a	1	n/a	n/a	n/a	n/a	324.473	n/a
295.638	0.497	neutral	Picture	60.268	n/a	3	8	5	n/a	25	32	1	n/a	n/a	n/a	n/a	325.003	AM14NES.jpg
296.135	0.514	Blank	Blank	59.754	n/a	3	8	5	n/a	25	n/a	1	n/a	n/a	n/a	n/a	325.5	n/a
296.666	0.497	neutral	Picture	59.24	n/a	3	8	6	n/a	26	37	1	n/a	n/a	n/a	n/a	326.031	BM25NES.jpg
297.163	0.514	Blank	Blank	58.727	n/a	3	8	6	n/a	26	n/a	1	n/a	n/a	n/a	n/a	326.528	n/a
297.694	0.497	neutral	Picture	58.213	n/a	3	8	7	n/a	27	15	1	n/a	n/a	n/a	n/a	327.059	AF25NES.jpg
298.191	0.514	Blank	Blank	57.699	n/a	3	8	7	n/a	27	n/a	1	n/a	n/a	n/a	n/a	327.556	n/a
298.722	0.497	neutral	Picture	57.185	n/a	3	8	8	n/a	28	23	1	n/a	n/a	n/a	n/a	328.087	AM04NES.jpg
299.219	0.514	Blank	Blank	56.671	n/a	3	8	8	n/a	28	n/a	1	n/a	n/a	n/a	n/a	328.584	n/a
299.75	0.497	neutral	Picture	56.157	n/a	3	8	9	n/a	29	34	1	n/a	n/a	n/a	n/a	329.115	AM22NES.jpg
300.247	0.514	Blank	Blank	55.643	n/a	3	8	9	n/a	29	n/a	1	n/a	n/a	n/a	n/a	329.612	n/a
300.777	0.497	neutral	Picture	55.129	n/a	3	8	10	n/a	30	24	1	n/a	n/a	n/a	n/a	330.142	BM05NES.jpg
301.275	0.514	Blank	Blank	54.615	n/a	3	8	10	n/a	30	n/a	1	n/a	n/a	n/a	n/a	330.64	n/a
301.805	0.497	neutral	Picture	54.101	n/a	3	8	11	n/a	31	12	1	n/a	n/a	n/a	n/a	331.17	AF21NES.jpg
302.303	0.514	Blank	Blank	53.587	n/a	3	8	11	n/a	31	n/a	1	n/a	n/a	n/a	n/a	331.668	n/a
302.833	0.497	neutral	Picture	53.073	n/a	3	8	12	n/a	32	6	1	n/a	n/a	n/a	n/a	332.198	AF09NES.jpg
303.331	0.514	Blank	Blank	52.559	n/a	3	8	12	n/a	32	n/a	1	n/a	n/a	n/a	n/a	332.696	n/a
303.861	0.497	neutral	Picture	52.045	n/a	3	8	13	n/a	33	17	1	n/a	n/a	n/a	n/a	333.226	BF28NES.jpg
304.358	0.514	Blank	Blank	51.531	n/a	3	8	13	n/a	33	n/a	1	n/a	n/a	n/a	n/a	333.724	n/a
304.889	0.497	neutral	Picture	51.017	n/a	3	8	14	n/a	34	2	1	n/a	n/a	n/a	n/a	334.254	AF03NES.jpg
305.386	0.514	Blank	Blank	50.504	n/a	3	8	14	n/a	34	n/a	1	n/a	n/a	n/a	n/a	334.751	n/a
305.917	0.497	neutral	Picture	49.989	n/a	3	8	15	n/a	35	9	1	n/a	n/a	n/a	n/a	335.282	AF17NES.jpg
306.414	0.514	Blank	Blank	49.476	n/a	3	8	15	n/a	35	n/a	1	n/a	n/a	n/a	n/a	335.779	n/a
306.945	0.497	neutral	Picture	48.962	n/a	3	8	16	n/a	36	25	1	n/a	n/a	n/a	n/a	336.31	BM06NES.jpg
307.442	0.514	Blank	Blank	48.448	n/a	3	8	16	n/a	36	n/a	1	n/a	n/a	n/a	n/a	336.807	n/a
307.973	0.497	neutral	Picture	47.934	n/a	3	8	17	n/a	37	8	1	n/a	n/a	n/a	n/a	337.338	AF14NES.jpg
308.47	0.514	Blank	Blank	47.42	n/a	3	8	17	n/a	37	n/a	1	n/a	n/a	n/a	n/a	337.835	n/a
309.0	0.497	neutral	Picture	46.906	n/a	3	8	18	n/a	38	19	1	n/a	n/a	n/a	n/a	338.365	AF31NES.jpg
309.498	0.514	Blank	Blank	46.392	n/a	3	8	18	n/a	38	n/a	1	n/a	n/a	n/a	n/a	338.863	n/a
310.028	0.497	neutral	Picture	45.878	n/a	3	8	19	n/a	39	14	1	n/a	n/a	n/a	n/a	339.393	AF23NES.jpg
310.526	0.514	Blank	Blank	45.364	n/a	3	8	19	n/a	39	n/a	1	n/a	n/a	n/a	n/a	339.891	n/a
311.056	0.497	neutral	Picture	44.85	n/a	3	8	20	n/a	40	4	1	n/a	n/a	n/a	n/a	340.421	AF05NES.jpg
311.554	0.514	Blank	Blank	44.336	n/a	3	8	20	n/a	40	n/a	1	n/a	n/a	n/a	n/a	340.919	n/a
312.084	10.014	ITI	Fixation+	34.306	n/a	3	n/a	n/a	n/a	n/a	n/a	n/a	n/a	n/a	n/a	n/a	341.449	n/a
322.114	0.497	happy	Picture	33.792	n/a	3	9	1	n/a	41	84	3	n/a	n/a	n/a	n/a	351.479	AF05ANS.jpg
322.612	0.514	Blank	Blank	33.278	n/a	3	9	1	n/a	41	n/a	3	n/a	n/a	n/a	n/a	351.977	n/a
323.142	0.497	happy	Picture	32.764	n/a	3	9	2	n/a	42	92	3	n/a	n/a	n/a	n/a	352.507	AF21ANS.jpg
323.639	0.514	Blank	Blank	32.25	n/a	3	9	2	n/a	42	n/a	3	n/a	n/a	n/a	n/a	353.005	n/a
324.17	0.497	happy	Picture	31.736	n/a	3	9	3	n/a	43	86	3	n/a	n/a	n/a	n/a	353.535	AF09ANS.jpg
324.667	0.514	Blank	Blank	31.223	n/a	3	9	3	n/a	43	n/a	3	n/a	n/a	n/a	n/a	354.032	n/a
325.198	0.497	happy	Picture	30.708	n/a	3	9	4	n/a	44	93	3	n/a	n/a	n/a	n/a	354.563	BF22ANS.jpg
325.695	0.514	Blank	Blank	30.195	n/a	3	9	4	n/a	44	n/a	3	n/a	n/a	n/a	n/a	355.06	n/a
326.226	0.497	happy	Picture	29.681	n/a	3	9	5	n/a	45	88	3	n/a	n/a	n/a	n/a	355.591	AF14ANS.jpg
326.723	0.514	Blank	Blank	29.167	n/a	3	9	5	n/a	45	n/a	3	n/a	n/a	n/a	n/a	356.088	n/a
327.254	0.497	happy	Picture	28.653	n/a	3	9	6	n/a	46	113	3	n/a	n/a	n/a	n/a	356.619	AM21ANS.jpg
327.751	0.514	Blank	Blank	28.139	n/a	3	9	6	n/a	46	n/a	3	n/a	n/a	n/a	n/a	357.116	n/a
328.281	0.497	happy	Picture	27.625	n/a	3	9	7	n/a	47	95	3	n/a	n/a	n/a	n/a	357.647	AF25ANS.jpg
328.779	0.514	Blank	Blank	27.111	n/a	3	9	7	n/a	47	n/a	3	n/a	n/a	n/a	n/a	358.144	n/a
329.309	0.497	happy	Picture	26.597	n/a	3	9	8	n/a	48	102	3	n/a	n/a	n/a	n/a	358.674	BM03ANS.jpg
329.807	0.514	Blank	Blank	26.083	n/a	3	9	8	n/a	48	n/a	3	n/a	n/a	n/a	n/a	359.172	n/a
330.337	0.497	happy	Picture	25.569	n/a	3	9	9	n/a	49	112	3	n/a	n/a	n/a	n/a	359.702	AM14ANS.jpg
330.835	0.514	Blank	Blank	25.055	n/a	3	9	9	n/a	49	n/a	3	n/a	n/a	n/a	n/a	360.2	n/a
331.365	0.497	happy	Picture	24.541	n/a	3	9	10	n/a	50	83	3	n/a	n/a	n/a	n/a	360.73	BF04ANS.jpg
331.862	0.514	Blank	Blank	24.027	n/a	3	9	10	n/a	50	n/a	3	n/a	n/a	n/a	n/a	361.228	n/a
332.393	0.497	happy	Picture	23.513	n/a	3	9	11	n/a	51	90	3	n/a	n/a	n/a	n/a	361.758	AF18ANS.jpg
332.89	0.514	Blank	Blank	22.999	n/a	3	9	11	n/a	51	n/a	3	n/a	n/a	n/a	n/a	362.255	n/a
333.421	0.497	happy	Picture	22.485	n/a	3	9	12	n/a	52	117	3	n/a	n/a	n/a	n/a	362.786	BM25ANS.jpg
333.918	0.514	Blank	Blank	21.972	n/a	3	9	12	n/a	52	n/a	3	n/a	n/a	n/a	n/a	363.283	n/a
334.449	0.497	happy	Picture	21.458	n/a	3	9	13	n/a	53	94	3	n/a	n/a	n/a	n/a	363.814	AF23ANS.jpg
334.946	0.514	Blank	Blank	20.944	n/a	3	9	13	n/a	53	n/a	3	n/a	n/a	n/a	n/a	364.311	n/a
335.477	0.497	happy	Picture	20.43	n/a	3	9	14	n/a	54	106	3	n/a	n/a	n/a	n/a	364.842	AM07ANS.jpg
335.974	0.514	Blank	Blank	19.916	n/a	3	9	14	n/a	54	n/a	3	n/a	n/a	n/a	n/a	365.339	n/a
336.505	0.497	happy	Picture	19.402	n/a	3	9	15	n/a	55	105	3	n/a	n/a	n/a	n/a	365.87	BM06ANS.jpg
337.002	0.514	Blank	Blank	18.888	n/a	3	9	15	n/a	55	n/a	3	n/a	n/a	n/a	n/a	366.367	n/a
337.532	0.497	happy	Picture	18.374	n/a	3	9	16	n/a	56	116	3	n/a	n/a	n/a	n/a	366.897	BM24ANS.jpg
338.03	0.514	Blank	Blank	17.86	n/a	3	9	16	n/a	56	n/a	3	n/a	n/a	n/a	n/a	367.395	n/a
338.56	0.497	happy	Picture	17.346	n/a	3	9	17	n/a	57	89	3	n/a	n/a	n/a	n/a	367.925	AF17ANS.jpg
339.058	0.514	Blank	Blank	16.832	n/a	3	9	17	n/a	57	n/a	3	n/a	n/a	n/a	n/a	368.423	n/a
339.588	0.497	happy	Picture	16.318	n/a	3	9	18	n/a	58	118	3	n/a	n/a	n/a	n/a	368.953	BM26ANS.jpg
340.086	0.514	Blank	Blank	15.804	n/a	3	9	18	n/a	58	n/a	3	n/a	n/a	n/a	n/a	369.451	n/a
340.616	0.497	happy	Picture	15.29	n/a	3	9	19	n/a	59	100	3	n/a	n/a	n/a	n/a	369.981	AF32ANS.jpg
341.113	0.514	Blank	Blank	14.776	n/a	3	9	19	n/a	59	n/a	3	n/a	n/a	n/a	n/a	370.478	n/a
341.644	0.497	happy	Picture	14.262	n/a	3	9	20	n/a	60	119	3	n/a	n/a	n/a	n/a	371.009	BM28ANS.jpg
342.141	0.514	Blank	Blank	13.748	n/a	3	9	20	n/a	60	n/a	3	n/a	n/a	n/a	n/a	371.506	n/a
342.672	10.014	ITI	Fixation+	3.718	n/a	3	n/a	n/a	n/a	n/a	n/a	n/a	n/a	n/a	n/a	n/a	372.037	n/a
356.404	n/a	ConfirmRating	Rate	n/a	3.713	3	n/a	n/a	0	n/a	n/a	n/a	2	Happy	42	49	385.769	n/a
365.74	n/a	ConfirmRating	Rate	n/a	9.317	3	n/a	n/a	1	n/a	n/a	n/a	3	Happy	6	47	395.105	n/a
365.766	10.014	ITI	Fixation+	98.973	n/a	4	n/a	n/a	n/a	n/a	n/a	n/a	n/a	n/a	n/a	n/a	395.131	n/a
375.796	0.497	angry	Picture	98.459	n/a	4	10	1	n/a	61	79	2	n/a	n/a	n/a	n/a	405.161	BM28HAS.jpg
376.293	0.514	Blank	Blank	97.945	n/a	4	10	1	n/a	61	n/a	2	n/a	n/a	n/a	n/a	405.658	n/a
376.824	0.497	angry	Picture	97.431	n/a	4	10	2	n/a	62	61	2	n/a	n/a	n/a	n/a	406.189	AM01HAS.jpg
377.321	0.514	Blank	Blank	96.917	n/a	4	10	2	n/a	62	n/a	2	n/a	n/a	n/a	n/a	406.686	n/a
377.852	0.497	angry	Picture	96.403	n/a	4	10	3	n/a	63	57	2	n/a	n/a	n/a	n/a	407.217	BF28HAS.jpg
378.349	0.514	Blank	Blank	95.889	n/a	4	10	3	n/a	63	n/a	2	n/a	n/a	n/a	n/a	407.714	n/a
378.88	0.497	angry	Picture	95.375	n/a	4	10	4	n/a	64	77	2	n/a	n/a	n/a	n/a	408.245	BM25HAS.jpg
379.377	0.514	Blank	Blank	94.861	n/a	4	10	4	n/a	64	n/a	2	n/a	n/a	n/a	n/a	408.742	n/a
379.908	0.497	angry	Picture	94.347	n/a	4	10	5	n/a	65	47	2	n/a	n/a	n/a	n/a	409.273	BF11HAS.jpg
380.405	0.514	Blank	Blank	93.833	n/a	4	10	5	n/a	65	n/a	2	n/a	n/a	n/a	n/a	409.77	n/a
380.935	0.497	angry	Picture	93.319	n/a	4	10	6	n/a	66	50	2	n/a	n/a	n/a	n/a	410.3	AF18HAS.jpg
381.433	0.514	Blank	Blank	92.805	n/a	4	10	6	n/a	66	n/a	2	n/a	n/a	n/a	n/a	410.798	n/a
381.963	0.497	angry	Picture	92.291	n/a	4	10	7	n/a	67	78	2	n/a	n/a	n/a	n/a	411.328	BM26HAS.jpg
382.461	0.514	Blank	Blank	91.778	n/a	4	10	7	n/a	67	n/a	2	n/a	n/a	n/a	n/a	411.826	n/a
382.991	0.497	angry	Picture	91.264	n/a	4	10	8	n/a	68	45	2	n/a	n/a	n/a	n/a	412.356	BF07HAS.jpg
383.488	0.514	Blank	Blank	90.75	n/a	4	10	8	n/a	68	n/a	2	n/a	n/a	n/a	n/a	412.853	n/a
384.019	0.497	angry	Picture	90.236	n/a	4	10	9	n/a	69	56	2	n/a	n/a	n/a	n/a	413.384	AF26HAS.jpg
384.516	0.514	Blank	Blank	89.722	n/a	4	10	9	n/a	69	n/a	2	n/a	n/a	n/a	n/a	413.881	n/a
385.047	0.497	angry	Picture	89.208	n/a	4	10	10	n/a	70	65	2	n/a	n/a	n/a	n/a	414.412	BM06HAS.jpg
385.544	0.514	Blank	Blank	88.694	n/a	4	10	10	n/a	70	n/a	2	n/a	n/a	n/a	n/a	414.909	n/a
386.075	0.497	angry	Picture	88.18	n/a	4	10	11	n/a	71	73	2	n/a	n/a	n/a	n/a	415.44	AM21HAS.jpg
386.572	0.514	Blank	Blank	87.666	n/a	4	10	11	n/a	71	n/a	2	n/a	n/a	n/a	n/a	415.937	n/a
387.103	0.497	angry	Picture	87.152	n/a	4	10	12	n/a	72	41	2	n/a	n/a	n/a	n/a	416.468	AF01HAS.jpg
387.6	0.514	Blank	Blank	86.638	n/a	4	10	12	n/a	72	n/a	2	n/a	n/a	n/a	n/a	416.965	n/a
388.131	0.497	angry	Picture	86.124	n/a	4	10	13	n/a	73	59	2	n/a	n/a	n/a	n/a	417.496	AF31HAS.jpg
388.628	0.514	Blank	Blank	85.61	n/a	4	10	13	n/a	73	n/a	2	n/a	n/a	n/a	n/a	417.993	n/a
389.158	0.497	angry	Picture	85.096	n/a	4	10	14	n/a	74	64	2	n/a	n/a	n/a	n/a	418.524	BM05HAS.jpg
389.656	0.514	Blank	Blank	84.582	n/a	4	10	14	n/a	74	n/a	2	n/a	n/a	n/a	n/a	419.021	n/a
390.186	0.497	angry	Picture	84.068	n/a	4	10	15	n/a	75	68	2	n/a	n/a	n/a	n/a	419.551	AM09HAS.jpg
390.684	0.514	Blank	Blank	83.555	n/a	4	10	15	n/a	75	n/a	2	n/a	n/a	n/a	n/a	420.049	n/a
391.214	0.497	angry	Picture	83.04	n/a	4	10	16	n/a	76	54	2	n/a	n/a	n/a	n/a	420.579	AF23HAS.jpg
391.712	0.514	Blank	Blank	82.527	n/a	4	10	16	n/a	76	n/a	2	n/a	n/a	n/a	n/a	421.077	n/a
392.242	0.497	angry	Picture	82.013	n/a	4	10	17	n/a	77	53	2	n/a	n/a	n/a	n/a	421.607	BF22HAS.jpg
392.739	0.514	Blank	Blank	81.499	n/a	4	10	17	n/a	77	n/a	2	n/a	n/a	n/a	n/a	422.104	n/a
393.27	0.497	angry	Picture	80.985	n/a	4	10	18	n/a	78	44	2	n/a	n/a	n/a	n/a	422.635	AF05HAS.jpg
393.767	0.514	Blank	Blank	80.471	n/a	4	10	18	n/a	78	n/a	2	n/a	n/a	n/a	n/a	423.132	n/a
394.298	0.497	angry	Picture	79.957	n/a	4	10	19	n/a	79	52	2	n/a	n/a	n/a	n/a	423.663	AF21HAS.jpg
394.795	0.514	Blank	Blank	79.443	n/a	4	10	19	n/a	79	n/a	2	n/a	n/a	n/a	n/a	424.16	n/a
395.326	0.497	angry	Picture	78.929	n/a	4	10	20	n/a	80	62	2	n/a	n/a	n/a	n/a	424.691	BM03HAS.jpg
395.823	0.514	Blank	Blank	78.415	n/a	4	10	20	n/a	80	n/a	2	n/a	n/a	n/a	n/a	425.188	n/a
396.353	10.014	ITI	Fixation+	68.385	n/a	4	n/a	n/a	n/a	n/a	n/a	n/a	n/a	n/a	n/a	n/a	425.719	n/a
406.384	0.497	neutral	Picture	67.871	n/a	4	11	1	n/a	81	23	1	n/a	n/a	n/a	n/a	435.749	AM04NES.jpg
406.881	0.514	Blank	Blank	67.357	n/a	4	11	1	n/a	81	n/a	1	n/a	n/a	n/a	n/a	436.246	n/a
407.411	0.497	neutral	Picture	66.843	n/a	4	11	2	n/a	82	29	1	n/a	n/a	n/a	n/a	436.777	AM10NES.jpg
407.909	0.514	Blank	Blank	66.329	n/a	4	11	2	n/a	82	n/a	1	n/a	n/a	n/a	n/a	437.274	n/a
408.439	0.497	neutral	Picture	65.815	n/a	4	11	3	n/a	83	24	1	n/a	n/a	n/a	n/a	437.805	BM05NES.jpg
408.937	0.514	Blank	Blank	65.301	n/a	4	11	3	n/a	83	n/a	1	n/a	n/a	n/a	n/a	438.302	n/a
409.467	0.497	neutral	Picture	64.787	n/a	4	11	4	n/a	84	12	1	n/a	n/a	n/a	n/a	438.832	AF21NES.jpg
409.965	0.514	Blank	Blank	64.274	n/a	4	11	4	n/a	84	n/a	1	n/a	n/a	n/a	n/a	439.33	n/a
410.495	0.497	neutral	Picture	63.759	n/a	4	11	5	n/a	85	13	1	n/a	n/a	n/a	n/a	439.86	BF22NES.jpg
410.993	0.514	Blank	Blank	63.246	n/a	4	11	5	n/a	85	n/a	1	n/a	n/a	n/a	n/a	440.358	n/a
411.523	0.497	neutral	Picture	62.732	n/a	4	11	6	n/a	86	17	1	n/a	n/a	n/a	n/a	440.888	BF28NES.jpg
412.02	0.514	Blank	Blank	62.218	n/a	4	11	6	n/a	86	n/a	1	n/a	n/a	n/a	n/a	441.385	n/a
412.551	0.497	neutral	Picture	61.704	n/a	4	11	7	n/a	87	4	1	n/a	n/a	n/a	n/a	441.916	AF05NES.jpg
413.048	0.514	Blank	Blank	61.19	n/a	4	11	7	n/a	87	n/a	1	n/a	n/a	n/a	n/a	442.413	n/a
413.579	0.497	neutral	Picture	60.676	n/a	4	11	8	n/a	88	11	1	n/a	n/a	n/a	n/a	442.944	AF20NES.jpg
414.076	0.514	Blank	Blank	60.162	n/a	4	11	8	n/a	88	n/a	1	n/a	n/a	n/a	n/a	443.441	n/a
414.607	0.497	neutral	Picture	59.648	n/a	4	11	9	n/a	89	22	1	n/a	n/a	n/a	n/a	443.972	BM03NES.jpg
415.104	0.514	Blank	Blank	59.134	n/a	4	11	9	n/a	89	n/a	1	n/a	n/a	n/a	n/a	444.469	n/a
415.635	0.497	neutral	Picture	58.62	n/a	4	11	10	n/a	90	15	1	n/a	n/a	n/a	n/a	445.0	AF25NES.jpg
416.132	0.514	Blank	Blank	58.106	n/a	4	11	10	n/a	90	n/a	1	n/a	n/a	n/a	n/a	445.497	n/a
416.662	0.497	neutral	Picture	57.592	n/a	4	11	11	n/a	91	19	1	n/a	n/a	n/a	n/a	446.027	AF31NES.jpg
417.16	0.514	Blank	Blank	57.078	n/a	4	11	11	n/a	91	n/a	1	n/a	n/a	n/a	n/a	446.525	n/a
417.69	0.497	neutral	Picture	56.564	n/a	4	11	12	n/a	92	9	1	n/a	n/a	n/a	n/a	447.055	AF17NES.jpg
418.188	0.514	Blank	Blank	56.05	n/a	4	11	12	n/a	92	n/a	1	n/a	n/a	n/a	n/a	447.553	n/a
418.718	0.497	neutral	Picture	55.536	n/a	4	11	13	n/a	93	14	1	n/a	n/a	n/a	n/a	448.083	AF23NES.jpg
419.216	0.514	Blank	Blank	55.023	n/a	4	11	13	n/a	93	n/a	1	n/a	n/a	n/a	n/a	448.581	n/a
419.746	0.497	neutral	Picture	54.509	n/a	4	11	14	n/a	94	36	1	n/a	n/a	n/a	n/a	449.111	BM24NES.jpg
420.243	0.514	Blank	Blank	53.995	n/a	4	11	14	n/a	94	n/a	1	n/a	n/a	n/a	n/a	449.608	n/a
420.774	0.497	neutral	Picture	53.481	n/a	4	11	15	n/a	95	34	1	n/a	n/a	n/a	n/a	450.139	AM22NES.jpg
421.271	0.514	Blank	Blank	52.967	n/a	4	11	15	n/a	95	n/a	1	n/a	n/a	n/a	n/a	450.636	n/a
421.802	0.497	neutral	Picture	52.453	n/a	4	11	16	n/a	96	10	1	n/a	n/a	n/a	n/a	451.167	AF18NES.jpg
422.299	0.514	Blank	Blank	51.939	n/a	4	11	16	n/a	96	n/a	1	n/a	n/a	n/a	n/a	451.664	n/a
422.83	0.497	neutral	Picture	51.425	n/a	4	11	17	n/a	97	5	1	n/a	n/a	n/a	n/a	452.195	BF07NES.jpg
423.327	0.514	Blank	Blank	50.911	n/a	4	11	17	n/a	97	n/a	1	n/a	n/a	n/a	n/a	452.692	n/a
423.858	0.497	neutral	Picture	50.397	n/a	4	11	18	n/a	98	25	1	n/a	n/a	n/a	n/a	453.223	BM06NES.jpg
424.355	0.514	Blank	Blank	49.883	n/a	4	11	18	n/a	98	n/a	1	n/a	n/a	n/a	n/a	453.72	n/a
424.885	0.497	neutral	Picture	49.369	n/a	4	11	19	n/a	99	39	1	n/a	n/a	n/a	n/a	454.25	AM28NES.jpg
425.383	0.514	Blank	Blank	48.855	n/a	4	11	19	n/a	99	n/a	1	n/a	n/a	n/a	n/a	454.748	n/a
425.913	0.497	neutral	Picture	48.341	n/a	4	11	20	n/a	100	33	1	n/a	n/a	n/a	n/a	455.278	AM21NES.jpg
426.411	0.514	Blank	Blank	47.827	n/a	4	11	20	n/a	100	n/a	1	n/a	n/a	n/a	n/a	455.776	n/a
426.941	10.014	ITI	Fixation+	37.797	n/a	4	n/a	n/a	n/a	n/a	n/a	n/a	n/a	n/a	n/a	n/a	456.306	n/a
436.971	0.497	angry	Picture	37.283	n/a	4	12	1	n/a	101	74	2	n/a	n/a	n/a	n/a	466.336	AM22HAS.jpg
437.469	0.514	Blank	Blank	36.769	n/a	4	12	1	n/a	101	n/a	2	n/a	n/a	n/a	n/a	466.834	n/a
437.999	0.497	angry	Picture	36.255	n/a	4	12	2	n/a	102	76	2	n/a	n/a	n/a	n/a	467.364	BM24HAS.jpg
438.497	0.514	Blank	Blank	35.742	n/a	4	12	2	n/a	102	n/a	2	n/a	n/a	n/a	n/a	467.862	n/a
439.027	0.497	angry	Picture	35.228	n/a	4	12	3	n/a	103	80	2	n/a	n/a	n/a	n/a	468.392	BM35HAS.jpg
439.524	0.514	Blank	Blank	34.714	n/a	4	12	3	n/a	103	n/a	2	n/a	n/a	n/a	n/a	468.889	n/a
440.055	0.497	angry	Picture	34.2	n/a	4	12	4	n/a	104	75	2	n/a	n/a	n/a	n/a	469.42	AM23HAS.jpg
440.552	0.514	Blank	Blank	33.686	n/a	4	12	4	n/a	104	n/a	2	n/a	n/a	n/a	n/a	469.917	n/a
441.083	0.497	angry	Picture	33.172	n/a	4	12	5	n/a	105	49	2	n/a	n/a	n/a	n/a	470.448	AF17HAS.jpg
441.58	0.514	Blank	Blank	32.658	n/a	4	12	5	n/a	105	n/a	2	n/a	n/a	n/a	n/a	470.945	n/a
442.111	0.497	angry	Picture	32.144	n/a	4	12	6	n/a	106	43	2	n/a	n/a	n/a	n/a	471.476	BF04HAS.jpg
442.608	0.514	Blank	Blank	31.63	n/a	4	12	6	n/a	106	n/a	2	n/a	n/a	n/a	n/a	471.973	n/a
443.139	0.497	angry	Picture	31.116	n/a	4	12	7	n/a	107	70	2	n/a	n/a	n/a	n/a	472.504	BM11HAS.jpg
443.636	0.514	Blank	Blank	30.602	n/a	4	12	7	n/a	107	n/a	2	n/a	n/a	n/a	n/a	473.001	n/a
444.166	0.497	angry	Picture	30.088	n/a	4	12	8	n/a	108	66	2	n/a	n/a	n/a	n/a	473.531	BM07HAS.jpg
444.664	0.514	Blank	Blank	29.574	n/a	4	12	8	n/a	108	n/a	2	n/a	n/a	n/a	n/a	474.029	n/a
445.194	0.497	angry	Picture	29.06	n/a	4	12	9	n/a	109	48	2	n/a	n/a	n/a	n/a	474.559	AF14HAS.jpg
445.692	0.514	Blank	Blank	28.546	n/a	4	12	9	n/a	109	n/a	2	n/a	n/a	n/a	n/a	475.057	n/a
446.222	0.497	angry	Picture	28.032	n/a	4	12	10	n/a	110	58	2	n/a	n/a	n/a	n/a	475.587	BF29HAS.jpg
446.72	0.514	Blank	Blank	27.518	n/a	4	12	10	n/a	110	n/a	2	n/a	n/a	n/a	n/a	476.085	n/a
447.25	0.497	angry	Picture	27.005	n/a	4	12	11	n/a	111	63	2	n/a	n/a	n/a	n/a	476.615	AM04HAS.jpg
447.747	0.514	Blank	Blank	26.491	n/a	4	12	11	n/a	111	n/a	2	n/a	n/a	n/a	n/a	477.113	n/a
448.278	0.497	angry	Picture	25.977	n/a	4	12	12	n/a	112	72	2	n/a	n/a	n/a	n/a	477.643	AM14HAS.jpg
448.775	0.514	Blank	Blank	25.463	n/a	4	12	12	n/a	112	n/a	2	n/a	n/a	n/a	n/a	478.14	n/a
449.306	0.497	angry	Picture	24.949	n/a	4	12	13	n/a	113	55	2	n/a	n/a	n/a	n/a	478.671	AF25HAS.jpg
449.803	0.514	Blank	Blank	24.435	n/a	4	12	13	n/a	113	n/a	2	n/a	n/a	n/a	n/a	479.168	n/a
450.334	0.497	angry	Picture	23.921	n/a	4	12	14	n/a	114	42	2	n/a	n/a	n/a	n/a	479.699	AF03HAS.jpg
450.831	0.514	Blank	Blank	23.407	n/a	4	12	14	n/a	114	n/a	2	n/a	n/a	n/a	n/a	480.196	n/a
451.362	0.497	angry	Picture	22.893	n/a	4	12	15	n/a	115	60	2	n/a	n/a	n/a	n/a	480.727	AF32HAS.jpg
451.859	0.514	Blank	Blank	22.379	n/a	4	12	15	n/a	115	n/a	2	n/a	n/a	n/a	n/a	481.224	n/a
452.389	0.497	angry	Picture	21.865	n/a	4	12	16	n/a	116	67	2	n/a	n/a	n/a	n/a	481.755	BM08HAS.jpg
452.887	0.514	Blank	Blank	21.351	n/a	4	12	16	n/a	116	n/a	2	n/a	n/a	n/a	n/a	482.252	n/a
453.417	0.497	angry	Picture	20.837	n/a	4	12	17	n/a	117	51	2	n/a	n/a	n/a	n/a	482.782	AF20HAS.jpg
453.915	0.514	Blank	Blank	20.323	n/a	4	12	17	n/a	117	n/a	2	n/a	n/a	n/a	n/a	483.28	n/a
454.445	0.497	angry	Picture	19.809	n/a	4	12	18	n/a	118	71	2	n/a	n/a	n/a	n/a	483.81	BM12HAS.jpg
454.943	0.514	Blank	Blank	19.296	n/a	4	12	18	n/a	118	n/a	2	n/a	n/a	n/a	n/a	484.308	n/a
455.473	0.497	angry	Picture	18.782	n/a	4	12	19	n/a	119	69	2	n/a	n/a	n/a	n/a	484.838	AM10HAS.jpg
455.97	0.514	Blank	Blank	18.268	n/a	4	12	19	n/a	119	n/a	2	n/a	n/a	n/a	n/a	485.336	n/a
456.501	0.497	angry	Picture	17.754	n/a	4	12	20	n/a	120	46	2	n/a	n/a	n/a	n/a	485.866	AF09HAS.jpg
456.998	0.514	Blank	Blank	17.24	n/a	4	12	20	n/a	120	n/a	2	n/a	n/a	n/a	n/a	486.363	n/a
457.529	10.014	ITI	Fixation+	7.21	n/a	4	n/a	n/a	n/a	n/a	n/a	n/a	n/a	n/a	n/a	n/a	486.894	n/a
474.752	n/a	ConfirmRating	Rate	n/a	7.195	4	n/a	n/a	0	n/a	n/a	n/a	2	Angry	50	50	504.117	n/a
480.638	n/a	ConfirmRating	Rate	n/a	5.869	4	n/a	n/a	1	n/a	n/a	n/a	3	Angry	5	47	510.003	n/a
