onset	duration	trial_type	event_type	time_until_response	response_time	trial_number	block_num_within_trial	image_seq_num_within_block	question_seq_num_within_block	image_seq_num	picture_number	condition	question_type	block_type	rating	rating_computed	onset_uncorrected	KDEV_imagefile
0.013	10.014	ITI	Fixation+	96.786	n/a	1	n/a	n/a	n/a	n/a	n/a	n/a	n/a	n/a	n/a	n/a	30.417	n/a
10.043	0.497	happy	Picture	96.272	n/a	1	1	1	n/a	1	108	3	n/a	n/a	n/a	n/a	40.447	AM09ANS.jpg
10.541	0.514	Blank	Blank	95.759	n/a	1	1	1	n/a	1	n/a	3	n/a	n/a	n/a	n/a	40.944	n/a
11.071	0.497	happy	Picture	95.245	n/a	1	1	2	n/a	2	99	3	n/a	n/a	n/a	n/a	41.475	AF31ANS.jpg
11.569	0.514	Blank	Blank	94.731	n/a	1	1	2	n/a	2	n/a	3	n/a	n/a	n/a	n/a	41.972	n/a
12.099	0.497	happy	Picture	94.217	n/a	1	1	3	n/a	3	98	3	n/a	n/a	n/a	n/a	42.503	BF29ANS.jpg
12.597	0.514	Blank	Blank	93.703	n/a	1	1	3	n/a	3	n/a	3	n/a	n/a	n/a	n/a	43.0	n/a
13.127	0.497	happy	Picture	93.189	n/a	1	1	4	n/a	4	107	3	n/a	n/a	n/a	n/a	43.531	BM08ANS.jpg
13.624	0.514	Blank	Blank	92.675	n/a	1	1	4	n/a	4	n/a	3	n/a	n/a	n/a	n/a	44.028	n/a
14.155	0.497	happy	Picture	92.161	n/a	1	1	5	n/a	5	104	3	n/a	n/a	n/a	n/a	44.559	BM05ANS.jpg
14.652	0.514	Blank	Blank	91.647	n/a	1	1	5	n/a	5	n/a	3	n/a	n/a	n/a	n/a	45.056	n/a
15.183	0.497	happy	Picture	91.133	n/a	1	1	6	n/a	6	101	3	n/a	n/a	n/a	n/a	45.586	AM01ANS.jpg
15.68	0.514	Blank	Blank	90.619	n/a	1	1	6	n/a	6	n/a	3	n/a	n/a	n/a	n/a	46.084	n/a
16.211	0.497	happy	Picture	90.105	n/a	1	1	7	n/a	7	103	3	n/a	n/a	n/a	n/a	46.614	AM04ANS.jpg
16.708	0.514	Blank	Blank	89.591	n/a	1	1	7	n/a	7	n/a	3	n/a	n/a	n/a	n/a	47.112	n/a
17.239	0.497	happy	Picture	89.077	n/a	1	1	8	n/a	8	111	3	n/a	n/a	n/a	n/a	47.642	BM12ANS.jpg
17.736	0.514	Blank	Blank	88.563	n/a	1	1	8	n/a	8	n/a	3	n/a	n/a	n/a	n/a	48.14	n/a
18.266	0.497	happy	Picture	88.049	n/a	1	1	9	n/a	9	110	3	n/a	n/a	n/a	n/a	48.67	AM11ANS.jpg
18.764	0.514	Blank	Blank	87.535	n/a	1	1	9	n/a	9	n/a	3	n/a	n/a	n/a	n/a	49.167	n/a
19.294	0.497	happy	Picture	87.021	n/a	1	1	10	n/a	10	85	3	n/a	n/a	n/a	n/a	49.698	BF07ANS.jpg
19.792	0.514	Blank	Blank	86.508	n/a	1	1	10	n/a	10	n/a	3	n/a	n/a	n/a	n/a	50.195	n/a
20.322	0.497	happy	Picture	85.994	n/a	1	1	11	n/a	11	87	3	n/a	n/a	n/a	n/a	50.726	BF11ANS.jpg
20.82	0.514	Blank	Blank	85.48	n/a	1	1	11	n/a	11	n/a	3	n/a	n/a	n/a	n/a	51.223	n/a
21.35	0.497	happy	Picture	84.966	n/a	1	1	12	n/a	12	91	3	n/a	n/a	n/a	n/a	51.754	AF20ANS.jpg
21.848	0.514	Blank	Blank	84.452	n/a	1	1	12	n/a	12	n/a	3	n/a	n/a	n/a	n/a	52.251	n/a
22.378	0.497	happy	Picture	83.938	n/a	1	1	13	n/a	13	115	3	n/a	n/a	n/a	n/a	52.782	AM23ANS.jpg
22.875	0.514	Blank	Blank	83.424	n/a	1	1	13	n/a	13	n/a	3	n/a	n/a	n/a	n/a	53.279	n/a
23.406	0.497	happy	Picture	82.91	n/a	1	1	14	n/a	14	97	3	n/a	n/a	n/a	n/a	53.809	BF28ANS.jpg
23.903	0.514	Blank	Blank	82.396	n/a	1	1	14	n/a	14	n/a	3	n/a	n/a	n/a	n/a	54.307	n/a
24.434	0.497	happy	Picture	81.882	n/a	1	1	15	n/a	15	82	3	n/a	n/a	n/a	n/a	54.837	AF03ANS.jpg
24.931	0.514	Blank	Blank	81.368	n/a	1	1	15	n/a	15	n/a	3	n/a	n/a	n/a	n/a	55.335	n/a
25.462	0.497	happy	Picture	80.854	n/a	1	1	16	n/a	16	96	3	n/a	n/a	n/a	n/a	55.865	AF26ANS.jpg
25.959	0.514	Blank	Blank	80.34	n/a	1	1	16	n/a	16	n/a	3	n/a	n/a	n/a	n/a	56.363	n/a
26.49	0.497	happy	Picture	79.826	n/a	1	1	17	n/a	17	109	3	n/a	n/a	n/a	n/a	56.893	AM10ANS.jpg
26.987	0.514	Blank	Blank	79.312	n/a	1	1	17	n/a	17	n/a	3	n/a	n/a	n/a	n/a	57.391	n/a
27.518	0.497	happy	Picture	78.798	n/a	1	1	18	n/a	18	114	3	n/a	n/a	n/a	n/a	57.921	AM22ANS.jpg
28.015	0.514	Blank	Blank	78.284	n/a	1	1	18	n/a	18	n/a	3	n/a	n/a	n/a	n/a	58.419	n/a
28.545	0.497	happy	Picture	77.771	n/a	1	1	19	n/a	19	120	3	n/a	n/a	n/a	n/a	58.949	AM35ANS.jpg
29.043	0.514	Blank	Blank	77.257	n/a	1	1	19	n/a	19	n/a	3	n/a	n/a	n/a	n/a	59.446	n/a
29.573	0.497	happy	Picture	76.743	n/a	1	1	20	n/a	20	81	3	n/a	n/a	n/a	n/a	59.977	AF01ANS.jpg
30.071	0.514	Blank	Blank	76.229	n/a	1	1	20	n/a	20	n/a	3	n/a	n/a	n/a	n/a	60.474	n/a
30.601	10.014	ITI	Fixation+	66.198	n/a	1	n/a	n/a	n/a	n/a	n/a	n/a	n/a	n/a	n/a	n/a	61.005	n/a
40.631	0.497	neutral	Picture	65.685	n/a	1	2	1	n/a	21	28	1	n/a	n/a	n/a	n/a	71.035	AM09NES.jpg
41.129	0.514	Blank	Blank	65.171	n/a	1	2	1	n/a	21	n/a	1	n/a	n/a	n/a	n/a	71.532	n/a
41.659	0.497	neutral	Picture	64.657	n/a	1	2	2	n/a	22	27	1	n/a	n/a	n/a	n/a	72.063	BM08NES.jpg
42.157	0.514	Blank	Blank	64.143	n/a	1	2	2	n/a	22	n/a	1	n/a	n/a	n/a	n/a	72.56	n/a
42.687	0.497	neutral	Picture	63.629	n/a	1	2	3	n/a	23	16	1	n/a	n/a	n/a	n/a	73.091	AF26NES.jpg
43.184	0.514	Blank	Blank	63.115	n/a	1	2	3	n/a	23	n/a	1	n/a	n/a	n/a	n/a	73.588	n/a
43.715	0.497	neutral	Picture	62.601	n/a	1	2	4	n/a	24	3	1	n/a	n/a	n/a	n/a	74.119	BF04NES.jpg
44.212	0.514	Blank	Blank	62.087	n/a	1	2	4	n/a	24	n/a	1	n/a	n/a	n/a	n/a	74.616	n/a
44.743	0.497	neutral	Picture	61.573	n/a	1	2	5	n/a	25	32	1	n/a	n/a	n/a	n/a	75.147	AM14NES.jpg
45.24	0.514	Blank	Blank	61.059	n/a	1	2	5	n/a	25	n/a	1	n/a	n/a	n/a	n/a	75.644	n/a
45.771	0.497	neutral	Picture	60.545	n/a	1	2	6	n/a	26	37	1	n/a	n/a	n/a	n/a	76.174	BM25NES.jpg
46.268	0.514	Blank	Blank	60.031	n/a	1	2	6	n/a	26	n/a	1	n/a	n/a	n/a	n/a	76.672	n/a
46.799	0.497	neutral	Picture	59.517	n/a	1	2	7	n/a	27	15	1	n/a	n/a	n/a	n/a	77.202	AF25NES.jpg
47.296	0.514	Blank	Blank	59.003	n/a	1	2	7	n/a	27	n/a	1	n/a	n/a	n/a	n/a	77.7	n/a
47.826	0.497	neutral	Picture	58.489	n/a	1	2	8	n/a	28	23	1	n/a	n/a	n/a	n/a	78.23	AM04NES.jpg
48.324	0.514	Blank	Blank	57.975	n/a	1	2	8	n/a	28	n/a	1	n/a	n/a	n/a	n/a	78.728	n/a
48.854	0.497	neutral	Picture	57.461	n/a	1	2	9	n/a	29	34	1	n/a	n/a	n/a	n/a	79.258	AM22NES.jpg
49.352	0.514	Blank	Blank	56.948	n/a	1	2	9	n/a	29	n/a	1	n/a	n/a	n/a	n/a	79.755	n/a
49.882	0.497	neutral	Picture	56.434	n/a	1	2	10	n/a	30	24	1	n/a	n/a	n/a	n/a	80.286	BM05NES.jpg
50.38	0.514	Blank	Blank	55.92	n/a	1	2	10	n/a	30	n/a	1	n/a	n/a	n/a	n/a	80.783	n/a
50.91	0.497	neutral	Picture	55.406	n/a	1	2	11	n/a	31	12	1	n/a	n/a	n/a	n/a	81.314	AF21NES.jpg
51.408	0.514	Blank	Blank	54.892	n/a	1	2	11	n/a	31	n/a	1	n/a	n/a	n/a	n/a	81.811	n/a
51.938	0.497	neutral	Picture	54.378	n/a	1	2	12	n/a	32	6	1	n/a	n/a	n/a	n/a	82.342	AF09NES.jpg
52.436	0.514	Blank	Blank	53.864	n/a	1	2	12	n/a	32	n/a	1	n/a	n/a	n/a	n/a	82.839	n/a
52.966	0.497	neutral	Picture	53.35	n/a	1	2	13	n/a	33	17	1	n/a	n/a	n/a	n/a	83.37	BF28NES.jpg
53.463	0.514	Blank	Blank	52.836	n/a	1	2	13	n/a	33	n/a	1	n/a	n/a	n/a	n/a	83.867	n/a
53.994	0.497	neutral	Picture	52.322	n/a	1	2	14	n/a	34	2	1	n/a	n/a	n/a	n/a	84.397	AF03NES.jpg
54.491	0.513	Blank	Blank	51.809	n/a	1	2	14	n/a	34	n/a	1	n/a	n/a	n/a	n/a	84.895	n/a
55.022	0.497	neutral	Picture	51.294	n/a	1	2	15	n/a	35	9	1	n/a	n/a	n/a	n/a	85.425	AF17NES.jpg
55.519	0.514	Blank	Blank	50.78	n/a	1	2	15	n/a	35	n/a	1	n/a	n/a	n/a	n/a	85.923	n/a
56.05	0.497	neutral	Picture	50.266	n/a	1	2	16	n/a	36	25	1	n/a	n/a	n/a	n/a	86.453	BM06NES.jpg
56.547	0.514	Blank	Blank	49.752	n/a	1	2	16	n/a	36	n/a	1	n/a	n/a	n/a	n/a	86.951	n/a
57.078	0.497	neutral	Picture	49.238	n/a	1	2	17	n/a	37	8	1	n/a	n/a	n/a	n/a	87.481	AF14NES.jpg
57.575	0.514	Blank	Blank	48.724	n/a	1	2	17	n/a	37	n/a	1	n/a	n/a	n/a	n/a	87.978	n/a
58.105	0.497	neutral	Picture	48.21	n/a	1	2	18	n/a	38	19	1	n/a	n/a	n/a	n/a	88.509	AF31NES.jpg
58.603	0.514	Blank	Blank	47.697	n/a	1	2	18	n/a	38	n/a	1	n/a	n/a	n/a	n/a	89.006	n/a
59.133	0.497	neutral	Picture	47.183	n/a	1	2	19	n/a	39	14	1	n/a	n/a	n/a	n/a	89.537	AF23NES.jpg
59.631	0.514	Blank	Blank	46.669	n/a	1	2	19	n/a	39	n/a	1	n/a	n/a	n/a	n/a	90.034	n/a
60.161	0.497	neutral	Picture	46.155	n/a	1	2	20	n/a	40	4	1	n/a	n/a	n/a	n/a	90.565	AF05NES.jpg
60.659	0.514	Blank	Blank	45.641	n/a	1	2	20	n/a	40	n/a	1	n/a	n/a	n/a	n/a	91.062	n/a
61.189	10.014	ITI	Fixation+	35.611	n/a	1	n/a	n/a	n/a	n/a	n/a	n/a	n/a	n/a	n/a	n/a	91.593	n/a
71.219	0.497	happy	Picture	35.097	n/a	1	3	1	n/a	41	84	3	n/a	n/a	n/a	n/a	101.623	AF05ANS.jpg
71.717	0.514	Blank	Blank	34.583	n/a	1	3	1	n/a	41	n/a	3	n/a	n/a	n/a	n/a	102.12	n/a
72.247	0.497	happy	Picture	34.069	n/a	1	3	2	n/a	42	92	3	n/a	n/a	n/a	n/a	102.651	AF21ANS.jpg
72.745	0.514	Blank	Blank	33.555	n/a	1	3	2	n/a	42	n/a	3	n/a	n/a	n/a	n/a	103.148	n/a
73.275	0.497	happy	Picture	33.041	n/a	1	3	3	n/a	43	86	3	n/a	n/a	n/a	n/a	103.679	AF09ANS.jpg
73.772	0.514	Blank	Blank	32.527	n/a	1	3	3	n/a	43	n/a	3	n/a	n/a	n/a	n/a	104.176	n/a
74.303	0.497	happy	Picture	32.013	n/a	1	3	4	n/a	44	93	3	n/a	n/a	n/a	n/a	104.707	BF22ANS.jpg
74.8	0.514	Blank	Blank	31.499	n/a	1	3	4	n/a	44	n/a	3	n/a	n/a	n/a	n/a	105.204	n/a
75.331	0.497	happy	Picture	30.985	n/a	1	3	5	n/a	45	88	3	n/a	n/a	n/a	n/a	105.734	AF14ANS.jpg
75.828	0.514	Blank	Blank	30.471	n/a	1	3	5	n/a	45	n/a	3	n/a	n/a	n/a	n/a	106.232	n/a
76.359	0.497	happy	Picture	29.957	n/a	1	3	6	n/a	46	113	3	n/a	n/a	n/a	n/a	106.762	AM21ANS.jpg
76.856	0.514	Blank	Blank	29.443	n/a	1	3	6	n/a	46	n/a	3	n/a	n/a	n/a	n/a	107.26	n/a
77.387	0.497	happy	Picture	28.929	n/a	1	3	7	n/a	47	95	3	n/a	n/a	n/a	n/a	107.79	AF25ANS.jpg
77.884	0.514	Blank	Blank	28.415	n/a	1	3	7	n/a	47	n/a	3	n/a	n/a	n/a	n/a	108.288	n/a
78.414	0.497	happy	Picture	27.901	n/a	1	3	8	n/a	48	102	3	n/a	n/a	n/a	n/a	108.818	BM03ANS.jpg
78.912	0.514	Blank	Blank	27.387	n/a	1	3	8	n/a	48	n/a	3	n/a	n/a	n/a	n/a	109.315	n/a
79.442	0.497	happy	Picture	26.874	n/a	1	3	9	n/a	49	112	3	n/a	n/a	n/a	n/a	109.846	AM14ANS.jpg
79.94	0.514	Blank	Blank	26.36	n/a	1	3	9	n/a	49	n/a	3	n/a	n/a	n/a	n/a	110.343	n/a
80.47	0.497	happy	Picture	25.846	n/a	1	3	10	n/a	50	83	3	n/a	n/a	n/a	n/a	110.874	BF04ANS.jpg
80.968	0.514	Blank	Blank	25.332	n/a	1	3	10	n/a	50	n/a	3	n/a	n/a	n/a	n/a	111.371	n/a
81.498	0.497	happy	Picture	24.818	n/a	1	3	11	n/a	51	90	3	n/a	n/a	n/a	n/a	111.902	AF18ANS.jpg
81.996	0.514	Blank	Blank	24.304	n/a	1	3	11	n/a	51	n/a	3	n/a	n/a	n/a	n/a	112.399	n/a
82.526	0.497	happy	Picture	23.79	n/a	1	3	12	n/a	52	117	3	n/a	n/a	n/a	n/a	112.93	BM25ANS.jpg
83.023	0.514	Blank	Blank	23.276	n/a	1	3	12	n/a	52	n/a	3	n/a	n/a	n/a	n/a	113.427	n/a
83.554	0.497	happy	Picture	22.762	n/a	1	3	13	n/a	53	94	3	n/a	n/a	n/a	n/a	113.957	AF23ANS.jpg
84.051	0.514	Blank	Blank	22.248	n/a	1	3	13	n/a	53	n/a	3	n/a	n/a	n/a	n/a	114.455	n/a
84.582	0.497	happy	Picture	21.734	n/a	1	3	14	n/a	54	106	3	n/a	n/a	n/a	n/a	114.985	AM07ANS.jpg
85.079	0.514	Blank	Blank	21.22	n/a	1	3	14	n/a	54	n/a	3	n/a	n/a	n/a	n/a	115.483	n/a
85.61	0.497	happy	Picture	20.706	n/a	1	3	15	n/a	55	105	3	n/a	n/a	n/a	n/a	116.013	BM06ANS.jpg
86.107	0.514	Blank	Blank	20.192	n/a	1	3	15	n/a	55	n/a	3	n/a	n/a	n/a	n/a	116.511	n/a
86.638	0.497	happy	Picture	19.678	n/a	1	3	16	n/a	56	116	3	n/a	n/a	n/a	n/a	117.041	BM24ANS.jpg
87.135	0.514	Blank	Blank	19.164	n/a	1	3	16	n/a	56	n/a	3	n/a	n/a	n/a	n/a	117.538	n/a
87.666	0.497	happy	Picture	18.65	n/a	1	3	17	n/a	57	89	3	n/a	n/a	n/a	n/a	118.069	AF17ANS.jpg
88.163	0.514	Blank	Blank	18.136	n/a	1	3	17	n/a	57	n/a	3	n/a	n/a	n/a	n/a	118.566	n/a
88.693	0.497	happy	Picture	17.623	n/a	1	3	18	n/a	58	118	3	n/a	n/a	n/a	n/a	119.097	BM26ANS.jpg
89.191	0.514	Blank	Blank	17.109	n/a	1	3	18	n/a	58	n/a	3	n/a	n/a	n/a	n/a	119.594	n/a
89.721	0.497	happy	Picture	16.595	n/a	1	3	19	n/a	59	100	3	n/a	n/a	n/a	n/a	120.125	AF32ANS.jpg
90.219	0.514	Blank	Blank	16.081	n/a	1	3	19	n/a	59	n/a	3	n/a	n/a	n/a	n/a	120.622	n/a
90.749	0.497	happy	Picture	15.567	n/a	1	3	20	n/a	60	119	3	n/a	n/a	n/a	n/a	121.153	BM28ANS.jpg
91.246	0.514	Blank	Blank	15.053	n/a	1	3	20	n/a	60	n/a	3	n/a	n/a	n/a	n/a	121.65	n/a
91.777	10.014	ITI	Fixation+	5.023	n/a	1	n/a	n/a	n/a	n/a	n/a	n/a	n/a	n/a	n/a	n/a	122.181	n/a
106.813	n/a	ConfirmRating	Rate	n/a	4.99	1	n/a	n/a	0	n/a	n/a	n/a	2	Happy	100	51	137.217	n/a
108.853	n/a	ConfirmRating	Rate	n/a	2.022	1	n/a	n/a	1	n/a	n/a	n/a	3	Happy	0	49	139.257	n/a
108.87	10.014	ITI	Fixation+	96.771	n/a	2	n/a	n/a	n/a	n/a	n/a	n/a	n/a	n/a	n/a	n/a	139.273	n/a
118.9	0.497	angry	Picture	96.257	n/a	2	4	1	n/a	61	79	2	n/a	n/a	n/a	n/a	149.304	BM28HAS.jpg
119.397	0.514	Blank	Blank	95.743	n/a	2	4	1	n/a	61	n/a	2	n/a	n/a	n/a	n/a	149.801	n/a
119.928	0.497	angry	Picture	95.229	n/a	2	4	2	n/a	62	61	2	n/a	n/a	n/a	n/a	150.332	AM01HAS.jpg
120.425	0.514	Blank	Blank	94.715	n/a	2	4	2	n/a	62	n/a	2	n/a	n/a	n/a	n/a	150.829	n/a
120.956	0.497	angry	Picture	94.201	n/a	2	4	3	n/a	63	57	2	n/a	n/a	n/a	n/a	151.359	BF28HAS.jpg
121.453	0.514	Blank	Blank	93.687	n/a	2	4	3	n/a	63	n/a	2	n/a	n/a	n/a	n/a	151.857	n/a
121.984	0.497	angry	Picture	93.173	n/a	2	4	4	n/a	64	77	2	n/a	n/a	n/a	n/a	152.387	BM25HAS.jpg
122.481	0.514	Blank	Blank	92.659	n/a	2	4	4	n/a	64	n/a	2	n/a	n/a	n/a	n/a	152.885	n/a
123.011	0.497	angry	Picture	92.145	n/a	2	4	5	n/a	65	47	2	n/a	n/a	n/a	n/a	153.415	BF11HAS.jpg
123.509	0.514	Blank	Blank	91.631	n/a	2	4	5	n/a	65	n/a	2	n/a	n/a	n/a	n/a	153.912	n/a
124.039	0.497	angry	Picture	91.117	n/a	2	4	6	n/a	66	50	2	n/a	n/a	n/a	n/a	154.443	AF18HAS.jpg
124.537	0.514	Blank	Blank	90.603	n/a	2	4	6	n/a	66	n/a	2	n/a	n/a	n/a	n/a	154.94	n/a
125.067	0.497	angry	Picture	90.089	n/a	2	4	7	n/a	67	78	2	n/a	n/a	n/a	n/a	155.471	BM26HAS.jpg
125.565	0.514	Blank	Blank	89.575	n/a	2	4	7	n/a	67	n/a	2	n/a	n/a	n/a	n/a	155.968	n/a
126.095	0.497	angry	Picture	89.062	n/a	2	4	8	n/a	68	45	2	n/a	n/a	n/a	n/a	156.499	BF07HAS.jpg
126.593	0.514	Blank	Blank	88.548	n/a	2	4	8	n/a	68	n/a	2	n/a	n/a	n/a	n/a	156.996	n/a
127.123	0.497	angry	Picture	88.034	n/a	2	4	9	n/a	69	56	2	n/a	n/a	n/a	n/a	157.527	AF26HAS.jpg
127.62	0.514	Blank	Blank	87.52	n/a	2	4	9	n/a	69	n/a	2	n/a	n/a	n/a	n/a	158.024	n/a
128.151	0.497	angry	Picture	87.006	n/a	2	4	10	n/a	70	65	2	n/a	n/a	n/a	n/a	158.554	BM06HAS.jpg
128.648	0.514	Blank	Blank	86.492	n/a	2	4	10	n/a	70	n/a	2	n/a	n/a	n/a	n/a	159.052	n/a
129.179	0.497	angry	Picture	85.978	n/a	2	4	11	n/a	71	73	2	n/a	n/a	n/a	n/a	159.582	AM21HAS.jpg
129.676	0.514	Blank	Blank	85.464	n/a	2	4	11	n/a	71	n/a	2	n/a	n/a	n/a	n/a	160.08	n/a
130.207	0.497	angry	Picture	84.95	n/a	2	4	12	n/a	72	41	2	n/a	n/a	n/a	n/a	160.61	AF01HAS.jpg
130.704	0.514	Blank	Blank	84.436	n/a	2	4	12	n/a	72	n/a	2	n/a	n/a	n/a	n/a	161.108	n/a
131.235	0.497	angry	Picture	83.922	n/a	2	4	13	n/a	73	59	2	n/a	n/a	n/a	n/a	161.638	AF31HAS.jpg
131.732	0.514	Blank	Blank	83.408	n/a	2	4	13	n/a	73	n/a	2	n/a	n/a	n/a	n/a	162.136	n/a
132.262	0.497	angry	Picture	82.894	n/a	2	4	14	n/a	74	64	2	n/a	n/a	n/a	n/a	162.666	BM05HAS.jpg
132.76	0.514	Blank	Blank	82.38	n/a	2	4	14	n/a	74	n/a	2	n/a	n/a	n/a	n/a	163.163	n/a
133.29	0.497	angry	Picture	81.866	n/a	2	4	15	n/a	75	68	2	n/a	n/a	n/a	n/a	163.694	AM09HAS.jpg
133.788	0.514	Blank	Blank	81.352	n/a	2	4	15	n/a	75	n/a	2	n/a	n/a	n/a	n/a	164.191	n/a
134.318	0.497	angry	Picture	80.838	n/a	2	4	16	n/a	76	54	2	n/a	n/a	n/a	n/a	164.722	AF23HAS.jpg
134.816	0.514	Blank	Blank	80.325	n/a	2	4	16	n/a	76	n/a	2	n/a	n/a	n/a	n/a	165.219	n/a
135.346	0.497	angry	Picture	79.811	n/a	2	4	17	n/a	77	53	2	n/a	n/a	n/a	n/a	165.75	BF22HAS.jpg
135.843	0.514	Blank	Blank	79.297	n/a	2	4	17	n/a	77	n/a	2	n/a	n/a	n/a	n/a	166.247	n/a
136.374	0.497	angry	Picture	78.783	n/a	2	4	18	n/a	78	44	2	n/a	n/a	n/a	n/a	166.778	AF05HAS.jpg
136.871	0.514	Blank	Blank	78.269	n/a	2	4	18	n/a	78	n/a	2	n/a	n/a	n/a	n/a	167.275	n/a
137.402	0.497	angry	Picture	77.755	n/a	2	4	19	n/a	79	52	2	n/a	n/a	n/a	n/a	167.805	AF21HAS.jpg
137.899	0.514	Blank	Blank	77.241	n/a	2	4	19	n/a	79	n/a	2	n/a	n/a	n/a	n/a	168.303	n/a
138.43	0.497	angry	Picture	76.727	n/a	2	4	20	n/a	80	62	2	n/a	n/a	n/a	n/a	168.833	BM03HAS.jpg
138.927	0.514	Blank	Blank	76.213	n/a	2	4	20	n/a	80	n/a	2	n/a	n/a	n/a	n/a	169.331	n/a
139.458	10.014	ITI	Fixation+	66.183	n/a	2	n/a	n/a	n/a	n/a	n/a	n/a	n/a	n/a	n/a	n/a	169.861	n/a
149.488	0.497	neutral	Picture	65.669	n/a	2	5	1	n/a	81	23	1	n/a	n/a	n/a	n/a	179.892	AM04NES.jpg
149.985	0.514	Blank	Blank	65.155	n/a	2	5	1	n/a	81	n/a	1	n/a	n/a	n/a	n/a	180.389	n/a
150.516	0.497	neutral	Picture	64.641	n/a	2	5	2	n/a	82	29	1	n/a	n/a	n/a	n/a	180.919	AM10NES.jpg
151.013	0.514	Blank	Blank	64.127	n/a	2	5	2	n/a	82	n/a	1	n/a	n/a	n/a	n/a	181.417	n/a
151.544	0.497	neutral	Picture	63.613	n/a	2	5	3	n/a	83	24	1	n/a	n/a	n/a	n/a	181.947	BM05NES.jpg
152.041	0.514	Blank	Blank	63.099	n/a	2	5	3	n/a	83	n/a	1	n/a	n/a	n/a	n/a	182.445	n/a
152.572	0.497	neutral	Picture	62.585	n/a	2	5	4	n/a	84	12	1	n/a	n/a	n/a	n/a	182.975	AF21NES.jpg
153.069	0.514	Blank	Blank	62.071	n/a	2	5	4	n/a	84	n/a	1	n/a	n/a	n/a	n/a	183.472	n/a
153.599	0.497	neutral	Picture	61.557	n/a	2	5	5	n/a	85	13	1	n/a	n/a	n/a	n/a	184.003	BF22NES.jpg
154.097	0.514	Blank	Blank	61.043	n/a	2	5	5	n/a	85	n/a	1	n/a	n/a	n/a	n/a	184.5	n/a
154.627	0.497	neutral	Picture	60.529	n/a	2	5	6	n/a	86	17	1	n/a	n/a	n/a	n/a	185.031	BF28NES.jpg
155.125	0.514	Blank	Blank	60.015	n/a	2	5	6	n/a	86	n/a	1	n/a	n/a	n/a	n/a	185.528	n/a
155.655	0.497	neutral	Picture	59.502	n/a	2	5	7	n/a	87	4	1	n/a	n/a	n/a	n/a	186.059	AF05NES.jpg
156.153	0.514	Blank	Blank	58.988	n/a	2	5	7	n/a	87	n/a	1	n/a	n/a	n/a	n/a	186.556	n/a
156.683	0.497	neutral	Picture	58.474	n/a	2	5	8	n/a	88	11	1	n/a	n/a	n/a	n/a	187.087	AF20NES.jpg
157.18	0.514	Blank	Blank	57.96	n/a	2	5	8	n/a	88	n/a	1	n/a	n/a	n/a	n/a	187.584	n/a
157.711	0.497	neutral	Picture	57.446	n/a	2	5	9	n/a	89	22	1	n/a	n/a	n/a	n/a	188.115	BM03NES.jpg
158.208	0.514	Blank	Blank	56.932	n/a	2	5	9	n/a	89	n/a	1	n/a	n/a	n/a	n/a	188.612	n/a
158.739	0.497	neutral	Picture	56.418	n/a	2	5	10	n/a	90	15	1	n/a	n/a	n/a	n/a	189.143	AF25NES.jpg
159.236	0.514	Blank	Blank	55.904	n/a	2	5	10	n/a	90	n/a	1	n/a	n/a	n/a	n/a	189.64	n/a
159.767	0.497	neutral	Picture	55.39	n/a	2	5	11	n/a	91	19	1	n/a	n/a	n/a	n/a	190.17	AF31NES.jpg
160.264	0.514	Blank	Blank	54.876	n/a	2	5	11	n/a	91	n/a	1	n/a	n/a	n/a	n/a	190.668	n/a
160.795	0.497	neutral	Picture	54.362	n/a	2	5	12	n/a	92	9	1	n/a	n/a	n/a	n/a	191.198	AF17NES.jpg
161.292	0.514	Blank	Blank	53.848	n/a	2	5	12	n/a	92	n/a	1	n/a	n/a	n/a	n/a	191.696	n/a
161.823	0.497	neutral	Picture	53.334	n/a	2	5	13	n/a	93	14	1	n/a	n/a	n/a	n/a	192.226	AF23NES.jpg
162.32	0.514	Blank	Blank	52.82	n/a	2	5	13	n/a	93	n/a	1	n/a	n/a	n/a	n/a	192.724	n/a
162.85	0.497	neutral	Picture	52.306	n/a	2	5	14	n/a	94	36	1	n/a	n/a	n/a	n/a	193.254	BM24NES.jpg
163.348	0.514	Blank	Blank	51.792	n/a	2	5	14	n/a	94	n/a	1	n/a	n/a	n/a	n/a	193.751	n/a
163.878	0.497	neutral	Picture	51.278	n/a	2	5	15	n/a	95	34	1	n/a	n/a	n/a	n/a	194.282	AM22NES.jpg
164.376	0.514	Blank	Blank	50.764	n/a	2	5	15	n/a	95	n/a	1	n/a	n/a	n/a	n/a	194.779	n/a
164.906	0.497	neutral	Picture	50.251	n/a	2	5	16	n/a	96	10	1	n/a	n/a	n/a	n/a	195.31	AF18NES.jpg
165.404	0.514	Blank	Blank	49.737	n/a	2	5	16	n/a	96	n/a	1	n/a	n/a	n/a	n/a	195.807	n/a
165.934	0.497	neutral	Picture	49.223	n/a	2	5	17	n/a	97	5	1	n/a	n/a	n/a	n/a	196.338	BF07NES.jpg
166.431	0.514	Blank	Blank	48.709	n/a	2	5	17	n/a	97	n/a	1	n/a	n/a	n/a	n/a	196.835	n/a
166.962	0.497	neutral	Picture	48.195	n/a	2	5	18	n/a	98	25	1	n/a	n/a	n/a	n/a	197.366	BM06NES.jpg
167.459	0.514	Blank	Blank	47.681	n/a	2	5	18	n/a	98	n/a	1	n/a	n/a	n/a	n/a	197.863	n/a
167.99	0.497	neutral	Picture	47.167	n/a	2	5	19	n/a	99	39	1	n/a	n/a	n/a	n/a	198.393	AM28NES.jpg
168.487	0.514	Blank	Blank	46.653	n/a	2	5	19	n/a	99	n/a	1	n/a	n/a	n/a	n/a	198.891	n/a
169.018	0.497	neutral	Picture	46.139	n/a	2	5	20	n/a	100	33	1	n/a	n/a	n/a	n/a	199.421	AM21NES.jpg
169.515	0.514	Blank	Blank	45.625	n/a	2	5	20	n/a	100	n/a	1	n/a	n/a	n/a	n/a	199.919	n/a
170.046	10.014	ITI	Fixation+	35.595	n/a	2	n/a	n/a	n/a	n/a	n/a	n/a	n/a	n/a	n/a	n/a	200.449	n/a
180.076	0.497	angry	Picture	35.081	n/a	2	6	1	n/a	101	74	2	n/a	n/a	n/a	n/a	210.48	AM22HAS.jpg
180.573	0.514	Blank	Blank	34.567	n/a	2	6	1	n/a	101	n/a	2	n/a	n/a	n/a	n/a	210.977	n/a
181.104	0.497	angry	Picture	34.053	n/a	2	6	2	n/a	102	76	2	n/a	n/a	n/a	n/a	211.507	BM24HAS.jpg
181.601	0.514	Blank	Blank	33.539	n/a	2	6	2	n/a	102	n/a	2	n/a	n/a	n/a	n/a	212.005	n/a
182.132	0.497	angry	Picture	33.025	n/a	2	6	3	n/a	103	80	2	n/a	n/a	n/a	n/a	212.535	BM35HAS.jpg
182.629	0.514	Blank	Blank	32.511	n/a	2	6	3	n/a	103	n/a	2	n/a	n/a	n/a	n/a	213.033	n/a
183.159	0.497	angry	Picture	31.997	n/a	2	6	4	n/a	104	75	2	n/a	n/a	n/a	n/a	213.563	AM23HAS.jpg
183.657	0.514	Blank	Blank	31.483	n/a	2	6	4	n/a	104	n/a	2	n/a	n/a	n/a	n/a	214.06	n/a
184.187	0.497	angry	Picture	30.969	n/a	2	6	5	n/a	105	49	2	n/a	n/a	n/a	n/a	214.591	AF17HAS.jpg
184.685	0.514	Blank	Blank	30.455	n/a	2	6	5	n/a	105	n/a	2	n/a	n/a	n/a	n/a	215.088	n/a
185.215	0.497	angry	Picture	29.941	n/a	2	6	6	n/a	106	43	2	n/a	n/a	n/a	n/a	215.619	BF04HAS.jpg
185.713	0.514	Blank	Blank	29.428	n/a	2	6	6	n/a	106	n/a	2	n/a	n/a	n/a	n/a	216.116	n/a
186.243	0.497	angry	Picture	28.914	n/a	2	6	7	n/a	107	70	2	n/a	n/a	n/a	n/a	216.647	BM11HAS.jpg
186.74	0.514	Blank	Blank	28.4	n/a	2	6	7	n/a	107	n/a	2	n/a	n/a	n/a	n/a	217.144	n/a
187.271	0.497	angry	Picture	27.886	n/a	2	6	8	n/a	108	66	2	n/a	n/a	n/a	n/a	217.675	BM07HAS.jpg
187.768	0.514	Blank	Blank	27.372	n/a	2	6	8	n/a	108	n/a	2	n/a	n/a	n/a	n/a	218.172	n/a
188.299	0.497	angry	Picture	26.858	n/a	2	6	9	n/a	109	48	2	n/a	n/a	n/a	n/a	218.702	AF14HAS.jpg
188.796	0.514	Blank	Blank	26.344	n/a	2	6	9	n/a	109	n/a	2	n/a	n/a	n/a	n/a	219.2	n/a
189.327	0.497	angry	Picture	25.83	n/a	2	6	10	n/a	110	58	2	n/a	n/a	n/a	n/a	219.73	BF29HAS.jpg
189.824	0.514	Blank	Blank	25.316	n/a	2	6	10	n/a	110	n/a	2	n/a	n/a	n/a	n/a	220.228	n/a
190.355	0.497	angry	Picture	24.802	n/a	2	6	11	n/a	111	63	2	n/a	n/a	n/a	n/a	220.758	AM04HAS.jpg
190.852	0.514	Blank	Blank	24.288	n/a	2	6	11	n/a	111	n/a	2	n/a	n/a	n/a	n/a	221.256	n/a
191.383	0.497	angry	Picture	23.774	n/a	2	6	12	n/a	112	72	2	n/a	n/a	n/a	n/a	221.786	AM14HAS.jpg
191.88	0.514	Blank	Blank	23.26	n/a	2	6	12	n/a	112	n/a	2	n/a	n/a	n/a	n/a	222.284	n/a
192.41	0.497	angry	Picture	22.746	n/a	2	6	13	n/a	113	55	2	n/a	n/a	n/a	n/a	222.814	AF25HAS.jpg
192.908	0.514	Blank	Blank	22.232	n/a	2	6	13	n/a	113	n/a	2	n/a	n/a	n/a	n/a	223.311	n/a
193.438	0.497	angry	Picture	21.718	n/a	2	6	14	n/a	114	42	2	n/a	n/a	n/a	n/a	223.842	AF03HAS.jpg
193.936	0.514	Blank	Blank	21.204	n/a	2	6	14	n/a	114	n/a	2	n/a	n/a	n/a	n/a	224.339	n/a
194.466	0.497	angry	Picture	20.691	n/a	2	6	15	n/a	115	60	2	n/a	n/a	n/a	n/a	224.87	AF32HAS.jpg
194.964	0.514	Blank	Blank	20.177	n/a	2	6	15	n/a	115	n/a	2	n/a	n/a	n/a	n/a	225.367	n/a
195.494	0.497	angry	Picture	19.663	n/a	2	6	16	n/a	116	67	2	n/a	n/a	n/a	n/a	225.898	BM08HAS.jpg
195.992	0.514	Blank	Blank	19.149	n/a	2	6	16	n/a	116	n/a	2	n/a	n/a	n/a	n/a	226.395	n/a
196.522	0.497	angry	Picture	18.635	n/a	2	6	17	n/a	117	51	2	n/a	n/a	n/a	n/a	226.926	AF20HAS.jpg
197.019	0.514	Blank	Blank	18.121	n/a	2	6	17	n/a	117	n/a	2	n/a	n/a	n/a	n/a	227.423	n/a
197.55	0.497	angry	Picture	17.607	n/a	2	6	18	n/a	118	71	2	n/a	n/a	n/a	n/a	227.953	BM12HAS.jpg
198.047	0.514	Blank	Blank	17.093	n/a	2	6	18	n/a	118	n/a	2	n/a	n/a	n/a	n/a	228.451	n/a
198.578	0.497	angry	Picture	16.579	n/a	2	6	19	n/a	119	69	2	n/a	n/a	n/a	n/a	228.981	AM10HAS.jpg
199.075	0.514	Blank	Blank	16.065	n/a	2	6	19	n/a	119	n/a	2	n/a	n/a	n/a	n/a	229.479	n/a
199.606	0.497	angry	Picture	15.551	n/a	2	6	20	n/a	120	46	2	n/a	n/a	n/a	n/a	230.009	AF09HAS.jpg
200.103	0.514	Blank	Blank	15.037	n/a	2	6	20	n/a	120	n/a	2	n/a	n/a	n/a	n/a	230.507	n/a
200.634	10.014	ITI	Fixation+	5.007	n/a	2	n/a	n/a	n/a	n/a	n/a	n/a	n/a	n/a	n/a	n/a	231.037	n/a
215.654	n/a	ConfirmRating	Rate	n/a	4.99	2	n/a	n/a	0	n/a	n/a	n/a	2	Angry	91	53	246.058	n/a
217.784	n/a	ConfirmRating	Rate	n/a	2.122	2	n/a	n/a	1	n/a	n/a	n/a	3	Angry	0	49	248.188	n/a
217.809	15.004	Rest	Picture	n/a	n/a	n/a	n/a	n/a	n/a	n/a	n/a	n/a	0	n/a	0	0	248.213	n/a
232.83	10.014	ITI	Fixation+	96.981	n/a	3	n/a	n/a	n/a	n/a	n/a	n/a	n/a	n/a	n/a	n/a	263.233	n/a
242.86	0.497	happy	Picture	96.467	n/a	3	7	1	n/a	1	108	3	n/a	n/a	n/a	n/a	273.264	AM09ANS.jpg
243.357	0.514	Blank	Blank	95.953	n/a	3	7	1	n/a	1	n/a	3	n/a	n/a	n/a	n/a	273.761	n/a
243.888	0.497	happy	Picture	95.439	n/a	3	7	2	n/a	2	99	3	n/a	n/a	n/a	n/a	274.291	AF31ANS.jpg
244.385	0.514	Blank	Blank	94.925	n/a	3	7	2	n/a	2	n/a	3	n/a	n/a	n/a	n/a	274.789	n/a
244.916	0.497	happy	Picture	94.411	n/a	3	7	3	n/a	3	98	3	n/a	n/a	n/a	n/a	275.319	BF29ANS.jpg
245.413	0.514	Blank	Blank	93.897	n/a	3	7	3	n/a	3	n/a	3	n/a	n/a	n/a	n/a	275.817	n/a
245.944	0.497	happy	Picture	93.383	n/a	3	7	4	n/a	4	107	3	n/a	n/a	n/a	n/a	276.347	BM08ANS.jpg
246.441	0.514	Blank	Blank	92.869	n/a	3	7	4	n/a	4	n/a	3	n/a	n/a	n/a	n/a	276.844	n/a
246.971	0.497	happy	Picture	92.355	n/a	3	7	5	n/a	5	104	3	n/a	n/a	n/a	n/a	277.375	BM05ANS.jpg
247.469	0.514	Blank	Blank	91.841	n/a	3	7	5	n/a	5	n/a	3	n/a	n/a	n/a	n/a	277.872	n/a
247.999	0.498	happy	Picture	91.327	n/a	3	7	6	n/a	6	101	3	n/a	n/a	n/a	n/a	278.402	AM01ANS.jpg
248.497	0.514	Blank	Blank	90.813	n/a	3	7	6	n/a	6	n/a	3	n/a	n/a	n/a	n/a	278.9	n/a
249.027	0.497	happy	Picture	90.299	n/a	3	7	7	n/a	7	103	3	n/a	n/a	n/a	n/a	279.431	AM04ANS.jpg
249.525	0.514	Blank	Blank	89.785	n/a	3	7	7	n/a	7	n/a	3	n/a	n/a	n/a	n/a	279.928	n/a
250.055	0.497	happy	Picture	89.271	n/a	3	7	8	n/a	8	111	3	n/a	n/a	n/a	n/a	280.459	BM12ANS.jpg
250.552	0.514	Blank	Blank	88.757	n/a	3	7	8	n/a	8	n/a	3	n/a	n/a	n/a	n/a	280.956	n/a
251.083	0.497	happy	Picture	88.244	n/a	3	7	9	n/a	9	110	3	n/a	n/a	n/a	n/a	281.487	AM11ANS.jpg
251.58	0.514	Blank	Blank	87.73	n/a	3	7	9	n/a	9	n/a	3	n/a	n/a	n/a	n/a	281.984	n/a
252.111	0.497	happy	Picture	87.216	n/a	3	7	10	n/a	10	85	3	n/a	n/a	n/a	n/a	282.514	BF07ANS.jpg
252.608	0.514	Blank	Blank	86.702	n/a	3	7	10	n/a	10	n/a	3	n/a	n/a	n/a	n/a	283.012	n/a
253.139	0.497	happy	Picture	86.188	n/a	3	7	11	n/a	11	87	3	n/a	n/a	n/a	n/a	283.542	BF11ANS.jpg
253.636	0.514	Blank	Blank	85.674	n/a	3	7	11	n/a	11	n/a	3	n/a	n/a	n/a	n/a	284.04	n/a
254.167	0.497	happy	Picture	85.16	n/a	3	7	12	n/a	12	91	3	n/a	n/a	n/a	n/a	284.57	AF20ANS.jpg
254.664	0.514	Blank	Blank	84.646	n/a	3	7	12	n/a	12	n/a	3	n/a	n/a	n/a	n/a	285.068	n/a
255.194	0.497	happy	Picture	84.132	n/a	3	7	13	n/a	13	115	3	n/a	n/a	n/a	n/a	285.598	AM23ANS.jpg
255.692	0.514	Blank	Blank	83.618	n/a	3	7	13	n/a	13	n/a	3	n/a	n/a	n/a	n/a	286.096	n/a
256.222	0.497	happy	Picture	83.104	n/a	3	7	14	n/a	14	97	3	n/a	n/a	n/a	n/a	286.626	BF28ANS.jpg
256.72	0.514	Blank	Blank	82.59	n/a	3	7	14	n/a	14	n/a	3	n/a	n/a	n/a	n/a	287.123	n/a
257.25	0.497	happy	Picture	82.076	n/a	3	7	15	n/a	15	82	3	n/a	n/a	n/a	n/a	287.654	AF03ANS.jpg
257.748	0.514	Blank	Blank	81.562	n/a	3	7	15	n/a	15	n/a	3	n/a	n/a	n/a	n/a	288.151	n/a
258.278	0.497	happy	Picture	81.048	n/a	3	7	16	n/a	16	96	3	n/a	n/a	n/a	n/a	288.682	AF26ANS.jpg
258.776	0.514	Blank	Blank	80.534	n/a	3	7	16	n/a	16	n/a	3	n/a	n/a	n/a	n/a	289.179	n/a
259.306	0.497	happy	Picture	80.02	n/a	3	7	17	n/a	17	109	3	n/a	n/a	n/a	n/a	289.71	AM10ANS.jpg
259.803	0.514	Blank	Blank	79.506	n/a	3	7	17	n/a	17	n/a	3	n/a	n/a	n/a	n/a	290.207	n/a
260.334	0.497	happy	Picture	78.993	n/a	3	7	18	n/a	18	114	3	n/a	n/a	n/a	n/a	290.738	AM22ANS.jpg
260.831	0.514	Blank	Blank	78.478	n/a	3	7	18	n/a	18	n/a	3	n/a	n/a	n/a	n/a	291.235	n/a
261.362	0.497	happy	Picture	77.965	n/a	3	7	19	n/a	19	120	3	n/a	n/a	n/a	n/a	291.765	AM35ANS.jpg
261.859	0.514	Blank	Blank	77.451	n/a	3	7	19	n/a	19	n/a	3	n/a	n/a	n/a	n/a	292.263	n/a
262.39	0.497	happy	Picture	76.937	n/a	3	7	20	n/a	20	81	3	n/a	n/a	n/a	n/a	292.793	AF01ANS.jpg
262.887	0.514	Blank	Blank	76.423	n/a	3	7	20	n/a	20	n/a	3	n/a	n/a	n/a	n/a	293.291	n/a
263.418	10.014	ITI	Fixation+	66.393	n/a	3	n/a	n/a	n/a	n/a	n/a	n/a	n/a	n/a	n/a	n/a	293.821	n/a
273.448	0.497	neutral	Picture	65.879	n/a	3	8	1	n/a	21	28	1	n/a	n/a	n/a	n/a	303.851	AM09NES.jpg
273.945	0.514	Blank	Blank	65.365	n/a	3	8	1	n/a	21	n/a	1	n/a	n/a	n/a	n/a	304.349	n/a
274.476	0.497	neutral	Picture	64.851	n/a	3	8	2	n/a	22	27	1	n/a	n/a	n/a	n/a	304.879	BM08NES.jpg
274.973	0.514	Blank	Blank	64.337	n/a	3	8	2	n/a	22	n/a	1	n/a	n/a	n/a	n/a	305.377	n/a
275.504	0.497	neutral	Picture	63.824	n/a	3	8	3	n/a	23	16	1	n/a	n/a	n/a	n/a	305.907	AF26NES.jpg
276.0	0.515	Blank	Blank	63.309	n/a	3	8	3	n/a	23	n/a	1	n/a	n/a	n/a	n/a	306.404	n/a
276.531	0.497	neutral	Picture	62.795	n/a	3	8	4	n/a	24	3	1	n/a	n/a	n/a	n/a	306.935	BF04NES.jpg
277.029	0.514	Blank	Blank	62.281	n/a	3	8	4	n/a	24	n/a	1	n/a	n/a	n/a	n/a	307.432	n/a
277.559	0.497	neutral	Picture	61.767	n/a	3	8	5	n/a	25	32	1	n/a	n/a	n/a	n/a	307.963	AM14NES.jpg
278.057	0.514	Blank	Blank	61.253	n/a	3	8	5	n/a	25	n/a	1	n/a	n/a	n/a	n/a	308.46	n/a
278.587	0.497	neutral	Picture	60.739	n/a	3	8	6	n/a	26	37	1	n/a	n/a	n/a	n/a	308.991	BM25NES.jpg
279.085	0.514	Blank	Blank	60.225	n/a	3	8	6	n/a	26	n/a	1	n/a	n/a	n/a	n/a	309.488	n/a
279.615	0.497	neutral	Picture	59.711	n/a	3	8	7	n/a	27	15	1	n/a	n/a	n/a	n/a	310.019	AF25NES.jpg
280.113	0.514	Blank	Blank	59.197	n/a	3	8	7	n/a	27	n/a	1	n/a	n/a	n/a	n/a	310.516	n/a
280.643	0.497	neutral	Picture	58.683	n/a	3	8	8	n/a	28	23	1	n/a	n/a	n/a	n/a	311.047	AM04NES.jpg
281.14	0.514	Blank	Blank	58.17	n/a	3	8	8	n/a	28	n/a	1	n/a	n/a	n/a	n/a	311.544	n/a
281.671	0.497	neutral	Picture	57.655	n/a	3	8	9	n/a	29	34	1	n/a	n/a	n/a	n/a	312.075	AM22NES.jpg
282.168	0.514	Blank	Blank	57.142	n/a	3	8	9	n/a	29	n/a	1	n/a	n/a	n/a	n/a	312.572	n/a
282.699	0.497	neutral	Picture	56.628	n/a	3	8	10	n/a	30	24	1	n/a	n/a	n/a	n/a	313.102	BM05NES.jpg
283.196	0.514	Blank	Blank	56.114	n/a	3	8	10	n/a	30	n/a	1	n/a	n/a	n/a	n/a	313.6	n/a
283.727	0.497	neutral	Picture	55.6	n/a	3	8	11	n/a	31	12	1	n/a	n/a	n/a	n/a	314.13	AF21NES.jpg
284.224	0.514	Blank	Blank	55.086	n/a	3	8	11	n/a	31	n/a	1	n/a	n/a	n/a	n/a	314.628	n/a
284.755	0.497	neutral	Picture	54.572	n/a	3	8	12	n/a	32	6	1	n/a	n/a	n/a	n/a	315.158	AF09NES.jpg
285.252	0.514	Blank	Blank	54.058	n/a	3	8	12	n/a	32	n/a	1	n/a	n/a	n/a	n/a	315.656	n/a
285.783	0.497	neutral	Picture	53.544	n/a	3	8	13	n/a	33	17	1	n/a	n/a	n/a	n/a	316.186	BF28NES.jpg
286.28	0.514	Blank	Blank	53.03	n/a	3	8	13	n/a	33	n/a	1	n/a	n/a	n/a	n/a	316.683	n/a
286.81	0.497	neutral	Picture	52.516	n/a	3	8	14	n/a	34	2	1	n/a	n/a	n/a	n/a	317.214	AF03NES.jpg
287.308	0.514	Blank	Blank	52.002	n/a	3	8	14	n/a	34	n/a	1	n/a	n/a	n/a	n/a	317.711	n/a
287.838	0.497	neutral	Picture	51.488	n/a	3	8	15	n/a	35	9	1	n/a	n/a	n/a	n/a	318.242	AF17NES.jpg
288.336	0.514	Blank	Blank	50.974	n/a	3	8	15	n/a	35	n/a	1	n/a	n/a	n/a	n/a	318.739	n/a
288.866	0.497	neutral	Picture	50.46	n/a	3	8	16	n/a	36	25	1	n/a	n/a	n/a	n/a	319.27	BM06NES.jpg
289.364	0.514	Blank	Blank	49.946	n/a	3	8	16	n/a	36	n/a	1	n/a	n/a	n/a	n/a	319.767	n/a
289.894	0.497	neutral	Picture	49.432	n/a	3	8	17	n/a	37	8	1	n/a	n/a	n/a	n/a	320.298	AF14NES.jpg
290.391	0.514	Blank	Blank	48.918	n/a	3	8	17	n/a	37	n/a	1	n/a	n/a	n/a	n/a	320.795	n/a
290.922	0.497	neutral	Picture	48.404	n/a	3	8	18	n/a	38	19	1	n/a	n/a	n/a	n/a	321.325	AF31NES.jpg
291.419	0.514	Blank	Blank	47.891	n/a	3	8	18	n/a	38	n/a	1	n/a	n/a	n/a	n/a	321.823	n/a
291.95	0.497	neutral	Picture	47.377	n/a	3	8	19	n/a	39	14	1	n/a	n/a	n/a	n/a	322.353	AF23NES.jpg
292.447	0.514	Blank	Blank	46.863	n/a	3	8	19	n/a	39	n/a	1	n/a	n/a	n/a	n/a	322.851	n/a
292.978	0.497	neutral	Picture	46.349	n/a	3	8	20	n/a	40	4	1	n/a	n/a	n/a	n/a	323.381	AF05NES.jpg
293.475	0.514	Blank	Blank	45.835	n/a	3	8	20	n/a	40	n/a	1	n/a	n/a	n/a	n/a	323.879	n/a
294.006	10.014	ITI	Fixation+	35.805	n/a	3	n/a	n/a	n/a	n/a	n/a	n/a	n/a	n/a	n/a	n/a	324.409	n/a
304.036	0.497	happy	Picture	35.291	n/a	3	9	1	n/a	41	84	3	n/a	n/a	n/a	n/a	334.439	AF05ANS.jpg
304.533	0.514	Blank	Blank	34.777	n/a	3	9	1	n/a	41	n/a	3	n/a	n/a	n/a	n/a	334.937	n/a
305.064	0.497	happy	Picture	34.263	n/a	3	9	2	n/a	42	92	3	n/a	n/a	n/a	n/a	335.467	AF21ANS.jpg
305.561	0.514	Blank	Blank	33.749	n/a	3	9	2	n/a	42	n/a	3	n/a	n/a	n/a	n/a	335.965	n/a
306.091	0.497	happy	Picture	33.235	n/a	3	9	3	n/a	43	86	3	n/a	n/a	n/a	n/a	336.495	AF09ANS.jpg
306.589	0.514	Blank	Blank	32.721	n/a	3	9	3	n/a	43	n/a	3	n/a	n/a	n/a	n/a	336.993	n/a
307.119	0.497	happy	Picture	32.207	n/a	3	9	4	n/a	44	93	3	n/a	n/a	n/a	n/a	337.523	BF22ANS.jpg
307.617	0.514	Blank	Blank	31.693	n/a	3	9	4	n/a	44	n/a	3	n/a	n/a	n/a	n/a	338.02	n/a
308.147	0.497	happy	Picture	31.179	n/a	3	9	5	n/a	45	88	3	n/a	n/a	n/a	n/a	338.551	AF14ANS.jpg
308.645	0.514	Blank	Blank	30.665	n/a	3	9	5	n/a	45	n/a	3	n/a	n/a	n/a	n/a	339.048	n/a
309.175	0.497	happy	Picture	30.151	n/a	3	9	6	n/a	46	113	3	n/a	n/a	n/a	n/a	339.579	AM21ANS.jpg
309.673	0.514	Blank	Blank	29.637	n/a	3	9	6	n/a	46	n/a	3	n/a	n/a	n/a	n/a	340.076	n/a
310.203	0.497	happy	Picture	29.123	n/a	3	9	7	n/a	47	95	3	n/a	n/a	n/a	n/a	340.607	AF25ANS.jpg
310.7	0.514	Blank	Blank	28.609	n/a	3	9	7	n/a	47	n/a	3	n/a	n/a	n/a	n/a	341.104	n/a
311.231	0.497	happy	Picture	28.096	n/a	3	9	8	n/a	48	102	3	n/a	n/a	n/a	n/a	341.635	BM03ANS.jpg
311.728	0.514	Blank	Blank	27.582	n/a	3	9	8	n/a	48	n/a	3	n/a	n/a	n/a	n/a	342.132	n/a
312.259	0.497	happy	Picture	27.068	n/a	3	9	9	n/a	49	112	3	n/a	n/a	n/a	n/a	342.662	AM14ANS.jpg
312.756	0.514	Blank	Blank	26.554	n/a	3	9	9	n/a	49	n/a	3	n/a	n/a	n/a	n/a	343.16	n/a
313.287	0.497	happy	Picture	26.04	n/a	3	9	10	n/a	50	83	3	n/a	n/a	n/a	n/a	343.69	BF04ANS.jpg
313.784	0.514	Blank	Blank	25.526	n/a	3	9	10	n/a	50	n/a	3	n/a	n/a	n/a	n/a	344.188	n/a
314.315	0.497	happy	Picture	25.012	n/a	3	9	11	n/a	51	90	3	n/a	n/a	n/a	n/a	344.718	AF18ANS.jpg
314.812	0.514	Blank	Blank	24.498	n/a	3	9	11	n/a	51	n/a	3	n/a	n/a	n/a	n/a	345.216	n/a
315.343	0.497	happy	Picture	23.984	n/a	3	9	12	n/a	52	117	3	n/a	n/a	n/a	n/a	345.746	BM25ANS.jpg
315.84	0.514	Blank	Blank	23.47	n/a	3	9	12	n/a	52	n/a	3	n/a	n/a	n/a	n/a	346.243	n/a
316.37	0.497	happy	Picture	22.956	n/a	3	9	13	n/a	53	94	3	n/a	n/a	n/a	n/a	346.774	AF23ANS.jpg
316.868	0.514	Blank	Blank	22.442	n/a	3	9	13	n/a	53	n/a	3	n/a	n/a	n/a	n/a	347.271	n/a
317.398	0.497	happy	Picture	21.928	n/a	3	9	14	n/a	54	106	3	n/a	n/a	n/a	n/a	347.802	AM07ANS.jpg
317.896	0.514	Blank	Blank	21.414	n/a	3	9	14	n/a	54	n/a	3	n/a	n/a	n/a	n/a	348.299	n/a
318.426	0.497	happy	Picture	20.9	n/a	3	9	15	n/a	55	105	3	n/a	n/a	n/a	n/a	348.83	BM06ANS.jpg
318.923	0.514	Blank	Blank	20.386	n/a	3	9	15	n/a	55	n/a	3	n/a	n/a	n/a	n/a	349.327	n/a
319.454	0.497	happy	Picture	19.872	n/a	3	9	16	n/a	56	116	3	n/a	n/a	n/a	n/a	349.858	BM24ANS.jpg
319.951	0.514	Blank	Blank	19.358	n/a	3	9	16	n/a	56	n/a	3	n/a	n/a	n/a	n/a	350.355	n/a
320.482	0.497	happy	Picture	18.844	n/a	3	9	17	n/a	57	89	3	n/a	n/a	n/a	n/a	350.885	AF17ANS.jpg
320.979	0.514	Blank	Blank	18.331	n/a	3	9	17	n/a	57	n/a	3	n/a	n/a	n/a	n/a	351.383	n/a
321.51	0.497	happy	Picture	17.817	n/a	3	9	18	n/a	58	118	3	n/a	n/a	n/a	n/a	351.913	BM26ANS.jpg
322.007	0.514	Blank	Blank	17.303	n/a	3	9	18	n/a	58	n/a	3	n/a	n/a	n/a	n/a	352.411	n/a
322.538	0.497	happy	Picture	16.789	n/a	3	9	19	n/a	59	100	3	n/a	n/a	n/a	n/a	352.941	AF32ANS.jpg
323.035	0.514	Blank	Blank	16.275	n/a	3	9	19	n/a	59	n/a	3	n/a	n/a	n/a	n/a	353.439	n/a
323.566	0.497	happy	Picture	15.761	n/a	3	9	20	n/a	60	119	3	n/a	n/a	n/a	n/a	353.969	BM28ANS.jpg
324.063	0.514	Blank	Blank	15.247	n/a	3	9	20	n/a	60	n/a	3	n/a	n/a	n/a	n/a	354.467	n/a
324.594	10.014	ITI	Fixation+	5.217	n/a	3	n/a	n/a	n/a	n/a	n/a	n/a	n/a	n/a	n/a	n/a	354.997	n/a
339.824	n/a	ConfirmRating	Rate	n/a	5.206	3	n/a	n/a	0	n/a	n/a	n/a	2	Happy	94	53	370.227	n/a
341.655	n/a	ConfirmRating	Rate	n/a	1.824	3	n/a	n/a	1	n/a	n/a	n/a	3	Happy	0	49	372.058	n/a
341.686	10.014	ITI	Fixation+	95.396	n/a	4	n/a	n/a	n/a	n/a	n/a	n/a	n/a	n/a	n/a	n/a	372.09	n/a
351.716	0.497	angry	Picture	94.882	n/a	4	10	1	n/a	61	79	2	n/a	n/a	n/a	n/a	382.12	BM28HAS.jpg
352.214	0.514	Blank	Blank	94.368	n/a	4	10	1	n/a	61	n/a	2	n/a	n/a	n/a	n/a	382.617	n/a
352.744	0.497	angry	Picture	93.854	n/a	4	10	2	n/a	62	61	2	n/a	n/a	n/a	n/a	383.148	AM01HAS.jpg
353.242	0.514	Blank	Blank	93.34	n/a	4	10	2	n/a	62	n/a	2	n/a	n/a	n/a	n/a	383.645	n/a
353.772	0.497	angry	Picture	92.826	n/a	4	10	3	n/a	63	57	2	n/a	n/a	n/a	n/a	384.176	BF28HAS.jpg
354.27	0.514	Blank	Blank	92.312	n/a	4	10	3	n/a	63	n/a	2	n/a	n/a	n/a	n/a	384.673	n/a
354.8	0.497	angry	Picture	91.798	n/a	4	10	4	n/a	64	77	2	n/a	n/a	n/a	n/a	385.204	BM25HAS.jpg
355.298	0.514	Blank	Blank	91.284	n/a	4	10	4	n/a	64	n/a	2	n/a	n/a	n/a	n/a	385.701	n/a
355.828	0.497	angry	Picture	90.77	n/a	4	10	5	n/a	65	47	2	n/a	n/a	n/a	n/a	386.232	BF11HAS.jpg
356.325	0.514	Blank	Blank	90.256	n/a	4	10	5	n/a	65	n/a	2	n/a	n/a	n/a	n/a	386.729	n/a
356.856	0.497	angry	Picture	89.742	n/a	4	10	6	n/a	66	50	2	n/a	n/a	n/a	n/a	387.26	AF18HAS.jpg
357.353	0.514	Blank	Blank	89.228	n/a	4	10	6	n/a	66	n/a	2	n/a	n/a	n/a	n/a	387.757	n/a
357.884	0.497	angry	Picture	88.714	n/a	4	10	7	n/a	67	78	2	n/a	n/a	n/a	n/a	388.287	BM26HAS.jpg
358.381	0.514	Blank	Blank	88.2	n/a	4	10	7	n/a	67	n/a	2	n/a	n/a	n/a	n/a	388.785	n/a
358.912	0.497	angry	Picture	87.687	n/a	4	10	8	n/a	68	45	2	n/a	n/a	n/a	n/a	389.315	BF07HAS.jpg
359.409	0.514	Blank	Blank	87.173	n/a	4	10	8	n/a	68	n/a	2	n/a	n/a	n/a	n/a	389.813	n/a
359.94	0.497	angry	Picture	86.659	n/a	4	10	9	n/a	69	56	2	n/a	n/a	n/a	n/a	390.343	AF26HAS.jpg
360.437	0.514	Blank	Blank	86.145	n/a	4	10	9	n/a	69	n/a	2	n/a	n/a	n/a	n/a	390.841	n/a
360.967	0.497	angry	Picture	85.631	n/a	4	10	10	n/a	70	65	2	n/a	n/a	n/a	n/a	391.371	BM06HAS.jpg
361.465	0.514	Blank	Blank	85.117	n/a	4	10	10	n/a	70	n/a	2	n/a	n/a	n/a	n/a	391.868	n/a
361.995	0.497	angry	Picture	84.603	n/a	4	10	11	n/a	71	73	2	n/a	n/a	n/a	n/a	392.399	AM21HAS.jpg
362.493	0.514	Blank	Blank	84.089	n/a	4	10	11	n/a	71	n/a	2	n/a	n/a	n/a	n/a	392.896	n/a
363.023	0.497	angry	Picture	83.575	n/a	4	10	12	n/a	72	41	2	n/a	n/a	n/a	n/a	393.427	AF01HAS.jpg
363.521	0.514	Blank	Blank	83.061	n/a	4	10	12	n/a	72	n/a	2	n/a	n/a	n/a	n/a	393.924	n/a
364.051	0.497	angry	Picture	82.547	n/a	4	10	13	n/a	73	59	2	n/a	n/a	n/a	n/a	394.455	AF31HAS.jpg
364.548	0.514	Blank	Blank	82.033	n/a	4	10	13	n/a	73	n/a	2	n/a	n/a	n/a	n/a	394.952	n/a
365.079	0.497	angry	Picture	81.519	n/a	4	10	14	n/a	74	64	2	n/a	n/a	n/a	n/a	395.483	BM05HAS.jpg
365.576	0.514	Blank	Blank	81.005	n/a	4	10	14	n/a	74	n/a	2	n/a	n/a	n/a	n/a	395.98	n/a
366.107	0.497	angry	Picture	80.491	n/a	4	10	15	n/a	75	68	2	n/a	n/a	n/a	n/a	396.51	AM09HAS.jpg
366.604	0.514	Blank	Blank	79.977	n/a	4	10	15	n/a	75	n/a	2	n/a	n/a	n/a	n/a	397.008	n/a
367.135	0.497	angry	Picture	79.463	n/a	4	10	16	n/a	76	54	2	n/a	n/a	n/a	n/a	397.538	AF23HAS.jpg
367.632	0.514	Blank	Blank	78.949	n/a	4	10	16	n/a	76	n/a	2	n/a	n/a	n/a	n/a	398.036	n/a
368.163	0.497	angry	Picture	78.436	n/a	4	10	17	n/a	77	53	2	n/a	n/a	n/a	n/a	398.566	BF22HAS.jpg
368.66	0.514	Blank	Blank	77.922	n/a	4	10	17	n/a	77	n/a	2	n/a	n/a	n/a	n/a	399.064	n/a
369.191	0.497	angry	Picture	77.408	n/a	4	10	18	n/a	78	44	2	n/a	n/a	n/a	n/a	399.594	AF05HAS.jpg
369.688	0.514	Blank	Blank	76.894	n/a	4	10	18	n/a	78	n/a	2	n/a	n/a	n/a	n/a	400.091	n/a
370.218	0.497	angry	Picture	76.38	n/a	4	10	19	n/a	79	52	2	n/a	n/a	n/a	n/a	400.622	AF21HAS.jpg
370.716	0.514	Blank	Blank	75.866	n/a	4	10	19	n/a	79	n/a	2	n/a	n/a	n/a	n/a	401.119	n/a
371.246	0.497	angry	Picture	75.352	n/a	4	10	20	n/a	80	62	2	n/a	n/a	n/a	n/a	401.65	BM03HAS.jpg
371.744	0.514	Blank	Blank	74.838	n/a	4	10	20	n/a	80	n/a	2	n/a	n/a	n/a	n/a	402.147	n/a
372.274	10.014	ITI	Fixation+	64.808	n/a	4	n/a	n/a	n/a	n/a	n/a	n/a	n/a	n/a	n/a	n/a	402.678	n/a
382.304	0.497	neutral	Picture	64.294	n/a	4	11	1	n/a	81	23	1	n/a	n/a	n/a	n/a	412.708	AM04NES.jpg
382.802	0.514	Blank	Blank	63.78	n/a	4	11	1	n/a	81	n/a	1	n/a	n/a	n/a	n/a	413.205	n/a
383.332	0.497	neutral	Picture	63.266	n/a	4	11	2	n/a	82	29	1	n/a	n/a	n/a	n/a	413.736	AM10NES.jpg
383.83	0.514	Blank	Blank	62.752	n/a	4	11	2	n/a	82	n/a	1	n/a	n/a	n/a	n/a	414.233	n/a
384.36	0.497	neutral	Picture	62.238	n/a	4	11	3	n/a	83	24	1	n/a	n/a	n/a	n/a	414.764	BM05NES.jpg
384.858	0.514	Blank	Blank	61.724	n/a	4	11	3	n/a	83	n/a	1	n/a	n/a	n/a	n/a	415.261	n/a
385.388	0.497	neutral	Picture	61.21	n/a	4	11	4	n/a	84	12	1	n/a	n/a	n/a	n/a	415.792	AF21NES.jpg
385.885	0.514	Blank	Blank	60.696	n/a	4	11	4	n/a	84	n/a	1	n/a	n/a	n/a	n/a	416.289	n/a
386.416	0.497	neutral	Picture	60.182	n/a	4	11	5	n/a	85	13	1	n/a	n/a	n/a	n/a	416.82	BF22NES.jpg
386.913	0.514	Blank	Blank	59.668	n/a	4	11	5	n/a	85	n/a	1	n/a	n/a	n/a	n/a	417.317	n/a
387.444	0.497	neutral	Picture	59.154	n/a	4	11	6	n/a	86	17	1	n/a	n/a	n/a	n/a	417.847	BF28NES.jpg
387.941	0.514	Blank	Blank	58.64	n/a	4	11	6	n/a	86	n/a	1	n/a	n/a	n/a	n/a	418.345	n/a
388.472	0.497	neutral	Picture	58.126	n/a	4	11	7	n/a	87	4	1	n/a	n/a	n/a	n/a	418.875	AF05NES.jpg
388.969	0.514	Blank	Blank	57.613	n/a	4	11	7	n/a	87	n/a	1	n/a	n/a	n/a	n/a	419.373	n/a
389.5	0.494	neutral	Picture	57.102	n/a	4	11	8	n/a	88	11	1	n/a	n/a	n/a	n/a	419.903	AF20NES.jpg
389.994	0.517	Blank	Blank	56.585	n/a	4	11	8	n/a	88	n/a	1	n/a	n/a	n/a	n/a	420.397	n/a
390.528	0.497	neutral	Picture	56.071	n/a	4	11	9	n/a	89	22	1	n/a	n/a	n/a	n/a	420.931	BM03NES.jpg
391.025	0.514	Blank	Blank	55.557	n/a	4	11	9	n/a	89	n/a	1	n/a	n/a	n/a	n/a	421.428	n/a
391.555	0.497	neutral	Picture	55.043	n/a	4	11	10	n/a	90	15	1	n/a	n/a	n/a	n/a	421.959	AF25NES.jpg
392.053	0.514	Blank	Blank	54.529	n/a	4	11	10	n/a	90	n/a	1	n/a	n/a	n/a	n/a	422.456	n/a
392.583	0.497	neutral	Picture	54.015	n/a	4	11	11	n/a	91	19	1	n/a	n/a	n/a	n/a	422.987	AF31NES.jpg
393.081	0.514	Blank	Blank	53.501	n/a	4	11	11	n/a	91	n/a	1	n/a	n/a	n/a	n/a	423.484	n/a
393.611	0.497	neutral	Picture	52.987	n/a	4	11	12	n/a	92	9	1	n/a	n/a	n/a	n/a	424.015	AF17NES.jpg
394.108	0.514	Blank	Blank	52.473	n/a	4	11	12	n/a	92	n/a	1	n/a	n/a	n/a	n/a	424.512	n/a
394.639	0.497	neutral	Picture	51.959	n/a	4	11	13	n/a	93	14	1	n/a	n/a	n/a	n/a	425.043	AF23NES.jpg
395.136	0.514	Blank	Blank	51.445	n/a	4	11	13	n/a	93	n/a	1	n/a	n/a	n/a	n/a	425.54	n/a
395.667	0.497	neutral	Picture	50.931	n/a	4	11	14	n/a	94	36	1	n/a	n/a	n/a	n/a	426.07	BM24NES.jpg
396.164	0.514	Blank	Blank	50.417	n/a	4	11	14	n/a	94	n/a	1	n/a	n/a	n/a	n/a	426.568	n/a
396.695	0.497	neutral	Picture	49.903	n/a	4	11	15	n/a	95	34	1	n/a	n/a	n/a	n/a	427.098	AM22NES.jpg
397.192	0.514	Blank	Blank	49.389	n/a	4	11	15	n/a	95	n/a	1	n/a	n/a	n/a	n/a	427.596	n/a
397.723	0.497	neutral	Picture	48.875	n/a	4	11	16	n/a	96	10	1	n/a	n/a	n/a	n/a	428.126	AF18NES.jpg
398.22	0.514	Blank	Blank	48.362	n/a	4	11	16	n/a	96	n/a	1	n/a	n/a	n/a	n/a	428.624	n/a
398.751	0.497	neutral	Picture	47.848	n/a	4	11	17	n/a	97	5	1	n/a	n/a	n/a	n/a	429.154	BF07NES.jpg
399.248	0.514	Blank	Blank	47.334	n/a	4	11	17	n/a	97	n/a	1	n/a	n/a	n/a	n/a	429.651	n/a
399.779	0.497	neutral	Picture	46.82	n/a	4	11	18	n/a	98	25	1	n/a	n/a	n/a	n/a	430.182	BM06NES.jpg
400.276	0.514	Blank	Blank	46.306	n/a	4	11	18	n/a	98	n/a	1	n/a	n/a	n/a	n/a	430.679	n/a
400.806	0.497	neutral	Picture	45.792	n/a	4	11	19	n/a	99	39	1	n/a	n/a	n/a	n/a	431.21	AM28NES.jpg
401.304	0.514	Blank	Blank	45.278	n/a	4	11	19	n/a	99	n/a	1	n/a	n/a	n/a	n/a	431.707	n/a
401.834	0.497	neutral	Picture	44.764	n/a	4	11	20	n/a	100	33	1	n/a	n/a	n/a	n/a	432.238	AM21NES.jpg
402.332	0.514	Blank	Blank	44.25	n/a	4	11	20	n/a	100	n/a	1	n/a	n/a	n/a	n/a	432.735	n/a
402.862	10.014	ITI	Fixation+	34.22	n/a	4	n/a	n/a	n/a	n/a	n/a	n/a	n/a	n/a	n/a	n/a	433.266	n/a
412.892	0.497	angry	Picture	33.706	n/a	4	12	1	n/a	101	74	2	n/a	n/a	n/a	n/a	443.296	AM22HAS.jpg
413.39	0.514	Blank	Blank	33.192	n/a	4	12	1	n/a	101	n/a	2	n/a	n/a	n/a	n/a	443.793	n/a
413.92	0.497	angry	Picture	32.678	n/a	4	12	2	n/a	102	76	2	n/a	n/a	n/a	n/a	444.324	BM24HAS.jpg
414.418	0.514	Blank	Blank	32.164	n/a	4	12	2	n/a	102	n/a	2	n/a	n/a	n/a	n/a	444.821	n/a
414.948	0.497	angry	Picture	31.65	n/a	4	12	3	n/a	103	80	2	n/a	n/a	n/a	n/a	445.352	BM35HAS.jpg
415.446	0.514	Blank	Blank	31.136	n/a	4	12	3	n/a	103	n/a	2	n/a	n/a	n/a	n/a	445.849	n/a
415.976	0.497	angry	Picture	30.622	n/a	4	12	4	n/a	104	75	2	n/a	n/a	n/a	n/a	446.38	AM23HAS.jpg
416.473	0.514	Blank	Blank	30.108	n/a	4	12	4	n/a	104	n/a	2	n/a	n/a	n/a	n/a	446.877	n/a
417.004	0.497	angry	Picture	29.594	n/a	4	12	5	n/a	105	49	2	n/a	n/a	n/a	n/a	447.408	AF17HAS.jpg
417.501	0.514	Blank	Blank	29.08	n/a	4	12	5	n/a	105	n/a	2	n/a	n/a	n/a	n/a	447.905	n/a
418.032	0.497	angry	Picture	28.566	n/a	4	12	6	n/a	106	43	2	n/a	n/a	n/a	n/a	448.435	BF04HAS.jpg
418.529	0.514	Blank	Blank	28.052	n/a	4	12	6	n/a	106	n/a	2	n/a	n/a	n/a	n/a	448.933	n/a
419.06	0.497	angry	Picture	27.539	n/a	4	12	7	n/a	107	70	2	n/a	n/a	n/a	n/a	449.463	BM11HAS.jpg
419.557	0.514	Blank	Blank	27.025	n/a	4	12	7	n/a	107	n/a	2	n/a	n/a	n/a	n/a	449.961	n/a
420.088	0.497	angry	Picture	26.511	n/a	4	12	8	n/a	108	66	2	n/a	n/a	n/a	n/a	450.491	BM07HAS.jpg
420.585	0.514	Blank	Blank	25.997	n/a	4	12	8	n/a	108	n/a	2	n/a	n/a	n/a	n/a	450.988	n/a
421.115	0.497	angry	Picture	25.483	n/a	4	12	9	n/a	109	48	2	n/a	n/a	n/a	n/a	451.519	AF14HAS.jpg
421.613	0.514	Blank	Blank	24.969	n/a	4	12	9	n/a	109	n/a	2	n/a	n/a	n/a	n/a	452.016	n/a
422.143	0.497	angry	Picture	24.455	n/a	4	12	10	n/a	110	58	2	n/a	n/a	n/a	n/a	452.547	BF29HAS.jpg
422.641	0.514	Blank	Blank	23.941	n/a	4	12	10	n/a	110	n/a	2	n/a	n/a	n/a	n/a	453.044	n/a
423.171	0.497	angry	Picture	23.427	n/a	4	12	11	n/a	111	63	2	n/a	n/a	n/a	n/a	453.575	AM04HAS.jpg
423.669	0.514	Blank	Blank	22.913	n/a	4	12	11	n/a	111	n/a	2	n/a	n/a	n/a	n/a	454.072	n/a
424.199	0.497	angry	Picture	22.399	n/a	4	12	12	n/a	112	72	2	n/a	n/a	n/a	n/a	454.603	AM14HAS.jpg
424.697	0.514	Blank	Blank	21.885	n/a	4	12	12	n/a	112	n/a	2	n/a	n/a	n/a	n/a	455.1	n/a
425.227	0.497	angry	Picture	21.371	n/a	4	12	13	n/a	113	55	2	n/a	n/a	n/a	n/a	455.631	AF25HAS.jpg
425.724	0.514	Blank	Blank	20.857	n/a	4	12	13	n/a	113	n/a	2	n/a	n/a	n/a	n/a	456.128	n/a
426.255	0.497	angry	Picture	20.343	n/a	4	12	14	n/a	114	42	2	n/a	n/a	n/a	n/a	456.659	AF03HAS.jpg
426.752	0.514	Blank	Blank	19.829	n/a	4	12	14	n/a	114	n/a	2	n/a	n/a	n/a	n/a	457.156	n/a
427.283	0.497	angry	Picture	19.315	n/a	4	12	15	n/a	115	60	2	n/a	n/a	n/a	n/a	457.686	AF32HAS.jpg
427.78	0.514	Blank	Blank	18.801	n/a	4	12	15	n/a	115	n/a	2	n/a	n/a	n/a	n/a	458.184	n/a
428.311	0.497	angry	Picture	18.288	n/a	4	12	16	n/a	116	67	2	n/a	n/a	n/a	n/a	458.714	BM08HAS.jpg
428.808	0.514	Blank	Blank	17.774	n/a	4	12	16	n/a	116	n/a	2	n/a	n/a	n/a	n/a	459.212	n/a
429.339	0.497	angry	Picture	17.26	n/a	4	12	17	n/a	117	51	2	n/a	n/a	n/a	n/a	459.742	AF20HAS.jpg
429.836	0.514	Blank	Blank	16.746	n/a	4	12	17	n/a	117	n/a	2	n/a	n/a	n/a	n/a	460.24	n/a
430.366	0.497	angry	Picture	16.232	n/a	4	12	18	n/a	118	71	2	n/a	n/a	n/a	n/a	460.77	BM12HAS.jpg
430.864	0.514	Blank	Blank	15.718	n/a	4	12	18	n/a	118	n/a	2	n/a	n/a	n/a	n/a	461.267	n/a
431.394	0.497	angry	Picture	15.204	n/a	4	12	19	n/a	119	69	2	n/a	n/a	n/a	n/a	461.798	AM10HAS.jpg
431.892	0.514	Blank	Blank	14.69	n/a	4	12	19	n/a	119	n/a	2	n/a	n/a	n/a	n/a	462.295	n/a
432.422	0.497	angry	Picture	14.176	n/a	4	12	20	n/a	120	46	2	n/a	n/a	n/a	n/a	462.826	AF09HAS.jpg
432.92	0.514	Blank	Blank	13.662	n/a	4	12	20	n/a	120	n/a	2	n/a	n/a	n/a	n/a	463.323	n/a
433.45	10.014	ITI	Fixation+	3.632	n/a	4	n/a	n/a	n/a	n/a	n/a	n/a	n/a	n/a	n/a	n/a	463.854	n/a
447.096	n/a	ConfirmRating	Rate	n/a	3.631	4	n/a	n/a	0	n/a	n/a	n/a	2	Angry	92	51	477.499	n/a
450.303	n/a	ConfirmRating	Rate	n/a	3.183	4	n/a	n/a	1	n/a	n/a	n/a	3	Angry	0	48	480.706	n/a
