onset	duration	trial_type	event_type	time_until_response	response_time	trial_number	block_num_within_trial	image_seq_num_within_block	question_seq_num_within_block	image_seq_num	picture_number	condition	question_type	block_type	rating	rating_computed	onset_uncorrected	KDEV_imagefile
0.007	10.014	ITI	Fixation+	96.994	n/a	1	n/a	n/a	n/a	n/a	n/a	n/a	n/a	n/a	n/a	n/a	29.323	n/a
10.037	0.497	happy	Picture	96.48	n/a	1	1	1	n/a	1	108	3	n/a	n/a	n/a	n/a	39.353	AM09ANS.jpg
10.535	0.514	Blank	Blank	95.966	n/a	1	1	1	n/a	1	n/a	3	n/a	n/a	n/a	n/a	39.85	n/a
11.065	0.497	happy	Picture	95.452	n/a	1	1	2	n/a	2	99	3	n/a	n/a	n/a	n/a	40.38	AF31ANS.jpg
11.563	0.514	Blank	Blank	94.938	n/a	1	1	2	n/a	2	n/a	3	n/a	n/a	n/a	n/a	40.878	n/a
12.093	0.497	happy	Picture	94.424	n/a	1	1	3	n/a	3	98	3	n/a	n/a	n/a	n/a	41.408	BF29ANS.jpg
12.59	0.514	Blank	Blank	93.91	n/a	1	1	3	n/a	3	n/a	3	n/a	n/a	n/a	n/a	41.906	n/a
13.121	0.497	happy	Picture	93.396	n/a	1	1	4	n/a	4	107	3	n/a	n/a	n/a	n/a	42.436	BM08ANS.jpg
13.618	0.514	Blank	Blank	92.882	n/a	1	1	4	n/a	4	n/a	3	n/a	n/a	n/a	n/a	42.934	n/a
14.149	0.497	happy	Picture	92.369	n/a	1	1	5	n/a	5	104	3	n/a	n/a	n/a	n/a	43.464	BM05ANS.jpg
14.646	0.514	Blank	Blank	91.855	n/a	1	1	5	n/a	5	n/a	3	n/a	n/a	n/a	n/a	43.962	n/a
15.177	0.497	happy	Picture	91.341	n/a	1	1	6	n/a	6	101	3	n/a	n/a	n/a	n/a	44.492	AM01ANS.jpg
15.674	0.514	Blank	Blank	90.827	n/a	1	1	6	n/a	6	n/a	3	n/a	n/a	n/a	n/a	44.989	n/a
16.205	0.497	happy	Picture	90.313	n/a	1	1	7	n/a	7	103	3	n/a	n/a	n/a	n/a	45.52	AM04ANS.jpg
16.702	0.514	Blank	Blank	89.799	n/a	1	1	7	n/a	7	n/a	3	n/a	n/a	n/a	n/a	46.017	n/a
17.233	0.497	happy	Picture	89.285	n/a	1	1	8	n/a	8	111	3	n/a	n/a	n/a	n/a	46.548	BM12ANS.jpg
17.73	0.514	Blank	Blank	88.771	n/a	1	1	8	n/a	8	n/a	3	n/a	n/a	n/a	n/a	47.045	n/a
18.26	0.497	happy	Picture	88.257	n/a	1	1	9	n/a	9	110	3	n/a	n/a	n/a	n/a	47.576	AM11ANS.jpg
18.758	0.514	Blank	Blank	87.743	n/a	1	1	9	n/a	9	n/a	3	n/a	n/a	n/a	n/a	48.073	n/a
19.288	0.497	happy	Picture	87.229	n/a	1	1	10	n/a	10	85	3	n/a	n/a	n/a	n/a	48.603	BF07ANS.jpg
19.786	0.514	Blank	Blank	86.715	n/a	1	1	10	n/a	10	n/a	3	n/a	n/a	n/a	n/a	49.101	n/a
20.316	0.497	happy	Picture	86.201	n/a	1	1	11	n/a	11	87	3	n/a	n/a	n/a	n/a	49.631	BF11ANS.jpg
20.813	0.514	Blank	Blank	85.687	n/a	1	1	11	n/a	11	n/a	3	n/a	n/a	n/a	n/a	50.129	n/a
21.344	0.497	happy	Picture	85.173	n/a	1	1	12	n/a	12	91	3	n/a	n/a	n/a	n/a	50.659	AF20ANS.jpg
21.841	0.514	Blank	Blank	84.659	n/a	1	1	12	n/a	12	n/a	3	n/a	n/a	n/a	n/a	51.157	n/a
22.372	0.497	happy	Picture	84.145	n/a	1	1	13	n/a	13	115	3	n/a	n/a	n/a	n/a	51.687	AM23ANS.jpg
22.869	0.514	Blank	Blank	83.632	n/a	1	1	13	n/a	13	n/a	3	n/a	n/a	n/a	n/a	52.185	n/a
23.4	0.497	happy	Picture	83.118	n/a	1	1	14	n/a	14	97	3	n/a	n/a	n/a	n/a	52.715	BF28ANS.jpg
23.897	0.514	Blank	Blank	82.604	n/a	1	1	14	n/a	14	n/a	3	n/a	n/a	n/a	n/a	53.212	n/a
24.428	0.497	happy	Picture	82.09	n/a	1	1	15	n/a	15	82	3	n/a	n/a	n/a	n/a	53.743	AF03ANS.jpg
24.925	0.514	Blank	Blank	81.576	n/a	1	1	15	n/a	15	n/a	3	n/a	n/a	n/a	n/a	54.24	n/a
25.456	0.497	happy	Picture	81.062	n/a	1	1	16	n/a	16	96	3	n/a	n/a	n/a	n/a	54.771	AF26ANS.jpg
25.953	0.514	Blank	Blank	80.548	n/a	1	1	16	n/a	16	n/a	3	n/a	n/a	n/a	n/a	55.268	n/a
26.483	0.497	happy	Picture	80.034	n/a	1	1	17	n/a	17	109	3	n/a	n/a	n/a	n/a	55.799	AM10ANS.jpg
26.981	0.514	Blank	Blank	79.52	n/a	1	1	17	n/a	17	n/a	3	n/a	n/a	n/a	n/a	56.296	n/a
27.511	0.497	happy	Picture	79.006	n/a	1	1	18	n/a	18	114	3	n/a	n/a	n/a	n/a	56.827	AM22ANS.jpg
28.009	0.514	Blank	Blank	78.492	n/a	1	1	18	n/a	18	n/a	3	n/a	n/a	n/a	n/a	57.324	n/a
28.539	0.497	happy	Picture	77.978	n/a	1	1	19	n/a	19	120	3	n/a	n/a	n/a	n/a	57.855	AM35ANS.jpg
29.036	0.514	Blank	Blank	77.464	n/a	1	1	19	n/a	19	n/a	3	n/a	n/a	n/a	n/a	58.352	n/a
29.567	0.497	happy	Picture	76.95	n/a	1	1	20	n/a	20	81	3	n/a	n/a	n/a	n/a	58.882	AF01ANS.jpg
30.064	0.514	Blank	Blank	76.436	n/a	1	1	20	n/a	20	n/a	3	n/a	n/a	n/a	n/a	59.38	n/a
30.595	10.014	ITI	Fixation+	66.406	n/a	1	n/a	n/a	n/a	n/a	n/a	n/a	n/a	n/a	n/a	n/a	59.91	n/a
40.625	0.497	neutral	Picture	65.892	n/a	1	2	1	n/a	21	28	1	n/a	n/a	n/a	n/a	69.94	AM09NES.jpg
41.122	0.514	Blank	Blank	65.378	n/a	1	2	1	n/a	21	n/a	1	n/a	n/a	n/a	n/a	70.438	n/a
41.653	0.497	neutral	Picture	64.864	n/a	1	2	2	n/a	22	27	1	n/a	n/a	n/a	n/a	70.968	BM08NES.jpg
42.15	0.514	Blank	Blank	64.35	n/a	1	2	2	n/a	22	n/a	1	n/a	n/a	n/a	n/a	71.466	n/a
42.681	0.497	neutral	Picture	63.837	n/a	1	2	3	n/a	23	16	1	n/a	n/a	n/a	n/a	71.996	AF26NES.jpg
43.178	0.514	Blank	Blank	63.323	n/a	1	2	3	n/a	23	n/a	1	n/a	n/a	n/a	n/a	72.493	n/a
43.709	0.497	neutral	Picture	62.809	n/a	1	2	4	n/a	24	3	1	n/a	n/a	n/a	n/a	73.024	BF04NES.jpg
44.206	0.514	Blank	Blank	62.295	n/a	1	2	4	n/a	24	n/a	1	n/a	n/a	n/a	n/a	73.521	n/a
44.737	0.497	neutral	Picture	61.781	n/a	1	2	5	n/a	25	32	1	n/a	n/a	n/a	n/a	74.052	AM14NES.jpg
45.234	0.514	Blank	Blank	61.267	n/a	1	2	5	n/a	25	n/a	1	n/a	n/a	n/a	n/a	74.549	n/a
45.765	0.497	neutral	Picture	60.753	n/a	1	2	6	n/a	26	37	1	n/a	n/a	n/a	n/a	75.08	BM25NES.jpg
46.262	0.514	Blank	Blank	60.239	n/a	1	2	6	n/a	26	n/a	1	n/a	n/a	n/a	n/a	75.577	n/a
46.792	0.497	neutral	Picture	59.725	n/a	1	2	7	n/a	27	15	1	n/a	n/a	n/a	n/a	76.108	AF25NES.jpg
47.29	0.514	Blank	Blank	59.211	n/a	1	2	7	n/a	27	n/a	1	n/a	n/a	n/a	n/a	76.605	n/a
47.82	0.497	neutral	Picture	58.697	n/a	1	2	8	n/a	28	23	1	n/a	n/a	n/a	n/a	77.136	AM04NES.jpg
48.318	0.514	Blank	Blank	58.183	n/a	1	2	8	n/a	28	n/a	1	n/a	n/a	n/a	n/a	77.633	n/a
48.848	0.497	neutral	Picture	57.669	n/a	1	2	9	n/a	29	34	1	n/a	n/a	n/a	n/a	78.163	AM22NES.jpg
49.345	0.514	Blank	Blank	57.155	n/a	1	2	9	n/a	29	n/a	1	n/a	n/a	n/a	n/a	78.661	n/a
49.876	0.497	neutral	Picture	56.641	n/a	1	2	10	n/a	30	24	1	n/a	n/a	n/a	n/a	79.191	BM05NES.jpg
50.373	0.514	Blank	Blank	56.127	n/a	1	2	10	n/a	30	n/a	1	n/a	n/a	n/a	n/a	79.689	n/a
50.904	0.497	neutral	Picture	55.613	n/a	1	2	11	n/a	31	12	1	n/a	n/a	n/a	n/a	80.219	AF21NES.jpg
51.401	0.514	Blank	Blank	55.1	n/a	1	2	11	n/a	31	n/a	1	n/a	n/a	n/a	n/a	80.717	n/a
51.932	0.497	neutral	Picture	54.586	n/a	1	2	12	n/a	32	6	1	n/a	n/a	n/a	n/a	81.247	AF09NES.jpg
52.429	0.514	Blank	Blank	54.072	n/a	1	2	12	n/a	32	n/a	1	n/a	n/a	n/a	n/a	81.745	n/a
52.96	0.497	neutral	Picture	53.558	n/a	1	2	13	n/a	33	17	1	n/a	n/a	n/a	n/a	82.275	BF28NES.jpg
53.457	0.514	Blank	Blank	53.044	n/a	1	2	13	n/a	33	n/a	1	n/a	n/a	n/a	n/a	82.772	n/a
53.988	0.497	neutral	Picture	52.53	n/a	1	2	14	n/a	34	2	1	n/a	n/a	n/a	n/a	83.303	AF03NES.jpg
54.485	0.514	Blank	Blank	52.016	n/a	1	2	14	n/a	34	n/a	1	n/a	n/a	n/a	n/a	83.8	n/a
55.015	0.497	neutral	Picture	51.502	n/a	1	2	15	n/a	35	9	1	n/a	n/a	n/a	n/a	84.331	AF17NES.jpg
55.513	0.514	Blank	Blank	50.988	n/a	1	2	15	n/a	35	n/a	1	n/a	n/a	n/a	n/a	84.828	n/a
56.043	0.497	neutral	Picture	50.474	n/a	1	2	16	n/a	36	25	1	n/a	n/a	n/a	n/a	85.359	BM06NES.jpg
56.541	0.514	Blank	Blank	49.96	n/a	1	2	16	n/a	36	n/a	1	n/a	n/a	n/a	n/a	85.856	n/a
57.071	0.497	neutral	Picture	49.446	n/a	1	2	17	n/a	37	8	1	n/a	n/a	n/a	n/a	86.386	AF14NES.jpg
57.569	0.514	Blank	Blank	48.932	n/a	1	2	17	n/a	37	n/a	1	n/a	n/a	n/a	n/a	86.884	n/a
58.099	0.497	neutral	Picture	48.418	n/a	1	2	18	n/a	38	19	1	n/a	n/a	n/a	n/a	87.414	AF31NES.jpg
58.596	0.514	Blank	Blank	47.904	n/a	1	2	18	n/a	38	n/a	1	n/a	n/a	n/a	n/a	87.912	n/a
59.127	0.497	neutral	Picture	47.39	n/a	1	2	19	n/a	39	14	1	n/a	n/a	n/a	n/a	88.442	AF23NES.jpg
59.624	0.514	Blank	Blank	46.876	n/a	1	2	19	n/a	39	n/a	1	n/a	n/a	n/a	n/a	88.94	n/a
60.155	0.497	neutral	Picture	46.363	n/a	1	2	20	n/a	40	4	1	n/a	n/a	n/a	n/a	89.47	AF05NES.jpg
60.652	0.514	Blank	Blank	45.849	n/a	1	2	20	n/a	40	n/a	1	n/a	n/a	n/a	n/a	89.968	n/a
61.183	10.014	ITI	Fixation+	35.818	n/a	1	n/a	n/a	n/a	n/a	n/a	n/a	n/a	n/a	n/a	n/a	90.498	n/a
71.213	0.497	happy	Picture	35.305	n/a	1	3	1	n/a	41	84	3	n/a	n/a	n/a	n/a	100.528	AF05ANS.jpg
71.71	0.514	Blank	Blank	34.791	n/a	1	3	1	n/a	41	n/a	3	n/a	n/a	n/a	n/a	101.025	n/a
72.241	0.497	happy	Picture	34.277	n/a	1	3	2	n/a	42	92	3	n/a	n/a	n/a	n/a	101.556	AF21ANS.jpg
72.738	0.514	Blank	Blank	33.763	n/a	1	3	2	n/a	42	n/a	3	n/a	n/a	n/a	n/a	102.053	n/a
73.269	0.497	happy	Picture	33.249	n/a	1	3	3	n/a	43	86	3	n/a	n/a	n/a	n/a	102.584	AF09ANS.jpg
73.766	0.514	Blank	Blank	32.735	n/a	1	3	3	n/a	43	n/a	3	n/a	n/a	n/a	n/a	103.081	n/a
74.297	0.497	happy	Picture	32.221	n/a	1	3	4	n/a	44	93	3	n/a	n/a	n/a	n/a	103.612	BF22ANS.jpg
74.794	0.514	Blank	Blank	31.707	n/a	1	3	4	n/a	44	n/a	3	n/a	n/a	n/a	n/a	104.109	n/a
75.324	0.497	happy	Picture	31.193	n/a	1	3	5	n/a	45	88	3	n/a	n/a	n/a	n/a	104.64	AF14ANS.jpg
75.822	0.514	Blank	Blank	30.679	n/a	1	3	5	n/a	45	n/a	3	n/a	n/a	n/a	n/a	105.137	n/a
76.352	0.497	happy	Picture	30.165	n/a	1	3	6	n/a	46	113	3	n/a	n/a	n/a	n/a	105.668	AM21ANS.jpg
76.85	0.514	Blank	Blank	29.651	n/a	1	3	6	n/a	46	n/a	3	n/a	n/a	n/a	n/a	106.165	n/a
77.38	0.497	happy	Picture	29.137	n/a	1	3	7	n/a	47	95	3	n/a	n/a	n/a	n/a	106.695	AF25ANS.jpg
77.877	0.514	Blank	Blank	28.623	n/a	1	3	7	n/a	47	n/a	3	n/a	n/a	n/a	n/a	107.193	n/a
78.408	0.497	happy	Picture	28.109	n/a	1	3	8	n/a	48	102	3	n/a	n/a	n/a	n/a	107.723	BM03ANS.jpg
78.905	0.514	Blank	Blank	27.595	n/a	1	3	8	n/a	48	n/a	3	n/a	n/a	n/a	n/a	108.221	n/a
79.436	0.497	happy	Picture	27.081	n/a	1	3	9	n/a	49	112	3	n/a	n/a	n/a	n/a	108.751	AM14ANS.jpg
79.933	0.514	Blank	Blank	26.568	n/a	1	3	9	n/a	49	n/a	3	n/a	n/a	n/a	n/a	109.249	n/a
80.464	0.497	happy	Picture	26.054	n/a	1	3	10	n/a	50	83	3	n/a	n/a	n/a	n/a	109.779	BF04ANS.jpg
80.961	0.514	Blank	Blank	25.54	n/a	1	3	10	n/a	50	n/a	3	n/a	n/a	n/a	n/a	110.276	n/a
81.492	0.497	happy	Picture	25.026	n/a	1	3	11	n/a	51	90	3	n/a	n/a	n/a	n/a	110.807	AF18ANS.jpg
81.989	0.514	Blank	Blank	24.512	n/a	1	3	11	n/a	51	n/a	3	n/a	n/a	n/a	n/a	111.304	n/a
82.52	0.497	happy	Picture	23.998	n/a	1	3	12	n/a	52	117	3	n/a	n/a	n/a	n/a	111.835	BM25ANS.jpg
83.017	0.514	Blank	Blank	23.484	n/a	1	3	12	n/a	52	n/a	3	n/a	n/a	n/a	n/a	112.332	n/a
83.547	0.497	happy	Picture	22.97	n/a	1	3	13	n/a	53	94	3	n/a	n/a	n/a	n/a	112.863	AF23ANS.jpg
84.045	0.514	Blank	Blank	22.456	n/a	1	3	13	n/a	53	n/a	3	n/a	n/a	n/a	n/a	113.36	n/a
84.575	0.497	happy	Picture	21.942	n/a	1	3	14	n/a	54	106	3	n/a	n/a	n/a	n/a	113.891	AM07ANS.jpg
85.073	0.514	Blank	Blank	21.428	n/a	1	3	14	n/a	54	n/a	3	n/a	n/a	n/a	n/a	114.388	n/a
85.603	0.497	happy	Picture	20.914	n/a	1	3	15	n/a	55	105	3	n/a	n/a	n/a	n/a	114.918	BM06ANS.jpg
86.101	0.514	Blank	Blank	20.4	n/a	1	3	15	n/a	55	n/a	3	n/a	n/a	n/a	n/a	115.416	n/a
86.631	0.497	happy	Picture	19.886	n/a	1	3	16	n/a	56	116	3	n/a	n/a	n/a	n/a	115.946	BM24ANS.jpg
87.129	0.514	Blank	Blank	19.372	n/a	1	3	16	n/a	56	n/a	3	n/a	n/a	n/a	n/a	116.444	n/a
87.659	0.497	happy	Picture	18.858	n/a	1	3	17	n/a	57	89	3	n/a	n/a	n/a	n/a	116.974	AF17ANS.jpg
88.156	0.514	Blank	Blank	18.344	n/a	1	3	17	n/a	57	n/a	3	n/a	n/a	n/a	n/a	117.472	n/a
88.687	0.497	happy	Picture	17.831	n/a	1	3	18	n/a	58	118	3	n/a	n/a	n/a	n/a	118.002	BM26ANS.jpg
89.184	0.514	Blank	Blank	17.317	n/a	1	3	18	n/a	58	n/a	3	n/a	n/a	n/a	n/a	118.499	n/a
89.715	0.497	happy	Picture	16.803	n/a	1	3	19	n/a	59	100	3	n/a	n/a	n/a	n/a	119.03	AF32ANS.jpg
90.212	0.514	Blank	Blank	16.289	n/a	1	3	19	n/a	59	n/a	3	n/a	n/a	n/a	n/a	119.527	n/a
90.743	0.497	happy	Picture	15.775	n/a	1	3	20	n/a	60	119	3	n/a	n/a	n/a	n/a	120.058	BM28ANS.jpg
91.24	0.514	Blank	Blank	15.261	n/a	1	3	20	n/a	60	n/a	3	n/a	n/a	n/a	n/a	120.555	n/a
91.77	10.014	ITI	Fixation+	5.231	n/a	1	n/a	n/a	n/a	n/a	n/a	n/a	n/a	n/a	n/a	n/a	121.086	n/a
107.015	n/a	ConfirmRating	Rate	n/a	5.222	1	n/a	n/a	0	n/a	n/a	n/a	2	Happy	75	52	136.33	n/a
111.434	n/a	ConfirmRating	Rate	n/a	4.41	1	n/a	n/a	1	n/a	n/a	n/a	3	Happy	0	49	140.749	n/a
111.466	10.014	ITI	Fixation+	97.557	n/a	2	n/a	n/a	n/a	n/a	n/a	n/a	n/a	n/a	n/a	n/a	140.781	n/a
121.496	0.497	angry	Picture	97.043	n/a	2	4	1	n/a	61	79	2	n/a	n/a	n/a	n/a	150.811	BM28HAS.jpg
121.994	0.514	Blank	Blank	96.529	n/a	2	4	1	n/a	61	n/a	2	n/a	n/a	n/a	n/a	151.309	n/a
122.524	0.497	angry	Picture	96.015	n/a	2	4	2	n/a	62	61	2	n/a	n/a	n/a	n/a	151.839	AM01HAS.jpg
123.022	0.514	Blank	Blank	95.501	n/a	2	4	2	n/a	62	n/a	2	n/a	n/a	n/a	n/a	152.337	n/a
123.552	0.497	angry	Picture	94.987	n/a	2	4	3	n/a	63	57	2	n/a	n/a	n/a	n/a	152.867	BF28HAS.jpg
124.049	0.514	Blank	Blank	94.473	n/a	2	4	3	n/a	63	n/a	2	n/a	n/a	n/a	n/a	153.365	n/a
124.58	0.497	angry	Picture	93.96	n/a	2	4	4	n/a	64	77	2	n/a	n/a	n/a	n/a	153.895	BM25HAS.jpg
125.077	0.514	Blank	Blank	93.445	n/a	2	4	4	n/a	64	n/a	2	n/a	n/a	n/a	n/a	154.393	n/a
125.608	0.497	angry	Picture	92.932	n/a	2	4	5	n/a	65	47	2	n/a	n/a	n/a	n/a	154.923	BF11HAS.jpg
126.105	0.514	Blank	Blank	92.418	n/a	2	4	5	n/a	65	n/a	2	n/a	n/a	n/a	n/a	155.42	n/a
126.636	0.497	angry	Picture	91.904	n/a	2	4	6	n/a	66	50	2	n/a	n/a	n/a	n/a	155.951	AF18HAS.jpg
127.133	0.514	Blank	Blank	91.39	n/a	2	4	6	n/a	66	n/a	2	n/a	n/a	n/a	n/a	156.448	n/a
127.663	0.497	angry	Picture	90.876	n/a	2	4	7	n/a	67	78	2	n/a	n/a	n/a	n/a	156.979	BM26HAS.jpg
128.161	0.514	Blank	Blank	90.362	n/a	2	4	7	n/a	67	n/a	2	n/a	n/a	n/a	n/a	157.476	n/a
128.691	0.497	angry	Picture	89.848	n/a	2	4	8	n/a	68	45	2	n/a	n/a	n/a	n/a	158.007	BF07HAS.jpg
129.189	0.514	Blank	Blank	89.334	n/a	2	4	8	n/a	68	n/a	2	n/a	n/a	n/a	n/a	158.504	n/a
129.719	0.497	angry	Picture	88.82	n/a	2	4	9	n/a	69	56	2	n/a	n/a	n/a	n/a	159.035	AF26HAS.jpg
130.217	0.514	Blank	Blank	88.306	n/a	2	4	9	n/a	69	n/a	2	n/a	n/a	n/a	n/a	159.532	n/a
130.747	0.497	angry	Picture	87.792	n/a	2	4	10	n/a	70	65	2	n/a	n/a	n/a	n/a	160.063	BM06HAS.jpg
131.244	0.514	Blank	Blank	87.278	n/a	2	4	10	n/a	70	n/a	2	n/a	n/a	n/a	n/a	160.56	n/a
131.775	0.497	angry	Picture	86.764	n/a	2	4	11	n/a	71	73	2	n/a	n/a	n/a	n/a	161.09	AM21HAS.jpg
132.272	0.514	Blank	Blank	86.25	n/a	2	4	11	n/a	71	n/a	2	n/a	n/a	n/a	n/a	161.588	n/a
132.803	0.497	angry	Picture	85.736	n/a	2	4	12	n/a	72	41	2	n/a	n/a	n/a	n/a	162.118	AF01HAS.jpg
133.3	0.514	Blank	Blank	85.222	n/a	2	4	12	n/a	72	n/a	2	n/a	n/a	n/a	n/a	162.616	n/a
133.831	0.497	angry	Picture	84.709	n/a	2	4	13	n/a	73	59	2	n/a	n/a	n/a	n/a	163.146	AF31HAS.jpg
134.328	0.514	Blank	Blank	84.195	n/a	2	4	13	n/a	73	n/a	2	n/a	n/a	n/a	n/a	163.643	n/a
134.859	0.497	angry	Picture	83.681	n/a	2	4	14	n/a	74	64	2	n/a	n/a	n/a	n/a	164.174	BM05HAS.jpg
135.356	0.514	Blank	Blank	83.167	n/a	2	4	14	n/a	74	n/a	2	n/a	n/a	n/a	n/a	164.671	n/a
135.887	0.497	angry	Picture	82.653	n/a	2	4	15	n/a	75	68	2	n/a	n/a	n/a	n/a	165.202	AM09HAS.jpg
136.384	0.514	Blank	Blank	82.139	n/a	2	4	15	n/a	75	n/a	2	n/a	n/a	n/a	n/a	165.699	n/a
136.915	0.497	angry	Picture	81.625	n/a	2	4	16	n/a	76	54	2	n/a	n/a	n/a	n/a	166.23	AF23HAS.jpg
137.412	0.514	Blank	Blank	81.111	n/a	2	4	16	n/a	76	n/a	2	n/a	n/a	n/a	n/a	166.727	n/a
137.942	0.497	angry	Picture	80.597	n/a	2	4	17	n/a	77	53	2	n/a	n/a	n/a	n/a	167.258	BF22HAS.jpg
138.44	0.514	Blank	Blank	80.083	n/a	2	4	17	n/a	77	n/a	2	n/a	n/a	n/a	n/a	167.755	n/a
138.97	0.497	angry	Picture	79.569	n/a	2	4	18	n/a	78	44	2	n/a	n/a	n/a	n/a	168.286	AF05HAS.jpg
139.468	0.514	Blank	Blank	79.055	n/a	2	4	18	n/a	78	n/a	2	n/a	n/a	n/a	n/a	168.783	n/a
139.998	0.497	angry	Picture	78.541	n/a	2	4	19	n/a	79	52	2	n/a	n/a	n/a	n/a	169.313	AF21HAS.jpg
140.495	0.514	Blank	Blank	78.027	n/a	2	4	19	n/a	79	n/a	2	n/a	n/a	n/a	n/a	169.811	n/a
141.026	0.497	angry	Picture	77.513	n/a	2	4	20	n/a	80	62	2	n/a	n/a	n/a	n/a	170.341	BM03HAS.jpg
141.523	0.514	Blank	Blank	76.999	n/a	2	4	20	n/a	80	n/a	2	n/a	n/a	n/a	n/a	170.839	n/a
142.054	10.014	ITI	Fixation+	66.969	n/a	2	n/a	n/a	n/a	n/a	n/a	n/a	n/a	n/a	n/a	n/a	171.369	n/a
152.084	0.497	neutral	Picture	66.455	n/a	2	5	1	n/a	81	23	1	n/a	n/a	n/a	n/a	181.399	AM04NES.jpg
152.581	0.514	Blank	Blank	65.941	n/a	2	5	1	n/a	81	n/a	1	n/a	n/a	n/a	n/a	181.897	n/a
153.112	0.497	neutral	Picture	65.427	n/a	2	5	2	n/a	82	29	1	n/a	n/a	n/a	n/a	182.427	AM10NES.jpg
153.609	0.514	Blank	Blank	64.913	n/a	2	5	2	n/a	82	n/a	1	n/a	n/a	n/a	n/a	182.925	n/a
154.14	0.497	neutral	Picture	64.4	n/a	2	5	3	n/a	83	24	1	n/a	n/a	n/a	n/a	183.455	BM05NES.jpg
154.637	0.514	Blank	Blank	63.886	n/a	2	5	3	n/a	83	n/a	1	n/a	n/a	n/a	n/a	183.952	n/a
155.168	0.497	neutral	Picture	63.372	n/a	2	5	4	n/a	84	12	1	n/a	n/a	n/a	n/a	184.483	AF21NES.jpg
155.665	0.514	Blank	Blank	62.858	n/a	2	5	4	n/a	84	n/a	1	n/a	n/a	n/a	n/a	184.98	n/a
156.195	0.497	neutral	Picture	62.344	n/a	2	5	5	n/a	85	13	1	n/a	n/a	n/a	n/a	185.511	BF22NES.jpg
156.693	0.514	Blank	Blank	61.83	n/a	2	5	5	n/a	85	n/a	1	n/a	n/a	n/a	n/a	186.008	n/a
157.223	0.497	neutral	Picture	61.316	n/a	2	5	6	n/a	86	17	1	n/a	n/a	n/a	n/a	186.539	BF28NES.jpg
157.721	0.514	Blank	Blank	60.802	n/a	2	5	6	n/a	86	n/a	1	n/a	n/a	n/a	n/a	187.036	n/a
158.251	0.497	neutral	Picture	60.288	n/a	2	5	7	n/a	87	4	1	n/a	n/a	n/a	n/a	187.567	AF05NES.jpg
158.749	0.514	Blank	Blank	59.774	n/a	2	5	7	n/a	87	n/a	1	n/a	n/a	n/a	n/a	188.064	n/a
159.279	0.497	neutral	Picture	59.26	n/a	2	5	8	n/a	88	11	1	n/a	n/a	n/a	n/a	188.595	AF20NES.jpg
159.777	0.514	Blank	Blank	58.746	n/a	2	5	8	n/a	88	n/a	1	n/a	n/a	n/a	n/a	189.092	n/a
160.307	0.497	neutral	Picture	58.232	n/a	2	5	9	n/a	89	22	1	n/a	n/a	n/a	n/a	189.622	BM03NES.jpg
160.804	0.514	Blank	Blank	57.718	n/a	2	5	9	n/a	89	n/a	1	n/a	n/a	n/a	n/a	190.12	n/a
161.335	0.497	neutral	Picture	57.204	n/a	2	5	10	n/a	90	15	1	n/a	n/a	n/a	n/a	190.65	AF25NES.jpg
161.832	0.514	Blank	Blank	56.69	n/a	2	5	10	n/a	90	n/a	1	n/a	n/a	n/a	n/a	191.148	n/a
162.363	0.497	neutral	Picture	56.177	n/a	2	5	11	n/a	91	19	1	n/a	n/a	n/a	n/a	191.678	AF31NES.jpg
162.86	0.514	Blank	Blank	55.663	n/a	2	5	11	n/a	91	n/a	1	n/a	n/a	n/a	n/a	192.175	n/a
163.391	0.497	neutral	Picture	55.149	n/a	2	5	12	n/a	92	9	1	n/a	n/a	n/a	n/a	192.706	AF17NES.jpg
163.888	0.514	Blank	Blank	54.635	n/a	2	5	12	n/a	92	n/a	1	n/a	n/a	n/a	n/a	193.203	n/a
164.419	0.497	neutral	Picture	54.121	n/a	2	5	13	n/a	93	14	1	n/a	n/a	n/a	n/a	193.734	AF23NES.jpg
164.916	0.514	Blank	Blank	53.607	n/a	2	5	13	n/a	93	n/a	1	n/a	n/a	n/a	n/a	194.231	n/a
165.446	0.497	neutral	Picture	53.093	n/a	2	5	14	n/a	94	36	1	n/a	n/a	n/a	n/a	194.762	BM24NES.jpg
165.944	0.514	Blank	Blank	52.579	n/a	2	5	14	n/a	94	n/a	1	n/a	n/a	n/a	n/a	195.259	n/a
166.474	0.497	neutral	Picture	52.065	n/a	2	5	15	n/a	95	34	1	n/a	n/a	n/a	n/a	195.79	AM22NES.jpg
166.972	0.514	Blank	Blank	51.551	n/a	2	5	15	n/a	95	n/a	1	n/a	n/a	n/a	n/a	196.287	n/a
167.502	0.497	neutral	Picture	51.037	n/a	2	5	16	n/a	96	10	1	n/a	n/a	n/a	n/a	196.817	AF18NES.jpg
168.0	0.514	Blank	Blank	50.523	n/a	2	5	16	n/a	96	n/a	1	n/a	n/a	n/a	n/a	197.315	n/a
168.53	0.497	neutral	Picture	50.009	n/a	2	5	17	n/a	97	5	1	n/a	n/a	n/a	n/a	197.845	BF07NES.jpg
169.028	0.514	Blank	Blank	49.495	n/a	2	5	17	n/a	97	n/a	1	n/a	n/a	n/a	n/a	198.343	n/a
169.558	0.497	neutral	Picture	48.981	n/a	2	5	18	n/a	98	25	1	n/a	n/a	n/a	n/a	198.873	BM06NES.jpg
170.055	0.514	Blank	Blank	48.467	n/a	2	5	18	n/a	98	n/a	1	n/a	n/a	n/a	n/a	199.371	n/a
170.586	0.497	neutral	Picture	47.953	n/a	2	5	19	n/a	99	39	1	n/a	n/a	n/a	n/a	199.901	AM28NES.jpg
171.083	0.514	Blank	Blank	47.44	n/a	2	5	19	n/a	99	n/a	1	n/a	n/a	n/a	n/a	200.399	n/a
171.614	0.497	neutral	Picture	46.926	n/a	2	5	20	n/a	100	33	1	n/a	n/a	n/a	n/a	200.929	AM21NES.jpg
172.111	0.514	Blank	Blank	46.412	n/a	2	5	20	n/a	100	n/a	1	n/a	n/a	n/a	n/a	201.426	n/a
172.642	10.014	ITI	Fixation+	36.382	n/a	2	n/a	n/a	n/a	n/a	n/a	n/a	n/a	n/a	n/a	n/a	201.957	n/a
182.672	0.497	angry	Picture	35.868	n/a	2	6	1	n/a	101	74	2	n/a	n/a	n/a	n/a	211.987	AM22HAS.jpg
183.169	0.514	Blank	Blank	35.354	n/a	2	6	1	n/a	101	n/a	2	n/a	n/a	n/a	n/a	212.484	n/a
183.7	0.497	angry	Picture	34.84	n/a	2	6	2	n/a	102	76	2	n/a	n/a	n/a	n/a	213.015	BM24HAS.jpg
184.197	0.514	Blank	Blank	34.326	n/a	2	6	2	n/a	102	n/a	2	n/a	n/a	n/a	n/a	213.512	n/a
184.728	0.497	angry	Picture	33.812	n/a	2	6	3	n/a	103	80	2	n/a	n/a	n/a	n/a	214.043	BM35HAS.jpg
185.225	0.514	Blank	Blank	33.298	n/a	2	6	3	n/a	103	n/a	2	n/a	n/a	n/a	n/a	214.54	n/a
185.755	0.497	angry	Picture	32.784	n/a	2	6	4	n/a	104	75	2	n/a	n/a	n/a	n/a	215.071	AM23HAS.jpg
186.253	0.514	Blank	Blank	32.27	n/a	2	6	4	n/a	104	n/a	2	n/a	n/a	n/a	n/a	215.568	n/a
186.783	0.497	angry	Picture	31.756	n/a	2	6	5	n/a	105	49	2	n/a	n/a	n/a	n/a	216.099	AF17HAS.jpg
187.281	0.514	Blank	Blank	31.242	n/a	2	6	5	n/a	105	n/a	2	n/a	n/a	n/a	n/a	216.596	n/a
187.811	0.497	angry	Picture	30.728	n/a	2	6	6	n/a	106	43	2	n/a	n/a	n/a	n/a	217.126	BF04HAS.jpg
188.309	0.514	Blank	Blank	30.214	n/a	2	6	6	n/a	106	n/a	2	n/a	n/a	n/a	n/a	217.624	n/a
188.839	0.497	angry	Picture	29.7	n/a	2	6	7	n/a	107	70	2	n/a	n/a	n/a	n/a	218.154	BM11HAS.jpg
189.337	0.514	Blank	Blank	29.186	n/a	2	6	7	n/a	107	n/a	2	n/a	n/a	n/a	n/a	218.652	n/a
189.867	0.497	angry	Picture	28.672	n/a	2	6	8	n/a	108	66	2	n/a	n/a	n/a	n/a	219.182	BM07HAS.jpg
190.364	0.514	Blank	Blank	28.158	n/a	2	6	8	n/a	108	n/a	2	n/a	n/a	n/a	n/a	219.68	n/a
190.895	0.497	angry	Picture	27.645	n/a	2	6	9	n/a	109	48	2	n/a	n/a	n/a	n/a	220.21	AF14HAS.jpg
191.392	0.514	Blank	Blank	27.13	n/a	2	6	9	n/a	109	n/a	2	n/a	n/a	n/a	n/a	220.708	n/a
191.923	0.497	angry	Picture	26.617	n/a	2	6	10	n/a	110	58	2	n/a	n/a	n/a	n/a	221.238	BF29HAS.jpg
192.42	0.514	Blank	Blank	26.103	n/a	2	6	10	n/a	110	n/a	2	n/a	n/a	n/a	n/a	221.735	n/a
192.951	0.497	angry	Picture	25.589	n/a	2	6	11	n/a	111	63	2	n/a	n/a	n/a	n/a	222.266	AM04HAS.jpg
193.448	0.514	Blank	Blank	25.075	n/a	2	6	11	n/a	111	n/a	2	n/a	n/a	n/a	n/a	222.763	n/a
193.978	0.497	angry	Picture	24.561	n/a	2	6	12	n/a	112	72	2	n/a	n/a	n/a	n/a	223.294	AM14HAS.jpg
194.476	0.514	Blank	Blank	24.047	n/a	2	6	12	n/a	112	n/a	2	n/a	n/a	n/a	n/a	223.791	n/a
195.006	0.497	angry	Picture	23.533	n/a	2	6	13	n/a	113	55	2	n/a	n/a	n/a	n/a	224.322	AF25HAS.jpg
195.504	0.514	Blank	Blank	23.019	n/a	2	6	13	n/a	113	n/a	2	n/a	n/a	n/a	n/a	224.819	n/a
196.034	0.497	angry	Picture	22.505	n/a	2	6	14	n/a	114	42	2	n/a	n/a	n/a	n/a	225.35	AF03HAS.jpg
196.532	0.514	Blank	Blank	21.991	n/a	2	6	14	n/a	114	n/a	2	n/a	n/a	n/a	n/a	225.847	n/a
197.062	0.497	angry	Picture	21.477	n/a	2	6	15	n/a	115	60	2	n/a	n/a	n/a	n/a	226.377	AF32HAS.jpg
197.559	0.514	Blank	Blank	20.963	n/a	2	6	15	n/a	115	n/a	2	n/a	n/a	n/a	n/a	226.875	n/a
198.09	0.497	angry	Picture	20.449	n/a	2	6	16	n/a	116	67	2	n/a	n/a	n/a	n/a	227.405	BM08HAS.jpg
198.587	0.514	Blank	Blank	19.935	n/a	2	6	16	n/a	116	n/a	2	n/a	n/a	n/a	n/a	227.903	n/a
199.118	0.497	angry	Picture	19.421	n/a	2	6	17	n/a	117	51	2	n/a	n/a	n/a	n/a	228.433	AF20HAS.jpg
199.615	0.514	Blank	Blank	18.907	n/a	2	6	17	n/a	117	n/a	2	n/a	n/a	n/a	n/a	228.931	n/a
200.146	0.497	angry	Picture	18.394	n/a	2	6	18	n/a	118	71	2	n/a	n/a	n/a	n/a	229.461	BM12HAS.jpg
200.643	0.514	Blank	Blank	17.88	n/a	2	6	18	n/a	118	n/a	2	n/a	n/a	n/a	n/a	229.958	n/a
201.174	0.497	angry	Picture	17.366	n/a	2	6	19	n/a	119	69	2	n/a	n/a	n/a	n/a	230.489	AM10HAS.jpg
201.671	0.514	Blank	Blank	16.852	n/a	2	6	19	n/a	119	n/a	2	n/a	n/a	n/a	n/a	230.986	n/a
202.202	0.497	angry	Picture	16.338	n/a	2	6	20	n/a	120	46	2	n/a	n/a	n/a	n/a	231.517	AF09HAS.jpg
202.699	0.514	Blank	Blank	15.824	n/a	2	6	20	n/a	120	n/a	2	n/a	n/a	n/a	n/a	232.014	n/a
203.229	10.014	ITI	Fixation+	5.794	n/a	2	n/a	n/a	n/a	n/a	n/a	n/a	n/a	n/a	n/a	n/a	232.545	n/a
219.037	n/a	ConfirmRating	Rate	n/a	5.786	2	n/a	n/a	0	n/a	n/a	n/a	2	Angry	76	52	248.352	n/a
222.672	n/a	ConfirmRating	Rate	n/a	3.614	2	n/a	n/a	1	n/a	n/a	n/a	3	Angry	0	45	251.987	n/a
222.693	15.004	Rest	Picture	n/a	n/a	n/a	n/a	n/a	n/a	n/a	n/a	n/a	0	n/a	0	0	252.008	n/a
237.713	10.014	ITI	Fixation+	95.751	n/a	3	n/a	n/a	n/a	n/a	n/a	n/a	n/a	n/a	n/a	n/a	267.029	n/a
247.743	0.497	happy	Picture	95.237	n/a	3	7	1	n/a	1	108	3	n/a	n/a	n/a	n/a	277.059	AM09ANS.jpg
248.241	0.514	Blank	Blank	94.723	n/a	3	7	1	n/a	1	n/a	3	n/a	n/a	n/a	n/a	277.556	n/a
248.771	0.497	happy	Picture	94.209	n/a	3	7	2	n/a	2	99	3	n/a	n/a	n/a	n/a	278.087	AF31ANS.jpg
249.269	0.514	Blank	Blank	93.695	n/a	3	7	2	n/a	2	n/a	3	n/a	n/a	n/a	n/a	278.584	n/a
249.799	0.497	happy	Picture	93.181	n/a	3	7	3	n/a	3	98	3	n/a	n/a	n/a	n/a	279.114	BF29ANS.jpg
250.297	0.514	Blank	Blank	92.667	n/a	3	7	3	n/a	3	n/a	3	n/a	n/a	n/a	n/a	279.612	n/a
250.827	0.497	happy	Picture	92.153	n/a	3	7	4	n/a	4	107	3	n/a	n/a	n/a	n/a	280.142	BM08ANS.jpg
251.324	0.514	Blank	Blank	91.639	n/a	3	7	4	n/a	4	n/a	3	n/a	n/a	n/a	n/a	280.64	n/a
251.855	0.497	happy	Picture	91.125	n/a	3	7	5	n/a	5	104	3	n/a	n/a	n/a	n/a	281.17	BM05ANS.jpg
252.352	0.514	Blank	Blank	90.611	n/a	3	7	5	n/a	5	n/a	3	n/a	n/a	n/a	n/a	281.668	n/a
252.883	0.497	happy	Picture	90.097	n/a	3	7	6	n/a	6	101	3	n/a	n/a	n/a	n/a	282.198	AM01ANS.jpg
253.38	0.514	Blank	Blank	89.583	n/a	3	7	6	n/a	6	n/a	3	n/a	n/a	n/a	n/a	282.695	n/a
253.911	0.497	happy	Picture	89.069	n/a	3	7	7	n/a	7	103	3	n/a	n/a	n/a	n/a	283.226	AM04ANS.jpg
254.408	0.514	Blank	Blank	88.555	n/a	3	7	7	n/a	7	n/a	3	n/a	n/a	n/a	n/a	283.723	n/a
254.939	0.497	happy	Picture	88.042	n/a	3	7	8	n/a	8	111	3	n/a	n/a	n/a	n/a	284.254	BM12ANS.jpg
255.436	0.514	Blank	Blank	87.528	n/a	3	7	8	n/a	8	n/a	3	n/a	n/a	n/a	n/a	284.751	n/a
255.966	0.497	happy	Picture	87.014	n/a	3	7	9	n/a	9	110	3	n/a	n/a	n/a	n/a	285.282	AM11ANS.jpg
256.464	0.514	Blank	Blank	86.5	n/a	3	7	9	n/a	9	n/a	3	n/a	n/a	n/a	n/a	285.779	n/a
256.994	0.497	happy	Picture	85.986	n/a	3	7	10	n/a	10	85	3	n/a	n/a	n/a	n/a	286.31	BF07ANS.jpg
257.492	0.514	Blank	Blank	85.472	n/a	3	7	10	n/a	10	n/a	3	n/a	n/a	n/a	n/a	286.807	n/a
258.022	0.497	happy	Picture	84.958	n/a	3	7	11	n/a	11	87	3	n/a	n/a	n/a	n/a	287.337	BF11ANS.jpg
258.52	0.514	Blank	Blank	84.444	n/a	3	7	11	n/a	11	n/a	3	n/a	n/a	n/a	n/a	287.835	n/a
259.05	0.497	happy	Picture	83.93	n/a	3	7	12	n/a	12	91	3	n/a	n/a	n/a	n/a	288.365	AF20ANS.jpg
259.548	0.514	Blank	Blank	83.416	n/a	3	7	12	n/a	12	n/a	3	n/a	n/a	n/a	n/a	288.863	n/a
260.078	0.497	happy	Picture	82.902	n/a	3	7	13	n/a	13	115	3	n/a	n/a	n/a	n/a	289.393	AM23ANS.jpg
260.575	0.514	Blank	Blank	82.388	n/a	3	7	13	n/a	13	n/a	3	n/a	n/a	n/a	n/a	289.891	n/a
261.106	0.497	happy	Picture	81.874	n/a	3	7	14	n/a	14	97	3	n/a	n/a	n/a	n/a	290.421	BF28ANS.jpg
261.603	0.514	Blank	Blank	81.36	n/a	3	7	14	n/a	14	n/a	3	n/a	n/a	n/a	n/a	290.918	n/a
262.134	0.497	happy	Picture	80.846	n/a	3	7	15	n/a	15	82	3	n/a	n/a	n/a	n/a	291.449	AF03ANS.jpg
262.631	0.514	Blank	Blank	80.332	n/a	3	7	15	n/a	15	n/a	3	n/a	n/a	n/a	n/a	291.946	n/a
263.162	0.497	happy	Picture	79.818	n/a	3	7	16	n/a	16	96	3	n/a	n/a	n/a	n/a	292.477	AF26ANS.jpg
263.659	0.514	Blank	Blank	79.305	n/a	3	7	16	n/a	16	n/a	3	n/a	n/a	n/a	n/a	292.974	n/a
264.19	0.497	happy	Picture	78.791	n/a	3	7	17	n/a	17	109	3	n/a	n/a	n/a	n/a	293.505	AM10ANS.jpg
264.687	0.514	Blank	Blank	78.277	n/a	3	7	17	n/a	17	n/a	3	n/a	n/a	n/a	n/a	294.002	n/a
265.217	0.497	happy	Picture	77.763	n/a	3	7	18	n/a	18	114	3	n/a	n/a	n/a	n/a	294.533	AM22ANS.jpg
265.715	0.514	Blank	Blank	77.249	n/a	3	7	18	n/a	18	n/a	3	n/a	n/a	n/a	n/a	295.03	n/a
266.245	0.497	happy	Picture	76.735	n/a	3	7	19	n/a	19	120	3	n/a	n/a	n/a	n/a	295.561	AM35ANS.jpg
266.743	0.514	Blank	Blank	76.221	n/a	3	7	19	n/a	19	n/a	3	n/a	n/a	n/a	n/a	296.058	n/a
267.273	0.497	happy	Picture	75.707	n/a	3	7	20	n/a	20	81	3	n/a	n/a	n/a	n/a	296.588	AF01ANS.jpg
267.771	0.514	Blank	Blank	75.193	n/a	3	7	20	n/a	20	n/a	3	n/a	n/a	n/a	n/a	297.086	n/a
268.301	10.014	ITI	Fixation+	65.163	n/a	3	n/a	n/a	n/a	n/a	n/a	n/a	n/a	n/a	n/a	n/a	297.616	n/a
278.331	0.497	neutral	Picture	64.649	n/a	3	8	1	n/a	21	28	1	n/a	n/a	n/a	n/a	307.647	AM09NES.jpg
278.829	0.514	Blank	Blank	64.135	n/a	3	8	1	n/a	21	n/a	1	n/a	n/a	n/a	n/a	308.144	n/a
279.359	0.497	neutral	Picture	63.621	n/a	3	8	2	n/a	22	27	1	n/a	n/a	n/a	n/a	308.674	BM08NES.jpg
279.856	0.514	Blank	Blank	63.107	n/a	3	8	2	n/a	22	n/a	1	n/a	n/a	n/a	n/a	309.172	n/a
280.387	0.497	neutral	Picture	62.593	n/a	3	8	3	n/a	23	16	1	n/a	n/a	n/a	n/a	309.702	AF26NES.jpg
280.884	0.514	Blank	Blank	62.079	n/a	3	8	3	n/a	23	n/a	1	n/a	n/a	n/a	n/a	310.2	n/a
281.415	0.497	neutral	Picture	61.565	n/a	3	8	4	n/a	24	3	1	n/a	n/a	n/a	n/a	310.73	BF04NES.jpg
281.912	0.514	Blank	Blank	61.051	n/a	3	8	4	n/a	24	n/a	1	n/a	n/a	n/a	n/a	311.228	n/a
282.443	0.497	neutral	Picture	60.537	n/a	3	8	5	n/a	25	32	1	n/a	n/a	n/a	n/a	311.758	AM14NES.jpg
282.94	0.514	Blank	Blank	60.023	n/a	3	8	5	n/a	25	n/a	1	n/a	n/a	n/a	n/a	312.255	n/a
283.471	0.497	neutral	Picture	59.51	n/a	3	8	6	n/a	26	37	1	n/a	n/a	n/a	n/a	312.786	BM25NES.jpg
283.968	0.514	Blank	Blank	58.995	n/a	3	8	6	n/a	26	n/a	1	n/a	n/a	n/a	n/a	313.283	n/a
284.499	0.497	neutral	Picture	58.482	n/a	3	8	7	n/a	27	15	1	n/a	n/a	n/a	n/a	313.814	AF25NES.jpg
284.996	0.514	Blank	Blank	57.968	n/a	3	8	7	n/a	27	n/a	1	n/a	n/a	n/a	n/a	314.311	n/a
285.526	0.497	neutral	Picture	57.454	n/a	3	8	8	n/a	28	23	1	n/a	n/a	n/a	n/a	314.842	AM04NES.jpg
286.024	0.514	Blank	Blank	56.94	n/a	3	8	8	n/a	28	n/a	1	n/a	n/a	n/a	n/a	315.339	n/a
286.554	0.497	neutral	Picture	56.426	n/a	3	8	9	n/a	29	34	1	n/a	n/a	n/a	n/a	315.87	AM22NES.jpg
287.052	0.514	Blank	Blank	55.912	n/a	3	8	9	n/a	29	n/a	1	n/a	n/a	n/a	n/a	316.367	n/a
287.582	0.497	neutral	Picture	55.398	n/a	3	8	10	n/a	30	24	1	n/a	n/a	n/a	n/a	316.897	BM05NES.jpg
288.079	0.514	Blank	Blank	54.884	n/a	3	8	10	n/a	30	n/a	1	n/a	n/a	n/a	n/a	317.395	n/a
288.61	0.497	neutral	Picture	54.37	n/a	3	8	11	n/a	31	12	1	n/a	n/a	n/a	n/a	317.925	AF21NES.jpg
289.107	0.514	Blank	Blank	53.856	n/a	3	8	11	n/a	31	n/a	1	n/a	n/a	n/a	n/a	318.423	n/a
289.638	0.497	neutral	Picture	53.342	n/a	3	8	12	n/a	32	6	1	n/a	n/a	n/a	n/a	318.953	AF09NES.jpg
290.135	0.514	Blank	Blank	52.828	n/a	3	8	12	n/a	32	n/a	1	n/a	n/a	n/a	n/a	319.45	n/a
290.666	0.497	neutral	Picture	52.314	n/a	3	8	13	n/a	33	17	1	n/a	n/a	n/a	n/a	319.981	BF28NES.jpg
291.163	0.514	Blank	Blank	51.8	n/a	3	8	13	n/a	33	n/a	1	n/a	n/a	n/a	n/a	320.478	n/a
291.694	0.497	neutral	Picture	51.286	n/a	3	8	14	n/a	34	2	1	n/a	n/a	n/a	n/a	321.009	AF03NES.jpg
292.191	0.514	Blank	Blank	50.773	n/a	3	8	14	n/a	34	n/a	1	n/a	n/a	n/a	n/a	321.506	n/a
292.722	0.497	neutral	Picture	50.258	n/a	3	8	15	n/a	35	9	1	n/a	n/a	n/a	n/a	322.037	AF17NES.jpg
293.219	0.514	Blank	Blank	49.745	n/a	3	8	15	n/a	35	n/a	1	n/a	n/a	n/a	n/a	322.534	n/a
293.749	0.497	neutral	Picture	49.231	n/a	3	8	16	n/a	36	25	1	n/a	n/a	n/a	n/a	323.065	BM06NES.jpg
294.247	0.514	Blank	Blank	48.717	n/a	3	8	16	n/a	36	n/a	1	n/a	n/a	n/a	n/a	323.562	n/a
294.777	0.497	neutral	Picture	48.203	n/a	3	8	17	n/a	37	8	1	n/a	n/a	n/a	n/a	324.093	AF14NES.jpg
295.275	0.514	Blank	Blank	47.689	n/a	3	8	17	n/a	37	n/a	1	n/a	n/a	n/a	n/a	324.59	n/a
295.805	0.497	neutral	Picture	47.175	n/a	3	8	18	n/a	38	19	1	n/a	n/a	n/a	n/a	325.12	AF31NES.jpg
296.303	0.514	Blank	Blank	46.661	n/a	3	8	18	n/a	38	n/a	1	n/a	n/a	n/a	n/a	325.618	n/a
296.833	0.497	neutral	Picture	46.147	n/a	3	8	19	n/a	39	14	1	n/a	n/a	n/a	n/a	326.148	AF23NES.jpg
297.33	0.514	Blank	Blank	45.633	n/a	3	8	19	n/a	39	n/a	1	n/a	n/a	n/a	n/a	326.646	n/a
297.861	0.497	neutral	Picture	45.119	n/a	3	8	20	n/a	40	4	1	n/a	n/a	n/a	n/a	327.176	AF05NES.jpg
298.358	0.514	Blank	Blank	44.605	n/a	3	8	20	n/a	40	n/a	1	n/a	n/a	n/a	n/a	327.674	n/a
298.889	10.014	ITI	Fixation+	34.575	n/a	3	n/a	n/a	n/a	n/a	n/a	n/a	n/a	n/a	n/a	n/a	328.204	n/a
308.919	0.497	happy	Picture	34.061	n/a	3	9	1	n/a	41	84	3	n/a	n/a	n/a	n/a	338.234	AF05ANS.jpg
309.416	0.514	Blank	Blank	33.547	n/a	3	9	1	n/a	41	n/a	3	n/a	n/a	n/a	n/a	338.732	n/a
309.947	0.497	happy	Picture	33.033	n/a	3	9	2	n/a	42	92	3	n/a	n/a	n/a	n/a	339.262	AF21ANS.jpg
310.444	0.514	Blank	Blank	32.519	n/a	3	9	2	n/a	42	n/a	3	n/a	n/a	n/a	n/a	339.76	n/a
310.975	0.497	happy	Picture	32.005	n/a	3	9	3	n/a	43	86	3	n/a	n/a	n/a	n/a	340.29	AF09ANS.jpg
311.472	0.514	Blank	Blank	31.491	n/a	3	9	3	n/a	43	n/a	3	n/a	n/a	n/a	n/a	340.787	n/a
312.003	0.497	happy	Picture	30.977	n/a	3	9	4	n/a	44	93	3	n/a	n/a	n/a	n/a	341.318	BF22ANS.jpg
312.5	0.514	Blank	Blank	30.464	n/a	3	9	4	n/a	44	n/a	3	n/a	n/a	n/a	n/a	341.815	n/a
313.031	0.497	happy	Picture	29.95	n/a	3	9	5	n/a	45	88	3	n/a	n/a	n/a	n/a	342.346	AF14ANS.jpg
313.528	0.514	Blank	Blank	29.436	n/a	3	9	5	n/a	45	n/a	3	n/a	n/a	n/a	n/a	342.843	n/a
314.058	0.497	happy	Picture	28.922	n/a	3	9	6	n/a	46	113	3	n/a	n/a	n/a	n/a	343.374	AM21ANS.jpg
314.556	0.514	Blank	Blank	28.408	n/a	3	9	6	n/a	46	n/a	3	n/a	n/a	n/a	n/a	343.871	n/a
315.086	0.497	happy	Picture	27.894	n/a	3	9	7	n/a	47	95	3	n/a	n/a	n/a	n/a	344.402	AF25ANS.jpg
315.584	0.514	Blank	Blank	27.38	n/a	3	9	7	n/a	47	n/a	3	n/a	n/a	n/a	n/a	344.899	n/a
316.114	0.497	happy	Picture	26.866	n/a	3	9	8	n/a	48	102	3	n/a	n/a	n/a	n/a	345.429	BM03ANS.jpg
316.612	0.514	Blank	Blank	26.352	n/a	3	9	8	n/a	48	n/a	3	n/a	n/a	n/a	n/a	345.927	n/a
317.142	0.497	happy	Picture	25.838	n/a	3	9	9	n/a	49	112	3	n/a	n/a	n/a	n/a	346.457	AM14ANS.jpg
317.639	0.514	Blank	Blank	25.324	n/a	3	9	9	n/a	49	n/a	3	n/a	n/a	n/a	n/a	346.955	n/a
318.17	0.497	happy	Picture	24.81	n/a	3	9	10	n/a	50	83	3	n/a	n/a	n/a	n/a	347.485	BF04ANS.jpg
318.667	0.514	Blank	Blank	24.296	n/a	3	9	10	n/a	50	n/a	3	n/a	n/a	n/a	n/a	347.983	n/a
319.198	0.497	happy	Picture	23.782	n/a	3	9	11	n/a	51	90	3	n/a	n/a	n/a	n/a	348.513	AF18ANS.jpg
319.695	0.514	Blank	Blank	23.268	n/a	3	9	11	n/a	51	n/a	3	n/a	n/a	n/a	n/a	349.01	n/a
320.226	0.497	happy	Picture	22.754	n/a	3	9	12	n/a	52	117	3	n/a	n/a	n/a	n/a	349.541	BM25ANS.jpg
320.723	0.514	Blank	Blank	22.24	n/a	3	9	12	n/a	52	n/a	3	n/a	n/a	n/a	n/a	350.038	n/a
321.254	0.497	happy	Picture	21.726	n/a	3	9	13	n/a	53	94	3	n/a	n/a	n/a	n/a	350.569	AF23ANS.jpg
321.751	0.514	Blank	Blank	21.213	n/a	3	9	13	n/a	53	n/a	3	n/a	n/a	n/a	n/a	351.066	n/a
322.281	0.497	happy	Picture	20.699	n/a	3	9	14	n/a	54	106	3	n/a	n/a	n/a	n/a	351.597	AM07ANS.jpg
322.779	0.514	Blank	Blank	20.185	n/a	3	9	14	n/a	54	n/a	3	n/a	n/a	n/a	n/a	352.094	n/a
323.309	0.497	happy	Picture	19.671	n/a	3	9	15	n/a	55	105	3	n/a	n/a	n/a	n/a	352.625	BM06ANS.jpg
323.807	0.514	Blank	Blank	19.157	n/a	3	9	15	n/a	55	n/a	3	n/a	n/a	n/a	n/a	353.122	n/a
324.337	0.497	happy	Picture	18.643	n/a	3	9	16	n/a	56	116	3	n/a	n/a	n/a	n/a	353.652	BM24ANS.jpg
324.835	0.514	Blank	Blank	18.129	n/a	3	9	16	n/a	56	n/a	3	n/a	n/a	n/a	n/a	354.15	n/a
325.365	0.497	happy	Picture	17.615	n/a	3	9	17	n/a	57	89	3	n/a	n/a	n/a	n/a	354.68	AF17ANS.jpg
325.862	0.514	Blank	Blank	17.101	n/a	3	9	17	n/a	57	n/a	3	n/a	n/a	n/a	n/a	355.178	n/a
326.393	0.497	happy	Picture	16.587	n/a	3	9	18	n/a	58	118	3	n/a	n/a	n/a	n/a	355.708	BM26ANS.jpg
326.89	0.514	Blank	Blank	16.073	n/a	3	9	18	n/a	58	n/a	3	n/a	n/a	n/a	n/a	356.206	n/a
327.421	0.497	happy	Picture	15.559	n/a	3	9	19	n/a	59	100	3	n/a	n/a	n/a	n/a	356.736	AF32ANS.jpg
327.918	0.514	Blank	Blank	15.045	n/a	3	9	19	n/a	59	n/a	3	n/a	n/a	n/a	n/a	357.233	n/a
328.449	0.497	happy	Picture	14.531	n/a	3	9	20	n/a	60	119	3	n/a	n/a	n/a	n/a	357.764	BM28ANS.jpg
328.946	0.514	Blank	Blank	14.017	n/a	3	9	20	n/a	60	n/a	3	n/a	n/a	n/a	n/a	358.261	n/a
329.477	10.014	ITI	Fixation+	3.987	n/a	3	n/a	n/a	n/a	n/a	n/a	n/a	n/a	n/a	n/a	n/a	358.792	n/a
343.477	n/a	ConfirmRating	Rate	n/a	3.979	3	n/a	n/a	0	n/a	n/a	n/a	2	Happy	71	52	372.793	n/a
346.721	n/a	ConfirmRating	Rate	n/a	3.233	3	n/a	n/a	1	n/a	n/a	n/a	3	Happy	2	49	376.037	n/a
346.752	10.014	ITI	Fixation+	96.275	n/a	4	n/a	n/a	n/a	n/a	n/a	n/a	n/a	n/a	n/a	n/a	376.067	n/a
356.782	0.497	angry	Picture	95.761	n/a	4	10	1	n/a	61	79	2	n/a	n/a	n/a	n/a	386.097	BM28HAS.jpg
357.279	0.514	Blank	Blank	95.247	n/a	4	10	1	n/a	61	n/a	2	n/a	n/a	n/a	n/a	386.594	n/a
357.81	0.497	angry	Picture	94.733	n/a	4	10	2	n/a	62	61	2	n/a	n/a	n/a	n/a	387.125	AM01HAS.jpg
358.307	0.514	Blank	Blank	94.219	n/a	4	10	2	n/a	62	n/a	2	n/a	n/a	n/a	n/a	387.622	n/a
358.838	0.497	angry	Picture	93.706	n/a	4	10	3	n/a	63	57	2	n/a	n/a	n/a	n/a	388.153	BF28HAS.jpg
359.335	0.514	Blank	Blank	93.192	n/a	4	10	3	n/a	63	n/a	2	n/a	n/a	n/a	n/a	388.65	n/a
359.865	0.497	angry	Picture	92.678	n/a	4	10	4	n/a	64	77	2	n/a	n/a	n/a	n/a	389.181	BM25HAS.jpg
360.363	0.514	Blank	Blank	92.164	n/a	4	10	4	n/a	64	n/a	2	n/a	n/a	n/a	n/a	389.678	n/a
360.893	0.497	angry	Picture	91.65	n/a	4	10	5	n/a	65	47	2	n/a	n/a	n/a	n/a	390.209	BF11HAS.jpg
361.391	0.514	Blank	Blank	91.136	n/a	4	10	5	n/a	65	n/a	2	n/a	n/a	n/a	n/a	390.706	n/a
361.921	0.497	angry	Picture	90.622	n/a	4	10	6	n/a	66	50	2	n/a	n/a	n/a	n/a	391.236	AF18HAS.jpg
362.419	0.514	Blank	Blank	90.108	n/a	4	10	6	n/a	66	n/a	2	n/a	n/a	n/a	n/a	391.734	n/a
362.949	0.497	angry	Picture	89.594	n/a	4	10	7	n/a	67	78	2	n/a	n/a	n/a	n/a	392.264	BM26HAS.jpg
363.447	0.514	Blank	Blank	89.08	n/a	4	10	7	n/a	67	n/a	2	n/a	n/a	n/a	n/a	392.762	n/a
363.977	0.497	angry	Picture	88.566	n/a	4	10	8	n/a	68	45	2	n/a	n/a	n/a	n/a	393.292	BF07HAS.jpg
364.474	0.514	Blank	Blank	88.052	n/a	4	10	8	n/a	68	n/a	2	n/a	n/a	n/a	n/a	393.79	n/a
365.005	0.497	angry	Picture	87.538	n/a	4	10	9	n/a	69	56	2	n/a	n/a	n/a	n/a	394.32	AF26HAS.jpg
365.502	0.514	Blank	Blank	87.024	n/a	4	10	9	n/a	69	n/a	2	n/a	n/a	n/a	n/a	394.817	n/a
366.033	0.497	angry	Picture	86.51	n/a	4	10	10	n/a	70	65	2	n/a	n/a	n/a	n/a	395.348	BM06HAS.jpg
366.53	0.514	Blank	Blank	85.996	n/a	4	10	10	n/a	70	n/a	2	n/a	n/a	n/a	n/a	395.845	n/a
367.061	0.497	angry	Picture	85.482	n/a	4	10	11	n/a	71	73	2	n/a	n/a	n/a	n/a	396.376	AM21HAS.jpg
367.558	0.514	Blank	Blank	84.969	n/a	4	10	11	n/a	71	n/a	2	n/a	n/a	n/a	n/a	396.873	n/a
368.089	0.497	angry	Picture	84.454	n/a	4	10	12	n/a	72	41	2	n/a	n/a	n/a	n/a	397.404	AF01HAS.jpg
368.586	0.514	Blank	Blank	83.941	n/a	4	10	12	n/a	72	n/a	2	n/a	n/a	n/a	n/a	397.901	n/a
369.116	0.497	angry	Picture	83.427	n/a	4	10	13	n/a	73	59	2	n/a	n/a	n/a	n/a	398.432	AF31HAS.jpg
369.614	0.514	Blank	Blank	82.913	n/a	4	10	13	n/a	73	n/a	2	n/a	n/a	n/a	n/a	398.929	n/a
370.144	0.497	angry	Picture	82.399	n/a	4	10	14	n/a	74	64	2	n/a	n/a	n/a	n/a	399.46	BM05HAS.jpg
370.642	0.514	Blank	Blank	81.885	n/a	4	10	14	n/a	74	n/a	2	n/a	n/a	n/a	n/a	399.957	n/a
371.172	0.497	angry	Picture	81.371	n/a	4	10	15	n/a	75	68	2	n/a	n/a	n/a	n/a	400.488	AM09HAS.jpg
371.67	0.514	Blank	Blank	80.857	n/a	4	10	15	n/a	75	n/a	2	n/a	n/a	n/a	n/a	400.985	n/a
372.2	0.497	angry	Picture	80.343	n/a	4	10	16	n/a	76	54	2	n/a	n/a	n/a	n/a	401.515	AF23HAS.jpg
372.697	0.514	Blank	Blank	79.829	n/a	4	10	16	n/a	76	n/a	2	n/a	n/a	n/a	n/a	402.013	n/a
373.228	0.497	angry	Picture	79.315	n/a	4	10	17	n/a	77	53	2	n/a	n/a	n/a	n/a	402.543	BF22HAS.jpg
373.725	0.514	Blank	Blank	78.801	n/a	4	10	17	n/a	77	n/a	2	n/a	n/a	n/a	n/a	403.041	n/a
374.256	0.497	angry	Picture	78.287	n/a	4	10	18	n/a	78	44	2	n/a	n/a	n/a	n/a	403.571	AF05HAS.jpg
374.753	0.514	Blank	Blank	77.773	n/a	4	10	18	n/a	78	n/a	2	n/a	n/a	n/a	n/a	404.068	n/a
375.284	0.497	angry	Picture	77.259	n/a	4	10	19	n/a	79	52	2	n/a	n/a	n/a	n/a	404.599	AF21HAS.jpg
375.781	0.514	Blank	Blank	76.745	n/a	4	10	19	n/a	79	n/a	2	n/a	n/a	n/a	n/a	405.096	n/a
376.312	0.497	angry	Picture	76.232	n/a	4	10	20	n/a	80	62	2	n/a	n/a	n/a	n/a	405.627	BM03HAS.jpg
376.809	0.514	Blank	Blank	75.718	n/a	4	10	20	n/a	80	n/a	2	n/a	n/a	n/a	n/a	406.124	n/a
377.34	10.014	ITI	Fixation+	65.687	n/a	4	n/a	n/a	n/a	n/a	n/a	n/a	n/a	n/a	n/a	n/a	406.655	n/a
387.37	0.497	neutral	Picture	65.173	n/a	4	11	1	n/a	81	23	1	n/a	n/a	n/a	n/a	416.685	AM04NES.jpg
387.867	0.514	Blank	Blank	64.66	n/a	4	11	1	n/a	81	n/a	1	n/a	n/a	n/a	n/a	417.182	n/a
388.398	0.497	neutral	Picture	64.146	n/a	4	11	2	n/a	82	29	1	n/a	n/a	n/a	n/a	417.713	AM10NES.jpg
388.895	0.514	Blank	Blank	63.632	n/a	4	11	2	n/a	82	n/a	1	n/a	n/a	n/a	n/a	418.21	n/a
389.425	0.497	neutral	Picture	63.118	n/a	4	11	3	n/a	83	24	1	n/a	n/a	n/a	n/a	418.741	BM05NES.jpg
389.923	0.514	Blank	Blank	62.604	n/a	4	11	3	n/a	83	n/a	1	n/a	n/a	n/a	n/a	419.238	n/a
390.453	0.497	neutral	Picture	62.09	n/a	4	11	4	n/a	84	12	1	n/a	n/a	n/a	n/a	419.769	AF21NES.jpg
390.951	0.514	Blank	Blank	61.576	n/a	4	11	4	n/a	84	n/a	1	n/a	n/a	n/a	n/a	420.266	n/a
391.481	0.497	neutral	Picture	61.062	n/a	4	11	5	n/a	85	13	1	n/a	n/a	n/a	n/a	420.796	BF22NES.jpg
391.978	0.514	Blank	Blank	60.548	n/a	4	11	5	n/a	85	n/a	1	n/a	n/a	n/a	n/a	421.294	n/a
392.509	0.497	neutral	Picture	60.034	n/a	4	11	6	n/a	86	17	1	n/a	n/a	n/a	n/a	421.824	BF28NES.jpg
393.006	0.514	Blank	Blank	59.52	n/a	4	11	6	n/a	86	n/a	1	n/a	n/a	n/a	n/a	422.322	n/a
393.537	0.497	neutral	Picture	59.006	n/a	4	11	7	n/a	87	4	1	n/a	n/a	n/a	n/a	422.852	AF05NES.jpg
394.034	0.514	Blank	Blank	58.492	n/a	4	11	7	n/a	87	n/a	1	n/a	n/a	n/a	n/a	423.35	n/a
394.565	0.497	neutral	Picture	57.978	n/a	4	11	8	n/a	88	11	1	n/a	n/a	n/a	n/a	423.88	AF20NES.jpg
395.062	0.514	Blank	Blank	57.464	n/a	4	11	8	n/a	88	n/a	1	n/a	n/a	n/a	n/a	424.377	n/a
395.593	0.497	neutral	Picture	56.95	n/a	4	11	9	n/a	89	22	1	n/a	n/a	n/a	n/a	424.908	BM03NES.jpg
396.09	0.514	Blank	Blank	56.436	n/a	4	11	9	n/a	89	n/a	1	n/a	n/a	n/a	n/a	425.405	n/a
396.62	0.497	neutral	Picture	55.923	n/a	4	11	10	n/a	90	15	1	n/a	n/a	n/a	n/a	425.936	AF25NES.jpg
397.118	0.514	Blank	Blank	55.409	n/a	4	11	10	n/a	90	n/a	1	n/a	n/a	n/a	n/a	426.433	n/a
397.648	0.497	neutral	Picture	54.895	n/a	4	11	11	n/a	91	19	1	n/a	n/a	n/a	n/a	426.964	AF31NES.jpg
398.146	0.514	Blank	Blank	54.381	n/a	4	11	11	n/a	91	n/a	1	n/a	n/a	n/a	n/a	427.461	n/a
398.676	0.497	neutral	Picture	53.867	n/a	4	11	12	n/a	92	9	1	n/a	n/a	n/a	n/a	427.992	AF17NES.jpg
399.174	0.514	Blank	Blank	53.353	n/a	4	11	12	n/a	92	n/a	1	n/a	n/a	n/a	n/a	428.489	n/a
399.704	0.497	neutral	Picture	52.839	n/a	4	11	13	n/a	93	14	1	n/a	n/a	n/a	n/a	429.019	AF23NES.jpg
400.202	0.514	Blank	Blank	52.325	n/a	4	11	13	n/a	93	n/a	1	n/a	n/a	n/a	n/a	429.517	n/a
400.732	0.497	neutral	Picture	51.811	n/a	4	11	14	n/a	94	36	1	n/a	n/a	n/a	n/a	430.047	BM24NES.jpg
401.229	0.514	Blank	Blank	51.297	n/a	4	11	14	n/a	94	n/a	1	n/a	n/a	n/a	n/a	430.545	n/a
401.76	0.497	neutral	Picture	50.783	n/a	4	11	15	n/a	95	34	1	n/a	n/a	n/a	n/a	431.075	AM22NES.jpg
402.257	0.514	Blank	Blank	50.269	n/a	4	11	15	n/a	95	n/a	1	n/a	n/a	n/a	n/a	431.573	n/a
402.788	0.497	neutral	Picture	49.755	n/a	4	11	16	n/a	96	10	1	n/a	n/a	n/a	n/a	432.103	AF18NES.jpg
403.285	0.514	Blank	Blank	49.241	n/a	4	11	16	n/a	96	n/a	1	n/a	n/a	n/a	n/a	432.601	n/a
403.816	0.497	neutral	Picture	48.727	n/a	4	11	17	n/a	97	5	1	n/a	n/a	n/a	n/a	433.131	BF07NES.jpg
404.313	0.514	Blank	Blank	48.213	n/a	4	11	17	n/a	97	n/a	1	n/a	n/a	n/a	n/a	433.628	n/a
404.844	0.497	neutral	Picture	47.699	n/a	4	11	18	n/a	98	25	1	n/a	n/a	n/a	n/a	434.159	BM06NES.jpg
405.341	0.514	Blank	Blank	47.186	n/a	4	11	18	n/a	98	n/a	1	n/a	n/a	n/a	n/a	434.656	n/a
405.872	0.497	neutral	Picture	46.672	n/a	4	11	19	n/a	99	39	1	n/a	n/a	n/a	n/a	435.187	AM28NES.jpg
406.369	0.514	Blank	Blank	46.158	n/a	4	11	19	n/a	99	n/a	1	n/a	n/a	n/a	n/a	435.684	n/a
406.899	0.497	neutral	Picture	45.644	n/a	4	11	20	n/a	100	33	1	n/a	n/a	n/a	n/a	436.215	AM21NES.jpg
407.397	0.514	Blank	Blank	45.13	n/a	4	11	20	n/a	100	n/a	1	n/a	n/a	n/a	n/a	436.712	n/a
407.927	10.014	ITI	Fixation+	35.1	n/a	4	n/a	n/a	n/a	n/a	n/a	n/a	n/a	n/a	n/a	n/a	437.243	n/a
417.957	0.497	angry	Picture	34.586	n/a	4	12	1	n/a	101	74	2	n/a	n/a	n/a	n/a	447.273	AM22HAS.jpg
418.455	0.514	Blank	Blank	34.072	n/a	4	12	1	n/a	101	n/a	2	n/a	n/a	n/a	n/a	447.77	n/a
418.985	0.497	angry	Picture	33.558	n/a	4	12	2	n/a	102	76	2	n/a	n/a	n/a	n/a	448.301	BM24HAS.jpg
419.483	0.514	Blank	Blank	33.044	n/a	4	12	2	n/a	102	n/a	2	n/a	n/a	n/a	n/a	448.798	n/a
420.013	0.497	angry	Picture	32.53	n/a	4	12	3	n/a	103	80	2	n/a	n/a	n/a	n/a	449.328	BM35HAS.jpg
420.511	0.514	Blank	Blank	32.016	n/a	4	12	3	n/a	103	n/a	2	n/a	n/a	n/a	n/a	449.826	n/a
421.041	0.497	angry	Picture	31.502	n/a	4	12	4	n/a	104	75	2	n/a	n/a	n/a	n/a	450.356	AM23HAS.jpg
421.538	0.514	Blank	Blank	30.988	n/a	4	12	4	n/a	104	n/a	2	n/a	n/a	n/a	n/a	450.854	n/a
422.069	0.497	angry	Picture	30.474	n/a	4	12	5	n/a	105	49	2	n/a	n/a	n/a	n/a	451.384	AF17HAS.jpg
422.566	0.514	Blank	Blank	29.96	n/a	4	12	5	n/a	105	n/a	2	n/a	n/a	n/a	n/a	451.882	n/a
423.097	0.497	angry	Picture	29.446	n/a	4	12	6	n/a	106	43	2	n/a	n/a	n/a	n/a	452.412	BF04HAS.jpg
423.594	0.514	Blank	Blank	28.932	n/a	4	12	6	n/a	106	n/a	2	n/a	n/a	n/a	n/a	452.909	n/a
424.125	0.497	angry	Picture	28.418	n/a	4	12	7	n/a	107	70	2	n/a	n/a	n/a	n/a	453.44	BM11HAS.jpg
424.622	0.514	Blank	Blank	27.904	n/a	4	12	7	n/a	107	n/a	2	n/a	n/a	n/a	n/a	453.937	n/a
425.153	0.497	angry	Picture	27.391	n/a	4	12	8	n/a	108	66	2	n/a	n/a	n/a	n/a	454.468	BM07HAS.jpg
425.65	0.514	Blank	Blank	26.877	n/a	4	12	8	n/a	108	n/a	2	n/a	n/a	n/a	n/a	454.965	n/a
426.18	0.497	angry	Picture	26.363	n/a	4	12	9	n/a	109	48	2	n/a	n/a	n/a	n/a	455.496	AF14HAS.jpg
426.678	0.514	Blank	Blank	25.849	n/a	4	12	9	n/a	109	n/a	2	n/a	n/a	n/a	n/a	455.993	n/a
427.208	0.497	angry	Picture	25.335	n/a	4	12	10	n/a	110	58	2	n/a	n/a	n/a	n/a	456.524	BF29HAS.jpg
427.706	0.514	Blank	Blank	24.821	n/a	4	12	10	n/a	110	n/a	2	n/a	n/a	n/a	n/a	457.021	n/a
428.236	0.497	angry	Picture	24.307	n/a	4	12	11	n/a	111	63	2	n/a	n/a	n/a	n/a	457.551	AM04HAS.jpg
428.734	0.514	Blank	Blank	23.793	n/a	4	12	11	n/a	111	n/a	2	n/a	n/a	n/a	n/a	458.049	n/a
429.264	0.497	angry	Picture	23.279	n/a	4	12	12	n/a	112	72	2	n/a	n/a	n/a	n/a	458.579	AM14HAS.jpg
429.761	0.514	Blank	Blank	22.765	n/a	4	12	12	n/a	112	n/a	2	n/a	n/a	n/a	n/a	459.077	n/a
430.292	0.497	angry	Picture	22.251	n/a	4	12	13	n/a	113	55	2	n/a	n/a	n/a	n/a	459.607	AF25HAS.jpg
430.789	0.514	Blank	Blank	21.737	n/a	4	12	13	n/a	113	n/a	2	n/a	n/a	n/a	n/a	460.105	n/a
431.32	0.497	angry	Picture	21.223	n/a	4	12	14	n/a	114	42	2	n/a	n/a	n/a	n/a	460.635	AF03HAS.jpg
431.817	0.514	Blank	Blank	20.709	n/a	4	12	14	n/a	114	n/a	2	n/a	n/a	n/a	n/a	461.132	n/a
432.348	0.497	angry	Picture	20.195	n/a	4	12	15	n/a	115	60	2	n/a	n/a	n/a	n/a	461.663	AF32HAS.jpg
432.845	0.514	Blank	Blank	19.681	n/a	4	12	15	n/a	115	n/a	2	n/a	n/a	n/a	n/a	462.16	n/a
433.376	0.497	angry	Picture	19.167	n/a	4	12	16	n/a	116	67	2	n/a	n/a	n/a	n/a	462.691	BM08HAS.jpg
433.873	0.514	Blank	Blank	18.654	n/a	4	12	16	n/a	116	n/a	2	n/a	n/a	n/a	n/a	463.188	n/a
434.404	0.497	angry	Picture	18.139	n/a	4	12	17	n/a	117	51	2	n/a	n/a	n/a	n/a	463.719	AF20HAS.jpg
434.901	0.514	Blank	Blank	17.626	n/a	4	12	17	n/a	117	n/a	2	n/a	n/a	n/a	n/a	464.216	n/a
435.431	0.497	angry	Picture	17.112	n/a	4	12	18	n/a	118	71	2	n/a	n/a	n/a	n/a	464.747	BM12HAS.jpg
435.929	0.514	Blank	Blank	16.598	n/a	4	12	18	n/a	118	n/a	2	n/a	n/a	n/a	n/a	465.244	n/a
436.459	0.497	angry	Picture	16.084	n/a	4	12	19	n/a	119	69	2	n/a	n/a	n/a	n/a	465.775	AM10HAS.jpg
436.957	0.514	Blank	Blank	15.57	n/a	4	12	19	n/a	119	n/a	2	n/a	n/a	n/a	n/a	466.272	n/a
437.487	0.497	angry	Picture	15.056	n/a	4	12	20	n/a	120	46	2	n/a	n/a	n/a	n/a	466.802	AF09HAS.jpg
437.985	0.514	Blank	Blank	14.542	n/a	4	12	20	n/a	120	n/a	2	n/a	n/a	n/a	n/a	467.3	n/a
438.515	10.014	ITI	Fixation+	4.512	n/a	4	n/a	n/a	n/a	n/a	n/a	n/a	n/a	n/a	n/a	n/a	467.83	n/a
453.04	n/a	ConfirmRating	Rate	n/a	4.509	4	n/a	n/a	0	n/a	n/a	n/a	2	Angry	71	52	482.356	n/a
456.546	n/a	ConfirmRating	Rate	n/a	3.482	4	n/a	n/a	1	n/a	n/a	n/a	3	Angry	0	48	485.862	n/a
