onset	duration	trial_type	event_type	time_until_response	response_time	trial_number	block_num_within_trial	image_seq_num_within_block	question_seq_num_within_block	image_seq_num	picture_number	condition	question_type	block_type	rating	rating_computed	onset_uncorrected	KDEV_imagefile
0.013	10.014	ITI	Fixation+	95.942	n/a	1	n/a	n/a	n/a	n/a	n/a	n/a	n/a	n/a	n/a	n/a	29.637	n/a
10.043	0.497	happy	Picture	95.428	n/a	1	1	1	n/a	1	108	3	n/a	n/a	n/a	n/a	39.667	AM09ANS.jpg
10.541	0.514	Blank	Blank	94.914	n/a	1	1	1	n/a	1	n/a	3	n/a	n/a	n/a	n/a	40.165	n/a
11.071	0.497	happy	Picture	94.4	n/a	1	1	2	n/a	2	99	3	n/a	n/a	n/a	n/a	40.695	AF31ANS.jpg
11.569	0.514	Blank	Blank	93.886	n/a	1	1	2	n/a	2	n/a	3	n/a	n/a	n/a	n/a	41.193	n/a
12.099	0.497	happy	Picture	93.373	n/a	1	1	3	n/a	3	98	3	n/a	n/a	n/a	n/a	41.723	BF29ANS.jpg
12.597	0.514	Blank	Blank	92.859	n/a	1	1	3	n/a	3	n/a	3	n/a	n/a	n/a	n/a	42.221	n/a
13.127	0.497	happy	Picture	92.345	n/a	1	1	4	n/a	4	107	3	n/a	n/a	n/a	n/a	42.751	BM08ANS.jpg
13.624	0.514	Blank	Blank	91.831	n/a	1	1	4	n/a	4	n/a	3	n/a	n/a	n/a	n/a	43.248	n/a
14.155	0.497	happy	Picture	91.317	n/a	1	1	5	n/a	5	104	3	n/a	n/a	n/a	n/a	43.779	BM05ANS.jpg
14.652	0.514	Blank	Blank	90.803	n/a	1	1	5	n/a	5	n/a	3	n/a	n/a	n/a	n/a	44.276	n/a
15.183	0.497	happy	Picture	90.289	n/a	1	1	6	n/a	6	101	3	n/a	n/a	n/a	n/a	44.807	AM01ANS.jpg
15.68	0.514	Blank	Blank	89.775	n/a	1	1	6	n/a	6	n/a	3	n/a	n/a	n/a	n/a	45.304	n/a
16.211	0.497	happy	Picture	89.261	n/a	1	1	7	n/a	7	103	3	n/a	n/a	n/a	n/a	45.835	AM04ANS.jpg
16.708	0.514	Blank	Blank	88.747	n/a	1	1	7	n/a	7	n/a	3	n/a	n/a	n/a	n/a	46.332	n/a
17.239	0.497	happy	Picture	88.233	n/a	1	1	8	n/a	8	111	3	n/a	n/a	n/a	n/a	46.863	BM12ANS.jpg
17.736	0.514	Blank	Blank	87.719	n/a	1	1	8	n/a	8	n/a	3	n/a	n/a	n/a	n/a	47.36	n/a
18.266	0.497	happy	Picture	87.205	n/a	1	1	9	n/a	9	110	3	n/a	n/a	n/a	n/a	47.89	AM11ANS.jpg
18.764	0.514	Blank	Blank	86.691	n/a	1	1	9	n/a	9	n/a	3	n/a	n/a	n/a	n/a	48.388	n/a
19.294	0.497	happy	Picture	86.177	n/a	1	1	10	n/a	10	85	3	n/a	n/a	n/a	n/a	48.918	BF07ANS.jpg
19.792	0.514	Blank	Blank	85.663	n/a	1	1	10	n/a	10	n/a	3	n/a	n/a	n/a	n/a	49.416	n/a
20.322	0.497	happy	Picture	85.15	n/a	1	1	11	n/a	11	87	3	n/a	n/a	n/a	n/a	49.946	BF11ANS.jpg
20.82	0.514	Blank	Blank	84.636	n/a	1	1	11	n/a	11	n/a	3	n/a	n/a	n/a	n/a	50.444	n/a
21.35	0.497	happy	Picture	84.122	n/a	1	1	12	n/a	12	91	3	n/a	n/a	n/a	n/a	50.974	AF20ANS.jpg
21.847	0.514	Blank	Blank	83.608	n/a	1	1	12	n/a	12	n/a	3	n/a	n/a	n/a	n/a	51.471	n/a
22.378	0.497	happy	Picture	83.094	n/a	1	1	13	n/a	13	115	3	n/a	n/a	n/a	n/a	52.002	AM23ANS.jpg
22.875	0.514	Blank	Blank	82.58	n/a	1	1	13	n/a	13	n/a	3	n/a	n/a	n/a	n/a	52.499	n/a
23.406	0.497	happy	Picture	82.066	n/a	1	1	14	n/a	14	97	3	n/a	n/a	n/a	n/a	53.03	BF28ANS.jpg
23.903	0.514	Blank	Blank	81.552	n/a	1	1	14	n/a	14	n/a	3	n/a	n/a	n/a	n/a	53.527	n/a
24.434	0.497	happy	Picture	81.038	n/a	1	1	15	n/a	15	82	3	n/a	n/a	n/a	n/a	54.058	AF03ANS.jpg
24.931	0.514	Blank	Blank	80.524	n/a	1	1	15	n/a	15	n/a	3	n/a	n/a	n/a	n/a	54.555	n/a
25.462	0.497	happy	Picture	80.01	n/a	1	1	16	n/a	16	96	3	n/a	n/a	n/a	n/a	55.086	AF26ANS.jpg
25.959	0.514	Blank	Blank	79.496	n/a	1	1	16	n/a	16	n/a	3	n/a	n/a	n/a	n/a	55.583	n/a
26.49	0.497	happy	Picture	78.982	n/a	1	1	17	n/a	17	109	3	n/a	n/a	n/a	n/a	56.114	AM10ANS.jpg
26.987	0.514	Blank	Blank	78.468	n/a	1	1	17	n/a	17	n/a	3	n/a	n/a	n/a	n/a	56.611	n/a
27.517	0.497	happy	Picture	77.954	n/a	1	1	18	n/a	18	114	3	n/a	n/a	n/a	n/a	57.141	AM22ANS.jpg
28.015	0.514	Blank	Blank	77.44	n/a	1	1	18	n/a	18	n/a	3	n/a	n/a	n/a	n/a	57.639	n/a
28.545	0.497	happy	Picture	76.927	n/a	1	1	19	n/a	19	120	3	n/a	n/a	n/a	n/a	58.169	AM35ANS.jpg
29.043	0.514	Blank	Blank	76.413	n/a	1	1	19	n/a	19	n/a	3	n/a	n/a	n/a	n/a	58.667	n/a
29.573	0.497	happy	Picture	75.899	n/a	1	1	20	n/a	20	81	3	n/a	n/a	n/a	n/a	59.197	AF01ANS.jpg
30.07	0.514	Blank	Blank	75.385	n/a	1	1	20	n/a	20	n/a	3	n/a	n/a	n/a	n/a	59.694	n/a
30.601	10.014	ITI	Fixation+	65.355	n/a	1	n/a	n/a	n/a	n/a	n/a	n/a	n/a	n/a	n/a	n/a	60.225	n/a
40.631	0.497	neutral	Picture	64.841	n/a	1	2	1	n/a	21	28	1	n/a	n/a	n/a	n/a	70.255	AM09NES.jpg
41.128	0.514	Blank	Blank	64.327	n/a	1	2	1	n/a	21	n/a	1	n/a	n/a	n/a	n/a	70.752	n/a
41.659	0.497	neutral	Picture	63.813	n/a	1	2	2	n/a	22	27	1	n/a	n/a	n/a	n/a	71.283	BM08NES.jpg
42.156	0.514	Blank	Blank	63.299	n/a	1	2	2	n/a	22	n/a	1	n/a	n/a	n/a	n/a	71.78	n/a
42.687	0.497	neutral	Picture	62.785	n/a	1	2	3	n/a	23	16	1	n/a	n/a	n/a	n/a	72.311	AF26NES.jpg
43.184	0.514	Blank	Blank	62.271	n/a	1	2	3	n/a	23	n/a	1	n/a	n/a	n/a	n/a	72.808	n/a
43.715	0.497	neutral	Picture	61.757	n/a	1	2	4	n/a	24	3	1	n/a	n/a	n/a	n/a	73.339	BF04NES.jpg
44.212	0.514	Blank	Blank	61.243	n/a	1	2	4	n/a	24	n/a	1	n/a	n/a	n/a	n/a	73.836	n/a
44.743	0.497	neutral	Picture	60.729	n/a	1	2	5	n/a	25	32	1	n/a	n/a	n/a	n/a	74.367	AM14NES.jpg
45.24	0.514	Blank	Blank	60.215	n/a	1	2	5	n/a	25	n/a	1	n/a	n/a	n/a	n/a	74.864	n/a
45.77	0.497	neutral	Picture	59.701	n/a	1	2	6	n/a	26	37	1	n/a	n/a	n/a	n/a	75.394	BM25NES.jpg
46.268	0.514	Blank	Blank	59.187	n/a	1	2	6	n/a	26	n/a	1	n/a	n/a	n/a	n/a	75.892	n/a
46.798	0.497	neutral	Picture	58.673	n/a	1	2	7	n/a	27	15	1	n/a	n/a	n/a	n/a	76.422	AF25NES.jpg
47.296	0.514	Blank	Blank	58.159	n/a	1	2	7	n/a	27	n/a	1	n/a	n/a	n/a	n/a	76.92	n/a
47.826	0.497	neutral	Picture	57.645	n/a	1	2	8	n/a	28	23	1	n/a	n/a	n/a	n/a	77.45	AM04NES.jpg
48.324	0.514	Blank	Blank	57.132	n/a	1	2	8	n/a	28	n/a	1	n/a	n/a	n/a	n/a	77.948	n/a
48.854	0.497	neutral	Picture	56.618	n/a	1	2	9	n/a	29	34	1	n/a	n/a	n/a	n/a	78.478	AM22NES.jpg
49.352	0.514	Blank	Blank	56.104	n/a	1	2	9	n/a	29	n/a	1	n/a	n/a	n/a	n/a	78.975	n/a
49.882	0.497	neutral	Picture	55.59	n/a	1	2	10	n/a	30	24	1	n/a	n/a	n/a	n/a	79.506	BM05NES.jpg
50.379	0.514	Blank	Blank	55.076	n/a	1	2	10	n/a	30	n/a	1	n/a	n/a	n/a	n/a	80.003	n/a
50.91	0.497	neutral	Picture	54.562	n/a	1	2	11	n/a	31	12	1	n/a	n/a	n/a	n/a	80.534	AF21NES.jpg
51.407	0.514	Blank	Blank	54.048	n/a	1	2	11	n/a	31	n/a	1	n/a	n/a	n/a	n/a	81.031	n/a
51.938	0.497	neutral	Picture	53.534	n/a	1	2	12	n/a	32	6	1	n/a	n/a	n/a	n/a	81.562	AF09NES.jpg
52.435	0.514	Blank	Blank	53.02	n/a	1	2	12	n/a	32	n/a	1	n/a	n/a	n/a	n/a	82.059	n/a
52.966	0.497	neutral	Picture	52.506	n/a	1	2	13	n/a	33	17	1	n/a	n/a	n/a	n/a	82.59	BF28NES.jpg
53.463	0.514	Blank	Blank	51.992	n/a	1	2	13	n/a	33	n/a	1	n/a	n/a	n/a	n/a	83.087	n/a
53.994	0.497	neutral	Picture	51.478	n/a	1	2	14	n/a	34	2	1	n/a	n/a	n/a	n/a	83.618	AF03NES.jpg
54.491	0.514	Blank	Blank	50.964	n/a	1	2	14	n/a	34	n/a	1	n/a	n/a	n/a	n/a	84.115	n/a
55.021	0.497	neutral	Picture	50.45	n/a	1	2	15	n/a	35	9	1	n/a	n/a	n/a	n/a	84.645	AF17NES.jpg
55.519	0.514	Blank	Blank	49.936	n/a	1	2	15	n/a	35	n/a	1	n/a	n/a	n/a	n/a	85.143	n/a
56.049	0.497	neutral	Picture	49.422	n/a	1	2	16	n/a	36	25	1	n/a	n/a	n/a	n/a	85.673	BM06NES.jpg
56.547	0.514	Blank	Blank	48.908	n/a	1	2	16	n/a	36	n/a	1	n/a	n/a	n/a	n/a	86.171	n/a
57.077	0.497	neutral	Picture	48.395	n/a	1	2	17	n/a	37	8	1	n/a	n/a	n/a	n/a	86.701	AF14NES.jpg
57.575	0.514	Blank	Blank	47.881	n/a	1	2	17	n/a	37	n/a	1	n/a	n/a	n/a	n/a	87.198	n/a
58.105	0.497	neutral	Picture	47.367	n/a	1	2	18	n/a	38	19	1	n/a	n/a	n/a	n/a	87.729	AF31NES.jpg
58.602	0.514	Blank	Blank	46.853	n/a	1	2	18	n/a	38	n/a	1	n/a	n/a	n/a	n/a	88.226	n/a
59.133	0.497	neutral	Picture	46.339	n/a	1	2	19	n/a	39	14	1	n/a	n/a	n/a	n/a	88.757	AF23NES.jpg
59.63	0.514	Blank	Blank	45.825	n/a	1	2	19	n/a	39	n/a	1	n/a	n/a	n/a	n/a	89.254	n/a
60.161	0.497	neutral	Picture	45.311	n/a	1	2	20	n/a	40	4	1	n/a	n/a	n/a	n/a	89.785	AF05NES.jpg
60.658	0.514	Blank	Blank	44.797	n/a	1	2	20	n/a	40	n/a	1	n/a	n/a	n/a	n/a	90.282	n/a
61.189	10.014	ITI	Fixation+	34.767	n/a	1	n/a	n/a	n/a	n/a	n/a	n/a	n/a	n/a	n/a	n/a	90.813	n/a
71.219	0.497	happy	Picture	34.253	n/a	1	3	1	n/a	41	84	3	n/a	n/a	n/a	n/a	100.843	AF05ANS.jpg
71.716	0.514	Blank	Blank	33.739	n/a	1	3	1	n/a	41	n/a	3	n/a	n/a	n/a	n/a	101.34	n/a
72.247	0.497	happy	Picture	33.225	n/a	1	3	2	n/a	42	92	3	n/a	n/a	n/a	n/a	101.871	AF21ANS.jpg
72.744	0.514	Blank	Blank	32.711	n/a	1	3	2	n/a	42	n/a	3	n/a	n/a	n/a	n/a	102.368	n/a
73.275	0.497	happy	Picture	32.197	n/a	1	3	3	n/a	43	86	3	n/a	n/a	n/a	n/a	102.898	AF09ANS.jpg
73.772	0.514	Blank	Blank	31.683	n/a	1	3	3	n/a	43	n/a	3	n/a	n/a	n/a	n/a	103.396	n/a
74.302	0.497	happy	Picture	31.169	n/a	1	3	4	n/a	44	93	3	n/a	n/a	n/a	n/a	103.926	BF22ANS.jpg
74.8	0.514	Blank	Blank	30.655	n/a	1	3	4	n/a	44	n/a	3	n/a	n/a	n/a	n/a	104.424	n/a
75.33	0.497	happy	Picture	30.141	n/a	1	3	5	n/a	45	88	3	n/a	n/a	n/a	n/a	104.954	AF14ANS.jpg
75.828	0.514	Blank	Blank	29.627	n/a	1	3	5	n/a	45	n/a	3	n/a	n/a	n/a	n/a	105.452	n/a
76.358	0.497	happy	Picture	29.114	n/a	1	3	6	n/a	46	113	3	n/a	n/a	n/a	n/a	105.982	AM21ANS.jpg
76.856	0.514	Blank	Blank	28.6	n/a	1	3	6	n/a	46	n/a	3	n/a	n/a	n/a	n/a	106.48	n/a
77.386	0.497	happy	Picture	28.086	n/a	1	3	7	n/a	47	95	3	n/a	n/a	n/a	n/a	107.01	AF25ANS.jpg
77.883	0.514	Blank	Blank	27.572	n/a	1	3	7	n/a	47	n/a	3	n/a	n/a	n/a	n/a	107.507	n/a
78.414	0.497	happy	Picture	27.058	n/a	1	3	8	n/a	48	102	3	n/a	n/a	n/a	n/a	108.038	BM03ANS.jpg
78.911	0.514	Blank	Blank	26.544	n/a	1	3	8	n/a	48	n/a	3	n/a	n/a	n/a	n/a	108.535	n/a
79.442	0.497	happy	Picture	26.03	n/a	1	3	9	n/a	49	112	3	n/a	n/a	n/a	n/a	109.066	AM14ANS.jpg
79.939	0.514	Blank	Blank	25.516	n/a	1	3	9	n/a	49	n/a	3	n/a	n/a	n/a	n/a	109.563	n/a
80.47	0.497	happy	Picture	25.002	n/a	1	3	10	n/a	50	83	3	n/a	n/a	n/a	n/a	110.094	BF04ANS.jpg
80.967	0.514	Blank	Blank	24.488	n/a	1	3	10	n/a	50	n/a	3	n/a	n/a	n/a	n/a	110.591	n/a
81.498	0.497	happy	Picture	23.974	n/a	1	3	11	n/a	51	90	3	n/a	n/a	n/a	n/a	111.121	AF18ANS.jpg
81.995	0.514	Blank	Blank	23.46	n/a	1	3	11	n/a	51	n/a	3	n/a	n/a	n/a	n/a	111.619	n/a
82.525	0.497	happy	Picture	22.946	n/a	1	3	12	n/a	52	117	3	n/a	n/a	n/a	n/a	112.149	BM25ANS.jpg
83.023	0.514	Blank	Blank	22.432	n/a	1	3	12	n/a	52	n/a	3	n/a	n/a	n/a	n/a	112.647	n/a
83.553	0.497	happy	Picture	21.918	n/a	1	3	13	n/a	53	94	3	n/a	n/a	n/a	n/a	113.177	AF23ANS.jpg
84.051	0.514	Blank	Blank	21.404	n/a	1	3	13	n/a	53	n/a	3	n/a	n/a	n/a	n/a	113.675	n/a
84.581	0.497	happy	Picture	20.891	n/a	1	3	14	n/a	54	106	3	n/a	n/a	n/a	n/a	114.205	AM07ANS.jpg
85.079	0.514	Blank	Blank	20.377	n/a	1	3	14	n/a	54	n/a	3	n/a	n/a	n/a	n/a	114.703	n/a
85.609	0.497	happy	Picture	19.863	n/a	1	3	15	n/a	55	105	3	n/a	n/a	n/a	n/a	115.233	BM06ANS.jpg
86.106	0.514	Blank	Blank	19.349	n/a	1	3	15	n/a	55	n/a	3	n/a	n/a	n/a	n/a	115.73	n/a
86.637	0.497	happy	Picture	18.835	n/a	1	3	16	n/a	56	116	3	n/a	n/a	n/a	n/a	116.261	BM24ANS.jpg
87.134	0.514	Blank	Blank	18.321	n/a	1	3	16	n/a	56	n/a	3	n/a	n/a	n/a	n/a	116.758	n/a
87.665	0.497	happy	Picture	17.807	n/a	1	3	17	n/a	57	89	3	n/a	n/a	n/a	n/a	117.289	AF17ANS.jpg
88.162	0.514	Blank	Blank	17.293	n/a	1	3	17	n/a	57	n/a	3	n/a	n/a	n/a	n/a	117.786	n/a
88.693	0.497	happy	Picture	16.779	n/a	1	3	18	n/a	58	118	3	n/a	n/a	n/a	n/a	118.317	BM26ANS.jpg
89.19	0.514	Blank	Blank	16.265	n/a	1	3	18	n/a	58	n/a	3	n/a	n/a	n/a	n/a	118.814	n/a
89.721	0.497	happy	Picture	15.751	n/a	1	3	19	n/a	59	100	3	n/a	n/a	n/a	n/a	119.344	AF32ANS.jpg
90.218	0.514	Blank	Blank	15.237	n/a	1	3	19	n/a	59	n/a	3	n/a	n/a	n/a	n/a	119.842	n/a
90.748	0.497	happy	Picture	14.723	n/a	1	3	20	n/a	60	119	3	n/a	n/a	n/a	n/a	120.372	BM28ANS.jpg
91.246	0.514	Blank	Blank	14.209	n/a	1	3	20	n/a	60	n/a	3	n/a	n/a	n/a	n/a	120.87	n/a
91.776	10.014	ITI	Fixation+	4.179	n/a	1	n/a	n/a	n/a	n/a	n/a	n/a	n/a	n/a	n/a	n/a	121.4	n/a
105.969	n/a	ConfirmRating	Rate	n/a	4.161	1	n/a	n/a	0	n/a	n/a	n/a	2	Happy	76	53	135.593	n/a
108.767	n/a	ConfirmRating	Rate	n/a	2.769	1	n/a	n/a	1	n/a	n/a	n/a	3	Happy	0	48	138.391	n/a
108.786	10.014	ITI	Fixation+	95.316	n/a	2	n/a	n/a	n/a	n/a	n/a	n/a	n/a	n/a	n/a	n/a	138.41	n/a
118.816	0.497	angry	Picture	94.802	n/a	2	4	1	n/a	61	79	2	n/a	n/a	n/a	n/a	148.44	BM28HAS.jpg
119.314	0.514	Blank	Blank	94.288	n/a	2	4	1	n/a	61	n/a	2	n/a	n/a	n/a	n/a	148.938	n/a
119.844	0.497	angry	Picture	93.774	n/a	2	4	2	n/a	62	61	2	n/a	n/a	n/a	n/a	149.468	AM01HAS.jpg
120.341	0.514	Blank	Blank	93.26	n/a	2	4	2	n/a	62	n/a	2	n/a	n/a	n/a	n/a	149.965	n/a
120.872	0.497	angry	Picture	92.746	n/a	2	4	3	n/a	63	57	2	n/a	n/a	n/a	n/a	150.496	BF28HAS.jpg
121.369	0.514	Blank	Blank	92.233	n/a	2	4	3	n/a	63	n/a	2	n/a	n/a	n/a	n/a	150.993	n/a
121.9	0.497	angry	Picture	91.719	n/a	2	4	4	n/a	64	77	2	n/a	n/a	n/a	n/a	151.524	BM25HAS.jpg
122.397	0.514	Blank	Blank	91.205	n/a	2	4	4	n/a	64	n/a	2	n/a	n/a	n/a	n/a	152.021	n/a
122.928	0.497	angry	Picture	90.691	n/a	2	4	5	n/a	65	47	2	n/a	n/a	n/a	n/a	152.552	BF11HAS.jpg
123.425	0.514	Blank	Blank	90.177	n/a	2	4	5	n/a	65	n/a	2	n/a	n/a	n/a	n/a	153.049	n/a
123.956	0.497	angry	Picture	89.663	n/a	2	4	6	n/a	66	50	2	n/a	n/a	n/a	n/a	153.579	AF18HAS.jpg
124.453	0.514	Blank	Blank	89.149	n/a	2	4	6	n/a	66	n/a	2	n/a	n/a	n/a	n/a	154.077	n/a
124.983	0.497	angry	Picture	88.635	n/a	2	4	7	n/a	67	78	2	n/a	n/a	n/a	n/a	154.607	BM26HAS.jpg
125.481	0.514	Blank	Blank	88.121	n/a	2	4	7	n/a	67	n/a	2	n/a	n/a	n/a	n/a	155.105	n/a
126.011	0.497	angry	Picture	87.607	n/a	2	4	8	n/a	68	45	2	n/a	n/a	n/a	n/a	155.635	BF07HAS.jpg
126.509	0.514	Blank	Blank	87.093	n/a	2	4	8	n/a	68	n/a	2	n/a	n/a	n/a	n/a	156.133	n/a
127.039	0.497	angry	Picture	86.579	n/a	2	4	9	n/a	69	56	2	n/a	n/a	n/a	n/a	156.663	AF26HAS.jpg
127.537	0.514	Blank	Blank	86.065	n/a	2	4	9	n/a	69	n/a	2	n/a	n/a	n/a	n/a	157.161	n/a
128.067	0.497	angry	Picture	85.551	n/a	2	4	10	n/a	70	65	2	n/a	n/a	n/a	n/a	157.691	BM06HAS.jpg
128.564	0.514	Blank	Blank	85.037	n/a	2	4	10	n/a	70	n/a	2	n/a	n/a	n/a	n/a	158.188	n/a
129.095	0.497	angry	Picture	84.523	n/a	2	4	11	n/a	71	73	2	n/a	n/a	n/a	n/a	158.719	AM21HAS.jpg
129.592	0.514	Blank	Blank	84.01	n/a	2	4	11	n/a	71	n/a	2	n/a	n/a	n/a	n/a	159.216	n/a
130.123	0.497	angry	Picture	83.496	n/a	2	4	12	n/a	72	41	2	n/a	n/a	n/a	n/a	159.747	AF01HAS.jpg
130.62	0.514	Blank	Blank	82.982	n/a	2	4	12	n/a	72	n/a	2	n/a	n/a	n/a	n/a	160.244	n/a
131.151	0.497	angry	Picture	82.468	n/a	2	4	13	n/a	73	59	2	n/a	n/a	n/a	n/a	160.775	AF31HAS.jpg
131.648	0.514	Blank	Blank	81.954	n/a	2	4	13	n/a	73	n/a	2	n/a	n/a	n/a	n/a	161.272	n/a
132.179	0.497	angry	Picture	81.44	n/a	2	4	14	n/a	74	64	2	n/a	n/a	n/a	n/a	161.803	BM05HAS.jpg
132.676	0.514	Blank	Blank	80.926	n/a	2	4	14	n/a	74	n/a	2	n/a	n/a	n/a	n/a	162.3	n/a
133.206	0.497	angry	Picture	80.412	n/a	2	4	15	n/a	75	68	2	n/a	n/a	n/a	n/a	162.83	AM09HAS.jpg
133.704	0.514	Blank	Blank	79.898	n/a	2	4	15	n/a	75	n/a	2	n/a	n/a	n/a	n/a	163.328	n/a
134.234	0.497	angry	Picture	79.384	n/a	2	4	16	n/a	76	54	2	n/a	n/a	n/a	n/a	163.858	AF23HAS.jpg
134.732	0.514	Blank	Blank	78.87	n/a	2	4	16	n/a	76	n/a	2	n/a	n/a	n/a	n/a	164.356	n/a
135.262	0.497	angry	Picture	78.356	n/a	2	4	17	n/a	77	53	2	n/a	n/a	n/a	n/a	164.886	BF22HAS.jpg
135.76	0.514	Blank	Blank	77.842	n/a	2	4	17	n/a	77	n/a	2	n/a	n/a	n/a	n/a	165.383	n/a
136.29	0.497	angry	Picture	77.328	n/a	2	4	18	n/a	78	44	2	n/a	n/a	n/a	n/a	165.914	AF05HAS.jpg
136.787	0.514	Blank	Blank	76.814	n/a	2	4	18	n/a	78	n/a	2	n/a	n/a	n/a	n/a	166.411	n/a
137.318	0.497	angry	Picture	76.3	n/a	2	4	19	n/a	79	52	2	n/a	n/a	n/a	n/a	166.942	AF21HAS.jpg
137.815	0.514	Blank	Blank	75.786	n/a	2	4	19	n/a	79	n/a	2	n/a	n/a	n/a	n/a	167.439	n/a
138.346	0.497	angry	Picture	75.273	n/a	2	4	20	n/a	80	62	2	n/a	n/a	n/a	n/a	167.97	BM03HAS.jpg
138.843	0.514	Blank	Blank	74.759	n/a	2	4	20	n/a	80	n/a	2	n/a	n/a	n/a	n/a	168.467	n/a
139.374	10.014	ITI	Fixation+	64.728	n/a	2	n/a	n/a	n/a	n/a	n/a	n/a	n/a	n/a	n/a	n/a	168.998	n/a
149.404	0.497	neutral	Picture	64.215	n/a	2	5	1	n/a	81	23	1	n/a	n/a	n/a	n/a	179.028	AM04NES.jpg
149.901	0.514	Blank	Blank	63.701	n/a	2	5	1	n/a	81	n/a	1	n/a	n/a	n/a	n/a	179.525	n/a
150.432	0.497	neutral	Picture	63.187	n/a	2	5	2	n/a	82	29	1	n/a	n/a	n/a	n/a	180.056	AM10NES.jpg
150.929	0.514	Blank	Blank	62.673	n/a	2	5	2	n/a	82	n/a	1	n/a	n/a	n/a	n/a	180.553	n/a
151.459	0.497	neutral	Picture	62.159	n/a	2	5	3	n/a	83	24	1	n/a	n/a	n/a	n/a	181.083	BM05NES.jpg
151.957	0.514	Blank	Blank	61.645	n/a	2	5	3	n/a	83	n/a	1	n/a	n/a	n/a	n/a	181.581	n/a
152.487	0.497	neutral	Picture	61.131	n/a	2	5	4	n/a	84	12	1	n/a	n/a	n/a	n/a	182.111	AF21NES.jpg
152.985	0.514	Blank	Blank	60.617	n/a	2	5	4	n/a	84	n/a	1	n/a	n/a	n/a	n/a	182.609	n/a
153.515	0.497	neutral	Picture	60.103	n/a	2	5	5	n/a	85	13	1	n/a	n/a	n/a	n/a	183.139	BF22NES.jpg
154.013	0.514	Blank	Blank	59.589	n/a	2	5	5	n/a	85	n/a	1	n/a	n/a	n/a	n/a	183.637	n/a
154.543	0.497	neutral	Picture	59.075	n/a	2	5	6	n/a	86	17	1	n/a	n/a	n/a	n/a	184.167	BF28NES.jpg
155.041	0.514	Blank	Blank	58.561	n/a	2	5	6	n/a	86	n/a	1	n/a	n/a	n/a	n/a	184.665	n/a
155.571	0.497	neutral	Picture	58.047	n/a	2	5	7	n/a	87	4	1	n/a	n/a	n/a	n/a	185.195	AF05NES.jpg
156.068	0.514	Blank	Blank	57.533	n/a	2	5	7	n/a	87	n/a	1	n/a	n/a	n/a	n/a	185.692	n/a
156.599	0.497	neutral	Picture	57.019	n/a	2	5	8	n/a	88	11	1	n/a	n/a	n/a	n/a	186.223	AF20NES.jpg
157.096	0.514	Blank	Blank	56.505	n/a	2	5	8	n/a	88	n/a	1	n/a	n/a	n/a	n/a	186.72	n/a
157.627	0.497	neutral	Picture	55.992	n/a	2	5	9	n/a	89	22	1	n/a	n/a	n/a	n/a	187.251	BM03NES.jpg
158.124	0.514	Blank	Blank	55.478	n/a	2	5	9	n/a	89	n/a	1	n/a	n/a	n/a	n/a	187.748	n/a
158.655	0.497	neutral	Picture	54.964	n/a	2	5	10	n/a	90	15	1	n/a	n/a	n/a	n/a	188.279	AF25NES.jpg
159.152	0.514	Blank	Blank	54.45	n/a	2	5	10	n/a	90	n/a	1	n/a	n/a	n/a	n/a	188.776	n/a
159.683	0.497	neutral	Picture	53.936	n/a	2	5	11	n/a	91	19	1	n/a	n/a	n/a	n/a	189.307	AF31NES.jpg
160.18	0.514	Blank	Blank	53.422	n/a	2	5	11	n/a	91	n/a	1	n/a	n/a	n/a	n/a	189.804	n/a
160.71	0.497	neutral	Picture	52.908	n/a	2	5	12	n/a	92	9	1	n/a	n/a	n/a	n/a	190.334	AF17NES.jpg
161.208	0.514	Blank	Blank	52.394	n/a	2	5	12	n/a	92	n/a	1	n/a	n/a	n/a	n/a	190.832	n/a
161.738	0.497	neutral	Picture	51.88	n/a	2	5	13	n/a	93	14	1	n/a	n/a	n/a	n/a	191.362	AF23NES.jpg
162.236	0.514	Blank	Blank	51.366	n/a	2	5	13	n/a	93	n/a	1	n/a	n/a	n/a	n/a	191.86	n/a
162.766	0.497	neutral	Picture	50.852	n/a	2	5	14	n/a	94	36	1	n/a	n/a	n/a	n/a	192.39	BM24NES.jpg
163.264	0.514	Blank	Blank	50.338	n/a	2	5	14	n/a	94	n/a	1	n/a	n/a	n/a	n/a	192.888	n/a
163.794	0.497	neutral	Picture	49.824	n/a	2	5	15	n/a	95	34	1	n/a	n/a	n/a	n/a	193.418	AM22NES.jpg
164.291	0.514	Blank	Blank	49.31	n/a	2	5	15	n/a	95	n/a	1	n/a	n/a	n/a	n/a	193.915	n/a
164.822	0.497	neutral	Picture	48.796	n/a	2	5	16	n/a	96	10	1	n/a	n/a	n/a	n/a	194.446	AF18NES.jpg
165.319	0.514	Blank	Blank	48.282	n/a	2	5	16	n/a	96	n/a	1	n/a	n/a	n/a	n/a	194.943	n/a
165.85	0.497	neutral	Picture	47.768	n/a	2	5	17	n/a	97	5	1	n/a	n/a	n/a	n/a	195.474	BF07NES.jpg
166.347	0.514	Blank	Blank	47.255	n/a	2	5	17	n/a	97	n/a	1	n/a	n/a	n/a	n/a	195.971	n/a
166.878	0.497	neutral	Picture	46.741	n/a	2	5	18	n/a	98	25	1	n/a	n/a	n/a	n/a	196.502	BM06NES.jpg
167.375	0.514	Blank	Blank	46.227	n/a	2	5	18	n/a	98	n/a	1	n/a	n/a	n/a	n/a	196.999	n/a
167.906	0.497	neutral	Picture	45.713	n/a	2	5	19	n/a	99	39	1	n/a	n/a	n/a	n/a	197.53	AM28NES.jpg
168.403	0.514	Blank	Blank	45.199	n/a	2	5	19	n/a	99	n/a	1	n/a	n/a	n/a	n/a	198.027	n/a
168.934	0.497	neutral	Picture	44.685	n/a	2	5	20	n/a	100	33	1	n/a	n/a	n/a	n/a	198.558	AM21NES.jpg
169.431	0.514	Blank	Blank	44.171	n/a	2	5	20	n/a	100	n/a	1	n/a	n/a	n/a	n/a	199.055	n/a
169.961	10.014	ITI	Fixation+	34.141	n/a	2	n/a	n/a	n/a	n/a	n/a	n/a	n/a	n/a	n/a	n/a	199.585	n/a
179.991	0.497	angry	Picture	33.627	n/a	2	6	1	n/a	101	74	2	n/a	n/a	n/a	n/a	209.615	AM22HAS.jpg
180.489	0.514	Blank	Blank	33.113	n/a	2	6	1	n/a	101	n/a	2	n/a	n/a	n/a	n/a	210.113	n/a
181.019	0.497	angry	Picture	32.599	n/a	2	6	2	n/a	102	76	2	n/a	n/a	n/a	n/a	210.643	BM24HAS.jpg
181.517	0.514	Blank	Blank	32.085	n/a	2	6	2	n/a	102	n/a	2	n/a	n/a	n/a	n/a	211.141	n/a
182.047	0.497	angry	Picture	31.571	n/a	2	6	3	n/a	103	80	2	n/a	n/a	n/a	n/a	211.671	BM35HAS.jpg
182.545	0.514	Blank	Blank	31.057	n/a	2	6	3	n/a	103	n/a	2	n/a	n/a	n/a	n/a	212.169	n/a
183.075	0.497	angry	Picture	30.543	n/a	2	6	4	n/a	104	75	2	n/a	n/a	n/a	n/a	212.699	AM23HAS.jpg
183.572	0.514	Blank	Blank	30.029	n/a	2	6	4	n/a	104	n/a	2	n/a	n/a	n/a	n/a	213.196	n/a
184.103	0.497	angry	Picture	29.515	n/a	2	6	5	n/a	105	49	2	n/a	n/a	n/a	n/a	213.727	AF17HAS.jpg
184.6	0.514	Blank	Blank	29.001	n/a	2	6	5	n/a	105	n/a	2	n/a	n/a	n/a	n/a	214.224	n/a
185.131	0.497	angry	Picture	28.488	n/a	2	6	6	n/a	106	43	2	n/a	n/a	n/a	n/a	214.755	BF04HAS.jpg
185.628	0.514	Blank	Blank	27.974	n/a	2	6	6	n/a	106	n/a	2	n/a	n/a	n/a	n/a	215.252	n/a
186.159	0.497	angry	Picture	27.46	n/a	2	6	7	n/a	107	70	2	n/a	n/a	n/a	n/a	215.783	BM11HAS.jpg
186.656	0.514	Blank	Blank	26.946	n/a	2	6	7	n/a	107	n/a	2	n/a	n/a	n/a	n/a	216.28	n/a
187.187	0.497	angry	Picture	26.432	n/a	2	6	8	n/a	108	66	2	n/a	n/a	n/a	n/a	216.811	BM07HAS.jpg
187.684	0.514	Blank	Blank	25.918	n/a	2	6	8	n/a	108	n/a	2	n/a	n/a	n/a	n/a	217.308	n/a
188.215	0.497	angry	Picture	25.404	n/a	2	6	9	n/a	109	48	2	n/a	n/a	n/a	n/a	217.839	AF14HAS.jpg
188.712	0.514	Blank	Blank	24.89	n/a	2	6	9	n/a	109	n/a	2	n/a	n/a	n/a	n/a	218.336	n/a
189.242	0.497	angry	Picture	24.376	n/a	2	6	10	n/a	110	58	2	n/a	n/a	n/a	n/a	218.866	BF29HAS.jpg
189.74	0.514	Blank	Blank	23.862	n/a	2	6	10	n/a	110	n/a	2	n/a	n/a	n/a	n/a	219.364	n/a
190.27	0.497	angry	Picture	23.348	n/a	2	6	11	n/a	111	63	2	n/a	n/a	n/a	n/a	219.894	AM04HAS.jpg
190.768	0.514	Blank	Blank	22.834	n/a	2	6	11	n/a	111	n/a	2	n/a	n/a	n/a	n/a	220.392	n/a
191.298	0.497	angry	Picture	22.32	n/a	2	6	12	n/a	112	72	2	n/a	n/a	n/a	n/a	220.922	AM14HAS.jpg
191.796	0.514	Blank	Blank	21.806	n/a	2	6	12	n/a	112	n/a	2	n/a	n/a	n/a	n/a	221.419	n/a
192.326	0.497	angry	Picture	21.292	n/a	2	6	13	n/a	113	55	2	n/a	n/a	n/a	n/a	221.95	AF25HAS.jpg
192.823	0.514	Blank	Blank	20.778	n/a	2	6	13	n/a	113	n/a	2	n/a	n/a	n/a	n/a	222.447	n/a
193.354	0.497	angry	Picture	20.264	n/a	2	6	14	n/a	114	42	2	n/a	n/a	n/a	n/a	222.978	AF03HAS.jpg
193.851	0.514	Blank	Blank	19.751	n/a	2	6	14	n/a	114	n/a	2	n/a	n/a	n/a	n/a	223.475	n/a
194.382	0.497	angry	Picture	19.237	n/a	2	6	15	n/a	115	60	2	n/a	n/a	n/a	n/a	224.006	AF32HAS.jpg
194.879	0.514	Blank	Blank	18.723	n/a	2	6	15	n/a	115	n/a	2	n/a	n/a	n/a	n/a	224.503	n/a
195.41	0.497	angry	Picture	18.209	n/a	2	6	16	n/a	116	67	2	n/a	n/a	n/a	n/a	225.034	BM08HAS.jpg
195.907	0.514	Blank	Blank	17.695	n/a	2	6	16	n/a	116	n/a	2	n/a	n/a	n/a	n/a	225.531	n/a
196.438	0.497	angry	Picture	17.181	n/a	2	6	17	n/a	117	51	2	n/a	n/a	n/a	n/a	226.061	AF20HAS.jpg
196.935	0.514	Blank	Blank	16.667	n/a	2	6	17	n/a	117	n/a	2	n/a	n/a	n/a	n/a	226.559	n/a
197.465	0.497	angry	Picture	16.153	n/a	2	6	18	n/a	118	71	2	n/a	n/a	n/a	n/a	227.089	BM12HAS.jpg
197.963	0.514	Blank	Blank	15.639	n/a	2	6	18	n/a	118	n/a	2	n/a	n/a	n/a	n/a	227.587	n/a
198.493	0.497	angry	Picture	15.125	n/a	2	6	19	n/a	119	69	2	n/a	n/a	n/a	n/a	228.117	AM10HAS.jpg
198.991	0.514	Blank	Blank	14.611	n/a	2	6	19	n/a	119	n/a	2	n/a	n/a	n/a	n/a	228.615	n/a
199.521	0.497	angry	Picture	14.097	n/a	2	6	20	n/a	120	46	2	n/a	n/a	n/a	n/a	229.145	AF09HAS.jpg
200.019	0.514	Blank	Blank	13.583	n/a	2	6	20	n/a	120	n/a	2	n/a	n/a	n/a	n/a	229.643	n/a
200.549	10.014	ITI	Fixation+	3.553	n/a	2	n/a	n/a	n/a	n/a	n/a	n/a	n/a	n/a	n/a	n/a	230.173	n/a
214.116	n/a	ConfirmRating	Rate	n/a	3.547	2	n/a	n/a	0	n/a	n/a	n/a	2	Angry	71	52	243.74	n/a
215.956	n/a	ConfirmRating	Rate	n/a	1.824	2	n/a	n/a	1	n/a	n/a	n/a	3	Angry	0	49	245.58	n/a
215.984	15.004	Rest	Picture	n/a	n/a	n/a	n/a	n/a	n/a	n/a	n/a	n/a	0	n/a	0	0	245.608	n/a
231.004	10.014	ITI	Fixation+	93.69	n/a	3	n/a	n/a	n/a	n/a	n/a	n/a	n/a	n/a	n/a	n/a	260.628	n/a
241.034	0.497	happy	Picture	93.175	n/a	3	7	1	n/a	1	108	3	n/a	n/a	n/a	n/a	270.658	AM09ANS.jpg
241.532	0.514	Blank	Blank	92.662	n/a	3	7	1	n/a	1	n/a	3	n/a	n/a	n/a	n/a	271.156	n/a
242.062	0.497	happy	Picture	92.148	n/a	3	7	2	n/a	2	99	3	n/a	n/a	n/a	n/a	271.686	AF31ANS.jpg
242.559	0.514	Blank	Blank	91.634	n/a	3	7	2	n/a	2	n/a	3	n/a	n/a	n/a	n/a	272.183	n/a
243.09	0.497	happy	Picture	91.12	n/a	3	7	3	n/a	3	98	3	n/a	n/a	n/a	n/a	272.714	BF29ANS.jpg
243.587	0.514	Blank	Blank	90.606	n/a	3	7	3	n/a	3	n/a	3	n/a	n/a	n/a	n/a	273.211	n/a
244.118	0.497	happy	Picture	90.092	n/a	3	7	4	n/a	4	107	3	n/a	n/a	n/a	n/a	273.742	BM08ANS.jpg
244.615	0.514	Blank	Blank	89.578	n/a	3	7	4	n/a	4	n/a	3	n/a	n/a	n/a	n/a	274.239	n/a
245.146	0.497	happy	Picture	89.064	n/a	3	7	5	n/a	5	104	3	n/a	n/a	n/a	n/a	274.77	BM05ANS.jpg
245.643	0.514	Blank	Blank	88.55	n/a	3	7	5	n/a	5	n/a	3	n/a	n/a	n/a	n/a	275.267	n/a
246.174	0.497	happy	Picture	88.036	n/a	3	7	6	n/a	6	101	3	n/a	n/a	n/a	n/a	275.798	AM01ANS.jpg
246.671	0.514	Blank	Blank	87.522	n/a	3	7	6	n/a	6	n/a	3	n/a	n/a	n/a	n/a	276.295	n/a
247.201	0.497	happy	Picture	87.008	n/a	3	7	7	n/a	7	103	3	n/a	n/a	n/a	n/a	276.825	AM04ANS.jpg
247.699	0.514	Blank	Blank	86.494	n/a	3	7	7	n/a	7	n/a	3	n/a	n/a	n/a	n/a	277.323	n/a
248.229	0.497	happy	Picture	85.98	n/a	3	7	8	n/a	8	111	3	n/a	n/a	n/a	n/a	277.853	BM12ANS.jpg
248.727	0.514	Blank	Blank	85.466	n/a	3	7	8	n/a	8	n/a	3	n/a	n/a	n/a	n/a	278.351	n/a
249.257	0.497	happy	Picture	84.952	n/a	3	7	9	n/a	9	110	3	n/a	n/a	n/a	n/a	278.881	AM11ANS.jpg
249.754	0.514	Blank	Blank	84.439	n/a	3	7	9	n/a	9	n/a	3	n/a	n/a	n/a	n/a	279.378	n/a
250.285	0.497	happy	Picture	83.925	n/a	3	7	10	n/a	10	85	3	n/a	n/a	n/a	n/a	279.909	BF07ANS.jpg
250.782	0.514	Blank	Blank	83.411	n/a	3	7	10	n/a	10	n/a	3	n/a	n/a	n/a	n/a	280.406	n/a
251.313	0.497	happy	Picture	82.897	n/a	3	7	11	n/a	11	87	3	n/a	n/a	n/a	n/a	280.937	BF11ANS.jpg
251.81	0.514	Blank	Blank	82.383	n/a	3	7	11	n/a	11	n/a	3	n/a	n/a	n/a	n/a	281.434	n/a
252.341	0.497	happy	Picture	81.869	n/a	3	7	12	n/a	12	91	3	n/a	n/a	n/a	n/a	281.965	AF20ANS.jpg
252.838	0.514	Blank	Blank	81.355	n/a	3	7	12	n/a	12	n/a	3	n/a	n/a	n/a	n/a	282.462	n/a
253.369	0.497	happy	Picture	80.841	n/a	3	7	13	n/a	13	115	3	n/a	n/a	n/a	n/a	282.993	AM23ANS.jpg
253.866	0.514	Blank	Blank	80.327	n/a	3	7	13	n/a	13	n/a	3	n/a	n/a	n/a	n/a	283.49	n/a
254.397	0.497	happy	Picture	79.813	n/a	3	7	14	n/a	14	97	3	n/a	n/a	n/a	n/a	284.021	BF28ANS.jpg
254.894	0.514	Blank	Blank	79.299	n/a	3	7	14	n/a	14	n/a	3	n/a	n/a	n/a	n/a	284.518	n/a
255.424	0.497	happy	Picture	78.785	n/a	3	7	15	n/a	15	82	3	n/a	n/a	n/a	n/a	285.048	AF03ANS.jpg
255.922	0.514	Blank	Blank	78.271	n/a	3	7	15	n/a	15	n/a	3	n/a	n/a	n/a	n/a	285.546	n/a
256.452	0.497	happy	Picture	77.757	n/a	3	7	16	n/a	16	96	3	n/a	n/a	n/a	n/a	286.076	AF26ANS.jpg
256.95	0.514	Blank	Blank	77.243	n/a	3	7	16	n/a	16	n/a	3	n/a	n/a	n/a	n/a	286.574	n/a
257.48	0.497	happy	Picture	76.73	n/a	3	7	17	n/a	17	109	3	n/a	n/a	n/a	n/a	287.104	AM10ANS.jpg
257.977	0.514	Blank	Blank	76.216	n/a	3	7	17	n/a	17	n/a	3	n/a	n/a	n/a	n/a	287.601	n/a
258.508	0.497	happy	Picture	75.702	n/a	3	7	18	n/a	18	114	3	n/a	n/a	n/a	n/a	288.132	AM22ANS.jpg
259.005	0.514	Blank	Blank	75.188	n/a	3	7	18	n/a	18	n/a	3	n/a	n/a	n/a	n/a	288.629	n/a
259.536	0.497	happy	Picture	74.674	n/a	3	7	19	n/a	19	120	3	n/a	n/a	n/a	n/a	289.16	AM35ANS.jpg
260.033	0.514	Blank	Blank	74.16	n/a	3	7	19	n/a	19	n/a	3	n/a	n/a	n/a	n/a	289.657	n/a
260.564	0.497	happy	Picture	73.646	n/a	3	7	20	n/a	20	81	3	n/a	n/a	n/a	n/a	290.188	AF01ANS.jpg
261.061	0.514	Blank	Blank	73.132	n/a	3	7	20	n/a	20	n/a	3	n/a	n/a	n/a	n/a	290.685	n/a
261.592	10.014	ITI	Fixation+	63.102	n/a	3	n/a	n/a	n/a	n/a	n/a	n/a	n/a	n/a	n/a	n/a	291.216	n/a
271.622	0.497	neutral	Picture	62.588	n/a	3	8	1	n/a	21	28	1	n/a	n/a	n/a	n/a	301.246	AM09NES.jpg
272.119	0.514	Blank	Blank	62.074	n/a	3	8	1	n/a	21	n/a	1	n/a	n/a	n/a	n/a	301.743	n/a
272.65	0.497	neutral	Picture	61.56	n/a	3	8	2	n/a	22	27	1	n/a	n/a	n/a	n/a	302.274	BM08NES.jpg
273.147	0.514	Blank	Blank	61.046	n/a	3	8	2	n/a	22	n/a	1	n/a	n/a	n/a	n/a	302.771	n/a
273.677	0.497	neutral	Picture	60.532	n/a	3	8	3	n/a	23	16	1	n/a	n/a	n/a	n/a	303.301	AF26NES.jpg
274.175	0.514	Blank	Blank	60.018	n/a	3	8	3	n/a	23	n/a	1	n/a	n/a	n/a	n/a	303.799	n/a
274.705	0.497	neutral	Picture	59.504	n/a	3	8	4	n/a	24	3	1	n/a	n/a	n/a	n/a	304.329	BF04NES.jpg
275.203	0.514	Blank	Blank	58.99	n/a	3	8	4	n/a	24	n/a	1	n/a	n/a	n/a	n/a	304.827	n/a
275.733	0.497	neutral	Picture	58.476	n/a	3	8	5	n/a	25	32	1	n/a	n/a	n/a	n/a	305.357	AM14NES.jpg
276.231	0.514	Blank	Blank	57.962	n/a	3	8	5	n/a	25	n/a	1	n/a	n/a	n/a	n/a	305.855	n/a
276.761	0.497	neutral	Picture	57.449	n/a	3	8	6	n/a	26	37	1	n/a	n/a	n/a	n/a	306.385	BM25NES.jpg
277.258	0.514	Blank	Blank	56.935	n/a	3	8	6	n/a	26	n/a	1	n/a	n/a	n/a	n/a	306.882	n/a
277.789	0.497	neutral	Picture	56.421	n/a	3	8	7	n/a	27	15	1	n/a	n/a	n/a	n/a	307.413	AF25NES.jpg
278.286	0.514	Blank	Blank	55.907	n/a	3	8	7	n/a	27	n/a	1	n/a	n/a	n/a	n/a	307.91	n/a
278.817	0.497	neutral	Picture	55.393	n/a	3	8	8	n/a	28	23	1	n/a	n/a	n/a	n/a	308.441	AM04NES.jpg
279.314	0.514	Blank	Blank	54.879	n/a	3	8	8	n/a	28	n/a	1	n/a	n/a	n/a	n/a	308.938	n/a
279.845	0.497	neutral	Picture	54.365	n/a	3	8	9	n/a	29	34	1	n/a	n/a	n/a	n/a	309.469	AM22NES.jpg
280.342	0.514	Blank	Blank	53.851	n/a	3	8	9	n/a	29	n/a	1	n/a	n/a	n/a	n/a	309.966	n/a
280.873	0.497	neutral	Picture	53.337	n/a	3	8	10	n/a	30	24	1	n/a	n/a	n/a	n/a	310.497	BM05NES.jpg
281.37	0.514	Blank	Blank	52.823	n/a	3	8	10	n/a	30	n/a	1	n/a	n/a	n/a	n/a	310.994	n/a
281.901	0.497	neutral	Picture	52.309	n/a	3	8	11	n/a	31	12	1	n/a	n/a	n/a	n/a	311.525	AF21NES.jpg
282.398	0.514	Blank	Blank	51.795	n/a	3	8	11	n/a	31	n/a	1	n/a	n/a	n/a	n/a	312.022	n/a
282.928	0.497	neutral	Picture	51.281	n/a	3	8	12	n/a	32	6	1	n/a	n/a	n/a	n/a	312.552	AF09NES.jpg
283.426	0.514	Blank	Blank	50.767	n/a	3	8	12	n/a	32	n/a	1	n/a	n/a	n/a	n/a	313.05	n/a
283.956	0.497	neutral	Picture	50.253	n/a	3	8	13	n/a	33	17	1	n/a	n/a	n/a	n/a	313.58	BF28NES.jpg
284.454	0.514	Blank	Blank	49.739	n/a	3	8	13	n/a	33	n/a	1	n/a	n/a	n/a	n/a	314.078	n/a
284.984	0.497	neutral	Picture	49.225	n/a	3	8	14	n/a	34	2	1	n/a	n/a	n/a	n/a	314.608	AF03NES.jpg
285.482	0.514	Blank	Blank	48.712	n/a	3	8	14	n/a	34	n/a	1	n/a	n/a	n/a	n/a	315.106	n/a
286.012	0.497	neutral	Picture	48.198	n/a	3	8	15	n/a	35	9	1	n/a	n/a	n/a	n/a	315.636	AF17NES.jpg
286.509	0.514	Blank	Blank	47.684	n/a	3	8	15	n/a	35	n/a	1	n/a	n/a	n/a	n/a	316.133	n/a
287.04	0.497	neutral	Picture	47.17	n/a	3	8	16	n/a	36	25	1	n/a	n/a	n/a	n/a	316.664	BM06NES.jpg
287.537	0.514	Blank	Blank	46.656	n/a	3	8	16	n/a	36	n/a	1	n/a	n/a	n/a	n/a	317.161	n/a
288.068	0.497	neutral	Picture	46.142	n/a	3	8	17	n/a	37	8	1	n/a	n/a	n/a	n/a	317.692	AF14NES.jpg
288.565	0.514	Blank	Blank	45.628	n/a	3	8	17	n/a	37	n/a	1	n/a	n/a	n/a	n/a	318.189	n/a
289.096	0.497	neutral	Picture	45.114	n/a	3	8	18	n/a	38	19	1	n/a	n/a	n/a	n/a	318.72	AF31NES.jpg
289.593	0.514	Blank	Blank	44.6	n/a	3	8	18	n/a	38	n/a	1	n/a	n/a	n/a	n/a	319.217	n/a
290.124	0.497	neutral	Picture	44.086	n/a	3	8	19	n/a	39	14	1	n/a	n/a	n/a	n/a	319.748	AF23NES.jpg
290.621	0.514	Blank	Blank	43.572	n/a	3	8	19	n/a	39	n/a	1	n/a	n/a	n/a	n/a	320.245	n/a
291.151	0.497	neutral	Picture	43.058	n/a	3	8	20	n/a	40	4	1	n/a	n/a	n/a	n/a	320.776	AF05NES.jpg
291.649	0.514	Blank	Blank	42.544	n/a	3	8	20	n/a	40	n/a	1	n/a	n/a	n/a	n/a	321.273	n/a
292.179	10.014	ITI	Fixation+	32.514	n/a	3	n/a	n/a	n/a	n/a	n/a	n/a	n/a	n/a	n/a	n/a	321.803	n/a
302.209	0.497	happy	Picture	32.0	n/a	3	9	1	n/a	41	84	3	n/a	n/a	n/a	n/a	331.833	AF05ANS.jpg
302.707	0.514	Blank	Blank	31.486	n/a	3	9	1	n/a	41	n/a	3	n/a	n/a	n/a	n/a	332.331	n/a
303.237	0.497	happy	Picture	30.972	n/a	3	9	2	n/a	42	92	3	n/a	n/a	n/a	n/a	332.861	AF21ANS.jpg
303.735	0.514	Blank	Blank	30.458	n/a	3	9	2	n/a	42	n/a	3	n/a	n/a	n/a	n/a	333.359	n/a
304.265	0.497	happy	Picture	29.944	n/a	3	9	3	n/a	43	86	3	n/a	n/a	n/a	n/a	333.889	AF09ANS.jpg
304.763	0.514	Blank	Blank	29.431	n/a	3	9	3	n/a	43	n/a	3	n/a	n/a	n/a	n/a	334.387	n/a
305.293	0.497	happy	Picture	28.917	n/a	3	9	4	n/a	44	93	3	n/a	n/a	n/a	n/a	334.917	BF22ANS.jpg
305.79	0.514	Blank	Blank	28.403	n/a	3	9	4	n/a	44	n/a	3	n/a	n/a	n/a	n/a	335.414	n/a
306.321	0.497	happy	Picture	27.889	n/a	3	9	5	n/a	45	88	3	n/a	n/a	n/a	n/a	335.945	AF14ANS.jpg
306.818	0.514	Blank	Blank	27.375	n/a	3	9	5	n/a	45	n/a	3	n/a	n/a	n/a	n/a	336.442	n/a
307.349	0.497	happy	Picture	26.861	n/a	3	9	6	n/a	46	113	3	n/a	n/a	n/a	n/a	336.973	AM21ANS.jpg
307.846	0.514	Blank	Blank	26.347	n/a	3	9	6	n/a	46	n/a	3	n/a	n/a	n/a	n/a	337.47	n/a
308.377	0.497	happy	Picture	25.833	n/a	3	9	7	n/a	47	95	3	n/a	n/a	n/a	n/a	338.001	AF25ANS.jpg
308.874	0.514	Blank	Blank	25.319	n/a	3	9	7	n/a	47	n/a	3	n/a	n/a	n/a	n/a	338.498	n/a
309.405	0.497	happy	Picture	24.805	n/a	3	9	8	n/a	48	102	3	n/a	n/a	n/a	n/a	339.029	BM03ANS.jpg
309.902	0.514	Blank	Blank	24.291	n/a	3	9	8	n/a	48	n/a	3	n/a	n/a	n/a	n/a	339.526	n/a
310.433	0.497	happy	Picture	23.777	n/a	3	9	9	n/a	49	112	3	n/a	n/a	n/a	n/a	340.057	AM14ANS.jpg
310.93	0.514	Blank	Blank	23.263	n/a	3	9	9	n/a	49	n/a	3	n/a	n/a	n/a	n/a	340.554	n/a
311.46	0.497	happy	Picture	22.749	n/a	3	9	10	n/a	50	83	3	n/a	n/a	n/a	n/a	341.084	BF04ANS.jpg
311.958	0.514	Blank	Blank	22.235	n/a	3	9	10	n/a	50	n/a	3	n/a	n/a	n/a	n/a	341.582	n/a
312.488	0.497	happy	Picture	21.721	n/a	3	9	11	n/a	51	90	3	n/a	n/a	n/a	n/a	342.112	AF18ANS.jpg
312.986	0.514	Blank	Blank	21.208	n/a	3	9	11	n/a	51	n/a	3	n/a	n/a	n/a	n/a	342.61	n/a
313.516	0.497	happy	Picture	20.693	n/a	3	9	12	n/a	52	117	3	n/a	n/a	n/a	n/a	343.14	BM25ANS.jpg
314.013	0.514	Blank	Blank	20.18	n/a	3	9	12	n/a	52	n/a	3	n/a	n/a	n/a	n/a	343.637	n/a
314.544	0.497	happy	Picture	19.666	n/a	3	9	13	n/a	53	94	3	n/a	n/a	n/a	n/a	344.168	AF23ANS.jpg
315.041	0.514	Blank	Blank	19.152	n/a	3	9	13	n/a	53	n/a	3	n/a	n/a	n/a	n/a	344.665	n/a
315.572	0.497	happy	Picture	18.638	n/a	3	9	14	n/a	54	106	3	n/a	n/a	n/a	n/a	345.196	AM07ANS.jpg
316.069	0.514	Blank	Blank	18.124	n/a	3	9	14	n/a	54	n/a	3	n/a	n/a	n/a	n/a	345.693	n/a
316.6	0.497	happy	Picture	17.61	n/a	3	9	15	n/a	55	105	3	n/a	n/a	n/a	n/a	346.224	BM06ANS.jpg
317.097	0.514	Blank	Blank	17.096	n/a	3	9	15	n/a	55	n/a	3	n/a	n/a	n/a	n/a	346.721	n/a
317.628	0.497	happy	Picture	16.582	n/a	3	9	16	n/a	56	116	3	n/a	n/a	n/a	n/a	347.252	BM24ANS.jpg
318.125	0.514	Blank	Blank	16.068	n/a	3	9	16	n/a	56	n/a	3	n/a	n/a	n/a	n/a	347.749	n/a
318.655	0.497	happy	Picture	15.554	n/a	3	9	17	n/a	57	89	3	n/a	n/a	n/a	n/a	348.279	AF17ANS.jpg
319.153	0.514	Blank	Blank	15.04	n/a	3	9	17	n/a	57	n/a	3	n/a	n/a	n/a	n/a	348.777	n/a
319.683	0.497	happy	Picture	14.526	n/a	3	9	18	n/a	58	118	3	n/a	n/a	n/a	n/a	349.307	BM26ANS.jpg
320.181	0.514	Blank	Blank	14.012	n/a	3	9	18	n/a	58	n/a	3	n/a	n/a	n/a	n/a	349.805	n/a
320.711	0.497	happy	Picture	13.498	n/a	3	9	19	n/a	59	100	3	n/a	n/a	n/a	n/a	350.335	AF32ANS.jpg
321.209	0.514	Blank	Blank	12.985	n/a	3	9	19	n/a	59	n/a	3	n/a	n/a	n/a	n/a	350.833	n/a
321.739	0.497	happy	Picture	12.471	n/a	3	9	20	n/a	60	119	3	n/a	n/a	n/a	n/a	351.363	BM28ANS.jpg
322.236	0.514	Blank	Blank	11.957	n/a	3	9	20	n/a	60	n/a	3	n/a	n/a	n/a	n/a	351.861	n/a
322.767	10.014	ITI	Fixation+	1.926	n/a	3	n/a	n/a	n/a	n/a	n/a	n/a	n/a	n/a	n/a	n/a	352.391	n/a
334.707	n/a	ConfirmRating	Rate	n/a	1.923	3	n/a	n/a	0	n/a	n/a	n/a	2	Happy	58	51	364.331	n/a
336.847	n/a	ConfirmRating	Rate	n/a	2.122	3	n/a	n/a	1	n/a	n/a	n/a	3	Happy	1	49	366.471	n/a
336.875	10.014	ITI	Fixation+	92.816	n/a	4	n/a	n/a	n/a	n/a	n/a	n/a	n/a	n/a	n/a	n/a	366.5	n/a
346.906	0.497	angry	Picture	92.302	n/a	4	10	1	n/a	61	79	2	n/a	n/a	n/a	n/a	376.53	BM28HAS.jpg
347.403	0.514	Blank	Blank	91.788	n/a	4	10	1	n/a	61	n/a	2	n/a	n/a	n/a	n/a	377.027	n/a
347.933	0.497	angry	Picture	91.274	n/a	4	10	2	n/a	62	61	2	n/a	n/a	n/a	n/a	377.557	AM01HAS.jpg
348.431	0.514	Blank	Blank	90.76	n/a	4	10	2	n/a	62	n/a	2	n/a	n/a	n/a	n/a	378.055	n/a
348.961	0.497	angry	Picture	90.246	n/a	4	10	3	n/a	63	57	2	n/a	n/a	n/a	n/a	378.585	BF28HAS.jpg
349.459	0.514	Blank	Blank	89.732	n/a	4	10	3	n/a	63	n/a	2	n/a	n/a	n/a	n/a	379.083	n/a
349.989	0.497	angry	Picture	89.218	n/a	4	10	4	n/a	64	77	2	n/a	n/a	n/a	n/a	379.613	BM25HAS.jpg
350.486	0.514	Blank	Blank	88.704	n/a	4	10	4	n/a	64	n/a	2	n/a	n/a	n/a	n/a	380.111	n/a
351.017	0.497	angry	Picture	88.19	n/a	4	10	5	n/a	65	47	2	n/a	n/a	n/a	n/a	380.641	BF11HAS.jpg
351.514	0.514	Blank	Blank	87.676	n/a	4	10	5	n/a	65	n/a	2	n/a	n/a	n/a	n/a	381.138	n/a
352.045	0.497	angry	Picture	87.162	n/a	4	10	6	n/a	66	50	2	n/a	n/a	n/a	n/a	381.669	AF18HAS.jpg
352.542	0.514	Blank	Blank	86.648	n/a	4	10	6	n/a	66	n/a	2	n/a	n/a	n/a	n/a	382.166	n/a
353.073	0.497	angry	Picture	86.134	n/a	4	10	7	n/a	67	78	2	n/a	n/a	n/a	n/a	382.697	BM26HAS.jpg
353.57	0.514	Blank	Blank	85.62	n/a	4	10	7	n/a	67	n/a	2	n/a	n/a	n/a	n/a	383.194	n/a
354.101	0.497	angry	Picture	85.106	n/a	4	10	8	n/a	68	45	2	n/a	n/a	n/a	n/a	383.725	BF07HAS.jpg
354.598	0.514	Blank	Blank	84.593	n/a	4	10	8	n/a	68	n/a	2	n/a	n/a	n/a	n/a	384.222	n/a
355.129	0.497	angry	Picture	84.079	n/a	4	10	9	n/a	69	56	2	n/a	n/a	n/a	n/a	384.753	AF26HAS.jpg
355.626	0.514	Blank	Blank	83.565	n/a	4	10	9	n/a	69	n/a	2	n/a	n/a	n/a	n/a	385.25	n/a
356.156	0.497	angry	Picture	83.051	n/a	4	10	10	n/a	70	65	2	n/a	n/a	n/a	n/a	385.78	BM06HAS.jpg
356.654	0.514	Blank	Blank	82.537	n/a	4	10	10	n/a	70	n/a	2	n/a	n/a	n/a	n/a	386.278	n/a
357.184	0.497	angry	Picture	82.023	n/a	4	10	11	n/a	71	73	2	n/a	n/a	n/a	n/a	386.808	AM21HAS.jpg
357.682	0.514	Blank	Blank	81.509	n/a	4	10	11	n/a	71	n/a	2	n/a	n/a	n/a	n/a	387.306	n/a
358.212	0.497	angry	Picture	80.995	n/a	4	10	12	n/a	72	41	2	n/a	n/a	n/a	n/a	387.836	AF01HAS.jpg
358.71	0.514	Blank	Blank	80.481	n/a	4	10	12	n/a	72	n/a	2	n/a	n/a	n/a	n/a	388.334	n/a
359.24	0.497	angry	Picture	79.967	n/a	4	10	13	n/a	73	59	2	n/a	n/a	n/a	n/a	388.864	AF31HAS.jpg
359.737	0.514	Blank	Blank	79.453	n/a	4	10	13	n/a	73	n/a	2	n/a	n/a	n/a	n/a	389.361	n/a
360.268	0.497	angry	Picture	78.939	n/a	4	10	14	n/a	74	64	2	n/a	n/a	n/a	n/a	389.892	BM05HAS.jpg
360.765	0.514	Blank	Blank	78.425	n/a	4	10	14	n/a	74	n/a	2	n/a	n/a	n/a	n/a	390.389	n/a
361.296	0.497	angry	Picture	77.911	n/a	4	10	15	n/a	75	68	2	n/a	n/a	n/a	n/a	390.92	AM09HAS.jpg
361.793	0.514	Blank	Blank	77.398	n/a	4	10	15	n/a	75	n/a	2	n/a	n/a	n/a	n/a	391.417	n/a
362.324	0.497	angry	Picture	76.883	n/a	4	10	16	n/a	76	54	2	n/a	n/a	n/a	n/a	391.948	AF23HAS.jpg
362.821	0.514	Blank	Blank	76.37	n/a	4	10	16	n/a	76	n/a	2	n/a	n/a	n/a	n/a	392.445	n/a
363.352	0.497	angry	Picture	75.856	n/a	4	10	17	n/a	77	53	2	n/a	n/a	n/a	n/a	392.976	BF22HAS.jpg
363.849	0.514	Blank	Blank	75.342	n/a	4	10	17	n/a	77	n/a	2	n/a	n/a	n/a	n/a	393.473	n/a
364.379	0.497	angry	Picture	74.828	n/a	4	10	18	n/a	78	44	2	n/a	n/a	n/a	n/a	394.003	AF05HAS.jpg
364.877	0.514	Blank	Blank	74.314	n/a	4	10	18	n/a	78	n/a	2	n/a	n/a	n/a	n/a	394.501	n/a
365.407	0.497	angry	Picture	73.8	n/a	4	10	19	n/a	79	52	2	n/a	n/a	n/a	n/a	395.031	AF21HAS.jpg
365.905	0.514	Blank	Blank	73.286	n/a	4	10	19	n/a	79	n/a	2	n/a	n/a	n/a	n/a	395.529	n/a
366.435	0.497	angry	Picture	72.772	n/a	4	10	20	n/a	80	62	2	n/a	n/a	n/a	n/a	396.059	BM03HAS.jpg
366.933	0.514	Blank	Blank	72.258	n/a	4	10	20	n/a	80	n/a	2	n/a	n/a	n/a	n/a	396.557	n/a
367.463	10.014	ITI	Fixation+	62.228	n/a	4	n/a	n/a	n/a	n/a	n/a	n/a	n/a	n/a	n/a	n/a	397.087	n/a
377.493	0.497	neutral	Picture	61.714	n/a	4	11	1	n/a	81	23	1	n/a	n/a	n/a	n/a	407.117	AM04NES.jpg
377.991	0.514	Blank	Blank	61.2	n/a	4	11	1	n/a	81	n/a	1	n/a	n/a	n/a	n/a	407.615	n/a
378.521	0.497	neutral	Picture	60.686	n/a	4	11	2	n/a	82	29	1	n/a	n/a	n/a	n/a	408.145	AM10NES.jpg
379.018	0.514	Blank	Blank	60.172	n/a	4	11	2	n/a	82	n/a	1	n/a	n/a	n/a	n/a	408.642	n/a
379.549	0.497	neutral	Picture	59.658	n/a	4	11	3	n/a	83	24	1	n/a	n/a	n/a	n/a	409.173	BM05NES.jpg
380.046	0.514	Blank	Blank	59.144	n/a	4	11	3	n/a	83	n/a	1	n/a	n/a	n/a	n/a	409.67	n/a
380.577	0.497	neutral	Picture	58.63	n/a	4	11	4	n/a	84	12	1	n/a	n/a	n/a	n/a	410.201	AF21NES.jpg
381.074	0.514	Blank	Blank	58.117	n/a	4	11	4	n/a	84	n/a	1	n/a	n/a	n/a	n/a	410.698	n/a
381.605	0.497	neutral	Picture	57.602	n/a	4	11	5	n/a	85	13	1	n/a	n/a	n/a	n/a	411.229	BF22NES.jpg
382.102	0.514	Blank	Blank	57.089	n/a	4	11	5	n/a	85	n/a	1	n/a	n/a	n/a	n/a	411.726	n/a
382.633	0.497	neutral	Picture	56.575	n/a	4	11	6	n/a	86	17	1	n/a	n/a	n/a	n/a	412.257	BF28NES.jpg
383.13	0.514	Blank	Blank	56.061	n/a	4	11	6	n/a	86	n/a	1	n/a	n/a	n/a	n/a	412.754	n/a
383.66	0.497	neutral	Picture	55.547	n/a	4	11	7	n/a	87	4	1	n/a	n/a	n/a	n/a	413.284	AF05NES.jpg
384.158	0.514	Blank	Blank	55.033	n/a	4	11	7	n/a	87	n/a	1	n/a	n/a	n/a	n/a	413.782	n/a
384.688	0.497	neutral	Picture	54.519	n/a	4	11	8	n/a	88	11	1	n/a	n/a	n/a	n/a	414.312	AF20NES.jpg
385.186	0.514	Blank	Blank	54.005	n/a	4	11	8	n/a	88	n/a	1	n/a	n/a	n/a	n/a	414.81	n/a
385.716	0.497	neutral	Picture	53.491	n/a	4	11	9	n/a	89	22	1	n/a	n/a	n/a	n/a	415.34	BM03NES.jpg
386.214	0.514	Blank	Blank	52.977	n/a	4	11	9	n/a	89	n/a	1	n/a	n/a	n/a	n/a	415.838	n/a
386.744	0.497	neutral	Picture	52.463	n/a	4	11	10	n/a	90	15	1	n/a	n/a	n/a	n/a	416.368	AF25NES.jpg
387.241	0.514	Blank	Blank	51.949	n/a	4	11	10	n/a	90	n/a	1	n/a	n/a	n/a	n/a	416.865	n/a
387.772	0.497	neutral	Picture	51.435	n/a	4	11	11	n/a	91	19	1	n/a	n/a	n/a	n/a	417.396	AF31NES.jpg
388.269	0.514	Blank	Blank	50.921	n/a	4	11	11	n/a	91	n/a	1	n/a	n/a	n/a	n/a	417.893	n/a
388.8	0.497	neutral	Picture	50.407	n/a	4	11	12	n/a	92	9	1	n/a	n/a	n/a	n/a	418.424	AF17NES.jpg
389.297	0.514	Blank	Blank	49.893	n/a	4	11	12	n/a	92	n/a	1	n/a	n/a	n/a	n/a	418.921	n/a
389.828	0.497	neutral	Picture	49.379	n/a	4	11	13	n/a	93	14	1	n/a	n/a	n/a	n/a	419.452	AF23NES.jpg
390.325	0.514	Blank	Blank	48.866	n/a	4	11	13	n/a	93	n/a	1	n/a	n/a	n/a	n/a	419.949	n/a
390.856	0.497	neutral	Picture	48.352	n/a	4	11	14	n/a	94	36	1	n/a	n/a	n/a	n/a	420.48	BM24NES.jpg
391.353	0.514	Blank	Blank	47.838	n/a	4	11	14	n/a	94	n/a	1	n/a	n/a	n/a	n/a	420.977	n/a
391.883	0.497	neutral	Picture	47.324	n/a	4	11	15	n/a	95	34	1	n/a	n/a	n/a	n/a	421.507	AM22NES.jpg
392.381	0.514	Blank	Blank	46.81	n/a	4	11	15	n/a	95	n/a	1	n/a	n/a	n/a	n/a	422.005	n/a
392.911	0.497	neutral	Picture	46.296	n/a	4	11	16	n/a	96	10	1	n/a	n/a	n/a	n/a	422.535	AF18NES.jpg
393.409	0.514	Blank	Blank	45.782	n/a	4	11	16	n/a	96	n/a	1	n/a	n/a	n/a	n/a	423.033	n/a
393.939	0.497	neutral	Picture	45.268	n/a	4	11	17	n/a	97	5	1	n/a	n/a	n/a	n/a	423.563	BF07NES.jpg
394.437	0.514	Blank	Blank	44.754	n/a	4	11	17	n/a	97	n/a	1	n/a	n/a	n/a	n/a	424.061	n/a
394.967	0.497	neutral	Picture	44.24	n/a	4	11	18	n/a	98	25	1	n/a	n/a	n/a	n/a	424.591	BM06NES.jpg
395.464	0.514	Blank	Blank	43.726	n/a	4	11	18	n/a	98	n/a	1	n/a	n/a	n/a	n/a	425.089	n/a
395.995	0.497	neutral	Picture	43.212	n/a	4	11	19	n/a	99	39	1	n/a	n/a	n/a	n/a	425.619	AM28NES.jpg
396.492	0.514	Blank	Blank	42.698	n/a	4	11	19	n/a	99	n/a	1	n/a	n/a	n/a	n/a	426.116	n/a
397.023	0.497	neutral	Picture	42.184	n/a	4	11	20	n/a	100	33	1	n/a	n/a	n/a	n/a	426.647	AM21NES.jpg
397.52	0.514	Blank	Blank	41.67	n/a	4	11	20	n/a	100	n/a	1	n/a	n/a	n/a	n/a	427.144	n/a
398.051	10.014	ITI	Fixation+	31.64	n/a	4	n/a	n/a	n/a	n/a	n/a	n/a	n/a	n/a	n/a	n/a	427.675	n/a
408.081	0.497	angry	Picture	31.126	n/a	4	12	1	n/a	101	74	2	n/a	n/a	n/a	n/a	437.705	AM22HAS.jpg
408.578	0.514	Blank	Blank	30.612	n/a	4	12	1	n/a	101	n/a	2	n/a	n/a	n/a	n/a	438.202	n/a
409.109	0.497	angry	Picture	30.098	n/a	4	12	2	n/a	102	76	2	n/a	n/a	n/a	n/a	438.733	BM24HAS.jpg
409.606	0.514	Blank	Blank	29.585	n/a	4	12	2	n/a	102	n/a	2	n/a	n/a	n/a	n/a	439.23	n/a
410.137	0.497	angry	Picture	29.071	n/a	4	12	3	n/a	103	80	2	n/a	n/a	n/a	n/a	439.761	BM35HAS.jpg
410.634	0.514	Blank	Blank	28.557	n/a	4	12	3	n/a	103	n/a	2	n/a	n/a	n/a	n/a	440.258	n/a
411.164	0.497	angry	Picture	28.043	n/a	4	12	4	n/a	104	75	2	n/a	n/a	n/a	n/a	440.788	AM23HAS.jpg
411.662	0.514	Blank	Blank	27.529	n/a	4	12	4	n/a	104	n/a	2	n/a	n/a	n/a	n/a	441.286	n/a
412.192	0.497	angry	Picture	27.015	n/a	4	12	5	n/a	105	49	2	n/a	n/a	n/a	n/a	441.816	AF17HAS.jpg
412.69	0.514	Blank	Blank	26.501	n/a	4	12	5	n/a	105	n/a	2	n/a	n/a	n/a	n/a	442.314	n/a
413.22	0.497	angry	Picture	25.987	n/a	4	12	6	n/a	106	43	2	n/a	n/a	n/a	n/a	442.844	BF04HAS.jpg
413.718	0.514	Blank	Blank	25.473	n/a	4	12	6	n/a	106	n/a	2	n/a	n/a	n/a	n/a	443.342	n/a
414.248	0.497	angry	Picture	24.959	n/a	4	12	7	n/a	107	70	2	n/a	n/a	n/a	n/a	443.872	BM11HAS.jpg
414.745	0.514	Blank	Blank	24.445	n/a	4	12	7	n/a	107	n/a	2	n/a	n/a	n/a	n/a	444.37	n/a
415.276	0.497	angry	Picture	23.931	n/a	4	12	8	n/a	108	66	2	n/a	n/a	n/a	n/a	444.9	BM07HAS.jpg
415.773	0.514	Blank	Blank	23.417	n/a	4	12	8	n/a	108	n/a	2	n/a	n/a	n/a	n/a	445.397	n/a
416.304	0.497	angry	Picture	22.903	n/a	4	12	9	n/a	109	48	2	n/a	n/a	n/a	n/a	445.928	AF14HAS.jpg
416.801	0.514	Blank	Blank	22.389	n/a	4	12	9	n/a	109	n/a	2	n/a	n/a	n/a	n/a	446.425	n/a
417.332	0.497	angry	Picture	21.875	n/a	4	12	10	n/a	110	58	2	n/a	n/a	n/a	n/a	446.956	BF29HAS.jpg
417.829	0.514	Blank	Blank	21.361	n/a	4	12	10	n/a	110	n/a	2	n/a	n/a	n/a	n/a	447.453	n/a
418.36	0.497	angry	Picture	20.848	n/a	4	12	11	n/a	111	63	2	n/a	n/a	n/a	n/a	447.984	AM04HAS.jpg
418.857	0.514	Blank	Blank	20.334	n/a	4	12	11	n/a	111	n/a	2	n/a	n/a	n/a	n/a	448.481	n/a
419.387	0.497	angry	Picture	19.82	n/a	4	12	12	n/a	112	72	2	n/a	n/a	n/a	n/a	449.012	AM14HAS.jpg
419.885	0.514	Blank	Blank	19.306	n/a	4	12	12	n/a	112	n/a	2	n/a	n/a	n/a	n/a	449.509	n/a
420.415	0.497	angry	Picture	18.792	n/a	4	12	13	n/a	113	55	2	n/a	n/a	n/a	n/a	450.039	AF25HAS.jpg
420.913	0.514	Blank	Blank	18.278	n/a	4	12	13	n/a	113	n/a	2	n/a	n/a	n/a	n/a	450.537	n/a
421.443	0.497	angry	Picture	17.764	n/a	4	12	14	n/a	114	42	2	n/a	n/a	n/a	n/a	451.067	AF03HAS.jpg
421.941	0.514	Blank	Blank	17.25	n/a	4	12	14	n/a	114	n/a	2	n/a	n/a	n/a	n/a	451.565	n/a
422.471	0.497	angry	Picture	16.736	n/a	4	12	15	n/a	115	60	2	n/a	n/a	n/a	n/a	452.095	AF32HAS.jpg
422.968	0.514	Blank	Blank	16.222	n/a	4	12	15	n/a	115	n/a	2	n/a	n/a	n/a	n/a	452.592	n/a
423.499	0.497	angry	Picture	15.708	n/a	4	12	16	n/a	116	67	2	n/a	n/a	n/a	n/a	453.123	BM08HAS.jpg
423.996	0.514	Blank	Blank	15.194	n/a	4	12	16	n/a	116	n/a	2	n/a	n/a	n/a	n/a	453.62	n/a
424.527	0.497	angry	Picture	14.68	n/a	4	12	17	n/a	117	51	2	n/a	n/a	n/a	n/a	454.151	AF20HAS.jpg
425.024	0.514	Blank	Blank	14.166	n/a	4	12	17	n/a	117	n/a	2	n/a	n/a	n/a	n/a	454.648	n/a
425.555	0.497	angry	Picture	13.652	n/a	4	12	18	n/a	118	71	2	n/a	n/a	n/a	n/a	455.179	BM12HAS.jpg
426.052	0.514	Blank	Blank	13.138	n/a	4	12	18	n/a	118	n/a	2	n/a	n/a	n/a	n/a	455.676	n/a
426.583	0.497	angry	Picture	12.625	n/a	4	12	19	n/a	119	69	2	n/a	n/a	n/a	n/a	456.207	AM10HAS.jpg
427.08	0.514	Blank	Blank	12.111	n/a	4	12	19	n/a	119	n/a	2	n/a	n/a	n/a	n/a	456.704	n/a
427.611	0.497	angry	Picture	11.597	n/a	4	12	20	n/a	120	46	2	n/a	n/a	n/a	n/a	457.235	AF09HAS.jpg
428.108	0.514	Blank	Blank	11.083	n/a	4	12	20	n/a	120	n/a	2	n/a	n/a	n/a	n/a	457.732	n/a
428.638	10.014	ITI	Fixation+	1.053	n/a	4	n/a	n/a	n/a	n/a	n/a	n/a	n/a	n/a	n/a	n/a	458.262	n/a
439.705	n/a	ConfirmRating	Rate	n/a	1.045	4	n/a	n/a	0	n/a	n/a	n/a	2	Angry	50	50	469.329	n/a
442.014	n/a	ConfirmRating	Rate	n/a	2.288	4	n/a	n/a	1	n/a	n/a	n/a	3	Angry	0	49	471.638	n/a
