onset	duration	trial_type	event_type	trial_number	condition	picture_number	time_until_response	response_time	unpleasantness_rating	onset_uncorrected
0.007	4.261	ITI	Fixation+	0	No_Pain	n/a	7.263	n/a	n/a	26.056
4.284	3.498	Pic2	Picture	0	No_Pain	24	3.748	n/a	n/a	30.334
7.782	2.006	Blank	Blank	0	No_Pain	n/a	1.742	n/a	n/a	33.832
11.531	n/a	ConfirmRating	Rate	0	No_Pain	24	n/a	1.225	0	37.58
11.563	5.056	ITI	Fixation+	1	No_Pain	n/a	7.981	n/a	n/a	37.612
16.636	3.498	Pic2	Picture	1	No_Pain	25	4.467	n/a	n/a	42.685
20.134	2.006	Blank	Blank	1	No_Pain	n/a	2.461	n/a	n/a	46.183
24.6	n/a	ConfirmRating	Rate	1	No_Pain	25	n/a	1.944	0	50.65
24.627	4.974	ITI	Fixation+	2	Pain	n/a	7.84	n/a	n/a	50.676
29.617	3.498	Pic2	Picture	2	Pain	19	4.326	n/a	n/a	55.666
33.115	2.006	Blank	Blank	2	Pain	n/a	2.319	n/a	n/a	59.164
37.44	n/a	ConfirmRating	Rate	2	Pain	19	n/a	1.803	0	63.489
37.458	5.885	ITI	Fixation+	3	No_Pain	n/a	6.986	n/a	n/a	63.508
43.36	3.498	Pic2	Picture	3	No_Pain	37	3.471	n/a	n/a	69.41
46.859	2.006	Blank	Blank	3	No_Pain	n/a	1.465	n/a	n/a	72.908
50.33	n/a	ConfirmRating	Rate	3	No_Pain	37	n/a	0.956	0	76.379
50.357	5.454	ITI	Fixation+	4	Pain	n/a	9.155	n/a	n/a	76.406
55.828	3.498	Pic2	Picture	4	Pain	2	5.641	n/a	n/a	81.877
59.326	2.006	Blank	Blank	4	Pain	n/a	3.635	n/a	n/a	85.375
64.966	n/a	ConfirmRating	Rate	4	Pain	2	n/a	3.118	10	91.016
64.996	5.819	ITI	Fixation+	5	No_Pain	n/a	7.385	n/a	n/a	91.045
70.831	3.498	Pic2	Picture	5	No_Pain	26	3.87	n/a	n/a	96.88
74.329	2.006	Blank	Blank	5	No_Pain	n/a	1.864	n/a	n/a	100.379
78.199	n/a	ConfirmRating	Rate	5	No_Pain	26	n/a	1.347	0	104.248
78.225	5.355	ITI	Fixation+	6	Pain	n/a	6.593	n/a	n/a	104.275
83.597	3.498	Pic2	Picture	6	Pain	12	3.078	n/a	n/a	109.646
87.095	2.006	Blank	Blank	6	Pain	n/a	1.072	n/a	n/a	113.144
90.173	n/a	ConfirmRating	Rate	6	Pain	12	n/a	0.556	0	116.222
90.195	5.985	ITI	Fixation+	7	Pain	n/a	7.061	n/a	n/a	116.244
96.197	3.498	Pic2	Picture	7	Pain	3	3.546	n/a	n/a	122.246
99.695	2.006	Blank	Blank	7	Pain	n/a	1.54	n/a	n/a	125.744
103.241	n/a	ConfirmRating	Rate	7	Pain	3	n/a	1.023	22	129.29
103.259	4.029	ITI	Fixation+	8	No_Pain	n/a	8.354	n/a	n/a	129.308
107.304	3.498	Pic2	Picture	8	No_Pain	30	4.839	n/a	n/a	133.353
110.802	2.006	Blank	Blank	8	No_Pain	n/a	2.833	n/a	n/a	136.852
115.641	n/a	ConfirmRating	Rate	8	No_Pain	30	n/a	2.316	0	141.691
115.66	4.692	ITI	Fixation+	9	Pain	n/a	7.829	n/a	n/a	141.709
120.368	3.498	Pic2	Picture	9	Pain	4	4.315	n/a	n/a	146.417
123.866	2.006	Blank	Blank	9	Pain	n/a	2.309	n/a	n/a	149.916
128.181	n/a	ConfirmRating	Rate	9	Pain	4	n/a	1.792	13	154.23
128.21	5.305	ITI	Fixation+	10	No_Pain	n/a	7.436	n/a	n/a	154.259
133.532	3.498	Pic2	Picture	10	No_Pain	28	3.921	n/a	n/a	159.581
137.03	2.006	Blank	Blank	10	No_Pain	n/a	1.915	n/a	n/a	163.079
140.951	n/a	ConfirmRating	Rate	10	No_Pain	28	n/a	1.399	0	167.0
140.976	4.178	ITI	Fixation+	11	Pain	n/a	9.626	n/a	n/a	167.025
145.17	3.498	Pic2	Picture	11	Pain	13	6.111	n/a	n/a	171.219
148.668	2.006	Blank	Blank	11	Pain	n/a	4.105	n/a	n/a	174.717
154.779	n/a	ConfirmRating	Rate	11	Pain	13	n/a	3.589	17	180.829
154.802	5.587	ITI	Fixation+	12	No_Pain	n/a	7.779	n/a	n/a	180.851
160.406	3.498	Pic2	Picture	12	No_Pain	32	4.264	n/a	n/a	186.455
163.904	2.006	Blank	Blank	12	No_Pain	n/a	2.258	n/a	n/a	189.953
168.168	n/a	ConfirmRating	Rate	12	No_Pain	32	n/a	1.742	0	194.217
168.198	4.791	ITI	Fixation+	13	Pain	n/a	6.833	n/a	n/a	194.247
173.006	3.498	Pic2	Picture	13	Pain	5	3.318	n/a	n/a	199.055
176.504	2.006	Blank	Blank	13	Pain	n/a	1.312	n/a	n/a	202.553
179.822	n/a	ConfirmRating	Rate	13	Pain	5	n/a	0.796	11	205.871
179.853	5.554	ITI	Fixation+	14	No_Pain	n/a	8.013	n/a	n/a	205.902
185.423	3.498	Pic2	Picture	14	No_Pain	21	4.499	n/a	n/a	211.472
188.921	2.006	Blank	Blank	14	No_Pain	n/a	2.492	n/a	n/a	214.97
193.42	n/a	ConfirmRating	Rate	14	No_Pain	21	n/a	1.975	0	219.469
193.447	4.095	ITI	Fixation+	15	No_Pain	n/a	7.842	n/a	n/a	219.496
197.559	3.498	Pic2	Picture	15	No_Pain	38	4.328	n/a	n/a	223.608
201.057	2.006	Blank	Blank	15	No_Pain	n/a	2.322	n/a	n/a	227.106
205.384	n/a	ConfirmRating	Rate	15	No_Pain	38	n/a	1.805	0	231.434
205.417	5.355	ITI	Fixation+	16	Pain	n/a	8.94	n/a	n/a	231.466
210.788	3.498	Pic2	Picture	16	Pain	16	5.426	n/a	n/a	236.838
214.286	2.006	Blank	Blank	16	Pain	n/a	3.42	n/a	n/a	240.336
219.712	n/a	ConfirmRating	Rate	16	Pain	16	n/a	2.903	23	245.761
219.741	4.543	ITI	Fixation+	17	No_Pain	n/a	6.9	n/a	n/a	245.79
224.3	3.498	Pic2	Picture	17	No_Pain	22	3.386	n/a	n/a	250.349
227.798	2.006	Blank	Blank	17	No_Pain	n/a	1.38	n/a	n/a	253.847
231.184	n/a	ConfirmRating	Rate	17	No_Pain	22	n/a	0.864	0	257.233
231.213	4.344	ITI	Fixation+	18	Pain	n/a	9.139	n/a	n/a	257.263
235.574	3.498	Pic2	Picture	18	Pain	8	5.625	n/a	n/a	261.623
239.072	2.006	Blank	Blank	18	Pain	n/a	3.619	n/a	n/a	265.121
244.697	n/a	ConfirmRating	Rate	18	Pain	8	n/a	3.102	25	270.746
244.725	5.852	ITI	Fixation+	19	Pain	n/a	7.844	n/a	n/a	270.774
250.594	3.498	Pic2	Picture	19	Pain	1	4.329	n/a	n/a	276.643
254.092	2.006	Blank	Blank	19	Pain	n/a	2.323	n/a	n/a	280.141
258.421	n/a	ConfirmRating	Rate	19	Pain	1	n/a	1.807	24	284.47
258.452	15.004	Rest	n/a	19	n/a	n/a	-15.035	n/a	n/a	284.501
273.472	5.322	ITI	Fixation+	20	No_Pain	n/a	7.789	n/a	n/a	299.522
278.811	3.498	Pic2	Picture	20	No_Pain	23	4.275	n/a	n/a	304.86
282.309	2.006	Blank	Blank	20	No_Pain	n/a	2.269	n/a	n/a	308.358
286.584	n/a	ConfirmRating	Rate	20	No_Pain	23	n/a	1.752	0	312.633
286.603	5.753	ITI	Fixation+	21	Pain	n/a	7.657	n/a	n/a	312.652
292.372	3.498	Pic2	Picture	21	Pain	10	4.142	n/a	n/a	318.421
295.87	2.006	Blank	Blank	21	Pain	n/a	2.136	n/a	n/a	321.919
300.012	n/a	ConfirmRating	Rate	21	Pain	10	n/a	1.619	10	326.062
300.031	5.587	ITI	Fixation+	22	No_Pain	n/a	7.127	n/a	n/a	326.081
305.635	3.498	Pic2	Picture	22	No_Pain	36	3.613	n/a	n/a	331.684
309.133	2.006	Blank	Blank	22	No_Pain	n/a	1.607	n/a	n/a	335.182
312.746	n/a	ConfirmRating	Rate	22	No_Pain	36	n/a	1.091	0	338.795
312.764	4.659	ITI	Fixation+	23	Pain	n/a	6.85	n/a	n/a	338.813
317.439	3.498	Pic2	Picture	23	Pain	11	3.336	n/a	n/a	343.488
320.937	2.006	Blank	Blank	23	Pain	n/a	1.329	n/a	n/a	346.986
324.273	n/a	ConfirmRating	Rate	23	Pain	11	n/a	0.813	5	350.322
324.303	4.559	ITI	Fixation+	24	Pain	n/a	7.138	n/a	n/a	350.352
328.878	3.498	Pic2	Picture	24	Pain	17	3.623	n/a	n/a	354.928
332.376	2.006	Blank	Blank	24	Pain	n/a	1.617	n/a	n/a	358.426
336.0	n/a	ConfirmRating	Rate	24	Pain	17	n/a	1.1	7	362.049
336.024	5.007	ITI	Fixation+	25	No_Pain	n/a	7.582	n/a	n/a	362.073
341.047	3.498	Pic2	Picture	25	No_Pain	31	4.067	n/a	n/a	367.096
344.545	2.006	Blank	Blank	25	No_Pain	n/a	2.061	n/a	n/a	370.594
348.612	n/a	ConfirmRating	Rate	25	No_Pain	31	n/a	1.544	0	374.661
348.64	5.156	ITI	Fixation+	26	Pain	n/a	7.056	n/a	n/a	374.689
353.813	3.498	Pic2	Picture	26	Pain	18	3.541	n/a	n/a	379.862
357.311	2.006	Blank	Blank	26	Pain	n/a	1.535	n/a	n/a	383.36
360.852	n/a	ConfirmRating	Rate	26	Pain	18	n/a	1.019	30	386.901
360.875	5.372	ITI	Fixation+	27	No_Pain	n/a	7.649	n/a	n/a	386.924
366.263	3.498	Pic2	Picture	27	No_Pain	33	4.134	n/a	n/a	392.312
369.761	2.006	Blank	Blank	27	No_Pain	n/a	2.128	n/a	n/a	395.81
373.896	n/a	ConfirmRating	Rate	27	No_Pain	33	n/a	1.611	0	399.945
373.923	5.487	ITI	Fixation+	28	No_Pain	n/a	7.808	n/a	n/a	399.972
379.427	3.498	Pic2	Picture	28	No_Pain	40	4.293	n/a	n/a	405.476
382.925	2.006	Blank	Blank	28	No_Pain	n/a	2.288	n/a	n/a	408.974
387.218	n/a	ConfirmRating	Rate	28	No_Pain	40	n/a	1.771	0	413.267
387.235	4.211	ITI	Fixation+	29	Pain	n/a	7.944	n/a	n/a	413.284
391.463	3.498	Pic2	Picture	29	Pain	20	4.429	n/a	n/a	417.512
394.961	2.006	Blank	Blank	29	Pain	n/a	2.423	n/a	n/a	421.01
399.39	n/a	ConfirmRating	Rate	29	Pain	20	n/a	1.907	10	425.439
399.421	5.587	ITI	Fixation+	30	No_Pain	n/a	8.058	n/a	n/a	425.47
405.024	3.498	Pic2	Picture	30	No_Pain	27	4.543	n/a	n/a	431.073
408.522	2.006	Blank	Blank	30	No_Pain	n/a	2.537	n/a	n/a	434.572
413.066	n/a	ConfirmRating	Rate	30	No_Pain	27	n/a	2.02	0	439.115
413.098	5.106	ITI	Fixation+	31	Pain	n/a	6.772	n/a	n/a	439.147
418.221	3.498	Pic2	Picture	31	Pain	14	3.258	n/a	n/a	444.27
421.719	2.006	Blank	Blank	31	Pain	n/a	1.252	n/a	n/a	447.768
424.976	n/a	ConfirmRating	Rate	31	Pain	14	n/a	0.735	28	451.026
425.002	5.322	ITI	Fixation+	32	Pain	n/a	7.347	n/a	n/a	451.051
430.34	3.498	Pic2	Picture	32	Pain	9	3.832	n/a	n/a	456.389
433.838	2.006	Blank	Blank	32	Pain	n/a	1.826	n/a	n/a	459.887
437.67	n/a	ConfirmRating	Rate	32	Pain	9	n/a	1.31	15	463.719
437.701	5.421	ITI	Fixation+	33	No_Pain	n/a	6.882	n/a	n/a	463.75
443.139	3.498	Pic2	Picture	33	No_Pain	39	3.367	n/a	n/a	469.188
446.637	2.006	Blank	Blank	33	No_Pain	n/a	1.361	n/a	n/a	472.686
450.004	n/a	ConfirmRating	Rate	33	No_Pain	39	n/a	0.845	0	476.053
450.035	4.924	ITI	Fixation+	34	No_Pain	n/a	7.17	n/a	n/a	476.084
454.976	3.498	Pic2	Picture	34	No_Pain	29	3.656	n/a	n/a	481.025
458.474	2.006	Blank	Blank	34	No_Pain	n/a	1.65	n/a	n/a	484.523
462.13	n/a	ConfirmRating	Rate	34	No_Pain	29	n/a	1.133	0	488.179
462.154	4.327	ITI	Fixation+	35	Pain	n/a	7.989	n/a	n/a	488.204
466.498	3.498	Pic2	Picture	35	Pain	6	4.474	n/a	n/a	492.547
469.996	2.006	Blank	Blank	35	Pain	n/a	2.468	n/a	n/a	496.045
474.47	n/a	ConfirmRating	Rate	35	Pain	6	n/a	1.952	26	500.52
474.489	5.869	ITI	Fixation+	36	No_Pain	n/a	6.786	n/a	n/a	500.538
480.374	3.498	Pic2	Picture	36	No_Pain	35	3.272	n/a	n/a	506.423
483.872	2.006	Blank	Blank	36	No_Pain	n/a	1.266	n/a	n/a	509.922
487.144	n/a	ConfirmRating	Rate	36	No_Pain	35	n/a	0.749	0	513.193
487.171	5.139	ITI	Fixation+	37	No_Pain	n/a	7.638	n/a	n/a	513.221
492.328	3.498	Pic2	Picture	37	No_Pain	34	4.123	n/a	n/a	518.377
495.826	2.006	Blank	Blank	37	No_Pain	n/a	2.117	n/a	n/a	521.875
499.949	n/a	ConfirmRating	Rate	37	No_Pain	34	n/a	1.601	0	525.998
499.97	5.255	ITI	Fixation+	38	Pain	n/a	9.173	n/a	n/a	526.019
505.242	3.498	Pic2	Picture	38	Pain	15	5.658	n/a	n/a	531.292
508.74	2.006	Blank	Blank	38	Pain	n/a	3.652	n/a	n/a	534.79
514.399	n/a	ConfirmRating	Rate	38	Pain	15	n/a	3.135	6	540.448
514.427	4.907	ITI	Fixation+	39	Pain	n/a	8.586	n/a	n/a	540.476
519.351	3.498	Pic2	Picture	39	Pain	7	5.071	n/a	n/a	545.4
522.849	2.006	Blank	Blank	39	Pain	n/a	3.065	n/a	n/a	548.898
527.92	n/a	ConfirmRating	Rate	39	Pain	7	n/a	2.549	13	553.969
