onset	duration	trial_type	event_type	time_until_response	response_time	trial_number	block_num_within_trial	image_seq_num_within_block	question_seq_num_within_block	image_seq_num	picture_number	condition	question_type	block_type	rating	rating_computed	onset_uncorrected	KDEV_imagefile
0.007	10.014	ITI	Fixation+	99.002	n/a	1	n/a	n/a	n/a	n/a	n/a	n/a	n/a	n/a	n/a	n/a	32.306	n/a
10.037	0.497	happy	Picture	98.488	n/a	1	1	1	n/a	1	108	3	n/a	n/a	n/a	n/a	42.337	AM09ANS.jpg
10.535	0.514	Blank	Blank	97.974	n/a	1	1	1	n/a	1	n/a	3	n/a	n/a	n/a	n/a	42.834	n/a
11.065	0.497	happy	Picture	97.46	n/a	1	1	2	n/a	2	99	3	n/a	n/a	n/a	n/a	43.364	AF31ANS.jpg
11.563	0.514	Blank	Blank	96.946	n/a	1	1	2	n/a	2	n/a	3	n/a	n/a	n/a	n/a	43.862	n/a
12.093	0.497	happy	Picture	96.432	n/a	1	1	3	n/a	3	98	3	n/a	n/a	n/a	n/a	44.392	BF29ANS.jpg
12.59	0.514	Blank	Blank	95.919	n/a	1	1	3	n/a	3	n/a	3	n/a	n/a	n/a	n/a	44.89	n/a
13.121	0.497	happy	Picture	95.405	n/a	1	1	4	n/a	4	107	3	n/a	n/a	n/a	n/a	45.42	BM08ANS.jpg
13.618	0.514	Blank	Blank	94.891	n/a	1	1	4	n/a	4	n/a	3	n/a	n/a	n/a	n/a	45.918	n/a
14.149	0.497	happy	Picture	94.377	n/a	1	1	5	n/a	5	104	3	n/a	n/a	n/a	n/a	46.448	BM05ANS.jpg
14.646	0.514	Blank	Blank	93.863	n/a	1	1	5	n/a	5	n/a	3	n/a	n/a	n/a	n/a	46.946	n/a
15.177	0.497	happy	Picture	93.349	n/a	1	1	6	n/a	6	101	3	n/a	n/a	n/a	n/a	47.476	AM01ANS.jpg
15.674	0.514	Blank	Blank	92.835	n/a	1	1	6	n/a	6	n/a	3	n/a	n/a	n/a	n/a	47.973	n/a
16.205	0.497	happy	Picture	92.321	n/a	1	1	7	n/a	7	103	3	n/a	n/a	n/a	n/a	48.504	AM04ANS.jpg
16.702	0.514	Blank	Blank	91.807	n/a	1	1	7	n/a	7	n/a	3	n/a	n/a	n/a	n/a	49.001	n/a
17.232	0.497	happy	Picture	91.293	n/a	1	1	8	n/a	8	111	3	n/a	n/a	n/a	n/a	49.532	BM12ANS.jpg
17.73	0.514	Blank	Blank	90.779	n/a	1	1	8	n/a	8	n/a	3	n/a	n/a	n/a	n/a	50.029	n/a
18.26	0.497	happy	Picture	90.265	n/a	1	1	9	n/a	9	110	3	n/a	n/a	n/a	n/a	50.56	AM11ANS.jpg
18.758	0.514	Blank	Blank	89.751	n/a	1	1	9	n/a	9	n/a	3	n/a	n/a	n/a	n/a	51.057	n/a
19.288	0.497	happy	Picture	89.237	n/a	1	1	10	n/a	10	85	3	n/a	n/a	n/a	n/a	51.588	BF07ANS.jpg
19.785	0.514	Blank	Blank	88.723	n/a	1	1	10	n/a	10	n/a	3	n/a	n/a	n/a	n/a	52.085	n/a
20.316	0.497	happy	Picture	88.209	n/a	1	1	11	n/a	11	87	3	n/a	n/a	n/a	n/a	52.615	BF11ANS.jpg
20.813	0.514	Blank	Blank	87.696	n/a	1	1	11	n/a	11	n/a	3	n/a	n/a	n/a	n/a	53.113	n/a
21.344	0.497	happy	Picture	87.182	n/a	1	1	12	n/a	12	91	3	n/a	n/a	n/a	n/a	53.643	AF20ANS.jpg
21.841	0.514	Blank	Blank	86.668	n/a	1	1	12	n/a	12	n/a	3	n/a	n/a	n/a	n/a	54.141	n/a
22.372	0.497	happy	Picture	86.154	n/a	1	1	13	n/a	13	115	3	n/a	n/a	n/a	n/a	54.671	AM23ANS.jpg
22.869	0.514	Blank	Blank	85.64	n/a	1	1	13	n/a	13	n/a	3	n/a	n/a	n/a	n/a	55.169	n/a
23.4	0.497	happy	Picture	85.126	n/a	1	1	14	n/a	14	97	3	n/a	n/a	n/a	n/a	55.699	BF28ANS.jpg
23.897	0.514	Blank	Blank	84.612	n/a	1	1	14	n/a	14	n/a	3	n/a	n/a	n/a	n/a	56.196	n/a
24.428	0.497	happy	Picture	84.098	n/a	1	1	15	n/a	15	82	3	n/a	n/a	n/a	n/a	56.727	AF03ANS.jpg
24.925	0.514	Blank	Blank	83.584	n/a	1	1	15	n/a	15	n/a	3	n/a	n/a	n/a	n/a	57.224	n/a
25.455	0.497	happy	Picture	83.07	n/a	1	1	16	n/a	16	96	3	n/a	n/a	n/a	n/a	57.755	AF26ANS.jpg
25.953	0.514	Blank	Blank	82.556	n/a	1	1	16	n/a	16	n/a	3	n/a	n/a	n/a	n/a	58.252	n/a
26.483	0.497	happy	Picture	82.042	n/a	1	1	17	n/a	17	109	3	n/a	n/a	n/a	n/a	58.783	AM10ANS.jpg
26.981	0.514	Blank	Blank	81.528	n/a	1	1	17	n/a	17	n/a	3	n/a	n/a	n/a	n/a	59.28	n/a
27.511	0.497	happy	Picture	81.014	n/a	1	1	18	n/a	18	114	3	n/a	n/a	n/a	n/a	59.811	AM22ANS.jpg
28.008	0.514	Blank	Blank	80.5	n/a	1	1	18	n/a	18	n/a	3	n/a	n/a	n/a	n/a	60.308	n/a
28.539	0.497	happy	Picture	79.986	n/a	1	1	19	n/a	19	120	3	n/a	n/a	n/a	n/a	60.839	AM35ANS.jpg
29.036	0.514	Blank	Blank	79.472	n/a	1	1	19	n/a	19	n/a	3	n/a	n/a	n/a	n/a	61.336	n/a
29.567	0.497	happy	Picture	78.959	n/a	1	1	20	n/a	20	81	3	n/a	n/a	n/a	n/a	61.866	AF01ANS.jpg
30.064	0.514	Blank	Blank	78.445	n/a	1	1	20	n/a	20	n/a	3	n/a	n/a	n/a	n/a	62.364	n/a
30.595	10.014	ITI	Fixation+	68.414	n/a	1	n/a	n/a	n/a	n/a	n/a	n/a	n/a	n/a	n/a	n/a	62.894	n/a
40.625	0.497	neutral	Picture	67.901	n/a	1	2	1	n/a	21	28	1	n/a	n/a	n/a	n/a	72.924	AM09NES.jpg
41.122	0.514	Blank	Blank	67.387	n/a	1	2	1	n/a	21	n/a	1	n/a	n/a	n/a	n/a	73.422	n/a
41.653	0.497	neutral	Picture	66.873	n/a	1	2	2	n/a	22	27	1	n/a	n/a	n/a	n/a	73.952	BM08NES.jpg
42.15	0.514	Blank	Blank	66.359	n/a	1	2	2	n/a	22	n/a	1	n/a	n/a	n/a	n/a	74.45	n/a
42.681	0.497	neutral	Picture	65.845	n/a	1	2	3	n/a	23	16	1	n/a	n/a	n/a	n/a	74.98	AF26NES.jpg
43.178	0.514	Blank	Blank	65.331	n/a	1	2	3	n/a	23	n/a	1	n/a	n/a	n/a	n/a	75.478	n/a
43.709	0.497	neutral	Picture	64.817	n/a	1	2	4	n/a	24	3	1	n/a	n/a	n/a	n/a	76.008	BF04NES.jpg
44.206	0.514	Blank	Blank	64.303	n/a	1	2	4	n/a	24	n/a	1	n/a	n/a	n/a	n/a	76.505	n/a
44.736	0.497	neutral	Picture	63.789	n/a	1	2	5	n/a	25	32	1	n/a	n/a	n/a	n/a	77.036	AM14NES.jpg
45.234	0.514	Blank	Blank	63.275	n/a	1	2	5	n/a	25	n/a	1	n/a	n/a	n/a	n/a	77.533	n/a
45.764	0.497	neutral	Picture	62.761	n/a	1	2	6	n/a	26	37	1	n/a	n/a	n/a	n/a	78.064	BM25NES.jpg
46.262	0.514	Blank	Blank	62.247	n/a	1	2	6	n/a	26	n/a	1	n/a	n/a	n/a	n/a	78.561	n/a
46.792	0.497	neutral	Picture	61.733	n/a	1	2	7	n/a	27	15	1	n/a	n/a	n/a	n/a	79.092	AF25NES.jpg
47.29	0.514	Blank	Blank	61.219	n/a	1	2	7	n/a	27	n/a	1	n/a	n/a	n/a	n/a	79.589	n/a
47.82	0.497	neutral	Picture	60.705	n/a	1	2	8	n/a	28	23	1	n/a	n/a	n/a	n/a	80.12	AM04NES.jpg
48.317	0.514	Blank	Blank	60.191	n/a	1	2	8	n/a	28	n/a	1	n/a	n/a	n/a	n/a	80.617	n/a
48.848	0.497	neutral	Picture	59.678	n/a	1	2	9	n/a	29	34	1	n/a	n/a	n/a	n/a	81.147	AM22NES.jpg
49.345	0.514	Blank	Blank	59.164	n/a	1	2	9	n/a	29	n/a	1	n/a	n/a	n/a	n/a	81.645	n/a
49.876	0.497	neutral	Picture	58.65	n/a	1	2	10	n/a	30	24	1	n/a	n/a	n/a	n/a	82.175	BM05NES.jpg
50.373	0.514	Blank	Blank	58.136	n/a	1	2	10	n/a	30	n/a	1	n/a	n/a	n/a	n/a	82.673	n/a
50.904	0.497	neutral	Picture	57.622	n/a	1	2	11	n/a	31	12	1	n/a	n/a	n/a	n/a	83.203	AF21NES.jpg
51.401	0.514	Blank	Blank	57.108	n/a	1	2	11	n/a	31	n/a	1	n/a	n/a	n/a	n/a	83.701	n/a
51.932	0.497	neutral	Picture	56.594	n/a	1	2	12	n/a	32	6	1	n/a	n/a	n/a	n/a	84.231	AF09NES.jpg
52.429	0.514	Blank	Blank	56.08	n/a	1	2	12	n/a	32	n/a	1	n/a	n/a	n/a	n/a	84.728	n/a
52.959	0.497	neutral	Picture	55.566	n/a	1	2	13	n/a	33	17	1	n/a	n/a	n/a	n/a	85.259	BF28NES.jpg
53.457	0.514	Blank	Blank	55.052	n/a	1	2	13	n/a	33	n/a	1	n/a	n/a	n/a	n/a	85.756	n/a
53.987	0.497	neutral	Picture	54.538	n/a	1	2	14	n/a	34	2	1	n/a	n/a	n/a	n/a	86.287	AF03NES.jpg
54.485	0.514	Blank	Blank	54.024	n/a	1	2	14	n/a	34	n/a	1	n/a	n/a	n/a	n/a	86.784	n/a
55.015	0.497	neutral	Picture	53.51	n/a	1	2	15	n/a	35	9	1	n/a	n/a	n/a	n/a	87.315	AF17NES.jpg
55.513	0.514	Blank	Blank	52.996	n/a	1	2	15	n/a	35	n/a	1	n/a	n/a	n/a	n/a	87.812	n/a
56.043	0.497	neutral	Picture	52.482	n/a	1	2	16	n/a	36	25	1	n/a	n/a	n/a	n/a	88.343	BM06NES.jpg
56.541	0.514	Blank	Blank	51.968	n/a	1	2	16	n/a	36	n/a	1	n/a	n/a	n/a	n/a	88.84	n/a
57.071	0.497	neutral	Picture	51.454	n/a	1	2	17	n/a	37	8	1	n/a	n/a	n/a	n/a	89.37	AF14NES.jpg
57.568	0.514	Blank	Blank	50.941	n/a	1	2	17	n/a	37	n/a	1	n/a	n/a	n/a	n/a	89.868	n/a
58.099	0.497	neutral	Picture	50.427	n/a	1	2	18	n/a	38	19	1	n/a	n/a	n/a	n/a	90.398	AF31NES.jpg
58.596	0.514	Blank	Blank	49.913	n/a	1	2	18	n/a	38	n/a	1	n/a	n/a	n/a	n/a	90.896	n/a
59.127	0.497	neutral	Picture	49.399	n/a	1	2	19	n/a	39	14	1	n/a	n/a	n/a	n/a	91.426	AF23NES.jpg
59.624	0.514	Blank	Blank	48.885	n/a	1	2	19	n/a	39	n/a	1	n/a	n/a	n/a	n/a	91.924	n/a
60.155	0.497	neutral	Picture	48.371	n/a	1	2	20	n/a	40	4	1	n/a	n/a	n/a	n/a	92.454	AF05NES.jpg
60.652	0.514	Blank	Blank	47.857	n/a	1	2	20	n/a	40	n/a	1	n/a	n/a	n/a	n/a	92.951	n/a
61.182	10.014	ITI	Fixation+	37.827	n/a	1	n/a	n/a	n/a	n/a	n/a	n/a	n/a	n/a	n/a	n/a	93.482	n/a
71.213	0.497	happy	Picture	37.313	n/a	1	3	1	n/a	41	84	3	n/a	n/a	n/a	n/a	103.512	AF05ANS.jpg
71.71	0.514	Blank	Blank	36.799	n/a	1	3	1	n/a	41	n/a	3	n/a	n/a	n/a	n/a	104.009	n/a
72.24	0.497	happy	Picture	36.285	n/a	1	3	2	n/a	42	92	3	n/a	n/a	n/a	n/a	104.54	AF21ANS.jpg
72.738	0.514	Blank	Blank	35.771	n/a	1	3	2	n/a	42	n/a	3	n/a	n/a	n/a	n/a	105.037	n/a
73.268	0.497	happy	Picture	35.257	n/a	1	3	3	n/a	43	86	3	n/a	n/a	n/a	n/a	105.568	AF09ANS.jpg
73.766	0.514	Blank	Blank	34.743	n/a	1	3	3	n/a	43	n/a	3	n/a	n/a	n/a	n/a	106.065	n/a
74.296	0.497	happy	Picture	34.229	n/a	1	3	4	n/a	44	93	3	n/a	n/a	n/a	n/a	106.596	BF22ANS.jpg
74.794	0.514	Blank	Blank	33.715	n/a	1	3	4	n/a	44	n/a	3	n/a	n/a	n/a	n/a	107.093	n/a
75.324	0.497	happy	Picture	33.201	n/a	1	3	5	n/a	45	88	3	n/a	n/a	n/a	n/a	107.624	AF14ANS.jpg
75.822	0.514	Blank	Blank	32.687	n/a	1	3	5	n/a	45	n/a	3	n/a	n/a	n/a	n/a	108.121	n/a
76.352	0.497	happy	Picture	32.173	n/a	1	3	6	n/a	46	113	3	n/a	n/a	n/a	n/a	108.651	AM21ANS.jpg
76.849	0.514	Blank	Blank	31.66	n/a	1	3	6	n/a	46	n/a	3	n/a	n/a	n/a	n/a	109.149	n/a
77.38	0.497	happy	Picture	31.146	n/a	1	3	7	n/a	47	95	3	n/a	n/a	n/a	n/a	109.679	AF25ANS.jpg
77.877	0.514	Blank	Blank	30.632	n/a	1	3	7	n/a	47	n/a	3	n/a	n/a	n/a	n/a	110.177	n/a
78.408	0.497	happy	Picture	30.118	n/a	1	3	8	n/a	48	102	3	n/a	n/a	n/a	n/a	110.707	BM03ANS.jpg
78.905	0.514	Blank	Blank	29.604	n/a	1	3	8	n/a	48	n/a	3	n/a	n/a	n/a	n/a	111.204	n/a
79.436	0.497	happy	Picture	29.09	n/a	1	3	9	n/a	49	112	3	n/a	n/a	n/a	n/a	111.735	AM14ANS.jpg
79.933	0.514	Blank	Blank	28.576	n/a	1	3	9	n/a	49	n/a	3	n/a	n/a	n/a	n/a	112.232	n/a
80.464	0.497	happy	Picture	28.062	n/a	1	3	10	n/a	50	83	3	n/a	n/a	n/a	n/a	112.763	BF04ANS.jpg
80.961	0.514	Blank	Blank	27.548	n/a	1	3	10	n/a	50	n/a	3	n/a	n/a	n/a	n/a	113.26	n/a
81.491	0.497	happy	Picture	27.034	n/a	1	3	11	n/a	51	90	3	n/a	n/a	n/a	n/a	113.791	AF18ANS.jpg
81.989	0.514	Blank	Blank	26.52	n/a	1	3	11	n/a	51	n/a	3	n/a	n/a	n/a	n/a	114.288	n/a
82.519	0.497	happy	Picture	26.006	n/a	1	3	12	n/a	52	117	3	n/a	n/a	n/a	n/a	114.819	BM25ANS.jpg
83.017	0.514	Blank	Blank	25.492	n/a	1	3	12	n/a	52	n/a	3	n/a	n/a	n/a	n/a	115.316	n/a
83.547	0.497	happy	Picture	24.978	n/a	1	3	13	n/a	53	94	3	n/a	n/a	n/a	n/a	115.847	AF23ANS.jpg
84.044	0.514	Blank	Blank	24.464	n/a	1	3	13	n/a	53	n/a	3	n/a	n/a	n/a	n/a	116.344	n/a
84.575	0.497	happy	Picture	23.95	n/a	1	3	14	n/a	54	106	3	n/a	n/a	n/a	n/a	116.874	AM07ANS.jpg
85.072	0.514	Blank	Blank	23.436	n/a	1	3	14	n/a	54	n/a	3	n/a	n/a	n/a	n/a	117.372	n/a
85.603	0.497	happy	Picture	22.923	n/a	1	3	15	n/a	55	105	3	n/a	n/a	n/a	n/a	117.902	BM06ANS.jpg
86.1	0.514	Blank	Blank	22.409	n/a	1	3	15	n/a	55	n/a	3	n/a	n/a	n/a	n/a	118.4	n/a
86.631	0.497	happy	Picture	21.895	n/a	1	3	16	n/a	56	116	3	n/a	n/a	n/a	n/a	118.93	BM24ANS.jpg
87.128	0.514	Blank	Blank	21.381	n/a	1	3	16	n/a	56	n/a	3	n/a	n/a	n/a	n/a	119.428	n/a
87.659	0.497	happy	Picture	20.867	n/a	1	3	17	n/a	57	89	3	n/a	n/a	n/a	n/a	119.958	AF17ANS.jpg
88.156	0.514	Blank	Blank	20.353	n/a	1	3	17	n/a	57	n/a	3	n/a	n/a	n/a	n/a	120.456	n/a
88.687	0.497	happy	Picture	19.839	n/a	1	3	18	n/a	58	118	3	n/a	n/a	n/a	n/a	120.986	BM26ANS.jpg
89.184	0.514	Blank	Blank	19.325	n/a	1	3	18	n/a	58	n/a	3	n/a	n/a	n/a	n/a	121.483	n/a
89.715	0.497	happy	Picture	18.811	n/a	1	3	19	n/a	59	100	3	n/a	n/a	n/a	n/a	122.014	AF32ANS.jpg
90.212	0.514	Blank	Blank	18.297	n/a	1	3	19	n/a	59	n/a	3	n/a	n/a	n/a	n/a	122.511	n/a
90.742	0.497	happy	Picture	17.783	n/a	1	3	20	n/a	60	119	3	n/a	n/a	n/a	n/a	123.042	BM28ANS.jpg
91.24	0.514	Blank	Blank	17.269	n/a	1	3	20	n/a	60	n/a	3	n/a	n/a	n/a	n/a	123.539	n/a
91.77	10.014	ITI	Fixation+	7.239	n/a	1	n/a	n/a	n/a	n/a	n/a	n/a	n/a	n/a	n/a	n/a	124.07	n/a
109.023	n/a	ConfirmRating	Rate	n/a	7.229	1	n/a	n/a	0	n/a	n/a	n/a	2	Happy	44	49	141.322	n/a
113.417	n/a	ConfirmRating	Rate	n/a	4.377	1	n/a	n/a	1	n/a	n/a	n/a	3	Happy	0	49	145.716	n/a
113.439	10.014	ITI	Fixation+	95.212	n/a	2	n/a	n/a	n/a	n/a	n/a	n/a	n/a	n/a	n/a	n/a	145.738	n/a
123.469	0.497	angry	Picture	94.698	n/a	2	4	1	n/a	61	79	2	n/a	n/a	n/a	n/a	155.768	BM28HAS.jpg
123.966	0.514	Blank	Blank	94.184	n/a	2	4	1	n/a	61	n/a	2	n/a	n/a	n/a	n/a	156.265	n/a
124.497	0.497	angry	Picture	93.67	n/a	2	4	2	n/a	62	61	2	n/a	n/a	n/a	n/a	156.796	AM01HAS.jpg
124.994	0.514	Blank	Blank	93.156	n/a	2	4	2	n/a	62	n/a	2	n/a	n/a	n/a	n/a	157.293	n/a
125.524	0.497	angry	Picture	92.642	n/a	2	4	3	n/a	63	57	2	n/a	n/a	n/a	n/a	157.824	BF28HAS.jpg
126.022	0.514	Blank	Blank	92.128	n/a	2	4	3	n/a	63	n/a	2	n/a	n/a	n/a	n/a	158.321	n/a
126.552	0.497	angry	Picture	91.614	n/a	2	4	4	n/a	64	77	2	n/a	n/a	n/a	n/a	158.852	BM25HAS.jpg
127.05	0.514	Blank	Blank	91.1	n/a	2	4	4	n/a	64	n/a	2	n/a	n/a	n/a	n/a	159.349	n/a
127.58	0.497	angry	Picture	90.586	n/a	2	4	5	n/a	65	47	2	n/a	n/a	n/a	n/a	159.88	BF11HAS.jpg
128.078	0.514	Blank	Blank	90.072	n/a	2	4	5	n/a	65	n/a	2	n/a	n/a	n/a	n/a	160.377	n/a
128.608	0.497	angry	Picture	89.558	n/a	2	4	6	n/a	66	50	2	n/a	n/a	n/a	n/a	160.907	AF18HAS.jpg
129.105	0.514	Blank	Blank	89.044	n/a	2	4	6	n/a	66	n/a	2	n/a	n/a	n/a	n/a	161.405	n/a
129.636	0.497	angry	Picture	88.531	n/a	2	4	7	n/a	67	78	2	n/a	n/a	n/a	n/a	161.935	BM26HAS.jpg
130.133	0.514	Blank	Blank	88.016	n/a	2	4	7	n/a	67	n/a	2	n/a	n/a	n/a	n/a	162.433	n/a
130.664	0.497	angry	Picture	87.503	n/a	2	4	8	n/a	68	45	2	n/a	n/a	n/a	n/a	162.963	BF07HAS.jpg
131.161	0.514	Blank	Blank	86.989	n/a	2	4	8	n/a	68	n/a	2	n/a	n/a	n/a	n/a	163.461	n/a
131.692	0.497	angry	Picture	86.475	n/a	2	4	9	n/a	69	56	2	n/a	n/a	n/a	n/a	163.991	AF26HAS.jpg
132.189	0.514	Blank	Blank	85.961	n/a	2	4	9	n/a	69	n/a	2	n/a	n/a	n/a	n/a	164.488	n/a
132.72	0.497	angry	Picture	85.447	n/a	2	4	10	n/a	70	65	2	n/a	n/a	n/a	n/a	165.019	BM06HAS.jpg
133.217	0.514	Blank	Blank	84.933	n/a	2	4	10	n/a	70	n/a	2	n/a	n/a	n/a	n/a	165.516	n/a
133.748	0.497	angry	Picture	84.419	n/a	2	4	11	n/a	71	73	2	n/a	n/a	n/a	n/a	166.047	AM21HAS.jpg
134.245	0.514	Blank	Blank	83.905	n/a	2	4	11	n/a	71	n/a	2	n/a	n/a	n/a	n/a	166.544	n/a
134.775	0.497	angry	Picture	83.391	n/a	2	4	12	n/a	72	41	2	n/a	n/a	n/a	n/a	167.075	AF01HAS.jpg
135.273	0.514	Blank	Blank	82.877	n/a	2	4	12	n/a	72	n/a	2	n/a	n/a	n/a	n/a	167.572	n/a
135.803	0.497	angry	Picture	82.363	n/a	2	4	13	n/a	73	59	2	n/a	n/a	n/a	n/a	168.103	AF31HAS.jpg
136.301	0.514	Blank	Blank	81.849	n/a	2	4	13	n/a	73	n/a	2	n/a	n/a	n/a	n/a	168.6	n/a
136.831	0.497	angry	Picture	81.335	n/a	2	4	14	n/a	74	64	2	n/a	n/a	n/a	n/a	169.131	BM05HAS.jpg
137.329	0.514	Blank	Blank	80.821	n/a	2	4	14	n/a	74	n/a	2	n/a	n/a	n/a	n/a	169.628	n/a
137.859	0.497	angry	Picture	80.307	n/a	2	4	15	n/a	75	68	2	n/a	n/a	n/a	n/a	170.158	AM09HAS.jpg
138.356	0.514	Blank	Blank	79.793	n/a	2	4	15	n/a	75	n/a	2	n/a	n/a	n/a	n/a	170.656	n/a
138.887	0.497	angry	Picture	79.28	n/a	2	4	16	n/a	76	54	2	n/a	n/a	n/a	n/a	171.186	AF23HAS.jpg
139.384	0.514	Blank	Blank	78.766	n/a	2	4	16	n/a	76	n/a	2	n/a	n/a	n/a	n/a	171.684	n/a
139.915	0.497	angry	Picture	78.252	n/a	2	4	17	n/a	77	53	2	n/a	n/a	n/a	n/a	172.214	BF22HAS.jpg
140.412	0.514	Blank	Blank	77.738	n/a	2	4	17	n/a	77	n/a	2	n/a	n/a	n/a	n/a	172.712	n/a
140.943	0.497	angry	Picture	77.224	n/a	2	4	18	n/a	78	44	2	n/a	n/a	n/a	n/a	173.242	AF05HAS.jpg
141.44	0.514	Blank	Blank	76.71	n/a	2	4	18	n/a	78	n/a	2	n/a	n/a	n/a	n/a	173.739	n/a
141.971	0.497	angry	Picture	76.196	n/a	2	4	19	n/a	79	52	2	n/a	n/a	n/a	n/a	174.27	AF21HAS.jpg
142.468	0.514	Blank	Blank	75.682	n/a	2	4	19	n/a	79	n/a	2	n/a	n/a	n/a	n/a	174.767	n/a
142.998	0.497	angry	Picture	75.168	n/a	2	4	20	n/a	80	62	2	n/a	n/a	n/a	n/a	175.298	BM03HAS.jpg
143.496	0.514	Blank	Blank	74.654	n/a	2	4	20	n/a	80	n/a	2	n/a	n/a	n/a	n/a	175.795	n/a
144.026	10.014	ITI	Fixation+	64.624	n/a	2	n/a	n/a	n/a	n/a	n/a	n/a	n/a	n/a	n/a	n/a	176.326	n/a
154.056	0.497	neutral	Picture	64.11	n/a	2	5	1	n/a	81	23	1	n/a	n/a	n/a	n/a	186.356	AM04NES.jpg
154.554	0.514	Blank	Blank	63.596	n/a	2	5	1	n/a	81	n/a	1	n/a	n/a	n/a	n/a	186.853	n/a
155.084	0.497	neutral	Picture	63.082	n/a	2	5	2	n/a	82	29	1	n/a	n/a	n/a	n/a	187.384	AM10NES.jpg
155.582	0.514	Blank	Blank	62.568	n/a	2	5	2	n/a	82	n/a	1	n/a	n/a	n/a	n/a	187.881	n/a
156.112	0.497	neutral	Picture	62.054	n/a	2	5	3	n/a	83	24	1	n/a	n/a	n/a	n/a	188.411	BM05NES.jpg
156.609	0.514	Blank	Blank	61.54	n/a	2	5	3	n/a	83	n/a	1	n/a	n/a	n/a	n/a	188.909	n/a
157.14	0.497	neutral	Picture	61.026	n/a	2	5	4	n/a	84	12	1	n/a	n/a	n/a	n/a	189.439	AF21NES.jpg
157.637	0.514	Blank	Blank	60.512	n/a	2	5	4	n/a	84	n/a	1	n/a	n/a	n/a	n/a	189.937	n/a
158.168	0.497	neutral	Picture	59.999	n/a	2	5	5	n/a	85	13	1	n/a	n/a	n/a	n/a	190.467	BF22NES.jpg
158.665	0.514	Blank	Blank	59.485	n/a	2	5	5	n/a	85	n/a	1	n/a	n/a	n/a	n/a	190.965	n/a
159.196	0.497	neutral	Picture	58.971	n/a	2	5	6	n/a	86	17	1	n/a	n/a	n/a	n/a	191.495	BF28NES.jpg
159.693	0.514	Blank	Blank	58.457	n/a	2	5	6	n/a	86	n/a	1	n/a	n/a	n/a	n/a	191.993	n/a
160.224	0.497	neutral	Picture	57.943	n/a	2	5	7	n/a	87	4	1	n/a	n/a	n/a	n/a	192.523	AF05NES.jpg
160.721	0.514	Blank	Blank	57.429	n/a	2	5	7	n/a	87	n/a	1	n/a	n/a	n/a	n/a	193.02	n/a
161.252	0.497	neutral	Picture	56.915	n/a	2	5	8	n/a	88	11	1	n/a	n/a	n/a	n/a	193.551	AF20NES.jpg
161.749	0.514	Blank	Blank	56.401	n/a	2	5	8	n/a	88	n/a	1	n/a	n/a	n/a	n/a	194.048	n/a
162.279	0.497	neutral	Picture	55.887	n/a	2	5	9	n/a	89	22	1	n/a	n/a	n/a	n/a	194.579	BM03NES.jpg
162.777	0.514	Blank	Blank	55.373	n/a	2	5	9	n/a	89	n/a	1	n/a	n/a	n/a	n/a	195.076	n/a
163.307	0.497	neutral	Picture	54.859	n/a	2	5	10	n/a	90	15	1	n/a	n/a	n/a	n/a	195.607	AF25NES.jpg
163.805	0.514	Blank	Blank	54.345	n/a	2	5	10	n/a	90	n/a	1	n/a	n/a	n/a	n/a	196.104	n/a
164.335	0.497	neutral	Picture	53.831	n/a	2	5	11	n/a	91	19	1	n/a	n/a	n/a	n/a	196.635	AF31NES.jpg
164.833	0.514	Blank	Blank	53.317	n/a	2	5	11	n/a	91	n/a	1	n/a	n/a	n/a	n/a	197.132	n/a
165.363	0.497	neutral	Picture	52.803	n/a	2	5	12	n/a	92	9	1	n/a	n/a	n/a	n/a	197.662	AF17NES.jpg
165.86	0.514	Blank	Blank	52.29	n/a	2	5	12	n/a	92	n/a	1	n/a	n/a	n/a	n/a	198.16	n/a
166.391	0.497	neutral	Picture	51.775	n/a	2	5	13	n/a	93	14	1	n/a	n/a	n/a	n/a	198.69	AF23NES.jpg
166.888	0.514	Blank	Blank	51.262	n/a	2	5	13	n/a	93	n/a	1	n/a	n/a	n/a	n/a	199.188	n/a
167.419	0.497	neutral	Picture	50.748	n/a	2	5	14	n/a	94	36	1	n/a	n/a	n/a	n/a	199.718	BM24NES.jpg
167.916	0.514	Blank	Blank	50.234	n/a	2	5	14	n/a	94	n/a	1	n/a	n/a	n/a	n/a	200.216	n/a
168.447	0.497	neutral	Picture	49.72	n/a	2	5	15	n/a	95	34	1	n/a	n/a	n/a	n/a	200.746	AM22NES.jpg
168.944	0.514	Blank	Blank	49.206	n/a	2	5	15	n/a	95	n/a	1	n/a	n/a	n/a	n/a	201.243	n/a
169.475	0.497	neutral	Picture	48.692	n/a	2	5	16	n/a	96	10	1	n/a	n/a	n/a	n/a	201.774	AF18NES.jpg
169.972	0.514	Blank	Blank	48.178	n/a	2	5	16	n/a	96	n/a	1	n/a	n/a	n/a	n/a	202.271	n/a
170.502	0.497	neutral	Picture	47.664	n/a	2	5	17	n/a	97	5	1	n/a	n/a	n/a	n/a	202.802	BF07NES.jpg
171.0	0.514	Blank	Blank	47.15	n/a	2	5	17	n/a	97	n/a	1	n/a	n/a	n/a	n/a	203.299	n/a
171.53	0.497	neutral	Picture	46.636	n/a	2	5	18	n/a	98	25	1	n/a	n/a	n/a	n/a	203.83	BM06NES.jpg
172.028	0.514	Blank	Blank	46.122	n/a	2	5	18	n/a	98	n/a	1	n/a	n/a	n/a	n/a	204.327	n/a
172.558	0.497	neutral	Picture	45.608	n/a	2	5	19	n/a	99	39	1	n/a	n/a	n/a	n/a	204.858	AM28NES.jpg
173.055	0.514	Blank	Blank	45.094	n/a	2	5	19	n/a	99	n/a	1	n/a	n/a	n/a	n/a	205.355	n/a
173.586	0.497	neutral	Picture	44.58	n/a	2	5	20	n/a	100	33	1	n/a	n/a	n/a	n/a	205.886	AM21NES.jpg
174.083	0.514	Blank	Blank	44.066	n/a	2	5	20	n/a	100	n/a	1	n/a	n/a	n/a	n/a	206.383	n/a
174.614	10.014	ITI	Fixation+	34.036	n/a	2	n/a	n/a	n/a	n/a	n/a	n/a	n/a	n/a	n/a	n/a	206.913	n/a
184.644	0.497	angry	Picture	33.522	n/a	2	6	1	n/a	101	74	2	n/a	n/a	n/a	n/a	216.944	AM22HAS.jpg
185.141	0.514	Blank	Blank	33.008	n/a	2	6	1	n/a	101	n/a	2	n/a	n/a	n/a	n/a	217.441	n/a
185.672	0.497	angry	Picture	32.494	n/a	2	6	2	n/a	102	76	2	n/a	n/a	n/a	n/a	217.971	BM24HAS.jpg
186.169	0.514	Blank	Blank	31.98	n/a	2	6	2	n/a	102	n/a	2	n/a	n/a	n/a	n/a	218.469	n/a
186.7	0.497	angry	Picture	31.467	n/a	2	6	3	n/a	103	80	2	n/a	n/a	n/a	n/a	218.999	BM35HAS.jpg
187.197	0.514	Blank	Blank	30.953	n/a	2	6	3	n/a	103	n/a	2	n/a	n/a	n/a	n/a	219.497	n/a
187.728	0.497	angry	Picture	30.439	n/a	2	6	4	n/a	104	75	2	n/a	n/a	n/a	n/a	220.027	AM23HAS.jpg
188.225	0.514	Blank	Blank	29.925	n/a	2	6	4	n/a	104	n/a	2	n/a	n/a	n/a	n/a	220.524	n/a
188.756	0.497	angry	Picture	29.411	n/a	2	6	5	n/a	105	49	2	n/a	n/a	n/a	n/a	221.055	AF17HAS.jpg
189.253	0.514	Blank	Blank	28.897	n/a	2	6	5	n/a	105	n/a	2	n/a	n/a	n/a	n/a	221.552	n/a
189.784	0.497	angry	Picture	28.383	n/a	2	6	6	n/a	106	43	2	n/a	n/a	n/a	n/a	222.083	BF04HAS.jpg
190.281	0.514	Blank	Blank	27.869	n/a	2	6	6	n/a	106	n/a	2	n/a	n/a	n/a	n/a	222.58	n/a
190.811	0.497	angry	Picture	27.355	n/a	2	6	7	n/a	107	70	2	n/a	n/a	n/a	n/a	223.111	BM11HAS.jpg
191.309	0.514	Blank	Blank	26.841	n/a	2	6	7	n/a	107	n/a	2	n/a	n/a	n/a	n/a	223.608	n/a
191.839	0.497	angry	Picture	26.327	n/a	2	6	8	n/a	108	66	2	n/a	n/a	n/a	n/a	224.139	BM07HAS.jpg
192.337	0.514	Blank	Blank	25.813	n/a	2	6	8	n/a	108	n/a	2	n/a	n/a	n/a	n/a	224.636	n/a
192.867	0.497	angry	Picture	25.299	n/a	2	6	9	n/a	109	48	2	n/a	n/a	n/a	n/a	225.167	AF14HAS.jpg
193.365	0.514	Blank	Blank	24.785	n/a	2	6	9	n/a	109	n/a	2	n/a	n/a	n/a	n/a	225.664	n/a
193.895	0.497	angry	Picture	24.272	n/a	2	6	10	n/a	110	58	2	n/a	n/a	n/a	n/a	226.194	BF29HAS.jpg
194.392	0.514	Blank	Blank	23.757	n/a	2	6	10	n/a	110	n/a	2	n/a	n/a	n/a	n/a	226.692	n/a
194.923	0.497	angry	Picture	23.244	n/a	2	6	11	n/a	111	63	2	n/a	n/a	n/a	n/a	227.222	AM04HAS.jpg
195.42	0.514	Blank	Blank	22.73	n/a	2	6	11	n/a	111	n/a	2	n/a	n/a	n/a	n/a	227.72	n/a
195.951	0.497	angry	Picture	22.216	n/a	2	6	12	n/a	112	72	2	n/a	n/a	n/a	n/a	228.25	AM14HAS.jpg
196.448	0.514	Blank	Blank	21.702	n/a	2	6	12	n/a	112	n/a	2	n/a	n/a	n/a	n/a	228.748	n/a
196.979	0.497	angry	Picture	21.188	n/a	2	6	13	n/a	113	55	2	n/a	n/a	n/a	n/a	229.278	AF25HAS.jpg
197.476	0.514	Blank	Blank	20.674	n/a	2	6	13	n/a	113	n/a	2	n/a	n/a	n/a	n/a	229.775	n/a
198.007	0.497	angry	Picture	20.16	n/a	2	6	14	n/a	114	42	2	n/a	n/a	n/a	n/a	230.306	AF03HAS.jpg
198.504	0.514	Blank	Blank	19.646	n/a	2	6	14	n/a	114	n/a	2	n/a	n/a	n/a	n/a	230.803	n/a
199.034	0.497	angry	Picture	19.132	n/a	2	6	15	n/a	115	60	2	n/a	n/a	n/a	n/a	231.334	AF32HAS.jpg
199.532	0.514	Blank	Blank	18.618	n/a	2	6	15	n/a	115	n/a	2	n/a	n/a	n/a	n/a	231.831	n/a
200.062	0.497	angry	Picture	18.104	n/a	2	6	16	n/a	116	67	2	n/a	n/a	n/a	n/a	232.362	BM08HAS.jpg
200.56	0.514	Blank	Blank	17.59	n/a	2	6	16	n/a	116	n/a	2	n/a	n/a	n/a	n/a	232.859	n/a
201.09	0.497	angry	Picture	17.076	n/a	2	6	17	n/a	117	51	2	n/a	n/a	n/a	n/a	233.389	AF20HAS.jpg
201.588	0.514	Blank	Blank	16.562	n/a	2	6	17	n/a	117	n/a	2	n/a	n/a	n/a	n/a	233.887	n/a
202.118	0.497	angry	Picture	16.048	n/a	2	6	18	n/a	118	71	2	n/a	n/a	n/a	n/a	234.417	BM12HAS.jpg
202.615	0.514	Blank	Blank	15.534	n/a	2	6	18	n/a	118	n/a	2	n/a	n/a	n/a	n/a	234.915	n/a
203.146	0.497	angry	Picture	15.02	n/a	2	6	19	n/a	119	69	2	n/a	n/a	n/a	n/a	235.445	AM10HAS.jpg
203.643	0.514	Blank	Blank	14.507	n/a	2	6	19	n/a	119	n/a	2	n/a	n/a	n/a	n/a	235.943	n/a
204.174	0.497	angry	Picture	13.993	n/a	2	6	20	n/a	120	46	2	n/a	n/a	n/a	n/a	236.473	AF09HAS.jpg
204.671	0.514	Blank	Blank	13.479	n/a	2	6	20	n/a	120	n/a	2	n/a	n/a	n/a	n/a	236.97	n/a
205.202	10.014	ITI	Fixation+	3.449	n/a	2	n/a	n/a	n/a	n/a	n/a	n/a	n/a	n/a	n/a	n/a	237.501	n/a
218.664	n/a	ConfirmRating	Rate	n/a	3.448	2	n/a	n/a	0	n/a	n/a	n/a	2	Angry	40	49	250.963	n/a
222.602	n/a	ConfirmRating	Rate	n/a	3.912	2	n/a	n/a	1	n/a	n/a	n/a	3	Angry	0	49	254.901	n/a
222.626	15.004	Rest	Picture	n/a	n/a	n/a	n/a	n/a	n/a	n/a	n/a	n/a	0	n/a	0	0	254.925	n/a
237.646	10.014	ITI	Fixation+	96.859	n/a	3	n/a	n/a	n/a	n/a	n/a	n/a	n/a	n/a	n/a	n/a	269.946	n/a
247.676	0.497	happy	Picture	96.345	n/a	3	7	1	n/a	1	108	3	n/a	n/a	n/a	n/a	279.976	AM09ANS.jpg
248.174	0.514	Blank	Blank	95.831	n/a	3	7	1	n/a	1	n/a	3	n/a	n/a	n/a	n/a	280.473	n/a
248.704	0.497	happy	Picture	95.317	n/a	3	7	2	n/a	2	99	3	n/a	n/a	n/a	n/a	281.003	AF31ANS.jpg
249.202	0.514	Blank	Blank	94.803	n/a	3	7	2	n/a	2	n/a	3	n/a	n/a	n/a	n/a	281.501	n/a
249.732	0.497	happy	Picture	94.289	n/a	3	7	3	n/a	3	98	3	n/a	n/a	n/a	n/a	282.031	BF29ANS.jpg
250.229	0.514	Blank	Blank	93.775	n/a	3	7	3	n/a	3	n/a	3	n/a	n/a	n/a	n/a	282.529	n/a
250.76	0.497	happy	Picture	93.261	n/a	3	7	4	n/a	4	107	3	n/a	n/a	n/a	n/a	283.059	BM08ANS.jpg
251.257	0.514	Blank	Blank	92.747	n/a	3	7	4	n/a	4	n/a	3	n/a	n/a	n/a	n/a	283.557	n/a
251.788	0.497	happy	Picture	92.233	n/a	3	7	5	n/a	5	104	3	n/a	n/a	n/a	n/a	284.087	BM05ANS.jpg
252.285	0.514	Blank	Blank	91.719	n/a	3	7	5	n/a	5	n/a	3	n/a	n/a	n/a	n/a	284.584	n/a
252.816	0.497	happy	Picture	91.205	n/a	3	7	6	n/a	6	101	3	n/a	n/a	n/a	n/a	285.115	AM01ANS.jpg
253.313	0.514	Blank	Blank	90.691	n/a	3	7	6	n/a	6	n/a	3	n/a	n/a	n/a	n/a	285.612	n/a
253.844	0.497	happy	Picture	90.177	n/a	3	7	7	n/a	7	103	3	n/a	n/a	n/a	n/a	286.143	AM04ANS.jpg
254.341	0.514	Blank	Blank	89.664	n/a	3	7	7	n/a	7	n/a	3	n/a	n/a	n/a	n/a	286.64	n/a
254.871	0.497	happy	Picture	89.15	n/a	3	7	8	n/a	8	111	3	n/a	n/a	n/a	n/a	287.171	BM12ANS.jpg
255.369	0.514	Blank	Blank	88.636	n/a	3	7	8	n/a	8	n/a	3	n/a	n/a	n/a	n/a	287.668	n/a
255.899	0.497	happy	Picture	88.122	n/a	3	7	9	n/a	9	110	3	n/a	n/a	n/a	n/a	288.199	AM11ANS.jpg
256.397	0.514	Blank	Blank	87.608	n/a	3	7	9	n/a	9	n/a	3	n/a	n/a	n/a	n/a	288.696	n/a
256.927	0.497	happy	Picture	87.094	n/a	3	7	10	n/a	10	85	3	n/a	n/a	n/a	n/a	289.227	BF07ANS.jpg
257.425	0.514	Blank	Blank	86.58	n/a	3	7	10	n/a	10	n/a	3	n/a	n/a	n/a	n/a	289.724	n/a
257.955	0.497	happy	Picture	86.066	n/a	3	7	11	n/a	11	87	3	n/a	n/a	n/a	n/a	290.255	BF11ANS.jpg
258.452	0.514	Blank	Blank	85.552	n/a	3	7	11	n/a	11	n/a	3	n/a	n/a	n/a	n/a	290.752	n/a
258.983	0.497	happy	Picture	85.038	n/a	3	7	12	n/a	12	91	3	n/a	n/a	n/a	n/a	291.282	AF20ANS.jpg
259.48	0.514	Blank	Blank	84.524	n/a	3	7	12	n/a	12	n/a	3	n/a	n/a	n/a	n/a	291.78	n/a
260.011	0.497	happy	Picture	84.01	n/a	3	7	13	n/a	13	115	3	n/a	n/a	n/a	n/a	292.31	AM23ANS.jpg
260.508	0.514	Blank	Blank	83.496	n/a	3	7	13	n/a	13	n/a	3	n/a	n/a	n/a	n/a	292.808	n/a
261.039	0.497	happy	Picture	82.982	n/a	3	7	14	n/a	14	97	3	n/a	n/a	n/a	n/a	293.338	BF28ANS.jpg
261.536	0.514	Blank	Blank	82.468	n/a	3	7	14	n/a	14	n/a	3	n/a	n/a	n/a	n/a	293.836	n/a
262.067	0.497	happy	Picture	81.954	n/a	3	7	15	n/a	15	82	3	n/a	n/a	n/a	n/a	294.366	AF03ANS.jpg
262.564	0.514	Blank	Blank	81.44	n/a	3	7	15	n/a	15	n/a	3	n/a	n/a	n/a	n/a	294.863	n/a
263.094	0.497	happy	Picture	80.927	n/a	3	7	16	n/a	16	96	3	n/a	n/a	n/a	n/a	295.394	AF26ANS.jpg
263.592	0.514	Blank	Blank	80.413	n/a	3	7	16	n/a	16	n/a	3	n/a	n/a	n/a	n/a	295.891	n/a
264.122	0.497	happy	Picture	79.899	n/a	3	7	17	n/a	17	109	3	n/a	n/a	n/a	n/a	296.422	AM10ANS.jpg
264.62	0.514	Blank	Blank	79.385	n/a	3	7	17	n/a	17	n/a	3	n/a	n/a	n/a	n/a	296.919	n/a
265.15	0.497	happy	Picture	78.871	n/a	3	7	18	n/a	18	114	3	n/a	n/a	n/a	n/a	297.45	AM22ANS.jpg
265.648	0.514	Blank	Blank	78.357	n/a	3	7	18	n/a	18	n/a	3	n/a	n/a	n/a	n/a	297.947	n/a
266.178	0.497	happy	Picture	77.843	n/a	3	7	19	n/a	19	120	3	n/a	n/a	n/a	n/a	298.478	AM35ANS.jpg
266.675	0.514	Blank	Blank	77.329	n/a	3	7	19	n/a	19	n/a	3	n/a	n/a	n/a	n/a	298.975	n/a
267.206	0.497	happy	Picture	76.815	n/a	3	7	20	n/a	20	81	3	n/a	n/a	n/a	n/a	299.505	AF01ANS.jpg
267.703	0.514	Blank	Blank	76.301	n/a	3	7	20	n/a	20	n/a	3	n/a	n/a	n/a	n/a	300.003	n/a
268.234	10.014	ITI	Fixation+	66.271	n/a	3	n/a	n/a	n/a	n/a	n/a	n/a	n/a	n/a	n/a	n/a	300.533	n/a
278.264	0.497	neutral	Picture	65.757	n/a	3	8	1	n/a	21	28	1	n/a	n/a	n/a	n/a	310.563	AM09NES.jpg
278.761	0.514	Blank	Blank	65.243	n/a	3	8	1	n/a	21	n/a	1	n/a	n/a	n/a	n/a	311.061	n/a
279.292	0.497	neutral	Picture	64.729	n/a	3	8	2	n/a	22	27	1	n/a	n/a	n/a	n/a	311.591	BM08NES.jpg
279.789	0.514	Blank	Blank	64.215	n/a	3	8	2	n/a	22	n/a	1	n/a	n/a	n/a	n/a	312.089	n/a
280.32	0.497	neutral	Picture	63.701	n/a	3	8	3	n/a	23	16	1	n/a	n/a	n/a	n/a	312.619	AF26NES.jpg
280.817	0.514	Blank	Blank	63.187	n/a	3	8	3	n/a	23	n/a	1	n/a	n/a	n/a	n/a	313.116	n/a
281.348	0.497	neutral	Picture	62.673	n/a	3	8	4	n/a	24	3	1	n/a	n/a	n/a	n/a	313.647	BF04NES.jpg
281.845	0.514	Blank	Blank	62.159	n/a	3	8	4	n/a	24	n/a	1	n/a	n/a	n/a	n/a	314.144	n/a
282.375	0.497	neutral	Picture	61.646	n/a	3	8	5	n/a	25	32	1	n/a	n/a	n/a	n/a	314.675	AM14NES.jpg
282.873	0.514	Blank	Blank	61.132	n/a	3	8	5	n/a	25	n/a	1	n/a	n/a	n/a	n/a	315.172	n/a
283.403	0.497	neutral	Picture	60.618	n/a	3	8	6	n/a	26	37	1	n/a	n/a	n/a	n/a	315.703	BM25NES.jpg
283.901	0.514	Blank	Blank	60.104	n/a	3	8	6	n/a	26	n/a	1	n/a	n/a	n/a	n/a	316.2	n/a
284.431	0.497	neutral	Picture	59.59	n/a	3	8	7	n/a	27	15	1	n/a	n/a	n/a	n/a	316.731	AF25NES.jpg
284.929	0.514	Blank	Blank	59.076	n/a	3	8	7	n/a	27	n/a	1	n/a	n/a	n/a	n/a	317.228	n/a
285.459	0.497	neutral	Picture	58.562	n/a	3	8	8	n/a	28	23	1	n/a	n/a	n/a	n/a	317.759	AM04NES.jpg
285.957	0.514	Blank	Blank	58.048	n/a	3	8	8	n/a	28	n/a	1	n/a	n/a	n/a	n/a	318.256	n/a
286.487	0.497	neutral	Picture	57.534	n/a	3	8	9	n/a	29	34	1	n/a	n/a	n/a	n/a	318.786	AM22NES.jpg
286.984	0.514	Blank	Blank	57.02	n/a	3	8	9	n/a	29	n/a	1	n/a	n/a	n/a	n/a	319.284	n/a
287.515	0.497	neutral	Picture	56.506	n/a	3	8	10	n/a	30	24	1	n/a	n/a	n/a	n/a	319.814	BM05NES.jpg
288.012	0.514	Blank	Blank	55.992	n/a	3	8	10	n/a	30	n/a	1	n/a	n/a	n/a	n/a	320.312	n/a
288.543	0.497	neutral	Picture	55.478	n/a	3	8	11	n/a	31	12	1	n/a	n/a	n/a	n/a	320.842	AF21NES.jpg
289.04	0.514	Blank	Blank	54.964	n/a	3	8	11	n/a	31	n/a	1	n/a	n/a	n/a	n/a	321.339	n/a
289.571	0.497	neutral	Picture	54.45	n/a	3	8	12	n/a	32	6	1	n/a	n/a	n/a	n/a	321.87	AF09NES.jpg
290.068	0.514	Blank	Blank	53.937	n/a	3	8	12	n/a	32	n/a	1	n/a	n/a	n/a	n/a	322.367	n/a
290.599	0.497	neutral	Picture	53.422	n/a	3	8	13	n/a	33	17	1	n/a	n/a	n/a	n/a	322.898	BF28NES.jpg
291.096	0.514	Blank	Blank	52.909	n/a	3	8	13	n/a	33	n/a	1	n/a	n/a	n/a	n/a	323.395	n/a
291.626	0.497	neutral	Picture	52.395	n/a	3	8	14	n/a	34	2	1	n/a	n/a	n/a	n/a	323.926	AF03NES.jpg
292.124	0.514	Blank	Blank	51.881	n/a	3	8	14	n/a	34	n/a	1	n/a	n/a	n/a	n/a	324.423	n/a
292.654	0.497	neutral	Picture	51.367	n/a	3	8	15	n/a	35	9	1	n/a	n/a	n/a	n/a	324.954	AF17NES.jpg
293.152	0.514	Blank	Blank	50.853	n/a	3	8	15	n/a	35	n/a	1	n/a	n/a	n/a	n/a	325.451	n/a
293.682	0.497	neutral	Picture	50.339	n/a	3	8	16	n/a	36	25	1	n/a	n/a	n/a	n/a	325.981	BM06NES.jpg
294.18	0.514	Blank	Blank	49.825	n/a	3	8	16	n/a	36	n/a	1	n/a	n/a	n/a	n/a	326.479	n/a
294.71	0.497	neutral	Picture	49.311	n/a	3	8	17	n/a	37	8	1	n/a	n/a	n/a	n/a	327.009	AF14NES.jpg
295.207	0.514	Blank	Blank	48.797	n/a	3	8	17	n/a	37	n/a	1	n/a	n/a	n/a	n/a	327.507	n/a
295.738	0.497	neutral	Picture	48.283	n/a	3	8	18	n/a	38	19	1	n/a	n/a	n/a	n/a	328.037	AF31NES.jpg
296.235	0.514	Blank	Blank	47.769	n/a	3	8	18	n/a	38	n/a	1	n/a	n/a	n/a	n/a	328.535	n/a
296.766	0.497	neutral	Picture	47.255	n/a	3	8	19	n/a	39	14	1	n/a	n/a	n/a	n/a	329.065	AF23NES.jpg
297.263	0.514	Blank	Blank	46.741	n/a	3	8	19	n/a	39	n/a	1	n/a	n/a	n/a	n/a	329.563	n/a
297.794	0.497	neutral	Picture	46.227	n/a	3	8	20	n/a	40	4	1	n/a	n/a	n/a	n/a	330.093	AF05NES.jpg
298.291	0.514	Blank	Blank	45.713	n/a	3	8	20	n/a	40	n/a	1	n/a	n/a	n/a	n/a	330.59	n/a
298.822	10.014	ITI	Fixation+	35.683	n/a	3	n/a	n/a	n/a	n/a	n/a	n/a	n/a	n/a	n/a	n/a	331.121	n/a
308.852	0.497	happy	Picture	35.169	n/a	3	9	1	n/a	41	84	3	n/a	n/a	n/a	n/a	341.151	AF05ANS.jpg
309.349	0.514	Blank	Blank	34.655	n/a	3	9	1	n/a	41	n/a	3	n/a	n/a	n/a	n/a	341.648	n/a
309.88	0.497	happy	Picture	34.141	n/a	3	9	2	n/a	42	92	3	n/a	n/a	n/a	n/a	342.179	AF21ANS.jpg
310.377	0.514	Blank	Blank	33.628	n/a	3	9	2	n/a	42	n/a	3	n/a	n/a	n/a	n/a	342.676	n/a
310.907	0.497	happy	Picture	33.114	n/a	3	9	3	n/a	43	86	3	n/a	n/a	n/a	n/a	343.207	AF09ANS.jpg
311.405	0.514	Blank	Blank	32.6	n/a	3	9	3	n/a	43	n/a	3	n/a	n/a	n/a	n/a	343.704	n/a
311.935	0.497	happy	Picture	32.086	n/a	3	9	4	n/a	44	93	3	n/a	n/a	n/a	n/a	344.235	BF22ANS.jpg
312.433	0.514	Blank	Blank	31.572	n/a	3	9	4	n/a	44	n/a	3	n/a	n/a	n/a	n/a	344.732	n/a
312.963	0.497	happy	Picture	31.058	n/a	3	9	5	n/a	45	88	3	n/a	n/a	n/a	n/a	345.263	AF14ANS.jpg
313.461	0.514	Blank	Blank	30.544	n/a	3	9	5	n/a	45	n/a	3	n/a	n/a	n/a	n/a	345.76	n/a
313.991	0.497	happy	Picture	30.03	n/a	3	9	6	n/a	46	113	3	n/a	n/a	n/a	n/a	346.29	AM21ANS.jpg
314.488	0.514	Blank	Blank	29.516	n/a	3	9	6	n/a	46	n/a	3	n/a	n/a	n/a	n/a	346.788	n/a
315.019	0.497	happy	Picture	29.002	n/a	3	9	7	n/a	47	95	3	n/a	n/a	n/a	n/a	347.318	AF25ANS.jpg
315.516	0.514	Blank	Blank	28.488	n/a	3	9	7	n/a	47	n/a	3	n/a	n/a	n/a	n/a	347.816	n/a
316.047	0.497	happy	Picture	27.974	n/a	3	9	8	n/a	48	102	3	n/a	n/a	n/a	n/a	348.346	BM03ANS.jpg
316.544	0.514	Blank	Blank	27.46	n/a	3	9	8	n/a	48	n/a	3	n/a	n/a	n/a	n/a	348.844	n/a
317.075	0.497	happy	Picture	26.946	n/a	3	9	9	n/a	49	112	3	n/a	n/a	n/a	n/a	349.374	AM14ANS.jpg
317.572	0.514	Blank	Blank	26.432	n/a	3	9	9	n/a	49	n/a	3	n/a	n/a	n/a	n/a	349.871	n/a
318.103	0.497	happy	Picture	25.918	n/a	3	9	10	n/a	50	83	3	n/a	n/a	n/a	n/a	350.402	BF04ANS.jpg
318.6	0.514	Blank	Blank	25.405	n/a	3	9	10	n/a	50	n/a	3	n/a	n/a	n/a	n/a	350.899	n/a
319.13	0.497	happy	Picture	24.891	n/a	3	9	11	n/a	51	90	3	n/a	n/a	n/a	n/a	351.43	AF18ANS.jpg
319.628	0.514	Blank	Blank	24.377	n/a	3	9	11	n/a	51	n/a	3	n/a	n/a	n/a	n/a	351.927	n/a
320.158	0.497	happy	Picture	23.863	n/a	3	9	12	n/a	52	117	3	n/a	n/a	n/a	n/a	352.458	BM25ANS.jpg
320.656	0.514	Blank	Blank	23.349	n/a	3	9	12	n/a	52	n/a	3	n/a	n/a	n/a	n/a	352.955	n/a
321.186	0.497	happy	Picture	22.835	n/a	3	9	13	n/a	53	94	3	n/a	n/a	n/a	n/a	353.486	AF23ANS.jpg
321.684	0.514	Blank	Blank	22.321	n/a	3	9	13	n/a	53	n/a	3	n/a	n/a	n/a	n/a	353.983	n/a
322.214	0.497	happy	Picture	21.807	n/a	3	9	14	n/a	54	106	3	n/a	n/a	n/a	n/a	354.514	AM07ANS.jpg
322.711	0.514	Blank	Blank	21.293	n/a	3	9	14	n/a	54	n/a	3	n/a	n/a	n/a	n/a	355.011	n/a
323.242	0.497	happy	Picture	20.779	n/a	3	9	15	n/a	55	105	3	n/a	n/a	n/a	n/a	355.541	BM06ANS.jpg
323.739	0.514	Blank	Blank	20.265	n/a	3	9	15	n/a	55	n/a	3	n/a	n/a	n/a	n/a	356.039	n/a
324.27	0.497	happy	Picture	19.751	n/a	3	9	16	n/a	56	116	3	n/a	n/a	n/a	n/a	356.569	BM24ANS.jpg
324.767	0.514	Blank	Blank	19.237	n/a	3	9	16	n/a	56	n/a	3	n/a	n/a	n/a	n/a	357.067	n/a
325.298	0.497	happy	Picture	18.723	n/a	3	9	17	n/a	57	89	3	n/a	n/a	n/a	n/a	357.597	AF17ANS.jpg
325.795	0.514	Blank	Blank	18.209	n/a	3	9	17	n/a	57	n/a	3	n/a	n/a	n/a	n/a	358.094	n/a
326.326	0.497	happy	Picture	17.695	n/a	3	9	18	n/a	58	118	3	n/a	n/a	n/a	n/a	358.625	BM26ANS.jpg
326.823	0.514	Blank	Blank	17.181	n/a	3	9	18	n/a	58	n/a	3	n/a	n/a	n/a	n/a	359.122	n/a
327.353	0.497	happy	Picture	16.668	n/a	3	9	19	n/a	59	100	3	n/a	n/a	n/a	n/a	359.653	AF32ANS.jpg
327.851	0.514	Blank	Blank	16.154	n/a	3	9	19	n/a	59	n/a	3	n/a	n/a	n/a	n/a	360.15	n/a
328.381	0.497	happy	Picture	15.64	n/a	3	9	20	n/a	60	119	3	n/a	n/a	n/a	n/a	360.681	BM28ANS.jpg
328.879	0.514	Blank	Blank	15.126	n/a	3	9	20	n/a	60	n/a	3	n/a	n/a	n/a	n/a	361.178	n/a
329.409	10.014	ITI	Fixation+	5.096	n/a	3	n/a	n/a	n/a	n/a	n/a	n/a	n/a	n/a	n/a	n/a	361.709	n/a
344.518	n/a	ConfirmRating	Rate	n/a	5.09	3	n/a	n/a	0	n/a	n/a	n/a	2	Happy	46	49	376.818	n/a
347.496	n/a	ConfirmRating	Rate	n/a	2.951	3	n/a	n/a	1	n/a	n/a	n/a	3	Happy	0	49	379.796	n/a
347.513	10.014	ITI	Fixation+	99.17	n/a	4	n/a	n/a	n/a	n/a	n/a	n/a	n/a	n/a	n/a	n/a	379.813	n/a
357.543	0.497	angry	Picture	98.656	n/a	4	10	1	n/a	61	79	2	n/a	n/a	n/a	n/a	389.843	BM28HAS.jpg
358.041	0.514	Blank	Blank	98.142	n/a	4	10	1	n/a	61	n/a	2	n/a	n/a	n/a	n/a	390.34	n/a
358.571	0.497	angry	Picture	97.628	n/a	4	10	2	n/a	62	61	2	n/a	n/a	n/a	n/a	390.871	AM01HAS.jpg
359.069	0.514	Blank	Blank	97.114	n/a	4	10	2	n/a	62	n/a	2	n/a	n/a	n/a	n/a	391.368	n/a
359.599	0.497	angry	Picture	96.6	n/a	4	10	3	n/a	63	57	2	n/a	n/a	n/a	n/a	391.898	BF28HAS.jpg
360.096	0.514	Blank	Blank	96.086	n/a	4	10	3	n/a	63	n/a	2	n/a	n/a	n/a	n/a	392.396	n/a
360.627	0.497	angry	Picture	95.572	n/a	4	10	4	n/a	64	77	2	n/a	n/a	n/a	n/a	392.926	BM25HAS.jpg
361.124	0.514	Blank	Blank	95.058	n/a	4	10	4	n/a	64	n/a	2	n/a	n/a	n/a	n/a	393.424	n/a
361.655	0.497	angry	Picture	94.544	n/a	4	10	5	n/a	65	47	2	n/a	n/a	n/a	n/a	393.954	BF11HAS.jpg
362.152	0.514	Blank	Blank	94.03	n/a	4	10	5	n/a	65	n/a	2	n/a	n/a	n/a	n/a	394.452	n/a
362.683	0.497	angry	Picture	93.516	n/a	4	10	6	n/a	66	50	2	n/a	n/a	n/a	n/a	394.982	AF18HAS.jpg
363.18	0.514	Blank	Blank	93.002	n/a	4	10	6	n/a	66	n/a	2	n/a	n/a	n/a	n/a	395.479	n/a
363.711	0.497	angry	Picture	92.488	n/a	4	10	7	n/a	67	78	2	n/a	n/a	n/a	n/a	396.01	BM26HAS.jpg
364.208	0.514	Blank	Blank	91.974	n/a	4	10	7	n/a	67	n/a	2	n/a	n/a	n/a	n/a	396.507	n/a
364.738	0.497	angry	Picture	91.461	n/a	4	10	8	n/a	68	45	2	n/a	n/a	n/a	n/a	397.038	BF07HAS.jpg
365.236	0.514	Blank	Blank	90.947	n/a	4	10	8	n/a	68	n/a	2	n/a	n/a	n/a	n/a	397.535	n/a
365.766	0.497	angry	Picture	90.433	n/a	4	10	9	n/a	69	56	2	n/a	n/a	n/a	n/a	398.066	AF26HAS.jpg
366.264	0.514	Blank	Blank	89.919	n/a	4	10	9	n/a	69	n/a	2	n/a	n/a	n/a	n/a	398.563	n/a
366.794	0.497	angry	Picture	89.405	n/a	4	10	10	n/a	70	65	2	n/a	n/a	n/a	n/a	399.094	BM06HAS.jpg
367.292	0.514	Blank	Blank	88.891	n/a	4	10	10	n/a	70	n/a	2	n/a	n/a	n/a	n/a	399.591	n/a
367.822	0.497	angry	Picture	88.377	n/a	4	10	11	n/a	71	73	2	n/a	n/a	n/a	n/a	400.122	AM21HAS.jpg
368.319	0.514	Blank	Blank	87.863	n/a	4	10	11	n/a	71	n/a	2	n/a	n/a	n/a	n/a	400.619	n/a
368.85	0.497	angry	Picture	87.349	n/a	4	10	12	n/a	72	41	2	n/a	n/a	n/a	n/a	401.149	AF01HAS.jpg
369.347	0.514	Blank	Blank	86.835	n/a	4	10	12	n/a	72	n/a	2	n/a	n/a	n/a	n/a	401.647	n/a
369.878	0.497	angry	Picture	86.321	n/a	4	10	13	n/a	73	59	2	n/a	n/a	n/a	n/a	402.177	AF31HAS.jpg
370.375	0.514	Blank	Blank	85.807	n/a	4	10	13	n/a	73	n/a	2	n/a	n/a	n/a	n/a	402.675	n/a
370.906	0.497	angry	Picture	85.293	n/a	4	10	14	n/a	74	64	2	n/a	n/a	n/a	n/a	403.205	BM05HAS.jpg
371.403	0.514	Blank	Blank	84.779	n/a	4	10	14	n/a	74	n/a	2	n/a	n/a	n/a	n/a	403.702	n/a
371.934	0.497	angry	Picture	84.265	n/a	4	10	15	n/a	75	68	2	n/a	n/a	n/a	n/a	404.233	AM09HAS.jpg
372.431	0.514	Blank	Blank	83.752	n/a	4	10	15	n/a	75	n/a	2	n/a	n/a	n/a	n/a	404.73	n/a
372.962	0.497	angry	Picture	83.238	n/a	4	10	16	n/a	76	54	2	n/a	n/a	n/a	n/a	405.261	AF23HAS.jpg
373.459	0.514	Blank	Blank	82.724	n/a	4	10	16	n/a	76	n/a	2	n/a	n/a	n/a	n/a	405.758	n/a
373.989	0.497	angry	Picture	82.21	n/a	4	10	17	n/a	77	53	2	n/a	n/a	n/a	n/a	406.289	BF22HAS.jpg
374.487	0.514	Blank	Blank	81.696	n/a	4	10	17	n/a	77	n/a	2	n/a	n/a	n/a	n/a	406.786	n/a
375.017	0.497	angry	Picture	81.182	n/a	4	10	18	n/a	78	44	2	n/a	n/a	n/a	n/a	407.317	AF05HAS.jpg
375.515	0.514	Blank	Blank	80.668	n/a	4	10	18	n/a	78	n/a	2	n/a	n/a	n/a	n/a	407.814	n/a
376.045	0.497	angry	Picture	80.154	n/a	4	10	19	n/a	79	52	2	n/a	n/a	n/a	n/a	408.344	AF21HAS.jpg
376.543	0.514	Blank	Blank	79.64	n/a	4	10	19	n/a	79	n/a	2	n/a	n/a	n/a	n/a	408.842	n/a
377.073	0.497	angry	Picture	79.126	n/a	4	10	20	n/a	80	62	2	n/a	n/a	n/a	n/a	409.372	BM03HAS.jpg
377.57	0.514	Blank	Blank	78.612	n/a	4	10	20	n/a	80	n/a	2	n/a	n/a	n/a	n/a	409.87	n/a
378.101	10.014	ITI	Fixation+	68.582	n/a	4	n/a	n/a	n/a	n/a	n/a	n/a	n/a	n/a	n/a	n/a	410.4	n/a
388.131	0.497	neutral	Picture	68.068	n/a	4	11	1	n/a	81	23	1	n/a	n/a	n/a	n/a	420.43	AM04NES.jpg
388.628	0.514	Blank	Blank	67.554	n/a	4	11	1	n/a	81	n/a	1	n/a	n/a	n/a	n/a	420.928	n/a
389.159	0.497	neutral	Picture	67.04	n/a	4	11	2	n/a	82	29	1	n/a	n/a	n/a	n/a	421.458	AM10NES.jpg
389.656	0.514	Blank	Blank	66.526	n/a	4	11	2	n/a	82	n/a	1	n/a	n/a	n/a	n/a	421.956	n/a
390.187	0.497	neutral	Picture	66.012	n/a	4	11	3	n/a	83	24	1	n/a	n/a	n/a	n/a	422.486	BM05NES.jpg
390.684	0.514	Blank	Blank	65.498	n/a	4	11	3	n/a	83	n/a	1	n/a	n/a	n/a	n/a	422.983	n/a
391.215	0.497	neutral	Picture	64.984	n/a	4	11	4	n/a	84	12	1	n/a	n/a	n/a	n/a	423.514	AF21NES.jpg
391.712	0.514	Blank	Blank	64.471	n/a	4	11	4	n/a	84	n/a	1	n/a	n/a	n/a	n/a	424.011	n/a
392.243	0.497	neutral	Picture	63.956	n/a	4	11	5	n/a	85	13	1	n/a	n/a	n/a	n/a	424.542	BF22NES.jpg
392.74	0.514	Blank	Blank	63.443	n/a	4	11	5	n/a	85	n/a	1	n/a	n/a	n/a	n/a	425.039	n/a
393.27	0.497	neutral	Picture	62.929	n/a	4	11	6	n/a	86	17	1	n/a	n/a	n/a	n/a	425.57	BF28NES.jpg
393.768	0.514	Blank	Blank	62.415	n/a	4	11	6	n/a	86	n/a	1	n/a	n/a	n/a	n/a	426.067	n/a
394.298	0.497	neutral	Picture	61.901	n/a	4	11	7	n/a	87	4	1	n/a	n/a	n/a	n/a	426.598	AF05NES.jpg
394.796	0.514	Blank	Blank	61.387	n/a	4	11	7	n/a	87	n/a	1	n/a	n/a	n/a	n/a	427.095	n/a
395.326	0.497	neutral	Picture	60.873	n/a	4	11	8	n/a	88	11	1	n/a	n/a	n/a	n/a	427.625	AF20NES.jpg
395.824	0.514	Blank	Blank	60.359	n/a	4	11	8	n/a	88	n/a	1	n/a	n/a	n/a	n/a	428.123	n/a
396.354	0.497	neutral	Picture	59.845	n/a	4	11	9	n/a	89	22	1	n/a	n/a	n/a	n/a	428.653	BM03NES.jpg
396.851	0.514	Blank	Blank	59.331	n/a	4	11	9	n/a	89	n/a	1	n/a	n/a	n/a	n/a	429.151	n/a
397.382	0.497	neutral	Picture	58.817	n/a	4	11	10	n/a	90	15	1	n/a	n/a	n/a	n/a	429.681	AF25NES.jpg
397.879	0.514	Blank	Blank	58.303	n/a	4	11	10	n/a	90	n/a	1	n/a	n/a	n/a	n/a	430.179	n/a
398.41	0.497	neutral	Picture	57.789	n/a	4	11	11	n/a	91	19	1	n/a	n/a	n/a	n/a	430.709	AF31NES.jpg
398.907	0.514	Blank	Blank	57.275	n/a	4	11	11	n/a	91	n/a	1	n/a	n/a	n/a	n/a	431.207	n/a
399.438	0.497	neutral	Picture	56.761	n/a	4	11	12	n/a	92	9	1	n/a	n/a	n/a	n/a	431.737	AF17NES.jpg
399.935	0.514	Blank	Blank	56.248	n/a	4	11	12	n/a	92	n/a	1	n/a	n/a	n/a	n/a	432.234	n/a
400.466	0.497	neutral	Picture	55.733	n/a	4	11	13	n/a	93	14	1	n/a	n/a	n/a	n/a	432.765	AF23NES.jpg
400.963	0.514	Blank	Blank	55.22	n/a	4	11	13	n/a	93	n/a	1	n/a	n/a	n/a	n/a	433.262	n/a
401.493	0.497	neutral	Picture	54.706	n/a	4	11	14	n/a	94	36	1	n/a	n/a	n/a	n/a	433.793	BM24NES.jpg
401.991	0.514	Blank	Blank	54.192	n/a	4	11	14	n/a	94	n/a	1	n/a	n/a	n/a	n/a	434.29	n/a
402.521	0.497	neutral	Picture	53.678	n/a	4	11	15	n/a	95	34	1	n/a	n/a	n/a	n/a	434.821	AM22NES.jpg
403.019	0.514	Blank	Blank	53.164	n/a	4	11	15	n/a	95	n/a	1	n/a	n/a	n/a	n/a	435.318	n/a
403.549	0.497	neutral	Picture	52.65	n/a	4	11	16	n/a	96	10	1	n/a	n/a	n/a	n/a	435.849	AF18NES.jpg
404.046	0.514	Blank	Blank	52.136	n/a	4	11	16	n/a	96	n/a	1	n/a	n/a	n/a	n/a	436.346	n/a
404.577	0.497	neutral	Picture	51.622	n/a	4	11	17	n/a	97	5	1	n/a	n/a	n/a	n/a	436.876	BF07NES.jpg
405.074	0.514	Blank	Blank	51.108	n/a	4	11	17	n/a	97	n/a	1	n/a	n/a	n/a	n/a	437.374	n/a
405.605	0.497	neutral	Picture	50.594	n/a	4	11	18	n/a	98	25	1	n/a	n/a	n/a	n/a	437.904	BM06NES.jpg
406.102	0.514	Blank	Blank	50.08	n/a	4	11	18	n/a	98	n/a	1	n/a	n/a	n/a	n/a	438.402	n/a
406.633	0.497	neutral	Picture	49.566	n/a	4	11	19	n/a	99	39	1	n/a	n/a	n/a	n/a	438.932	AM28NES.jpg
407.13	0.514	Blank	Blank	49.052	n/a	4	11	19	n/a	99	n/a	1	n/a	n/a	n/a	n/a	439.43	n/a
407.661	0.497	neutral	Picture	48.538	n/a	4	11	20	n/a	100	33	1	n/a	n/a	n/a	n/a	439.96	AM21NES.jpg
408.158	0.514	Blank	Blank	48.024	n/a	4	11	20	n/a	100	n/a	1	n/a	n/a	n/a	n/a	440.457	n/a
408.689	10.014	ITI	Fixation+	37.994	n/a	4	n/a	n/a	n/a	n/a	n/a	n/a	n/a	n/a	n/a	n/a	440.988	n/a
418.719	0.497	angry	Picture	37.48	n/a	4	12	1	n/a	101	74	2	n/a	n/a	n/a	n/a	451.018	AM22HAS.jpg
419.216	0.514	Blank	Blank	36.966	n/a	4	12	1	n/a	101	n/a	2	n/a	n/a	n/a	n/a	451.515	n/a
419.747	0.497	angry	Picture	36.452	n/a	4	12	2	n/a	102	76	2	n/a	n/a	n/a	n/a	452.046	BM24HAS.jpg
420.244	0.514	Blank	Blank	35.938	n/a	4	12	2	n/a	102	n/a	2	n/a	n/a	n/a	n/a	452.543	n/a
420.774	0.497	angry	Picture	35.425	n/a	4	12	3	n/a	103	80	2	n/a	n/a	n/a	n/a	453.074	BM35HAS.jpg
421.272	0.514	Blank	Blank	34.911	n/a	4	12	3	n/a	103	n/a	2	n/a	n/a	n/a	n/a	453.571	n/a
421.802	0.497	angry	Picture	34.397	n/a	4	12	4	n/a	104	75	2	n/a	n/a	n/a	n/a	454.102	AM23HAS.jpg
422.3	0.514	Blank	Blank	33.883	n/a	4	12	4	n/a	104	n/a	2	n/a	n/a	n/a	n/a	454.599	n/a
422.83	0.497	angry	Picture	33.369	n/a	4	12	5	n/a	105	49	2	n/a	n/a	n/a	n/a	455.13	AF17HAS.jpg
423.327	0.514	Blank	Blank	32.855	n/a	4	12	5	n/a	105	n/a	2	n/a	n/a	n/a	n/a	455.627	n/a
423.858	0.497	angry	Picture	32.341	n/a	4	12	6	n/a	106	43	2	n/a	n/a	n/a	n/a	456.158	BF04HAS.jpg
424.355	0.514	Blank	Blank	31.827	n/a	4	12	6	n/a	106	n/a	2	n/a	n/a	n/a	n/a	456.655	n/a
424.886	0.497	angry	Picture	31.313	n/a	4	12	7	n/a	107	70	2	n/a	n/a	n/a	n/a	457.185	BM11HAS.jpg
425.383	0.514	Blank	Blank	30.799	n/a	4	12	7	n/a	107	n/a	2	n/a	n/a	n/a	n/a	457.683	n/a
425.914	0.497	angry	Picture	30.285	n/a	4	12	8	n/a	108	66	2	n/a	n/a	n/a	n/a	458.213	BM07HAS.jpg
426.411	0.514	Blank	Blank	29.771	n/a	4	12	8	n/a	108	n/a	2	n/a	n/a	n/a	n/a	458.711	n/a
426.942	0.497	angry	Picture	29.257	n/a	4	12	9	n/a	109	48	2	n/a	n/a	n/a	n/a	459.241	AF14HAS.jpg
427.439	0.514	Blank	Blank	28.743	n/a	4	12	9	n/a	109	n/a	2	n/a	n/a	n/a	n/a	459.738	n/a
427.97	0.497	angry	Picture	28.229	n/a	4	12	10	n/a	110	58	2	n/a	n/a	n/a	n/a	460.269	BF29HAS.jpg
428.467	0.514	Blank	Blank	27.715	n/a	4	12	10	n/a	110	n/a	2	n/a	n/a	n/a	n/a	460.766	n/a
428.998	0.497	angry	Picture	27.202	n/a	4	12	11	n/a	111	63	2	n/a	n/a	n/a	n/a	461.297	AM04HAS.jpg
429.495	0.514	Blank	Blank	26.688	n/a	4	12	11	n/a	111	n/a	2	n/a	n/a	n/a	n/a	461.794	n/a
430.025	0.497	angry	Picture	26.174	n/a	4	12	12	n/a	112	72	2	n/a	n/a	n/a	n/a	462.325	AM14HAS.jpg
430.523	0.514	Blank	Blank	25.66	n/a	4	12	12	n/a	112	n/a	2	n/a	n/a	n/a	n/a	462.822	n/a
431.053	0.497	angry	Picture	25.146	n/a	4	12	13	n/a	113	55	2	n/a	n/a	n/a	n/a	463.353	AF25HAS.jpg
431.551	0.514	Blank	Blank	24.632	n/a	4	12	13	n/a	113	n/a	2	n/a	n/a	n/a	n/a	463.85	n/a
432.081	0.497	angry	Picture	24.118	n/a	4	12	14	n/a	114	42	2	n/a	n/a	n/a	n/a	464.38	AF03HAS.jpg
432.579	0.514	Blank	Blank	23.604	n/a	4	12	14	n/a	114	n/a	2	n/a	n/a	n/a	n/a	464.878	n/a
433.109	0.497	angry	Picture	23.09	n/a	4	12	15	n/a	115	60	2	n/a	n/a	n/a	n/a	465.408	AF32HAS.jpg
433.606	0.514	Blank	Blank	22.576	n/a	4	12	15	n/a	115	n/a	2	n/a	n/a	n/a	n/a	465.906	n/a
434.137	0.497	angry	Picture	22.062	n/a	4	12	16	n/a	116	67	2	n/a	n/a	n/a	n/a	466.436	BM08HAS.jpg
434.634	0.514	Blank	Blank	21.548	n/a	4	12	16	n/a	116	n/a	2	n/a	n/a	n/a	n/a	466.934	n/a
435.165	0.497	angry	Picture	21.034	n/a	4	12	17	n/a	117	51	2	n/a	n/a	n/a	n/a	467.464	AF20HAS.jpg
435.662	0.514	Blank	Blank	20.52	n/a	4	12	17	n/a	117	n/a	2	n/a	n/a	n/a	n/a	467.962	n/a
436.193	0.497	angry	Picture	20.006	n/a	4	12	18	n/a	118	71	2	n/a	n/a	n/a	n/a	468.492	BM12HAS.jpg
436.69	0.514	Blank	Blank	19.493	n/a	4	12	18	n/a	118	n/a	2	n/a	n/a	n/a	n/a	468.989	n/a
437.221	0.497	angry	Picture	18.978	n/a	4	12	19	n/a	119	69	2	n/a	n/a	n/a	n/a	469.52	AM10HAS.jpg
437.718	0.514	Blank	Blank	18.465	n/a	4	12	19	n/a	119	n/a	2	n/a	n/a	n/a	n/a	470.017	n/a
438.248	0.497	angry	Picture	17.951	n/a	4	12	20	n/a	120	46	2	n/a	n/a	n/a	n/a	470.548	AF09HAS.jpg
438.746	0.514	Blank	Blank	17.437	n/a	4	12	20	n/a	120	n/a	2	n/a	n/a	n/a	n/a	471.045	n/a
439.276	10.014	ITI	Fixation+	7.407	n/a	4	n/a	n/a	n/a	n/a	n/a	n/a	n/a	n/a	n/a	n/a	471.576	n/a
456.696	n/a	ConfirmRating	Rate	n/a	7.394	4	n/a	n/a	0	n/a	n/a	n/a	2	Angry	29	49	488.996	n/a
461.788	n/a	ConfirmRating	Rate	n/a	5.073	4	n/a	n/a	1	n/a	n/a	n/a	3	Angry	3	48	494.088	n/a
