onset	duration	trial_type	trial_number	event_type	cue_to_participant	stimulus_type	time_until_response	rated_success_of_regulation	onset_uncorrected
0.005	10.014	Instruction	-1	Picture	Instruction	n/a	n/a	n/a	29.654
10.036	5.007	ITI	0	Picture	Fixation+	1	13.543	n/a	39.684
15.059	2.006	Cue	0	Picture	Maintain	1	11.52	n/a	44.708
17.065	4.99	Pic	0	Picture	IAPS_01	1	6.53	n/a	46.714
22.055	2.006	Blank	0	Picture	BLANK	1	4.524	n/a	51.704
28.585	n/a	ConfirmRating	0	Response	n/a	1	n/a	3	58.234
28.604	6.002	ITI	1	Picture	Fixation+	2	14.396	n/a	58.253
34.622	2.006	Cue	1	Picture	Enhance	2	12.373	n/a	64.271
36.628	4.99	Pic	1	Picture	IAPS_26	2	7.383	n/a	66.277
41.618	2.006	Blank	1	Picture	BLANK	2	5.377	n/a	71.267
49.001	n/a	ConfirmRating	1	Response	n/a	2	n/a	2	78.65
49.029	4.012	ITI	2	Picture	Fixation+	3	12.766	n/a	78.678
53.058	2.006	Cue	2	Picture	Suppress	3	10.743	n/a	82.707
55.064	4.99	Pic	2	Picture	IAPS_36	3	5.753	n/a	84.713
60.054	2.006	Blank	2	Picture	BLANK	3	3.747	n/a	89.703
65.807	0.017	ConfirmRating	2	Response	n/a	3	-0.017	0	95.456
65.823	5.007	ITI	3	Picture	Fixation+	4	10.832	n/a	95.472
70.847	2.006	Cue	3	Picture	Maintain	4	8.81	n/a	100.496
72.853	4.99	Pic	3	Picture	IAPS_46	4	3.819	n/a	102.502
77.843	2.006	Blank	3	Picture	BLANK	4	1.814	n/a	107.492
81.663	n/a	ConfirmRating	3	Response	n/a	4	n/a	3	111.312
81.689	5.007	ITI	4	Picture	Fixation+	4	11.408	n/a	111.338
86.713	2.006	Cue	4	Picture	Maintain	4	9.386	n/a	116.362
88.719	4.99	Pic	4	Picture	IAPS_49	4	4.395	n/a	118.368
93.709	2.006	Blank	4	Picture	BLANK	4	2.389	n/a	123.358
98.105	n/a	ConfirmRating	4	Response	n/a	4	n/a	5	127.753
98.136	6.002	ITI	5	Picture	Fixation+	2	11.119	n/a	127.785
104.154	2.006	Cue	5	Picture	Enhance	2	9.097	n/a	133.803
106.16	4.99	Pic	5	Picture	IAPS_27	2	4.106	n/a	135.809
111.15	2.006	Blank	5	Picture	BLANK	2	2.1	n/a	140.799
115.256	n/a	ConfirmRating	5	Response	n/a	2	n/a	2	144.905
115.278	4.012	ITI	6	Picture	Fixation+	1	9.787	n/a	144.927
119.307	2.006	Cue	6	Picture	Maintain	1	7.764	n/a	148.956
121.313	4.99	Pic	6	Picture	IAPS_02	1	2.774	n/a	150.962
126.303	2.006	Blank	6	Picture	BLANK	1	0.768	n/a	155.952
129.077	n/a	ConfirmRating	6	Response	n/a	1	n/a	0	158.726
129.105	6.002	ITI	7	Picture	Fixation+	3	14.679	n/a	158.754
135.123	2.006	Cue	7	Picture	Suppress	3	12.657	n/a	164.772
137.129	4.99	Pic	7	Picture	IAPS_37	3	7.667	n/a	166.778
142.12	2.006	Blank	7	Picture	BLANK	3	5.66	n/a	171.768
149.786	n/a	ConfirmRating	7	Response	n/a	3	n/a	6	179.435
149.812	5.007	ITI	8	Picture	Fixation+	4	11.246	n/a	179.461
154.835	2.006	Cue	8	Picture	Maintain	4	9.223	n/a	184.484
156.841	4.99	Pic	8	Picture	IAPS_52	4	4.233	n/a	186.49
161.832	2.006	Blank	8	Picture	BLANK	4	2.227	n/a	191.481
166.065	n/a	ConfirmRating	8	Response	n/a	4	n/a	7	195.714
166.093	6.002	ITI	9	Picture	Fixation+	1	11.664	n/a	195.741
172.111	2.006	Cue	9	Picture	Maintain	1	9.641	n/a	201.76
174.117	4.99	Pic	9	Picture	IAPS_03	1	4.651	n/a	203.766
179.107	2.006	Blank	9	Picture	BLANK	1	2.645	n/a	208.756
183.758	n/a	ConfirmRating	9	Response	n/a	1	n/a	7	213.407
183.782	5.007	ITI	10	Picture	Fixation+	2	12.578	n/a	213.431
188.806	2.006	Cue	10	Picture	Enhance	2	10.555	n/a	218.454
190.812	4.99	Pic	10	Picture	IAPS_28	2	5.565	n/a	220.46
195.802	2.006	Blank	10	Picture	BLANK	2	3.559	n/a	225.451
201.367	n/a	ConfirmRating	10	Response	n/a	2	n/a	3	231.015
201.389	4.012	ITI	11	Picture	Fixation+	3	12.479	n/a	231.038
205.418	2.006	Cue	11	Picture	Suppress	3	10.457	n/a	235.066
207.424	4.99	Pic	11	Picture	IAPS_38	3	5.466	n/a	237.073
212.414	2.006	Blank	11	Picture	BLANK	3	3.46	n/a	242.063
217.88	n/a	ConfirmRating	11	Response	n/a	3	n/a	1	247.529
217.901	6.002	ITI	12	Picture	Fixation+	2	10.87	n/a	247.55
223.92	2.006	Cue	12	Picture	Enhance	2	8.847	n/a	253.569
225.926	4.99	Pic	12	Picture	IAPS_29	2	3.857	n/a	255.575
230.916	2.006	Blank	12	Picture	BLANK	2	1.851	n/a	260.565
234.773	n/a	ConfirmRating	12	Response	n/a	2	n/a	1	264.422
234.795	5.007	ITI	13	Picture	Fixation+	1	11.763	n/a	264.444
239.819	2.006	Cue	13	Picture	Maintain	1	9.74	n/a	269.468
241.825	4.99	Pic	13	Picture	IAPS_04	1	4.75	n/a	271.474
246.815	2.006	Blank	13	Picture	BLANK	1	2.744	n/a	276.464
251.565	n/a	ConfirmRating	13	Response	n/a	1	n/a	1	281.214
251.59	4.012	ITI	14	Picture	Fixation+	4	11.362	n/a	281.239
255.618	2.006	Cue	14	Picture	Maintain	4	9.339	n/a	285.267
257.624	4.99	Pic	14	Picture	IAPS_55	4	4.349	n/a	287.273
262.615	2.006	Blank	14	Picture	BLANK	4	2.343	n/a	292.264
266.964	n/a	ConfirmRating	14	Response	n/a	4	n/a	7	296.613
266.991	5.007	ITI	15	Picture	Fixation+	3	14.571	n/a	296.64
272.015	2.006	Cue	15	Picture	Suppress	3	12.549	n/a	301.664
274.021	4.99	Pic	15	Picture	IAPS_39	3	7.558	n/a	303.67
279.011	2.006	Blank	15	Picture	BLANK	3	5.552	n/a	308.66
286.57	n/a	ConfirmRating	15	Response	n/a	3	n/a	6	316.219
286.588	6.002	ITI	16	Picture	Fixation+	2	11.268	n/a	316.237
292.606	2.006	Cue	16	Picture	Enhance	2	9.246	n/a	322.255
294.612	4.99	Pic	16	Picture	IAPS_30	2	4.255	n/a	324.261
299.602	2.006	Blank	16	Picture	BLANK	2	2.249	n/a	329.251
303.857	n/a	ConfirmRating	16	Response	n/a	2	n/a	1	333.506
303.879	6.002	ITI	17	Picture	Fixation+	1	10.858	n/a	333.528
309.898	2.006	Cue	17	Picture	Maintain	1	8.836	n/a	339.547
311.904	4.99	Pic	17	Picture	IAPS_05	1	3.845	n/a	341.553
316.894	2.006	Blank	17	Picture	BLANK	1	1.839	n/a	346.543
320.739	n/a	ConfirmRating	17	Response	n/a	1	n/a	2	350.388
320.757	4.012	ITI	18	Picture	Fixation+	3	15.146	n/a	350.406
324.785	2.006	Cue	18	Picture	Suppress	3	13.124	n/a	354.434
326.791	4.99	Pic	18	Picture	IAPS_40	3	8.133	n/a	356.44
331.782	2.006	Blank	18	Picture	BLANK	3	6.127	n/a	361.431
339.915	n/a	ConfirmRating	18	Response	n/a	3	n/a	3	369.564
339.939	5.007	ITI	19	Picture	Fixation+	4	11.171	n/a	369.587
344.962	2.006	Cue	19	Picture	Maintain	4	9.149	n/a	374.611
346.968	4.99	Pic	19	Picture	IAPS_58	4	4.159	n/a	376.617
351.958	2.006	Blank	19	Picture	BLANK	4	2.153	n/a	381.607
356.117	n/a	ConfirmRating	19	Response	n/a	4	n/a	0	385.766
356.136	6.002	ITI	20	Picture	Fixation+	4	9.724	n/a	385.785
362.154	2.006	Cue	20	Picture	Maintain	4	7.701	n/a	391.803
364.16	4.99	Pic	20	Picture	IAPS_47	4	2.711	n/a	393.809
369.151	2.006	Blank	20	Picture	BLANK	4	0.705	n/a	398.8
371.862	n/a	ConfirmRating	20	Response	n/a	4	n/a	0	401.511
371.886	5.007	ITI	21	Picture	Fixation+	3	11.532	n/a	401.535
376.909	2.006	Cue	21	Picture	Suppress	3	9.509	n/a	406.558
378.915	4.99	Pic	21	Picture	IAPS_41	3	4.519	n/a	408.564
383.906	2.006	Blank	21	Picture	BLANK	3	2.513	n/a	413.555
388.424	n/a	ConfirmRating	21	Response	n/a	3	n/a	1	418.073
388.448	4.012	ITI	22	Picture	Fixation+	1	11.369	n/a	418.097
392.477	2.006	Cue	22	Picture	Maintain	1	9.346	n/a	422.126
394.483	4.99	Pic	22	Picture	IAPS_06	1	4.356	n/a	424.132
399.473	2.006	Blank	22	Picture	BLANK	1	2.35	n/a	429.122
403.829	n/a	ConfirmRating	22	Response	n/a	1	n/a	1	433.478
403.85	4.012	ITI	23	Picture	Fixation+	2	11.729	n/a	433.499
407.879	2.006	Cue	23	Picture	Enhance	2	9.706	n/a	437.528
409.885	4.99	Pic	23	Picture	IAPS_16	2	4.716	n/a	439.534
414.875	2.006	Blank	23	Picture	BLANK	2	2.71	n/a	444.524
419.591	n/a	ConfirmRating	23	Response	n/a	2	n/a	0	449.24
419.617	5.007	ITI	24	Picture	Fixation+	1	11.146	n/a	449.265
424.64	2.006	Cue	24	Picture	Maintain	1	9.123	n/a	454.289
426.646	4.99	Pic	24	Picture	IAPS_07	1	4.133	n/a	456.295
431.636	2.006	Blank	24	Picture	BLANK	1	2.127	n/a	461.285
435.769	n/a	ConfirmRating	24	Response	n/a	1	n/a	2	465.418
435.798	4.012	ITI	25	Picture	Fixation+	2	9.936	n/a	465.447
439.826	2.006	Cue	25	Picture	Enhance	2	7.914	n/a	469.475
441.832	4.99	Pic	25	Picture	IAPS_17	2	2.923	n/a	471.481
446.823	2.006	Blank	25	Picture	BLANK	2	0.917	n/a	476.471
449.746	n/a	ConfirmRating	25	Response	n/a	2	n/a	0	479.395
449.774	6.002	ITI	26	Picture	Fixation+	4	10.721	n/a	479.423
455.792	2.006	Cue	26	Picture	Maintain	4	8.698	n/a	485.441
457.798	4.99	Pic	26	Picture	IAPS_50	4	3.708	n/a	487.447
462.788	2.006	Blank	26	Picture	BLANK	4	1.702	n/a	492.437
466.496	n/a	ConfirmRating	26	Response	n/a	4	n/a	5	496.145
466.518	5.007	ITI	27	Picture	Fixation+	3	14.405	n/a	496.167
471.542	2.006	Cue	27	Picture	Suppress	3	12.383	n/a	501.191
473.548	4.99	Pic	27	Picture	IAPS_42	3	7.392	n/a	503.197
478.538	2.006	Blank	27	Picture	BLANK	3	5.387	n/a	508.187
485.93	n/a	ConfirmRating	27	Response	n/a	3	n/a	7	515.579
485.949	5.007	ITI	28	Picture	Fixation+	2	13.421	n/a	515.598
490.972	2.006	Cue	28	Picture	Enhance	2	11.398	n/a	520.621
492.978	4.99	Pic	28	Picture	IAPS_18	2	6.408	n/a	522.627
497.968	2.006	Blank	28	Picture	BLANK	2	4.402	n/a	527.617
504.376	n/a	ConfirmRating	28	Response	n/a	2	n/a	3	534.025
504.401	4.012	ITI	29	Picture	Fixation+	3	14.723	n/a	534.05
508.43	2.006	Cue	29	Picture	Suppress	3	12.7	n/a	538.079
510.436	4.99	Pic	29	Picture	IAPS_43	3	7.71	n/a	540.085
515.426	2.006	Blank	29	Picture	BLANK	3	5.704	n/a	545.075
523.136	n/a	ConfirmRating	29	Response	n/a	3	n/a	6	552.785
523.168	15.004	Rest	29	Picture	Rest	n/a	-15.036	n/a	552.817
538.189	5.007	ITI	30	Picture	Fixation+	4	14.025	n/a	567.838
543.212	2.006	Cue	30	Picture	Maintain	4	12.003	n/a	572.861
545.218	4.99	Pic	30	Picture	IAPS_53	4	7.012	n/a	574.867
550.208	2.006	Blank	30	Picture	BLANK	4	5.006	n/a	579.857
557.221	n/a	ConfirmRating	30	Response	n/a	4	n/a	6	586.87
557.238	6.002	ITI	31	Picture	Fixation+	1	11.025	n/a	586.887
563.256	2.006	Cue	31	Picture	Maintain	1	9.002	n/a	592.905
565.262	4.99	Pic	31	Picture	IAPS_08	1	4.012	n/a	594.911
570.252	2.006	Blank	31	Picture	BLANK	1	2.006	n/a	599.901
574.264	n/a	ConfirmRating	31	Response	n/a	1	n/a	1	603.913
574.298	4.012	ITI	32	Picture	Fixation+	3	11.587	n/a	603.946
578.326	2.006	Cue	32	Picture	Suppress	3	9.564	n/a	607.975
580.332	4.99	Pic	32	Picture	IAPS_44	3	4.574	n/a	609.981
585.322	2.006	Blank	32	Picture	BLANK	3	2.568	n/a	614.971
589.896	n/a	ConfirmRating	32	Response	n/a	3	n/a	7	619.545
589.915	5.007	ITI	33	Picture	Fixation+	1	13.688	n/a	619.564
594.938	2.006	Cue	33	Picture	Maintain	1	11.666	n/a	624.587
596.944	4.99	Pic	33	Picture	IAPS_09	1	6.676	n/a	626.593
601.934	2.006	Blank	33	Picture	BLANK	1	4.67	n/a	631.583
608.61	n/a	ConfirmRating	33	Response	n/a	1	n/a	1	638.259
608.632	4.012	ITI	34	Picture	Fixation+	2	11.857	n/a	638.281
612.661	2.006	Cue	34	Picture	Enhance	2	9.835	n/a	642.31
614.667	4.99	Pic	34	Picture	IAPS_19	2	4.845	n/a	644.316
619.657	2.006	Blank	34	Picture	BLANK	2	2.839	n/a	649.306
624.502	n/a	ConfirmRating	34	Response	n/a	2	n/a	1	654.151
624.531	6.002	ITI	35	Picture	Fixation+	4	10.992	n/a	654.18
630.55	2.006	Cue	35	Picture	Maintain	4	8.969	n/a	660.199
632.556	4.99	Pic	35	Picture	IAPS_56	4	3.979	n/a	662.205
637.546	2.006	Blank	35	Picture	BLANK	4	1.973	n/a	667.195
641.525	n/a	ConfirmRating	35	Response	n/a	4	n/a	7	671.174
641.541	5.007	ITI	36	Picture	Fixation+	3	11.087	n/a	671.19
646.565	2.006	Cue	36	Picture	Suppress	3	9.065	n/a	676.214
648.571	4.99	Pic	36	Picture	IAPS_45	3	4.075	n/a	678.22
653.561	2.006	Blank	36	Picture	BLANK	3	2.068	n/a	683.21
657.636	n/a	ConfirmRating	36	Response	n/a	3	n/a	7	687.285
657.656	6.002	ITI	37	Picture	Fixation+	4	13.855	n/a	687.305
663.674	2.006	Cue	37	Picture	Maintain	4	11.832	n/a	693.323
665.68	4.99	Pic	37	Picture	IAPS_59	4	6.842	n/a	695.329
670.67	2.006	Blank	37	Picture	BLANK	4	4.836	n/a	700.319
677.512	n/a	ConfirmRating	37	Response	n/a	4	n/a	5	707.161
677.534	5.007	ITI	38	Picture	Fixation+	2	11.085	n/a	707.183
682.558	2.006	Cue	38	Picture	Enhance	2	9.063	n/a	712.207
684.564	4.99	Pic	38	Picture	IAPS_20	2	4.072	n/a	714.212
689.554	2.006	Blank	38	Picture	BLANK	2	2.066	n/a	719.203
693.626	n/a	ConfirmRating	38	Response	n/a	2	n/a	1	723.275
693.649	4.012	ITI	39	Picture	Fixation+	1	10.76	n/a	723.298
697.678	2.006	Cue	39	Picture	Maintain	1	8.738	n/a	727.326
699.684	4.99	Pic	39	Picture	IAPS_10	1	3.747	n/a	729.332
704.674	2.006	Blank	39	Picture	BLANK	1	1.741	n/a	734.323
708.421	n/a	ConfirmRating	39	Response	n/a	1	n/a	3	738.07
708.454	6.002	ITI	40	Picture	Fixation+	4	13.368	n/a	738.103
714.472	2.006	Cue	40	Picture	Maintain	4	11.345	n/a	744.121
716.478	4.99	Pic	40	Picture	IAPS_48	4	6.355	n/a	746.127
721.468	2.006	Blank	40	Picture	BLANK	4	4.349	n/a	751.117
727.823	n/a	ConfirmRating	40	Response	n/a	4	n/a	7	757.472
727.851	5.007	ITI	41	Picture	Fixation+	3	11.123	n/a	757.5
732.875	2.006	Cue	41	Picture	Suppress	3	9.1	n/a	762.523
734.88	4.99	Pic	41	Picture	IAPS_31	3	4.11	n/a	764.529
739.871	2.006	Blank	41	Picture	BLANK	3	2.104	n/a	769.52
743.981	n/a	ConfirmRating	41	Response	n/a	3	n/a	1	773.63
743.999	6.002	ITI	42	Picture	Fixation+	2	12.609	n/a	773.648
750.017	2.006	Cue	42	Picture	Enhance	2	10.587	n/a	779.666
752.023	4.99	Pic	42	Picture	IAPS_21	2	5.596	n/a	781.672
757.013	2.006	Blank	42	Picture	BLANK	2	3.59	n/a	786.662
762.61	n/a	ConfirmRating	42	Response	n/a	2	n/a	2	792.259
762.634	4.012	ITI	43	Picture	Fixation+	1	11.297	n/a	792.282
766.662	2.006	Cue	43	Picture	Maintain	1	9.274	n/a	796.311
768.668	4.99	Pic	43	Picture	IAPS_11	1	4.284	n/a	798.317
773.659	2.006	Blank	43	Picture	BLANK	1	2.278	n/a	803.307
777.942	n/a	ConfirmRating	43	Response	n/a	1	n/a	1	807.591
777.969	5.007	ITI	44	Picture	Fixation+	2	11.094	n/a	807.618
782.992	2.006	Cue	44	Picture	Enhance	2	9.072	n/a	812.641
784.998	4.99	Pic	44	Picture	IAPS_22	2	4.082	n/a	814.647
789.989	2.006	Blank	44	Picture	BLANK	2	2.076	n/a	819.638
794.07	n/a	ConfirmRating	44	Response	n/a	2	n/a	0	823.719
794.1	5.007	ITI	45	Picture	Fixation+	4	10.98	n/a	823.749
799.124	2.006	Cue	45	Picture	Maintain	4	8.957	n/a	828.773
801.13	4.99	Pic	45	Picture	IAPS_51	4	3.967	n/a	830.779
806.12	2.006	Blank	45	Picture	BLANK	4	1.961	n/a	835.769
810.087	n/a	ConfirmRating	45	Response	n/a	4	n/a	5	839.736
810.115	4.012	ITI	46	Picture	Fixation+	3	14.598	n/a	839.764
814.144	2.006	Cue	46	Picture	Suppress	3	12.576	n/a	843.793
816.15	4.99	Pic	46	Picture	IAPS_32	3	7.586	n/a	845.799
821.14	2.006	Blank	46	Picture	BLANK	3	5.58	n/a	850.789
828.726	n/a	ConfirmRating	46	Response	n/a	3	n/a	6	858.375
828.75	5.007	ITI	47	Picture	Fixation+	1	15.607	n/a	858.399
833.774	2.006	Cue	47	Picture	Maintain	1	13.584	n/a	863.422
835.779	4.99	Pic	47	Picture	IAPS_12	1	8.594	n/a	865.428
840.77	2.006	Blank	47	Picture	BLANK	1	6.588	n/a	870.419
849.364	n/a	ConfirmRating	47	Response	n/a	1	n/a	2	879.013
849.391	4.012	ITI	48	Picture	Fixation+	3	9.934	n/a	879.04
853.419	2.006	Cue	48	Picture	Suppress	3	7.911	n/a	883.068
855.425	4.99	Pic	48	Picture	IAPS_33	3	2.921	n/a	885.074
860.416	2.006	Blank	48	Picture	BLANK	3	0.915	n/a	890.065
863.337	n/a	ConfirmRating	48	Response	n/a	3	n/a	0	892.985
863.367	5.007	ITI	49	Picture	Fixation+	4	11.234	n/a	893.016
868.39	2.006	Cue	49	Picture	Maintain	4	9.211	n/a	898.039
870.396	4.99	Pic	49	Picture	IAPS_54	4	4.221	n/a	900.045
875.386	2.006	Blank	49	Picture	BLANK	4	2.215	n/a	905.035
879.607	n/a	ConfirmRating	49	Response	n/a	4	n/a	6	909.256
879.631	5.007	ITI	50	Picture	Fixation+	1	13.132	n/a	909.279
884.654	2.006	Cue	50	Picture	Maintain	1	11.109	n/a	914.303
886.66	4.99	Pic	50	Picture	IAPS_13	1	6.119	n/a	916.309
891.65	2.006	Blank	50	Picture	BLANK	1	4.113	n/a	921.299
897.769	n/a	ConfirmRating	50	Response	n/a	1	n/a	1	927.418
897.801	4.012	ITI	51	Picture	Fixation+	2	10.906	n/a	927.45
901.83	2.006	Cue	51	Picture	Enhance	2	8.883	n/a	931.479
903.836	4.99	Pic	51	Picture	IAPS_23	2	3.893	n/a	933.485
908.826	2.006	Blank	51	Picture	BLANK	2	1.887	n/a	938.475
912.719	n/a	ConfirmRating	51	Response	n/a	2	n/a	1	942.368
912.739	5.007	ITI	52	Picture	Fixation+	1	10.76	n/a	942.388
917.762	2.006	Cue	52	Picture	Maintain	1	8.738	n/a	947.411
919.768	4.99	Pic	52	Picture	IAPS_14	1	3.748	n/a	949.417
924.758	2.006	Blank	52	Picture	BLANK	1	1.741	n/a	954.407
928.506	n/a	ConfirmRating	52	Response	n/a	1	n/a	1	958.155
928.538	5.007	ITI	53	Picture	Fixation+	4	10.149	n/a	958.187
933.562	2.006	Cue	53	Picture	Maintain	4	8.126	n/a	963.211
935.568	4.99	Pic	53	Picture	IAPS_57	4	3.136	n/a	965.217
940.558	2.006	Blank	53	Picture	BLANK	4	1.13	n/a	970.207
943.694	n/a	ConfirmRating	53	Response	n/a	4	n/a	0	973.343
943.725	6.002	ITI	54	Picture	Fixation+	3	12.993	n/a	973.374
949.743	2.006	Cue	54	Picture	Suppress	3	10.971	n/a	979.392
951.749	4.99	Pic	54	Picture	IAPS_34	3	5.98	n/a	981.398
956.739	2.006	Blank	54	Picture	BLANK	3	3.974	n/a	986.388
962.719	n/a	ConfirmRating	54	Response	n/a	3	n/a	1	992.368
962.74	5.007	ITI	55	Picture	Fixation+	2	11.871	n/a	992.389
967.764	2.006	Cue	55	Picture	Enhance	2	9.848	n/a	997.413
969.77	4.99	Pic	55	Picture	IAPS_24	2	4.858	n/a	999.419
974.76	2.006	Blank	55	Picture	BLANK	2	2.852	n/a	1004.409
979.618	n/a	ConfirmRating	55	Response	n/a	2	n/a	1	1009.267
979.651	5.007	ITI	56	Picture	Fixation+	1	11.193	n/a	1009.3
984.674	2.006	Cue	56	Picture	Maintain	1	9.171	n/a	1014.323
986.68	4.99	Pic	56	Picture	IAPS_15	1	4.18	n/a	1016.329
991.671	2.006	Blank	56	Picture	BLANK	1	2.174	n/a	1021.32
995.851	n/a	ConfirmRating	56	Response	n/a	1	n/a	1	1025.5
995.882	6.002	ITI	57	Picture	Fixation+	3	10.726	n/a	1025.531
1001.9	2.006	Cue	57	Picture	Suppress	3	8.703	n/a	1031.549
1003.906	4.99	Pic	57	Picture	IAPS_35	3	3.713	n/a	1033.555
1008.896	2.006	Blank	57	Picture	BLANK	3	1.707	n/a	1038.545
1012.609	n/a	ConfirmRating	57	Response	n/a	3	n/a	2	1042.258
1012.626	4.012	ITI	58	Picture	Fixation+	4	9.899	n/a	1042.275
1016.655	2.006	Cue	58	Picture	Maintain	4	7.877	n/a	1046.304
1018.661	4.99	Pic	58	Picture	IAPS_60	4	2.887	n/a	1048.31
1023.651	2.006	Blank	58	Picture	BLANK	4	0.88	n/a	1053.3
1026.538	n/a	ConfirmRating	58	Response	n/a	4	n/a	0	1056.187
1026.569	6.002	ITI	59	Picture	Fixation+	2	13.757	n/a	1056.218
1032.587	2.006	Cue	59	Picture	Enhance	2	11.734	n/a	1062.236
1034.593	4.99	Pic	59	Picture	IAPS_25	2	6.744	n/a	1064.242
1039.584	2.006	Blank	59	Picture	BLANK	2	4.738	n/a	1069.233
1046.328	n/a	ConfirmRating	59	Response	n/a	2	n/a	1	1075.976
