onset	duration	trial_type	event_type	time_until_response	response_time	trial_number	block_num_within_trial	image_seq_num_within_block	question_seq_num_within_block	image_seq_num	picture_number	condition	question_type	block_type	rating	rating_computed	onset_uncorrected	KDEV_imagefile
0.011	10.014	ITI	Fixation+	97.998	n/a	1	n/a	n/a	n/a	n/a	n/a	n/a	n/a	n/a	n/a	n/a	30.45	n/a
10.042	0.497	happy	Picture	97.485	n/a	1	1	1	n/a	1	46	2	n/a	n/a	n/a	n/a	40.48	AF09HAS.jpg
10.539	0.514	Blank	Blank	96.971	n/a	1	1	1	n/a	1	n/a	2	n/a	n/a	n/a	n/a	40.978	n/a
11.07	0.497	happy	Picture	96.457	n/a	1	1	2	n/a	2	69	2	n/a	n/a	n/a	n/a	41.508	AM10HAS.jpg
11.567	0.514	Blank	Blank	95.943	n/a	1	1	2	n/a	2	n/a	2	n/a	n/a	n/a	n/a	42.005	n/a
12.097	0.497	happy	Picture	95.429	n/a	1	1	3	n/a	3	71	2	n/a	n/a	n/a	n/a	42.536	BM12HAS.jpg
12.595	0.514	Blank	Blank	94.915	n/a	1	1	3	n/a	3	n/a	2	n/a	n/a	n/a	n/a	43.033	n/a
13.125	0.497	happy	Picture	94.401	n/a	1	1	4	n/a	4	51	2	n/a	n/a	n/a	n/a	43.564	AF20HAS.jpg
13.623	0.514	Blank	Blank	93.887	n/a	1	1	4	n/a	4	n/a	2	n/a	n/a	n/a	n/a	44.061	n/a
14.153	0.497	happy	Picture	93.373	n/a	1	1	5	n/a	5	67	2	n/a	n/a	n/a	n/a	44.592	BM08HAS.jpg
14.651	0.514	Blank	Blank	92.859	n/a	1	1	5	n/a	5	n/a	2	n/a	n/a	n/a	n/a	45.089	n/a
15.181	0.497	happy	Picture	92.345	n/a	1	1	6	n/a	6	60	2	n/a	n/a	n/a	n/a	45.62	AF32HAS.jpg
15.678	0.514	Blank	Blank	91.831	n/a	1	1	6	n/a	6	n/a	2	n/a	n/a	n/a	n/a	46.117	n/a
16.209	0.497	happy	Picture	91.317	n/a	1	1	7	n/a	7	42	2	n/a	n/a	n/a	n/a	46.648	AF03HAS.jpg
16.706	0.514	Blank	Blank	90.803	n/a	1	1	7	n/a	7	n/a	2	n/a	n/a	n/a	n/a	47.145	n/a
17.237	0.497	happy	Picture	90.289	n/a	1	1	8	n/a	8	55	2	n/a	n/a	n/a	n/a	47.675	AF25HAS.jpg
17.734	0.514	Blank	Blank	89.775	n/a	1	1	8	n/a	8	n/a	2	n/a	n/a	n/a	n/a	48.173	n/a
18.265	0.497	happy	Picture	89.261	n/a	1	1	9	n/a	9	72	2	n/a	n/a	n/a	n/a	48.703	AM14HAS.jpg
18.762	0.514	Blank	Blank	88.747	n/a	1	1	9	n/a	9	n/a	2	n/a	n/a	n/a	n/a	49.201	n/a
19.293	0.497	happy	Picture	88.234	n/a	1	1	10	n/a	10	63	2	n/a	n/a	n/a	n/a	49.731	AM04HAS.jpg
19.79	0.514	Blank	Blank	87.72	n/a	1	1	10	n/a	10	n/a	2	n/a	n/a	n/a	n/a	50.229	n/a
20.321	0.497	happy	Picture	87.206	n/a	1	1	11	n/a	11	58	2	n/a	n/a	n/a	n/a	50.759	BF29HAS.jpg
20.818	0.514	Blank	Blank	86.692	n/a	1	1	11	n/a	11	n/a	2	n/a	n/a	n/a	n/a	51.257	n/a
21.349	0.497	happy	Picture	86.178	n/a	1	1	12	n/a	12	48	2	n/a	n/a	n/a	n/a	51.787	AF14HAS.jpg
21.846	0.514	Blank	Blank	85.664	n/a	1	1	12	n/a	12	n/a	2	n/a	n/a	n/a	n/a	52.284	n/a
22.376	0.497	happy	Picture	85.15	n/a	1	1	13	n/a	13	66	2	n/a	n/a	n/a	n/a	52.815	BM07HAS.jpg
22.874	0.514	Blank	Blank	84.636	n/a	1	1	13	n/a	13	n/a	2	n/a	n/a	n/a	n/a	53.312	n/a
23.404	0.497	happy	Picture	84.122	n/a	1	1	14	n/a	14	70	2	n/a	n/a	n/a	n/a	53.843	BM11HAS.jpg
23.902	0.514	Blank	Blank	83.608	n/a	1	1	14	n/a	14	n/a	2	n/a	n/a	n/a	n/a	54.34	n/a
24.432	0.497	happy	Picture	83.094	n/a	1	1	15	n/a	15	43	2	n/a	n/a	n/a	n/a	54.871	BF04HAS.jpg
24.929	0.514	Blank	Blank	82.58	n/a	1	1	15	n/a	15	n/a	2	n/a	n/a	n/a	n/a	55.368	n/a
25.46	0.497	happy	Picture	82.066	n/a	1	1	16	n/a	16	49	2	n/a	n/a	n/a	n/a	55.899	AF17HAS.jpg
25.957	0.514	Blank	Blank	81.552	n/a	1	1	16	n/a	16	n/a	2	n/a	n/a	n/a	n/a	56.396	n/a
26.488	0.497	happy	Picture	81.038	n/a	1	1	17	n/a	17	75	2	n/a	n/a	n/a	n/a	56.926	AM23HAS.jpg
26.985	0.514	Blank	Blank	80.524	n/a	1	1	17	n/a	17	n/a	2	n/a	n/a	n/a	n/a	57.424	n/a
27.516	0.497	happy	Picture	80.01	n/a	1	1	18	n/a	18	80	2	n/a	n/a	n/a	n/a	57.954	BM35HAS.jpg
28.013	0.514	Blank	Blank	79.496	n/a	1	1	18	n/a	18	n/a	2	n/a	n/a	n/a	n/a	58.452	n/a
28.544	0.497	happy	Picture	78.982	n/a	1	1	19	n/a	19	76	2	n/a	n/a	n/a	n/a	58.982	BM24HAS.jpg
29.041	0.514	Blank	Blank	78.469	n/a	1	1	19	n/a	19	n/a	2	n/a	n/a	n/a	n/a	59.48	n/a
29.572	0.497	happy	Picture	77.955	n/a	1	1	20	n/a	20	74	2	n/a	n/a	n/a	n/a	60.01	AM22HAS.jpg
30.069	0.514	Blank	Blank	77.441	n/a	1	1	20	n/a	20	n/a	2	n/a	n/a	n/a	n/a	60.508	n/a
30.599	10.014	ITI	Fixation+	67.41	n/a	1	n/a	n/a	n/a	n/a	n/a	n/a	n/a	n/a	n/a	n/a	61.038	n/a
40.63	0.497	neutral	Picture	66.897	n/a	1	2	1	n/a	21	33	1	n/a	n/a	n/a	n/a	71.068	AM21NES.jpg
41.127	0.514	Blank	Blank	66.383	n/a	1	2	1	n/a	21	n/a	1	n/a	n/a	n/a	n/a	71.566	n/a
41.658	0.497	neutral	Picture	65.869	n/a	1	2	2	n/a	22	39	1	n/a	n/a	n/a	n/a	72.096	AM28NES.jpg
42.155	0.514	Blank	Blank	65.355	n/a	1	2	2	n/a	22	n/a	1	n/a	n/a	n/a	n/a	72.594	n/a
42.685	0.497	neutral	Picture	64.841	n/a	1	2	3	n/a	23	25	1	n/a	n/a	n/a	n/a	73.124	BM06NES.jpg
43.183	0.514	Blank	Blank	64.327	n/a	1	2	3	n/a	23	n/a	1	n/a	n/a	n/a	n/a	73.621	n/a
43.713	0.497	neutral	Picture	63.813	n/a	1	2	4	n/a	24	5	1	n/a	n/a	n/a	n/a	74.152	BF07NES.jpg
44.211	0.514	Blank	Blank	63.299	n/a	1	2	4	n/a	24	n/a	1	n/a	n/a	n/a	n/a	74.649	n/a
44.741	0.497	neutral	Picture	62.785	n/a	1	2	5	n/a	25	10	1	n/a	n/a	n/a	n/a	75.18	AF18NES.jpg
45.239	0.514	Blank	Blank	62.271	n/a	1	2	5	n/a	25	n/a	1	n/a	n/a	n/a	n/a	75.677	n/a
45.769	0.497	neutral	Picture	61.757	n/a	1	2	6	n/a	26	34	1	n/a	n/a	n/a	n/a	76.208	AM22NES.jpg
46.267	0.514	Blank	Blank	61.243	n/a	1	2	6	n/a	26	n/a	1	n/a	n/a	n/a	n/a	76.705	n/a
46.797	0.497	neutral	Picture	60.729	n/a	1	2	7	n/a	27	36	1	n/a	n/a	n/a	n/a	77.236	BM24NES.jpg
47.294	0.514	Blank	Blank	60.215	n/a	1	2	7	n/a	27	n/a	1	n/a	n/a	n/a	n/a	77.733	n/a
47.825	0.497	neutral	Picture	59.701	n/a	1	2	8	n/a	28	14	1	n/a	n/a	n/a	n/a	78.263	AF23NES.jpg
48.322	0.514	Blank	Blank	59.187	n/a	1	2	8	n/a	28	n/a	1	n/a	n/a	n/a	n/a	78.761	n/a
48.853	0.497	neutral	Picture	58.673	n/a	1	2	9	n/a	29	9	1	n/a	n/a	n/a	n/a	79.291	AF17NES.jpg
49.35	0.514	Blank	Blank	58.159	n/a	1	2	9	n/a	29	n/a	1	n/a	n/a	n/a	n/a	79.789	n/a
49.881	0.497	neutral	Picture	57.645	n/a	1	2	10	n/a	30	19	1	n/a	n/a	n/a	n/a	80.319	AF31NES.jpg
50.378	0.514	Blank	Blank	57.132	n/a	1	2	10	n/a	30	n/a	1	n/a	n/a	n/a	n/a	80.817	n/a
50.909	0.497	neutral	Picture	56.618	n/a	1	2	11	n/a	31	15	1	n/a	n/a	n/a	n/a	81.347	AF25NES.jpg
51.406	0.514	Blank	Blank	56.104	n/a	1	2	11	n/a	31	n/a	1	n/a	n/a	n/a	n/a	81.845	n/a
51.937	0.497	neutral	Picture	55.59	n/a	1	2	12	n/a	32	22	1	n/a	n/a	n/a	n/a	82.375	BM03NES.jpg
52.434	0.514	Blank	Blank	55.076	n/a	1	2	12	n/a	32	n/a	1	n/a	n/a	n/a	n/a	82.873	n/a
52.964	0.497	neutral	Picture	54.562	n/a	1	2	13	n/a	33	11	1	n/a	n/a	n/a	n/a	83.403	AF20NES.jpg
53.462	0.514	Blank	Blank	54.048	n/a	1	2	13	n/a	33	n/a	1	n/a	n/a	n/a	n/a	83.9	n/a
53.992	0.497	neutral	Picture	53.534	n/a	1	2	14	n/a	34	4	1	n/a	n/a	n/a	n/a	84.431	AF05NES.jpg
54.49	0.514	Blank	Blank	53.02	n/a	1	2	14	n/a	34	n/a	1	n/a	n/a	n/a	n/a	84.928	n/a
55.02	0.497	neutral	Picture	52.506	n/a	1	2	15	n/a	35	17	1	n/a	n/a	n/a	n/a	85.459	BF28NES.jpg
55.518	0.514	Blank	Blank	51.992	n/a	1	2	15	n/a	35	n/a	1	n/a	n/a	n/a	n/a	85.956	n/a
56.048	0.497	neutral	Picture	51.478	n/a	1	2	16	n/a	36	13	1	n/a	n/a	n/a	n/a	86.487	BF22NES.jpg
56.545	0.514	Blank	Blank	50.964	n/a	1	2	16	n/a	36	n/a	1	n/a	n/a	n/a	n/a	86.984	n/a
57.076	0.497	neutral	Picture	50.45	n/a	1	2	17	n/a	37	12	1	n/a	n/a	n/a	n/a	87.514	AF21NES.jpg
57.573	0.514	Blank	Blank	49.936	n/a	1	2	17	n/a	37	n/a	1	n/a	n/a	n/a	n/a	88.012	n/a
58.104	0.497	neutral	Picture	49.422	n/a	1	2	18	n/a	38	24	1	n/a	n/a	n/a	n/a	88.542	BM05NES.jpg
58.601	0.514	Blank	Blank	48.908	n/a	1	2	18	n/a	38	n/a	1	n/a	n/a	n/a	n/a	89.04	n/a
59.132	0.497	neutral	Picture	48.394	n/a	1	2	19	n/a	39	29	1	n/a	n/a	n/a	n/a	89.57	AM10NES.jpg
59.629	0.514	Blank	Blank	47.881	n/a	1	2	19	n/a	39	n/a	1	n/a	n/a	n/a	n/a	90.068	n/a
60.16	0.497	neutral	Picture	47.367	n/a	1	2	20	n/a	40	23	1	n/a	n/a	n/a	n/a	90.598	AM04NES.jpg
60.657	0.514	Blank	Blank	46.853	n/a	1	2	20	n/a	40	n/a	1	n/a	n/a	n/a	n/a	91.096	n/a
61.187	10.014	ITI	Fixation+	36.822	n/a	1	n/a	n/a	n/a	n/a	n/a	n/a	n/a	n/a	n/a	n/a	91.626	n/a
71.218	0.497	happy	Picture	36.308	n/a	1	3	1	n/a	41	62	2	n/a	n/a	n/a	n/a	101.656	BM03HAS.jpg
71.715	0.514	Blank	Blank	35.795	n/a	1	3	1	n/a	41	n/a	2	n/a	n/a	n/a	n/a	102.154	n/a
72.246	0.497	happy	Picture	35.281	n/a	1	3	2	n/a	42	52	2	n/a	n/a	n/a	n/a	102.684	AF21HAS.jpg
72.743	0.514	Blank	Blank	34.767	n/a	1	3	2	n/a	42	n/a	2	n/a	n/a	n/a	n/a	103.182	n/a
73.274	0.497	happy	Picture	34.253	n/a	1	3	3	n/a	43	44	2	n/a	n/a	n/a	n/a	103.712	AF05HAS.jpg
73.771	0.514	Blank	Blank	33.739	n/a	1	3	3	n/a	43	n/a	2	n/a	n/a	n/a	n/a	104.21	n/a
74.301	0.497	happy	Picture	33.225	n/a	1	3	4	n/a	44	53	2	n/a	n/a	n/a	n/a	104.74	BF22HAS.jpg
74.799	0.514	Blank	Blank	32.711	n/a	1	3	4	n/a	44	n/a	2	n/a	n/a	n/a	n/a	105.237	n/a
75.329	0.497	happy	Picture	32.197	n/a	1	3	5	n/a	45	54	2	n/a	n/a	n/a	n/a	105.768	AF23HAS.jpg
75.827	0.514	Blank	Blank	31.683	n/a	1	3	5	n/a	45	n/a	2	n/a	n/a	n/a	n/a	106.265	n/a
76.357	0.497	happy	Picture	31.169	n/a	1	3	6	n/a	46	68	2	n/a	n/a	n/a	n/a	106.796	AM09HAS.jpg
76.855	0.514	Blank	Blank	30.655	n/a	1	3	6	n/a	46	n/a	2	n/a	n/a	n/a	n/a	107.293	n/a
77.385	0.497	happy	Picture	30.141	n/a	1	3	7	n/a	47	64	2	n/a	n/a	n/a	n/a	107.824	BM05HAS.jpg
77.882	0.514	Blank	Blank	29.627	n/a	1	3	7	n/a	47	n/a	2	n/a	n/a	n/a	n/a	108.321	n/a
78.413	0.497	happy	Picture	29.113	n/a	1	3	8	n/a	48	59	2	n/a	n/a	n/a	n/a	108.852	AF31HAS.jpg
78.91	0.514	Blank	Blank	28.599	n/a	1	3	8	n/a	48	n/a	2	n/a	n/a	n/a	n/a	109.349	n/a
79.441	0.497	happy	Picture	28.085	n/a	1	3	9	n/a	49	41	2	n/a	n/a	n/a	n/a	109.879	AF01HAS.jpg
79.938	0.514	Blank	Blank	27.571	n/a	1	3	9	n/a	49	n/a	2	n/a	n/a	n/a	n/a	110.377	n/a
80.469	0.497	happy	Picture	27.057	n/a	1	3	10	n/a	50	73	2	n/a	n/a	n/a	n/a	110.907	AM21HAS.jpg
80.966	0.514	Blank	Blank	26.544	n/a	1	3	10	n/a	50	n/a	2	n/a	n/a	n/a	n/a	111.405	n/a
81.497	0.497	happy	Picture	26.03	n/a	1	3	11	n/a	51	65	2	n/a	n/a	n/a	n/a	111.935	BM06HAS.jpg
81.994	0.514	Blank	Blank	25.516	n/a	1	3	11	n/a	51	n/a	2	n/a	n/a	n/a	n/a	112.433	n/a
82.524	0.497	happy	Picture	25.002	n/a	1	3	12	n/a	52	56	2	n/a	n/a	n/a	n/a	112.963	AF26HAS.jpg
83.022	0.514	Blank	Blank	24.488	n/a	1	3	12	n/a	52	n/a	2	n/a	n/a	n/a	n/a	113.46	n/a
83.552	0.497	happy	Picture	23.974	n/a	1	3	13	n/a	53	45	2	n/a	n/a	n/a	n/a	113.991	BF07HAS.jpg
84.05	0.514	Blank	Blank	23.46	n/a	1	3	13	n/a	53	n/a	2	n/a	n/a	n/a	n/a	114.488	n/a
84.58	0.497	happy	Picture	22.946	n/a	1	3	14	n/a	54	78	2	n/a	n/a	n/a	n/a	115.019	BM26HAS.jpg
85.078	0.514	Blank	Blank	22.432	n/a	1	3	14	n/a	54	n/a	2	n/a	n/a	n/a	n/a	115.516	n/a
85.608	0.497	happy	Picture	21.918	n/a	1	3	15	n/a	55	50	2	n/a	n/a	n/a	n/a	116.047	AF18HAS.jpg
86.106	0.514	Blank	Blank	21.404	n/a	1	3	15	n/a	55	n/a	2	n/a	n/a	n/a	n/a	116.544	n/a
86.636	0.497	happy	Picture	20.89	n/a	1	3	16	n/a	56	47	2	n/a	n/a	n/a	n/a	117.075	BF11HAS.jpg
87.133	0.514	Blank	Blank	20.376	n/a	1	3	16	n/a	56	n/a	2	n/a	n/a	n/a	n/a	117.572	n/a
87.664	0.497	happy	Picture	19.862	n/a	1	3	17	n/a	57	77	2	n/a	n/a	n/a	n/a	118.103	BM25HAS.jpg
88.161	0.514	Blank	Blank	19.348	n/a	1	3	17	n/a	57	n/a	2	n/a	n/a	n/a	n/a	118.6	n/a
88.692	0.497	happy	Picture	18.834	n/a	1	3	18	n/a	58	57	2	n/a	n/a	n/a	n/a	119.13	BF28HAS.jpg
89.189	0.514	Blank	Blank	18.32	n/a	1	3	18	n/a	58	n/a	2	n/a	n/a	n/a	n/a	119.628	n/a
89.72	0.497	happy	Picture	17.806	n/a	1	3	19	n/a	59	61	2	n/a	n/a	n/a	n/a	120.158	AM01HAS.jpg
90.217	0.514	Blank	Blank	17.293	n/a	1	3	19	n/a	59	n/a	2	n/a	n/a	n/a	n/a	120.656	n/a
90.748	0.497	happy	Picture	16.779	n/a	1	3	20	n/a	60	79	2	n/a	n/a	n/a	n/a	121.186	BM28HAS.jpg
91.245	0.514	Blank	Blank	16.265	n/a	1	3	20	n/a	60	n/a	2	n/a	n/a	n/a	n/a	121.684	n/a
91.775	10.014	ITI	Fixation+	6.234	n/a	1	n/a	n/a	n/a	n/a	n/a	n/a	n/a	n/a	n/a	n/a	122.214	n/a
108.024	n/a	ConfirmRating	Rate	n/a	6.218	1	n/a	n/a	0	n/a	n/a	n/a	2	Happy	83	51	138.462	n/a
112.482	n/a	ConfirmRating	Rate	n/a	4.427	1	n/a	n/a	1	n/a	n/a	n/a	3	Happy	50	50	142.92	n/a
112.499	10.014	ITI	Fixation+	96.479	n/a	2	n/a	n/a	n/a	n/a	n/a	n/a	n/a	n/a	n/a	n/a	142.938	n/a
122.529	0.497	angry	Picture	95.965	n/a	2	4	1	n/a	61	119	3	n/a	n/a	n/a	n/a	152.968	BM28ANS.jpg
123.027	0.514	Blank	Blank	95.451	n/a	2	4	1	n/a	61	n/a	3	n/a	n/a	n/a	n/a	153.465	n/a
123.557	0.497	angry	Picture	94.937	n/a	2	4	2	n/a	62	100	3	n/a	n/a	n/a	n/a	153.996	AF32ANS.jpg
124.055	0.514	Blank	Blank	94.423	n/a	2	4	2	n/a	62	n/a	3	n/a	n/a	n/a	n/a	154.493	n/a
124.585	0.497	angry	Picture	93.909	n/a	2	4	3	n/a	63	118	3	n/a	n/a	n/a	n/a	155.024	BM26ANS.jpg
125.082	0.514	Blank	Blank	93.395	n/a	2	4	3	n/a	63	n/a	3	n/a	n/a	n/a	n/a	155.521	n/a
125.613	0.497	angry	Picture	92.881	n/a	2	4	4	n/a	64	89	3	n/a	n/a	n/a	n/a	156.052	AF17ANS.jpg
126.11	0.514	Blank	Blank	92.367	n/a	2	4	4	n/a	64	n/a	3	n/a	n/a	n/a	n/a	156.549	n/a
126.641	0.497	angry	Picture	91.853	n/a	2	4	5	n/a	65	116	3	n/a	n/a	n/a	n/a	157.079	BM24ANS.jpg
127.138	0.514	Blank	Blank	91.339	n/a	2	4	5	n/a	65	n/a	3	n/a	n/a	n/a	n/a	157.577	n/a
127.669	0.497	angry	Picture	90.825	n/a	2	4	6	n/a	66	105	3	n/a	n/a	n/a	n/a	158.107	BM06ANS.jpg
128.166	0.514	Blank	Blank	90.311	n/a	2	4	6	n/a	66	n/a	3	n/a	n/a	n/a	n/a	158.605	n/a
128.697	0.497	angry	Picture	89.797	n/a	2	4	7	n/a	67	106	3	n/a	n/a	n/a	n/a	159.135	AM07ANS.jpg
129.194	0.514	Blank	Blank	89.283	n/a	2	4	7	n/a	67	n/a	3	n/a	n/a	n/a	n/a	159.633	n/a
129.725	0.497	angry	Picture	88.77	n/a	2	4	8	n/a	68	94	3	n/a	n/a	n/a	n/a	160.163	AF23ANS.jpg
130.222	0.514	Blank	Blank	88.255	n/a	2	4	8	n/a	68	n/a	3	n/a	n/a	n/a	n/a	160.661	n/a
130.752	0.497	angry	Picture	87.742	n/a	2	4	9	n/a	69	117	3	n/a	n/a	n/a	n/a	161.191	BM25ANS.jpg
131.25	0.514	Blank	Blank	87.228	n/a	2	4	9	n/a	69	n/a	3	n/a	n/a	n/a	n/a	161.688	n/a
131.78	0.497	angry	Picture	86.714	n/a	2	4	10	n/a	70	90	3	n/a	n/a	n/a	n/a	162.219	AF18ANS.jpg
132.278	0.514	Blank	Blank	86.2	n/a	2	4	10	n/a	70	n/a	3	n/a	n/a	n/a	n/a	162.716	n/a
132.808	0.497	angry	Picture	85.686	n/a	2	4	11	n/a	71	83	3	n/a	n/a	n/a	n/a	163.247	BF04ANS.jpg
133.306	0.514	Blank	Blank	85.172	n/a	2	4	11	n/a	71	n/a	3	n/a	n/a	n/a	n/a	163.744	n/a
133.836	0.497	angry	Picture	84.658	n/a	2	4	12	n/a	72	112	3	n/a	n/a	n/a	n/a	164.275	AM14ANS.jpg
134.333	0.514	Blank	Blank	84.144	n/a	2	4	12	n/a	72	n/a	3	n/a	n/a	n/a	n/a	164.772	n/a
134.864	0.497	angry	Picture	83.63	n/a	2	4	13	n/a	73	102	3	n/a	n/a	n/a	n/a	165.303	BM03ANS.jpg
135.361	0.514	Blank	Blank	83.116	n/a	2	4	13	n/a	73	n/a	3	n/a	n/a	n/a	n/a	165.8	n/a
135.892	0.497	angry	Picture	82.602	n/a	2	4	14	n/a	74	95	3	n/a	n/a	n/a	n/a	166.331	AF25ANS.jpg
136.389	0.514	Blank	Blank	82.088	n/a	2	4	14	n/a	74	n/a	3	n/a	n/a	n/a	n/a	166.828	n/a
136.92	0.497	angry	Picture	81.574	n/a	2	4	15	n/a	75	113	3	n/a	n/a	n/a	n/a	167.358	AM21ANS.jpg
137.417	0.514	Blank	Blank	81.06	n/a	2	4	15	n/a	75	n/a	3	n/a	n/a	n/a	n/a	167.856	n/a
137.948	0.497	angry	Picture	80.546	n/a	2	4	16	n/a	76	88	3	n/a	n/a	n/a	n/a	168.386	AF14ANS.jpg
138.445	0.514	Blank	Blank	80.032	n/a	2	4	16	n/a	76	n/a	3	n/a	n/a	n/a	n/a	168.884	n/a
138.976	0.497	angry	Picture	79.519	n/a	2	4	17	n/a	77	93	3	n/a	n/a	n/a	n/a	169.414	BF22ANS.jpg
139.473	0.514	Blank	Blank	79.005	n/a	2	4	17	n/a	77	n/a	3	n/a	n/a	n/a	n/a	169.911	n/a
140.004	0.497	angry	Picture	78.491	n/a	2	4	18	n/a	78	86	3	n/a	n/a	n/a	n/a	170.442	AF09ANS.jpg
140.501	0.514	Blank	Blank	77.977	n/a	2	4	18	n/a	78	n/a	3	n/a	n/a	n/a	n/a	170.939	n/a
141.031	0.497	angry	Picture	77.463	n/a	2	4	19	n/a	79	92	3	n/a	n/a	n/a	n/a	171.47	AF21ANS.jpg
141.529	0.514	Blank	Blank	76.949	n/a	2	4	19	n/a	79	n/a	3	n/a	n/a	n/a	n/a	171.967	n/a
142.059	0.497	angry	Picture	76.435	n/a	2	4	20	n/a	80	84	3	n/a	n/a	n/a	n/a	172.498	AF05ANS.jpg
142.557	0.514	Blank	Blank	75.921	n/a	2	4	20	n/a	80	n/a	3	n/a	n/a	n/a	n/a	172.995	n/a
143.087	10.014	ITI	Fixation+	65.891	n/a	2	n/a	n/a	n/a	n/a	n/a	n/a	n/a	n/a	n/a	n/a	173.526	n/a
153.117	0.497	neutral	Picture	65.377	n/a	2	5	1	n/a	81	4	1	n/a	n/a	n/a	n/a	183.556	AF05NES.jpg
153.615	0.514	Blank	Blank	64.863	n/a	2	5	1	n/a	81	n/a	1	n/a	n/a	n/a	n/a	184.053	n/a
154.145	0.497	neutral	Picture	64.349	n/a	2	5	2	n/a	82	14	1	n/a	n/a	n/a	n/a	184.584	AF23NES.jpg
154.643	0.514	Blank	Blank	63.835	n/a	2	5	2	n/a	82	n/a	1	n/a	n/a	n/a	n/a	185.081	n/a
155.173	0.497	neutral	Picture	63.321	n/a	2	5	3	n/a	83	19	1	n/a	n/a	n/a	n/a	185.612	AF31NES.jpg
155.671	0.514	Blank	Blank	62.807	n/a	2	5	3	n/a	83	n/a	1	n/a	n/a	n/a	n/a	186.109	n/a
156.201	0.497	neutral	Picture	62.293	n/a	2	5	4	n/a	84	8	1	n/a	n/a	n/a	n/a	186.64	AF14NES.jpg
156.698	0.514	Blank	Blank	61.779	n/a	2	5	4	n/a	84	n/a	1	n/a	n/a	n/a	n/a	187.137	n/a
157.229	0.497	neutral	Picture	61.265	n/a	2	5	5	n/a	85	25	1	n/a	n/a	n/a	n/a	187.667	BM06NES.jpg
157.726	0.514	Blank	Blank	60.751	n/a	2	5	5	n/a	85	n/a	1	n/a	n/a	n/a	n/a	188.165	n/a
158.257	0.497	neutral	Picture	60.237	n/a	2	5	6	n/a	86	9	1	n/a	n/a	n/a	n/a	188.695	AF17NES.jpg
158.754	0.514	Blank	Blank	59.723	n/a	2	5	6	n/a	86	n/a	1	n/a	n/a	n/a	n/a	189.193	n/a
159.285	0.497	neutral	Picture	59.209	n/a	2	5	7	n/a	87	2	1	n/a	n/a	n/a	n/a	189.723	AF03NES.jpg
159.782	0.514	Blank	Blank	58.695	n/a	2	5	7	n/a	87	n/a	1	n/a	n/a	n/a	n/a	190.221	n/a
160.313	0.497	neutral	Picture	58.181	n/a	2	5	8	n/a	88	17	1	n/a	n/a	n/a	n/a	190.751	BF28NES.jpg
160.81	0.514	Blank	Blank	57.667	n/a	2	5	8	n/a	88	n/a	1	n/a	n/a	n/a	n/a	191.249	n/a
161.34	0.497	neutral	Picture	57.154	n/a	2	5	9	n/a	89	6	1	n/a	n/a	n/a	n/a	191.779	AF09NES.jpg
161.838	0.514	Blank	Blank	56.64	n/a	2	5	9	n/a	89	n/a	1	n/a	n/a	n/a	n/a	192.276	n/a
162.368	0.497	neutral	Picture	56.126	n/a	2	5	10	n/a	90	12	1	n/a	n/a	n/a	n/a	192.807	AF21NES.jpg
162.866	0.514	Blank	Blank	55.612	n/a	2	5	10	n/a	90	n/a	1	n/a	n/a	n/a	n/a	193.304	n/a
163.396	0.497	neutral	Picture	55.098	n/a	2	5	11	n/a	91	24	1	n/a	n/a	n/a	n/a	193.835	BM05NES.jpg
163.894	0.514	Blank	Blank	54.584	n/a	2	5	11	n/a	91	n/a	1	n/a	n/a	n/a	n/a	194.332	n/a
164.424	0.497	neutral	Picture	54.07	n/a	2	5	12	n/a	92	34	1	n/a	n/a	n/a	n/a	194.863	AM22NES.jpg
164.921	0.514	Blank	Blank	53.556	n/a	2	5	12	n/a	92	n/a	1	n/a	n/a	n/a	n/a	195.36	n/a
165.452	0.497	neutral	Picture	53.042	n/a	2	5	13	n/a	93	23	1	n/a	n/a	n/a	n/a	195.891	AM04NES.jpg
165.949	0.514	Blank	Blank	52.528	n/a	2	5	13	n/a	93	n/a	1	n/a	n/a	n/a	n/a	196.388	n/a
166.48	0.497	neutral	Picture	52.014	n/a	2	5	14	n/a	94	15	1	n/a	n/a	n/a	n/a	196.918	AF25NES.jpg
166.977	0.514	Blank	Blank	51.5	n/a	2	5	14	n/a	94	n/a	1	n/a	n/a	n/a	n/a	197.416	n/a
167.508	0.497	neutral	Picture	50.986	n/a	2	5	15	n/a	95	37	1	n/a	n/a	n/a	n/a	197.946	BM25NES.jpg
168.005	0.514	Blank	Blank	50.472	n/a	2	5	15	n/a	95	n/a	1	n/a	n/a	n/a	n/a	198.444	n/a
168.536	0.497	neutral	Picture	49.958	n/a	2	5	16	n/a	96	32	1	n/a	n/a	n/a	n/a	198.974	AM14NES.jpg
169.033	0.514	Blank	Blank	49.444	n/a	2	5	16	n/a	96	n/a	1	n/a	n/a	n/a	n/a	199.472	n/a
169.564	0.497	neutral	Picture	48.93	n/a	2	5	17	n/a	97	3	1	n/a	n/a	n/a	n/a	200.002	BF04NES.jpg
170.061	0.514	Blank	Blank	48.417	n/a	2	5	17	n/a	97	n/a	1	n/a	n/a	n/a	n/a	200.5	n/a
170.591	0.497	neutral	Picture	47.903	n/a	2	5	18	n/a	98	16	1	n/a	n/a	n/a	n/a	201.03	AF26NES.jpg
171.089	0.514	Blank	Blank	47.389	n/a	2	5	18	n/a	98	n/a	1	n/a	n/a	n/a	n/a	201.527	n/a
171.619	0.497	neutral	Picture	46.875	n/a	2	5	19	n/a	99	27	1	n/a	n/a	n/a	n/a	202.058	BM08NES.jpg
172.117	0.514	Blank	Blank	46.361	n/a	2	5	19	n/a	99	n/a	1	n/a	n/a	n/a	n/a	202.555	n/a
172.647	0.497	neutral	Picture	45.847	n/a	2	5	20	n/a	100	28	1	n/a	n/a	n/a	n/a	203.086	AM09NES.jpg
173.145	0.514	Blank	Blank	45.333	n/a	2	5	20	n/a	100	n/a	1	n/a	n/a	n/a	n/a	203.583	n/a
173.675	10.014	ITI	Fixation+	35.303	n/a	2	n/a	n/a	n/a	n/a	n/a	n/a	n/a	n/a	n/a	n/a	204.114	n/a
183.705	0.497	angry	Picture	34.789	n/a	2	6	1	n/a	101	81	3	n/a	n/a	n/a	n/a	214.144	AF01ANS.jpg
184.203	0.514	Blank	Blank	34.275	n/a	2	6	1	n/a	101	n/a	3	n/a	n/a	n/a	n/a	214.641	n/a
184.733	0.497	angry	Picture	33.761	n/a	2	6	2	n/a	102	120	3	n/a	n/a	n/a	n/a	215.172	AM35ANS.jpg
185.231	0.514	Blank	Blank	33.247	n/a	2	6	2	n/a	102	n/a	3	n/a	n/a	n/a	n/a	215.669	n/a
185.761	0.497	angry	Picture	32.733	n/a	2	6	3	n/a	103	114	3	n/a	n/a	n/a	n/a	216.2	AM22ANS.jpg
186.258	0.514	Blank	Blank	32.219	n/a	2	6	3	n/a	103	n/a	3	n/a	n/a	n/a	n/a	216.697	n/a
186.789	0.497	angry	Picture	31.705	n/a	2	6	4	n/a	104	109	3	n/a	n/a	n/a	n/a	217.228	AM10ANS.jpg
187.286	0.514	Blank	Blank	31.191	n/a	2	6	4	n/a	104	n/a	3	n/a	n/a	n/a	n/a	217.725	n/a
187.817	0.497	angry	Picture	30.677	n/a	2	6	5	n/a	105	96	3	n/a	n/a	n/a	n/a	218.256	AF26ANS.jpg
188.314	0.514	Blank	Blank	30.163	n/a	2	6	5	n/a	105	n/a	3	n/a	n/a	n/a	n/a	218.753	n/a
188.845	0.497	angry	Picture	29.649	n/a	2	6	6	n/a	106	82	3	n/a	n/a	n/a	n/a	219.283	AF03ANS.jpg
189.342	0.514	Blank	Blank	29.135	n/a	2	6	6	n/a	106	n/a	3	n/a	n/a	n/a	n/a	219.781	n/a
189.873	0.497	angry	Picture	28.621	n/a	2	6	7	n/a	107	97	3	n/a	n/a	n/a	n/a	220.311	BF28ANS.jpg
190.37	0.514	Blank	Blank	28.107	n/a	2	6	7	n/a	107	n/a	3	n/a	n/a	n/a	n/a	220.809	n/a
190.901	0.497	angry	Picture	27.593	n/a	2	6	8	n/a	108	115	3	n/a	n/a	n/a	n/a	221.339	AM23ANS.jpg
191.398	0.514	Blank	Blank	27.079	n/a	2	6	8	n/a	108	n/a	3	n/a	n/a	n/a	n/a	221.837	n/a
191.928	0.497	angry	Picture	26.566	n/a	2	6	9	n/a	109	91	3	n/a	n/a	n/a	n/a	222.367	AF20ANS.jpg
192.426	0.514	Blank	Blank	26.052	n/a	2	6	9	n/a	109	n/a	3	n/a	n/a	n/a	n/a	222.864	n/a
192.956	0.497	angry	Picture	25.538	n/a	2	6	10	n/a	110	87	3	n/a	n/a	n/a	n/a	223.395	BF11ANS.jpg
193.454	0.514	Blank	Blank	25.024	n/a	2	6	10	n/a	110	n/a	3	n/a	n/a	n/a	n/a	223.892	n/a
193.984	0.497	angry	Picture	24.51	n/a	2	6	11	n/a	111	85	3	n/a	n/a	n/a	n/a	224.423	BF07ANS.jpg
194.482	0.514	Blank	Blank	23.996	n/a	2	6	11	n/a	111	n/a	3	n/a	n/a	n/a	n/a	224.92	n/a
195.012	0.497	angry	Picture	23.482	n/a	2	6	12	n/a	112	110	3	n/a	n/a	n/a	n/a	225.451	AM11ANS.jpg
195.51	0.514	Blank	Blank	22.968	n/a	2	6	12	n/a	112	n/a	3	n/a	n/a	n/a	n/a	225.948	n/a
196.04	0.497	angry	Picture	22.454	n/a	2	6	13	n/a	113	111	3	n/a	n/a	n/a	n/a	226.479	BM12ANS.jpg
196.537	0.514	Blank	Blank	21.94	n/a	2	6	13	n/a	113	n/a	3	n/a	n/a	n/a	n/a	226.976	n/a
197.068	0.497	angry	Picture	21.426	n/a	2	6	14	n/a	114	103	3	n/a	n/a	n/a	n/a	227.506	AM04ANS.jpg
197.565	0.514	Blank	Blank	20.912	n/a	2	6	14	n/a	114	n/a	3	n/a	n/a	n/a	n/a	228.004	n/a
198.096	0.497	angry	Picture	20.398	n/a	2	6	15	n/a	115	101	3	n/a	n/a	n/a	n/a	228.534	AM01ANS.jpg
198.593	0.514	Blank	Blank	19.884	n/a	2	6	15	n/a	115	n/a	3	n/a	n/a	n/a	n/a	229.032	n/a
199.124	0.497	angry	Picture	19.37	n/a	2	6	16	n/a	116	104	3	n/a	n/a	n/a	n/a	229.562	BM05ANS.jpg
199.621	0.514	Blank	Blank	18.856	n/a	2	6	16	n/a	116	n/a	3	n/a	n/a	n/a	n/a	230.06	n/a
200.152	0.497	angry	Picture	18.342	n/a	2	6	17	n/a	117	107	3	n/a	n/a	n/a	n/a	230.59	BM08ANS.jpg
200.649	0.514	Blank	Blank	17.828	n/a	2	6	17	n/a	117	n/a	3	n/a	n/a	n/a	n/a	231.088	n/a
201.179	0.497	angry	Picture	17.315	n/a	2	6	18	n/a	118	98	3	n/a	n/a	n/a	n/a	231.618	BF29ANS.jpg
201.677	0.514	Blank	Blank	16.801	n/a	2	6	18	n/a	118	n/a	3	n/a	n/a	n/a	n/a	232.115	n/a
202.207	0.497	angry	Picture	16.287	n/a	2	6	19	n/a	119	99	3	n/a	n/a	n/a	n/a	232.646	AF31ANS.jpg
202.705	0.514	Blank	Blank	15.773	n/a	2	6	19	n/a	119	n/a	3	n/a	n/a	n/a	n/a	233.143	n/a
203.235	0.497	angry	Picture	15.259	n/a	2	6	20	n/a	120	108	3	n/a	n/a	n/a	n/a	233.674	AM09ANS.jpg
203.733	0.514	Blank	Blank	14.745	n/a	2	6	20	n/a	120	n/a	3	n/a	n/a	n/a	n/a	234.171	n/a
204.263	10.014	ITI	Fixation+	4.715	n/a	2	n/a	n/a	n/a	n/a	n/a	n/a	n/a	n/a	n/a	n/a	234.702	n/a
218.991	n/a	ConfirmRating	Rate	n/a	4.708	2	n/a	n/a	0	n/a	n/a	n/a	2	Angry	50	50	249.43	n/a
223.119	n/a	ConfirmRating	Rate	n/a	4.111	2	n/a	n/a	1	n/a	n/a	n/a	3	Angry	50	50	253.558	n/a
223.147	15.004	Rest	Picture	n/a	n/a	n/a	n/a	n/a	n/a	n/a	n/a	n/a	0	n/a	0	0	253.585	n/a
238.167	10.014	ITI	Fixation+	95.224	n/a	3	n/a	n/a	n/a	n/a	n/a	n/a	n/a	n/a	n/a	n/a	268.606	n/a
248.197	0.497	happy	Picture	94.709	n/a	3	7	1	n/a	1	46	2	n/a	n/a	n/a	n/a	278.636	AF09HAS.jpg
248.695	0.514	Blank	Blank	94.196	n/a	3	7	1	n/a	1	n/a	2	n/a	n/a	n/a	n/a	279.133	n/a
249.225	0.497	happy	Picture	93.682	n/a	3	7	2	n/a	2	69	2	n/a	n/a	n/a	n/a	279.664	AM10HAS.jpg
249.722	0.514	Blank	Blank	93.168	n/a	3	7	2	n/a	2	n/a	2	n/a	n/a	n/a	n/a	280.161	n/a
250.253	0.497	happy	Picture	92.654	n/a	3	7	3	n/a	3	71	2	n/a	n/a	n/a	n/a	280.692	BM12HAS.jpg
250.75	0.514	Blank	Blank	92.14	n/a	3	7	3	n/a	3	n/a	2	n/a	n/a	n/a	n/a	281.189	n/a
251.281	0.497	happy	Picture	91.626	n/a	3	7	4	n/a	4	51	2	n/a	n/a	n/a	n/a	281.719	AF20HAS.jpg
251.778	0.514	Blank	Blank	91.112	n/a	3	7	4	n/a	4	n/a	2	n/a	n/a	n/a	n/a	282.217	n/a
252.309	0.497	happy	Picture	90.598	n/a	3	7	5	n/a	5	67	2	n/a	n/a	n/a	n/a	282.747	BM08HAS.jpg
252.806	0.514	Blank	Blank	90.084	n/a	3	7	5	n/a	5	n/a	2	n/a	n/a	n/a	n/a	283.245	n/a
253.337	0.497	happy	Picture	89.57	n/a	3	7	6	n/a	6	60	2	n/a	n/a	n/a	n/a	283.775	AF32HAS.jpg
253.834	0.514	Blank	Blank	89.056	n/a	3	7	6	n/a	6	n/a	2	n/a	n/a	n/a	n/a	284.273	n/a
254.364	0.497	happy	Picture	88.542	n/a	3	7	7	n/a	7	42	2	n/a	n/a	n/a	n/a	284.803	AF03HAS.jpg
254.862	0.514	Blank	Blank	88.028	n/a	3	7	7	n/a	7	n/a	2	n/a	n/a	n/a	n/a	285.3	n/a
255.392	0.497	happy	Picture	87.514	n/a	3	7	8	n/a	8	55	2	n/a	n/a	n/a	n/a	285.831	AF25HAS.jpg
255.89	0.514	Blank	Blank	87.0	n/a	3	7	8	n/a	8	n/a	2	n/a	n/a	n/a	n/a	286.328	n/a
256.42	0.497	happy	Picture	86.486	n/a	3	7	9	n/a	9	72	2	n/a	n/a	n/a	n/a	286.859	AM14HAS.jpg
256.918	0.514	Blank	Blank	85.973	n/a	3	7	9	n/a	9	n/a	2	n/a	n/a	n/a	n/a	287.356	n/a
257.448	0.497	happy	Picture	85.458	n/a	3	7	10	n/a	10	63	2	n/a	n/a	n/a	n/a	287.887	AM04HAS.jpg
257.946	0.514	Blank	Blank	84.945	n/a	3	7	10	n/a	10	n/a	2	n/a	n/a	n/a	n/a	288.384	n/a
258.476	0.497	happy	Picture	84.431	n/a	3	7	11	n/a	11	58	2	n/a	n/a	n/a	n/a	288.915	BF29HAS.jpg
258.974	0.514	Blank	Blank	83.917	n/a	3	7	11	n/a	11	n/a	2	n/a	n/a	n/a	n/a	289.412	n/a
259.504	0.497	happy	Picture	83.403	n/a	3	7	12	n/a	12	48	2	n/a	n/a	n/a	n/a	289.943	AF14HAS.jpg
260.001	0.514	Blank	Blank	82.889	n/a	3	7	12	n/a	12	n/a	2	n/a	n/a	n/a	n/a	290.44	n/a
260.532	0.497	happy	Picture	82.375	n/a	3	7	13	n/a	13	66	2	n/a	n/a	n/a	n/a	290.971	BM07HAS.jpg
261.029	0.514	Blank	Blank	81.861	n/a	3	7	13	n/a	13	n/a	2	n/a	n/a	n/a	n/a	291.468	n/a
261.56	0.497	happy	Picture	81.347	n/a	3	7	14	n/a	14	70	2	n/a	n/a	n/a	n/a	291.998	BM11HAS.jpg
262.057	0.514	Blank	Blank	80.833	n/a	3	7	14	n/a	14	n/a	2	n/a	n/a	n/a	n/a	292.496	n/a
262.588	0.497	happy	Picture	80.319	n/a	3	7	15	n/a	15	43	2	n/a	n/a	n/a	n/a	293.026	BF04HAS.jpg
263.085	0.514	Blank	Blank	79.805	n/a	3	7	15	n/a	15	n/a	2	n/a	n/a	n/a	n/a	293.524	n/a
263.615	0.497	happy	Picture	79.291	n/a	3	7	16	n/a	16	49	2	n/a	n/a	n/a	n/a	294.054	AF17HAS.jpg
264.113	0.514	Blank	Blank	78.777	n/a	3	7	16	n/a	16	n/a	2	n/a	n/a	n/a	n/a	294.551	n/a
264.643	0.497	happy	Picture	78.263	n/a	3	7	17	n/a	17	75	2	n/a	n/a	n/a	n/a	295.082	AM23HAS.jpg
265.141	0.514	Blank	Blank	77.749	n/a	3	7	17	n/a	17	n/a	2	n/a	n/a	n/a	n/a	295.579	n/a
265.671	0.497	happy	Picture	77.235	n/a	3	7	18	n/a	18	80	2	n/a	n/a	n/a	n/a	296.11	BM35HAS.jpg
266.169	0.514	Blank	Blank	76.721	n/a	3	7	18	n/a	18	n/a	2	n/a	n/a	n/a	n/a	296.607	n/a
266.699	0.497	happy	Picture	76.207	n/a	3	7	19	n/a	19	76	2	n/a	n/a	n/a	n/a	297.138	BM24HAS.jpg
267.197	0.514	Blank	Blank	75.694	n/a	3	7	19	n/a	19	n/a	2	n/a	n/a	n/a	n/a	297.635	n/a
267.727	0.497	happy	Picture	75.18	n/a	3	7	20	n/a	20	74	2	n/a	n/a	n/a	n/a	298.166	AM22HAS.jpg
268.224	0.514	Blank	Blank	74.666	n/a	3	7	20	n/a	20	n/a	2	n/a	n/a	n/a	n/a	298.663	n/a
268.755	10.014	ITI	Fixation+	64.635	n/a	3	n/a	n/a	n/a	n/a	n/a	n/a	n/a	n/a	n/a	n/a	299.194	n/a
278.785	0.497	neutral	Picture	64.121	n/a	3	8	1	n/a	21	33	1	n/a	n/a	n/a	n/a	309.224	AM21NES.jpg
279.283	0.514	Blank	Blank	63.608	n/a	3	8	1	n/a	21	n/a	1	n/a	n/a	n/a	n/a	309.721	n/a
279.813	0.497	neutral	Picture	63.094	n/a	3	8	2	n/a	22	39	1	n/a	n/a	n/a	n/a	310.252	AM28NES.jpg
280.31	0.514	Blank	Blank	62.58	n/a	3	8	2	n/a	22	n/a	1	n/a	n/a	n/a	n/a	310.749	n/a
280.841	0.497	neutral	Picture	62.066	n/a	3	8	3	n/a	23	25	1	n/a	n/a	n/a	n/a	311.28	BM06NES.jpg
281.338	0.514	Blank	Blank	61.552	n/a	3	8	3	n/a	23	n/a	1	n/a	n/a	n/a	n/a	311.777	n/a
281.869	0.497	neutral	Picture	61.038	n/a	3	8	4	n/a	24	5	1	n/a	n/a	n/a	n/a	312.308	BF07NES.jpg
282.366	0.514	Blank	Blank	60.524	n/a	3	8	4	n/a	24	n/a	1	n/a	n/a	n/a	n/a	312.805	n/a
282.897	0.497	neutral	Picture	60.01	n/a	3	8	5	n/a	25	10	1	n/a	n/a	n/a	n/a	313.335	AF18NES.jpg
283.394	0.514	Blank	Blank	59.496	n/a	3	8	5	n/a	25	n/a	1	n/a	n/a	n/a	n/a	313.833	n/a
283.925	0.497	neutral	Picture	58.982	n/a	3	8	6	n/a	26	34	1	n/a	n/a	n/a	n/a	314.363	AM22NES.jpg
284.422	0.514	Blank	Blank	58.468	n/a	3	8	6	n/a	26	n/a	1	n/a	n/a	n/a	n/a	314.861	n/a
284.952	0.497	neutral	Picture	57.954	n/a	3	8	7	n/a	27	36	1	n/a	n/a	n/a	n/a	315.391	BM24NES.jpg
285.45	0.514	Blank	Blank	57.44	n/a	3	8	7	n/a	27	n/a	1	n/a	n/a	n/a	n/a	315.889	n/a
285.98	0.497	neutral	Picture	56.926	n/a	3	8	8	n/a	28	14	1	n/a	n/a	n/a	n/a	316.419	AF23NES.jpg
286.478	0.514	Blank	Blank	56.412	n/a	3	8	8	n/a	28	n/a	1	n/a	n/a	n/a	n/a	316.916	n/a
287.008	0.497	neutral	Picture	55.898	n/a	3	8	9	n/a	29	9	1	n/a	n/a	n/a	n/a	317.447	AF17NES.jpg
287.506	0.514	Blank	Blank	55.385	n/a	3	8	9	n/a	29	n/a	1	n/a	n/a	n/a	n/a	317.944	n/a
288.036	0.497	neutral	Picture	54.87	n/a	3	8	10	n/a	30	19	1	n/a	n/a	n/a	n/a	318.475	AF31NES.jpg
288.534	0.514	Blank	Blank	54.357	n/a	3	8	10	n/a	30	n/a	1	n/a	n/a	n/a	n/a	318.972	n/a
289.064	0.497	neutral	Picture	53.843	n/a	3	8	11	n/a	31	15	1	n/a	n/a	n/a	n/a	319.503	AF25NES.jpg
289.561	0.514	Blank	Blank	53.329	n/a	3	8	11	n/a	31	n/a	1	n/a	n/a	n/a	n/a	320.0	n/a
290.092	0.497	neutral	Picture	52.815	n/a	3	8	12	n/a	32	22	1	n/a	n/a	n/a	n/a	320.531	BM03NES.jpg
290.589	0.514	Blank	Blank	52.301	n/a	3	8	12	n/a	32	n/a	1	n/a	n/a	n/a	n/a	321.028	n/a
291.12	0.497	neutral	Picture	51.787	n/a	3	8	13	n/a	33	11	1	n/a	n/a	n/a	n/a	321.558	AF20NES.jpg
291.617	0.514	Blank	Blank	51.273	n/a	3	8	13	n/a	33	n/a	1	n/a	n/a	n/a	n/a	322.056	n/a
292.148	0.497	neutral	Picture	50.759	n/a	3	8	14	n/a	34	4	1	n/a	n/a	n/a	n/a	322.586	AF05NES.jpg
292.645	0.514	Blank	Blank	50.245	n/a	3	8	14	n/a	34	n/a	1	n/a	n/a	n/a	n/a	323.084	n/a
293.176	0.497	neutral	Picture	49.731	n/a	3	8	15	n/a	35	17	1	n/a	n/a	n/a	n/a	323.614	BF28NES.jpg
293.673	0.514	Blank	Blank	49.217	n/a	3	8	15	n/a	35	n/a	1	n/a	n/a	n/a	n/a	324.112	n/a
294.204	0.497	neutral	Picture	48.703	n/a	3	8	16	n/a	36	13	1	n/a	n/a	n/a	n/a	324.642	BF22NES.jpg
294.701	0.514	Blank	Blank	48.189	n/a	3	8	16	n/a	36	n/a	1	n/a	n/a	n/a	n/a	325.139	n/a
295.231	0.497	neutral	Picture	47.675	n/a	3	8	17	n/a	37	12	1	n/a	n/a	n/a	n/a	325.67	AF21NES.jpg
295.729	0.514	Blank	Blank	47.161	n/a	3	8	17	n/a	37	n/a	1	n/a	n/a	n/a	n/a	326.167	n/a
296.259	0.497	neutral	Picture	46.647	n/a	3	8	18	n/a	38	24	1	n/a	n/a	n/a	n/a	326.698	BM05NES.jpg
296.757	0.514	Blank	Blank	46.133	n/a	3	8	18	n/a	38	n/a	1	n/a	n/a	n/a	n/a	327.195	n/a
297.287	0.497	neutral	Picture	45.619	n/a	3	8	19	n/a	39	29	1	n/a	n/a	n/a	n/a	327.726	AM10NES.jpg
297.785	0.514	Blank	Blank	45.106	n/a	3	8	19	n/a	39	n/a	1	n/a	n/a	n/a	n/a	328.223	n/a
298.315	0.497	neutral	Picture	44.592	n/a	3	8	20	n/a	40	23	1	n/a	n/a	n/a	n/a	328.754	AM04NES.jpg
298.813	0.514	Blank	Blank	44.078	n/a	3	8	20	n/a	40	n/a	1	n/a	n/a	n/a	n/a	329.251	n/a
299.343	10.014	ITI	Fixation+	34.047	n/a	3	n/a	n/a	n/a	n/a	n/a	n/a	n/a	n/a	n/a	n/a	329.782	n/a
309.373	0.497	happy	Picture	33.533	n/a	3	9	1	n/a	41	62	2	n/a	n/a	n/a	n/a	339.812	BM03HAS.jpg
309.871	0.514	Blank	Blank	33.02	n/a	3	9	1	n/a	41	n/a	2	n/a	n/a	n/a	n/a	340.309	n/a
310.401	0.497	happy	Picture	32.506	n/a	3	9	2	n/a	42	52	2	n/a	n/a	n/a	n/a	340.84	AF21HAS.jpg
310.899	0.514	Blank	Blank	31.992	n/a	3	9	2	n/a	42	n/a	2	n/a	n/a	n/a	n/a	341.337	n/a
311.429	0.497	happy	Picture	31.478	n/a	3	9	3	n/a	43	44	2	n/a	n/a	n/a	n/a	341.868	AF05HAS.jpg
311.926	0.514	Blank	Blank	30.964	n/a	3	9	3	n/a	43	n/a	2	n/a	n/a	n/a	n/a	342.365	n/a
312.457	0.497	happy	Picture	30.45	n/a	3	9	4	n/a	44	53	2	n/a	n/a	n/a	n/a	342.896	BF22HAS.jpg
312.954	0.514	Blank	Blank	29.936	n/a	3	9	4	n/a	44	n/a	2	n/a	n/a	n/a	n/a	343.393	n/a
313.485	0.497	happy	Picture	29.422	n/a	3	9	5	n/a	45	54	2	n/a	n/a	n/a	n/a	343.923	AF23HAS.jpg
313.982	0.514	Blank	Blank	28.908	n/a	3	9	5	n/a	45	n/a	2	n/a	n/a	n/a	n/a	344.421	n/a
314.513	0.497	happy	Picture	28.394	n/a	3	9	6	n/a	46	68	2	n/a	n/a	n/a	n/a	344.951	AM09HAS.jpg
315.01	0.514	Blank	Blank	27.88	n/a	3	9	6	n/a	46	n/a	2	n/a	n/a	n/a	n/a	345.449	n/a
315.541	0.497	happy	Picture	27.366	n/a	3	9	7	n/a	47	64	2	n/a	n/a	n/a	n/a	345.979	BM05HAS.jpg
316.038	0.514	Blank	Blank	26.852	n/a	3	9	7	n/a	47	n/a	2	n/a	n/a	n/a	n/a	346.476	n/a
316.568	0.497	happy	Picture	26.338	n/a	3	9	8	n/a	48	59	2	n/a	n/a	n/a	n/a	347.007	AF31HAS.jpg
317.066	0.514	Blank	Blank	25.824	n/a	3	9	8	n/a	48	n/a	2	n/a	n/a	n/a	n/a	347.504	n/a
317.596	0.497	happy	Picture	25.31	n/a	3	9	9	n/a	49	41	2	n/a	n/a	n/a	n/a	348.035	AF01HAS.jpg
318.094	0.514	Blank	Blank	24.796	n/a	3	9	9	n/a	49	n/a	2	n/a	n/a	n/a	n/a	348.532	n/a
318.624	0.497	happy	Picture	24.282	n/a	3	9	10	n/a	50	73	2	n/a	n/a	n/a	n/a	349.063	AM21HAS.jpg
319.122	0.514	Blank	Blank	23.768	n/a	3	9	10	n/a	50	n/a	2	n/a	n/a	n/a	n/a	349.56	n/a
319.652	0.497	happy	Picture	23.255	n/a	3	9	11	n/a	51	65	2	n/a	n/a	n/a	n/a	350.091	BM06HAS.jpg
320.149	0.514	Blank	Blank	22.741	n/a	3	9	11	n/a	51	n/a	2	n/a	n/a	n/a	n/a	350.588	n/a
320.68	0.497	happy	Picture	22.227	n/a	3	9	12	n/a	52	56	2	n/a	n/a	n/a	n/a	351.119	AF26HAS.jpg
321.177	0.514	Blank	Blank	21.713	n/a	3	9	12	n/a	52	n/a	2	n/a	n/a	n/a	n/a	351.616	n/a
321.708	0.497	happy	Picture	21.199	n/a	3	9	13	n/a	53	45	2	n/a	n/a	n/a	n/a	352.147	BF07HAS.jpg
322.205	0.514	Blank	Blank	20.685	n/a	3	9	13	n/a	53	n/a	2	n/a	n/a	n/a	n/a	352.644	n/a
322.736	0.497	happy	Picture	20.171	n/a	3	9	14	n/a	54	78	2	n/a	n/a	n/a	n/a	353.174	BM26HAS.jpg
323.233	0.514	Blank	Blank	19.657	n/a	3	9	14	n/a	54	n/a	2	n/a	n/a	n/a	n/a	353.672	n/a
323.764	0.497	happy	Picture	19.143	n/a	3	9	15	n/a	55	50	2	n/a	n/a	n/a	n/a	354.202	AF18HAS.jpg
324.261	0.514	Blank	Blank	18.629	n/a	3	9	15	n/a	55	n/a	2	n/a	n/a	n/a	n/a	354.7	n/a
324.792	0.497	happy	Picture	18.115	n/a	3	9	16	n/a	56	47	2	n/a	n/a	n/a	n/a	355.23	BF11HAS.jpg
325.289	0.514	Blank	Blank	17.601	n/a	3	9	16	n/a	56	n/a	2	n/a	n/a	n/a	n/a	355.728	n/a
325.82	0.497	happy	Picture	17.087	n/a	3	9	17	n/a	57	77	2	n/a	n/a	n/a	n/a	356.258	BM25HAS.jpg
326.317	0.514	Blank	Blank	16.573	n/a	3	9	17	n/a	57	n/a	2	n/a	n/a	n/a	n/a	356.755	n/a
326.847	0.497	happy	Picture	16.059	n/a	3	9	18	n/a	58	57	2	n/a	n/a	n/a	n/a	357.286	BF28HAS.jpg
327.345	0.514	Blank	Blank	15.545	n/a	3	9	18	n/a	58	n/a	2	n/a	n/a	n/a	n/a	357.783	n/a
327.875	0.497	happy	Picture	15.031	n/a	3	9	19	n/a	59	61	2	n/a	n/a	n/a	n/a	358.314	AM01HAS.jpg
328.373	0.514	Blank	Blank	14.517	n/a	3	9	19	n/a	59	n/a	2	n/a	n/a	n/a	n/a	358.811	n/a
328.903	0.497	happy	Picture	14.004	n/a	3	9	20	n/a	60	79	2	n/a	n/a	n/a	n/a	359.342	BM28HAS.jpg
329.4	0.514	Blank	Blank	13.49	n/a	3	9	20	n/a	60	n/a	2	n/a	n/a	n/a	n/a	359.839	n/a
329.931	10.014	ITI	Fixation+	3.459	n/a	3	n/a	n/a	n/a	n/a	n/a	n/a	n/a	n/a	n/a	n/a	360.37	n/a
343.404	n/a	ConfirmRating	Rate	n/a	3.449	3	n/a	n/a	0	n/a	n/a	n/a	2	Happy	62	51	373.843	n/a
348.221	n/a	ConfirmRating	Rate	n/a	4.808	3	n/a	n/a	1	n/a	n/a	n/a	3	Happy	50	50	378.66	n/a
348.251	10.014	ITI	Fixation+	94.408	n/a	4	n/a	n/a	n/a	n/a	n/a	n/a	n/a	n/a	n/a	n/a	378.689	n/a
358.281	0.497	angry	Picture	93.894	n/a	4	10	1	n/a	61	119	3	n/a	n/a	n/a	n/a	388.719	BM28ANS.jpg
358.778	0.514	Blank	Blank	93.38	n/a	4	10	1	n/a	61	n/a	3	n/a	n/a	n/a	n/a	389.217	n/a
359.309	0.497	angry	Picture	92.866	n/a	4	10	2	n/a	62	100	3	n/a	n/a	n/a	n/a	389.747	AF32ANS.jpg
359.806	0.514	Blank	Blank	92.352	n/a	4	10	2	n/a	62	n/a	3	n/a	n/a	n/a	n/a	390.245	n/a
360.337	0.497	angry	Picture	91.838	n/a	4	10	3	n/a	63	118	3	n/a	n/a	n/a	n/a	390.775	BM26ANS.jpg
360.834	0.514	Blank	Blank	91.324	n/a	4	10	3	n/a	63	n/a	3	n/a	n/a	n/a	n/a	391.273	n/a
361.365	0.497	angry	Picture	90.81	n/a	4	10	4	n/a	64	89	3	n/a	n/a	n/a	n/a	391.803	AF17ANS.jpg
361.862	0.514	Blank	Blank	90.296	n/a	4	10	4	n/a	64	n/a	3	n/a	n/a	n/a	n/a	392.3	n/a
362.392	0.497	angry	Picture	89.782	n/a	4	10	5	n/a	65	116	3	n/a	n/a	n/a	n/a	392.831	BM24ANS.jpg
362.89	0.514	Blank	Blank	89.268	n/a	4	10	5	n/a	65	n/a	3	n/a	n/a	n/a	n/a	393.328	n/a
363.42	0.497	angry	Picture	88.754	n/a	4	10	6	n/a	66	105	3	n/a	n/a	n/a	n/a	393.859	BM06ANS.jpg
363.918	0.514	Blank	Blank	88.24	n/a	4	10	6	n/a	66	n/a	3	n/a	n/a	n/a	n/a	394.356	n/a
364.448	0.497	angry	Picture	87.726	n/a	4	10	7	n/a	67	106	3	n/a	n/a	n/a	n/a	394.887	AM07ANS.jpg
364.946	0.514	Blank	Blank	87.212	n/a	4	10	7	n/a	67	n/a	3	n/a	n/a	n/a	n/a	395.384	n/a
365.476	0.497	angry	Picture	86.698	n/a	4	10	8	n/a	68	94	3	n/a	n/a	n/a	n/a	395.915	AF23ANS.jpg
365.974	0.514	Blank	Blank	86.185	n/a	4	10	8	n/a	68	n/a	3	n/a	n/a	n/a	n/a	396.412	n/a
366.504	0.497	angry	Picture	85.671	n/a	4	10	9	n/a	69	117	3	n/a	n/a	n/a	n/a	396.943	BM25ANS.jpg
367.001	0.514	Blank	Blank	85.157	n/a	4	10	9	n/a	69	n/a	3	n/a	n/a	n/a	n/a	397.44	n/a
367.532	0.497	angry	Picture	84.643	n/a	4	10	10	n/a	70	90	3	n/a	n/a	n/a	n/a	397.971	AF18ANS.jpg
368.029	0.514	Blank	Blank	84.129	n/a	4	10	10	n/a	70	n/a	3	n/a	n/a	n/a	n/a	398.468	n/a
368.56	0.497	angry	Picture	83.615	n/a	4	10	11	n/a	71	83	3	n/a	n/a	n/a	n/a	398.998	BF04ANS.jpg
369.057	0.514	Blank	Blank	83.101	n/a	4	10	11	n/a	71	n/a	3	n/a	n/a	n/a	n/a	399.496	n/a
369.588	0.497	angry	Picture	82.587	n/a	4	10	12	n/a	72	112	3	n/a	n/a	n/a	n/a	400.026	AM14ANS.jpg
370.085	0.514	Blank	Blank	82.073	n/a	4	10	12	n/a	72	n/a	3	n/a	n/a	n/a	n/a	400.524	n/a
370.616	0.497	angry	Picture	81.559	n/a	4	10	13	n/a	73	102	3	n/a	n/a	n/a	n/a	401.054	BM03ANS.jpg
371.113	0.514	Blank	Blank	81.045	n/a	4	10	13	n/a	73	n/a	3	n/a	n/a	n/a	n/a	401.551	n/a
371.644	0.497	angry	Picture	80.531	n/a	4	10	14	n/a	74	95	3	n/a	n/a	n/a	n/a	402.082	AF25ANS.jpg
372.141	0.514	Blank	Blank	80.017	n/a	4	10	14	n/a	74	n/a	3	n/a	n/a	n/a	n/a	402.579	n/a
372.671	0.497	angry	Picture	79.503	n/a	4	10	15	n/a	75	113	3	n/a	n/a	n/a	n/a	403.11	AM21ANS.jpg
373.169	0.514	Blank	Blank	78.989	n/a	4	10	15	n/a	75	n/a	3	n/a	n/a	n/a	n/a	403.607	n/a
373.699	0.497	angry	Picture	78.475	n/a	4	10	16	n/a	76	88	3	n/a	n/a	n/a	n/a	404.138	AF14ANS.jpg
374.197	0.514	Blank	Blank	77.961	n/a	4	10	16	n/a	76	n/a	3	n/a	n/a	n/a	n/a	404.635	n/a
374.727	0.497	angry	Picture	77.447	n/a	4	10	17	n/a	77	93	3	n/a	n/a	n/a	n/a	405.166	BF22ANS.jpg
375.224	0.514	Blank	Blank	76.933	n/a	4	10	17	n/a	77	n/a	3	n/a	n/a	n/a	n/a	405.663	n/a
375.755	0.497	angry	Picture	76.42	n/a	4	10	18	n/a	78	86	3	n/a	n/a	n/a	n/a	406.194	AF09ANS.jpg
376.252	0.514	Blank	Blank	75.906	n/a	4	10	18	n/a	78	n/a	3	n/a	n/a	n/a	n/a	406.691	n/a
376.783	0.497	angry	Picture	75.392	n/a	4	10	19	n/a	79	92	3	n/a	n/a	n/a	n/a	407.221	AF21ANS.jpg
377.28	0.514	Blank	Blank	74.878	n/a	4	10	19	n/a	79	n/a	3	n/a	n/a	n/a	n/a	407.719	n/a
377.811	0.497	angry	Picture	74.364	n/a	4	10	20	n/a	80	84	3	n/a	n/a	n/a	n/a	408.249	AF05ANS.jpg
378.308	0.514	Blank	Blank	73.85	n/a	4	10	20	n/a	80	n/a	3	n/a	n/a	n/a	n/a	408.747	n/a
378.839	10.014	ITI	Fixation+	63.82	n/a	4	n/a	n/a	n/a	n/a	n/a	n/a	n/a	n/a	n/a	n/a	409.277	n/a
388.869	0.497	neutral	Picture	63.306	n/a	4	11	1	n/a	81	4	1	n/a	n/a	n/a	n/a	419.308	AF05NES.jpg
389.366	0.514	Blank	Blank	62.792	n/a	4	11	1	n/a	81	n/a	1	n/a	n/a	n/a	n/a	419.805	n/a
389.897	0.497	neutral	Picture	62.278	n/a	4	11	2	n/a	82	14	1	n/a	n/a	n/a	n/a	420.335	AF23NES.jpg
390.394	0.514	Blank	Blank	61.764	n/a	4	11	2	n/a	82	n/a	1	n/a	n/a	n/a	n/a	420.833	n/a
390.925	0.497	neutral	Picture	61.25	n/a	4	11	3	n/a	83	19	1	n/a	n/a	n/a	n/a	421.363	AF31NES.jpg
391.422	0.514	Blank	Blank	60.736	n/a	4	11	3	n/a	83	n/a	1	n/a	n/a	n/a	n/a	421.861	n/a
391.953	0.497	neutral	Picture	60.222	n/a	4	11	4	n/a	84	8	1	n/a	n/a	n/a	n/a	422.391	AF14NES.jpg
392.45	0.514	Blank	Blank	59.708	n/a	4	11	4	n/a	84	n/a	1	n/a	n/a	n/a	n/a	422.889	n/a
392.981	0.497	neutral	Picture	59.194	n/a	4	11	5	n/a	85	25	1	n/a	n/a	n/a	n/a	423.419	BM06NES.jpg
393.478	0.514	Blank	Blank	58.68	n/a	4	11	5	n/a	85	n/a	1	n/a	n/a	n/a	n/a	423.916	n/a
394.008	0.497	neutral	Picture	58.166	n/a	4	11	6	n/a	86	9	1	n/a	n/a	n/a	n/a	424.447	AF17NES.jpg
394.506	0.514	Blank	Blank	57.652	n/a	4	11	6	n/a	86	n/a	1	n/a	n/a	n/a	n/a	424.944	n/a
395.036	0.497	neutral	Picture	57.138	n/a	4	11	7	n/a	87	2	1	n/a	n/a	n/a	n/a	425.475	AF03NES.jpg
395.534	0.514	Blank	Blank	56.624	n/a	4	11	7	n/a	87	n/a	1	n/a	n/a	n/a	n/a	425.972	n/a
396.064	0.497	neutral	Picture	56.111	n/a	4	11	8	n/a	88	17	1	n/a	n/a	n/a	n/a	426.503	BF28NES.jpg
396.561	0.514	Blank	Blank	55.596	n/a	4	11	8	n/a	88	n/a	1	n/a	n/a	n/a	n/a	427.0	n/a
397.092	0.497	neutral	Picture	55.083	n/a	4	11	9	n/a	89	6	1	n/a	n/a	n/a	n/a	427.531	AF09NES.jpg
397.589	0.514	Blank	Blank	54.569	n/a	4	11	9	n/a	89	n/a	1	n/a	n/a	n/a	n/a	428.028	n/a
398.12	0.497	neutral	Picture	54.055	n/a	4	11	10	n/a	90	12	1	n/a	n/a	n/a	n/a	428.558	AF21NES.jpg
398.617	0.514	Blank	Blank	53.541	n/a	4	11	10	n/a	90	n/a	1	n/a	n/a	n/a	n/a	429.056	n/a
399.148	0.497	neutral	Picture	53.027	n/a	4	11	11	n/a	91	24	1	n/a	n/a	n/a	n/a	429.586	BM05NES.jpg
399.645	0.514	Blank	Blank	52.513	n/a	4	11	11	n/a	91	n/a	1	n/a	n/a	n/a	n/a	430.084	n/a
400.176	0.497	neutral	Picture	51.999	n/a	4	11	12	n/a	92	34	1	n/a	n/a	n/a	n/a	430.614	AM22NES.jpg
400.673	0.514	Blank	Blank	51.485	n/a	4	11	12	n/a	92	n/a	1	n/a	n/a	n/a	n/a	431.112	n/a
401.204	0.497	neutral	Picture	50.971	n/a	4	11	13	n/a	93	23	1	n/a	n/a	n/a	n/a	431.642	AM04NES.jpg
401.701	0.514	Blank	Blank	50.457	n/a	4	11	13	n/a	93	n/a	1	n/a	n/a	n/a	n/a	432.14	n/a
402.231	0.497	neutral	Picture	49.943	n/a	4	11	14	n/a	94	15	1	n/a	n/a	n/a	n/a	432.67	AF25NES.jpg
402.729	0.514	Blank	Blank	49.429	n/a	4	11	14	n/a	94	n/a	1	n/a	n/a	n/a	n/a	433.168	n/a
403.259	0.497	neutral	Picture	48.915	n/a	4	11	15	n/a	95	37	1	n/a	n/a	n/a	n/a	433.698	BM25NES.jpg
403.757	0.514	Blank	Blank	48.401	n/a	4	11	15	n/a	95	n/a	1	n/a	n/a	n/a	n/a	434.195	n/a
404.287	0.497	neutral	Picture	47.887	n/a	4	11	16	n/a	96	32	1	n/a	n/a	n/a	n/a	434.726	AM14NES.jpg
404.785	0.514	Blank	Blank	47.373	n/a	4	11	16	n/a	96	n/a	1	n/a	n/a	n/a	n/a	435.223	n/a
405.315	0.497	neutral	Picture	46.859	n/a	4	11	17	n/a	97	3	1	n/a	n/a	n/a	n/a	435.754	BF04NES.jpg
405.813	0.514	Blank	Blank	46.345	n/a	4	11	17	n/a	97	n/a	1	n/a	n/a	n/a	n/a	436.251	n/a
406.343	0.497	neutral	Picture	45.832	n/a	4	11	18	n/a	98	16	1	n/a	n/a	n/a	n/a	436.782	AF26NES.jpg
406.84	0.514	Blank	Blank	45.318	n/a	4	11	18	n/a	98	n/a	1	n/a	n/a	n/a	n/a	437.279	n/a
407.371	0.497	neutral	Picture	44.804	n/a	4	11	19	n/a	99	27	1	n/a	n/a	n/a	n/a	437.81	BM08NES.jpg
407.868	0.514	Blank	Blank	44.29	n/a	4	11	19	n/a	99	n/a	1	n/a	n/a	n/a	n/a	438.307	n/a
408.399	0.497	neutral	Picture	43.776	n/a	4	11	20	n/a	100	28	1	n/a	n/a	n/a	n/a	438.837	AM09NES.jpg
408.896	0.514	Blank	Blank	43.262	n/a	4	11	20	n/a	100	n/a	1	n/a	n/a	n/a	n/a	439.335	n/a
409.427	10.014	ITI	Fixation+	33.232	n/a	4	n/a	n/a	n/a	n/a	n/a	n/a	n/a	n/a	n/a	n/a	439.865	n/a
419.457	0.497	angry	Picture	32.718	n/a	4	12	1	n/a	101	81	3	n/a	n/a	n/a	n/a	449.896	AF01ANS.jpg
419.954	0.514	Blank	Blank	32.204	n/a	4	12	1	n/a	101	n/a	3	n/a	n/a	n/a	n/a	450.393	n/a
420.485	0.497	angry	Picture	31.69	n/a	4	12	2	n/a	102	120	3	n/a	n/a	n/a	n/a	450.923	AM35ANS.jpg
420.982	0.514	Blank	Blank	31.176	n/a	4	12	2	n/a	102	n/a	3	n/a	n/a	n/a	n/a	451.421	n/a
421.513	0.497	angry	Picture	30.662	n/a	4	12	3	n/a	103	114	3	n/a	n/a	n/a	n/a	451.951	AM22ANS.jpg
422.01	0.514	Blank	Blank	30.148	n/a	4	12	3	n/a	103	n/a	3	n/a	n/a	n/a	n/a	452.449	n/a
422.541	0.497	angry	Picture	29.634	n/a	4	12	4	n/a	104	109	3	n/a	n/a	n/a	n/a	452.979	AM10ANS.jpg
423.038	0.514	Blank	Blank	29.12	n/a	4	12	4	n/a	104	n/a	3	n/a	n/a	n/a	n/a	453.477	n/a
423.568	0.497	angry	Picture	28.606	n/a	4	12	5	n/a	105	96	3	n/a	n/a	n/a	n/a	454.007	AF26ANS.jpg
424.066	0.514	Blank	Blank	28.092	n/a	4	12	5	n/a	105	n/a	3	n/a	n/a	n/a	n/a	454.505	n/a
424.596	0.497	angry	Picture	27.578	n/a	4	12	6	n/a	106	82	3	n/a	n/a	n/a	n/a	455.035	AF03ANS.jpg
425.094	0.514	Blank	Blank	27.064	n/a	4	12	6	n/a	106	n/a	3	n/a	n/a	n/a	n/a	455.532	n/a
425.624	0.497	angry	Picture	26.55	n/a	4	12	7	n/a	107	97	3	n/a	n/a	n/a	n/a	456.063	BF28ANS.jpg
426.122	0.514	Blank	Blank	26.036	n/a	4	12	7	n/a	107	n/a	3	n/a	n/a	n/a	n/a	456.56	n/a
426.652	0.497	angry	Picture	25.522	n/a	4	12	8	n/a	108	115	3	n/a	n/a	n/a	n/a	457.091	AM23ANS.jpg
427.149	0.514	Blank	Blank	25.008	n/a	4	12	8	n/a	108	n/a	3	n/a	n/a	n/a	n/a	457.588	n/a
427.68	0.497	angry	Picture	24.495	n/a	4	12	9	n/a	109	91	3	n/a	n/a	n/a	n/a	458.119	AF20ANS.jpg
428.177	0.514	Blank	Blank	23.981	n/a	4	12	9	n/a	109	n/a	3	n/a	n/a	n/a	n/a	458.616	n/a
428.708	0.497	angry	Picture	23.467	n/a	4	12	10	n/a	110	87	3	n/a	n/a	n/a	n/a	459.147	BF11ANS.jpg
429.205	0.514	Blank	Blank	22.953	n/a	4	12	10	n/a	110	n/a	3	n/a	n/a	n/a	n/a	459.644	n/a
429.736	0.497	angry	Picture	22.439	n/a	4	12	11	n/a	111	85	3	n/a	n/a	n/a	n/a	460.174	BF07ANS.jpg
430.233	0.514	Blank	Blank	21.925	n/a	4	12	11	n/a	111	n/a	3	n/a	n/a	n/a	n/a	460.672	n/a
430.764	0.497	angry	Picture	21.411	n/a	4	12	12	n/a	112	110	3	n/a	n/a	n/a	n/a	461.202	AM11ANS.jpg
431.261	0.514	Blank	Blank	20.897	n/a	4	12	12	n/a	112	n/a	3	n/a	n/a	n/a	n/a	461.7	n/a
431.792	0.497	angry	Picture	20.383	n/a	4	12	13	n/a	113	111	3	n/a	n/a	n/a	n/a	462.23	BM12ANS.jpg
432.289	0.514	Blank	Blank	19.869	n/a	4	12	13	n/a	113	n/a	3	n/a	n/a	n/a	n/a	462.728	n/a
432.82	0.497	angry	Picture	19.355	n/a	4	12	14	n/a	114	103	3	n/a	n/a	n/a	n/a	463.258	AM04ANS.jpg
433.317	0.514	Blank	Blank	18.841	n/a	4	12	14	n/a	114	n/a	3	n/a	n/a	n/a	n/a	463.755	n/a
433.847	0.497	angry	Picture	18.327	n/a	4	12	15	n/a	115	101	3	n/a	n/a	n/a	n/a	464.286	AM01ANS.jpg
434.345	0.514	Blank	Blank	17.813	n/a	4	12	15	n/a	115	n/a	3	n/a	n/a	n/a	n/a	464.783	n/a
434.875	0.497	angry	Picture	17.299	n/a	4	12	16	n/a	116	104	3	n/a	n/a	n/a	n/a	465.314	BM05ANS.jpg
435.373	0.514	Blank	Blank	16.785	n/a	4	12	16	n/a	116	n/a	3	n/a	n/a	n/a	n/a	465.811	n/a
435.903	0.497	angry	Picture	16.271	n/a	4	12	17	n/a	117	107	3	n/a	n/a	n/a	n/a	466.342	BM08ANS.jpg
436.401	0.514	Blank	Blank	15.757	n/a	4	12	17	n/a	117	n/a	3	n/a	n/a	n/a	n/a	466.839	n/a
436.931	0.497	angry	Picture	15.244	n/a	4	12	18	n/a	118	98	3	n/a	n/a	n/a	n/a	467.37	BF29ANS.jpg
437.428	0.514	Blank	Blank	14.73	n/a	4	12	18	n/a	118	n/a	3	n/a	n/a	n/a	n/a	467.867	n/a
437.959	0.497	angry	Picture	14.216	n/a	4	12	19	n/a	119	99	3	n/a	n/a	n/a	n/a	468.398	AF31ANS.jpg
438.456	0.514	Blank	Blank	13.702	n/a	4	12	19	n/a	119	n/a	3	n/a	n/a	n/a	n/a	468.895	n/a
438.987	0.497	angry	Picture	13.188	n/a	4	12	20	n/a	120	108	3	n/a	n/a	n/a	n/a	469.425	AM09ANS.jpg
439.484	0.514	Blank	Blank	12.674	n/a	4	12	20	n/a	120	n/a	3	n/a	n/a	n/a	n/a	469.923	n/a
440.015	10.014	ITI	Fixation+	2.644	n/a	4	n/a	n/a	n/a	n/a	n/a	n/a	n/a	n/a	n/a	n/a	470.453	n/a
452.672	n/a	ConfirmRating	Rate	n/a	2.636	4	n/a	n/a	0	n/a	n/a	n/a	2	Angry	50	50	483.111	n/a
461.278	n/a	ConfirmRating	Rate	n/a	8.588	4	n/a	n/a	1	n/a	n/a	n/a	3	Angry	34	49	491.716	n/a
