onset	duration	trial_type	trial_number	event_type	cue_to_participant	stimulus_type	time_until_response	rated_success_of_regulation	onset_uncorrected
0.004	10.014	Instruction	-1	Picture	Instruction	n/a	n/a	n/a	29.903
10.034	5.007	ITI	0	Picture	Fixation+	1	11.503	n/a	39.933
15.058	2.006	Cue	0	Picture	Maintain	1	9.48	n/a	44.956
17.064	4.99	Pic	0	Picture	IAPS_26	1	4.49	n/a	46.962
22.054	2.006	Blank	0	Picture	BLANK	1	2.484	n/a	51.953
26.544	n/a	ConfirmRating	0	Response	n/a	1	n/a	7	56.442
26.563	6.002	ITI	1	Picture	Fixation+	2	10.39	n/a	56.462
32.581	2.006	Cue	1	Picture	Enhance	2	8.367	n/a	62.48
34.587	4.99	Pic	1	Picture	IAPS_36	2	3.377	n/a	64.486
39.578	2.006	Blank	1	Picture	BLANK	2	1.371	n/a	69.476
42.954	n/a	ConfirmRating	1	Response	n/a	2	n/a	7	72.853
42.976	4.012	ITI	2	Picture	Fixation+	3	10.614	n/a	72.875
47.005	2.006	Cue	2	Picture	Suppress	3	8.591	n/a	76.903
49.011	4.99	Pic	2	Picture	IAPS_01	3	3.601	n/a	78.909
54.001	2.006	Blank	2	Picture	BLANK	3	1.595	n/a	83.9
57.602	n/a	ConfirmRating	2	Response	n/a	3	n/a	7	87.501
57.632	5.007	ITI	3	Picture	Fixation+	4	10.72	n/a	87.531
62.655	2.006	Cue	3	Picture	Maintain	4	8.698	n/a	92.554
64.661	4.99	Pic	3	Picture	IAPS_46	4	3.707	n/a	94.56
69.651	2.006	Blank	3	Picture	BLANK	4	1.701	n/a	99.55
73.359	n/a	ConfirmRating	3	Response	n/a	4	n/a	7	103.258
73.382	5.007	ITI	4	Picture	Fixation+	4	10.526	n/a	103.28
78.405	2.006	Cue	4	Picture	Maintain	4	8.504	n/a	108.304
80.411	4.99	Pic	4	Picture	IAPS_49	4	3.513	n/a	110.31
85.401	2.006	Blank	4	Picture	BLANK	4	1.507	n/a	115.3
88.915	n/a	ConfirmRating	4	Response	n/a	4	n/a	7	118.813
88.933	6.002	ITI	5	Picture	Fixation+	2	11.138	n/a	118.831
94.951	2.006	Cue	5	Picture	Enhance	2	9.115	n/a	124.849
96.957	4.99	Pic	5	Picture	IAPS_37	2	4.125	n/a	126.855
101.947	2.006	Blank	5	Picture	BLANK	2	2.119	n/a	131.845
106.072	n/a	ConfirmRating	5	Response	n/a	2	n/a	6	135.97
106.092	4.012	ITI	6	Picture	Fixation+	1	12.237	n/a	135.99
110.12	2.006	Cue	6	Picture	Maintain	1	10.214	n/a	140.019
112.126	4.99	Pic	6	Picture	IAPS_27	1	5.224	n/a	142.025
117.116	2.006	Blank	6	Picture	BLANK	1	3.218	n/a	147.015
122.34	n/a	ConfirmRating	6	Response	n/a	1	n/a	7	152.239
122.372	6.002	ITI	7	Picture	Fixation+	3	10.661	n/a	152.271
128.39	2.006	Cue	7	Picture	Suppress	3	8.638	n/a	158.289
130.396	4.99	Pic	7	Picture	IAPS_02	3	3.648	n/a	160.295
135.386	2.006	Blank	7	Picture	BLANK	3	1.642	n/a	165.285
139.034	n/a	ConfirmRating	7	Response	n/a	3	n/a	7	168.933
139.067	5.007	ITI	8	Picture	Fixation+	4	10.387	n/a	168.965
144.09	2.006	Cue	8	Picture	Maintain	4	8.365	n/a	173.989
146.096	4.99	Pic	8	Picture	IAPS_52	4	3.374	n/a	175.995
151.086	2.006	Blank	8	Picture	BLANK	4	1.368	n/a	180.985
154.461	n/a	ConfirmRating	8	Response	n/a	4	n/a	7	184.359
154.485	6.002	ITI	9	Picture	Fixation+	1	10.428	n/a	184.384
160.503	2.006	Cue	9	Picture	Maintain	1	8.405	n/a	190.402
162.509	4.99	Pic	9	Picture	IAPS_28	1	3.415	n/a	192.408
167.499	2.006	Blank	9	Picture	BLANK	1	1.409	n/a	197.398
170.915	0.017	ConfirmRating	9	Response	n/a	1	-0.017	7	200.813
170.948	5.007	ITI	10	Picture	Fixation+	2	10.77	n/a	200.846
175.971	2.006	Cue	10	Picture	Enhance	2	8.747	n/a	205.87
177.977	4.99	Pic	10	Picture	IAPS_38	2	3.757	n/a	207.876
182.967	2.006	Blank	10	Picture	BLANK	2	1.751	n/a	212.866
186.724	n/a	ConfirmRating	10	Response	n/a	2	n/a	7	216.623
186.747	4.012	ITI	11	Picture	Fixation+	3	11.571	n/a	216.646
190.776	2.006	Cue	11	Picture	Suppress	3	9.548	n/a	220.674
192.782	4.99	Pic	11	Picture	IAPS_03	3	4.558	n/a	222.68
197.772	2.006	Blank	11	Picture	BLANK	3	2.552	n/a	227.671
202.33	n/a	ConfirmRating	11	Response	n/a	3	n/a	7	232.229
202.348	6.002	ITI	12	Picture	Fixation+	2	10.085	n/a	232.246
208.366	2.006	Cue	12	Picture	Enhance	2	8.062	n/a	238.265
210.372	4.99	Pic	12	Picture	IAPS_39	2	3.072	n/a	240.271
215.362	2.006	Blank	12	Picture	BLANK	2	1.066	n/a	245.261
218.434	n/a	ConfirmRating	12	Response	n/a	2	n/a	5	248.333
218.462	5.007	ITI	13	Picture	Fixation+	1	10.356	n/a	248.361
223.486	2.006	Cue	13	Picture	Maintain	1	8.333	n/a	253.384
225.492	4.99	Pic	13	Picture	IAPS_29	1	3.343	n/a	255.39
230.482	2.006	Blank	13	Picture	BLANK	1	1.337	n/a	260.381
233.825	n/a	ConfirmRating	13	Response	n/a	1	n/a	7	263.723
233.848	4.012	ITI	14	Picture	Fixation+	4	10.905	n/a	263.746
237.876	2.006	Cue	14	Picture	Maintain	4	8.882	n/a	267.775
239.882	4.99	Pic	14	Picture	IAPS_55	4	3.892	n/a	269.781
244.872	2.006	Blank	14	Picture	BLANK	4	1.886	n/a	274.771
248.764	n/a	ConfirmRating	14	Response	n/a	4	n/a	7	278.663
248.785	5.007	ITI	15	Picture	Fixation+	3	10.574	n/a	278.684
253.808	2.006	Cue	15	Picture	Suppress	3	8.552	n/a	283.707
255.814	4.99	Pic	15	Picture	IAPS_04	3	3.562	n/a	285.713
260.805	2.006	Blank	15	Picture	BLANK	3	1.556	n/a	290.703
264.366	n/a	ConfirmRating	15	Response	n/a	3	n/a	7	294.265
264.386	6.002	ITI	16	Picture	Fixation+	2	9.889	n/a	294.284
270.404	2.006	Cue	16	Picture	Enhance	2	7.866	n/a	300.302
272.41	4.99	Pic	16	Picture	IAPS_40	2	2.876	n/a	302.308
277.4	2.006	Blank	16	Picture	BLANK	2	0.87	n/a	307.298
280.276	n/a	ConfirmRating	16	Response	n/a	2	n/a	6	310.175
280.301	6.002	ITI	17	Picture	Fixation+	1	10.208	n/a	310.2
286.319	2.006	Cue	17	Picture	Maintain	1	8.186	n/a	316.218
288.325	4.99	Pic	17	Picture	IAPS_30	1	3.195	n/a	318.224
293.315	2.006	Blank	17	Picture	BLANK	1	1.189	n/a	323.214
296.511	n/a	ConfirmRating	17	Response	n/a	1	n/a	7	326.409
296.532	4.012	ITI	18	Picture	Fixation+	3	11.273	n/a	326.43
300.56	2.006	Cue	18	Picture	Suppress	3	9.25	n/a	330.459
302.567	4.99	Pic	18	Picture	IAPS_05	3	4.26	n/a	332.465
307.557	2.006	Blank	18	Picture	BLANK	3	2.254	n/a	337.455
311.817	n/a	ConfirmRating	18	Response	n/a	3	n/a	6	341.715
311.834	5.007	ITI	19	Picture	Fixation+	4	10.553	n/a	341.733
316.857	2.006	Cue	19	Picture	Maintain	4	8.53	n/a	346.756
318.863	4.99	Pic	19	Picture	IAPS_58	4	3.54	n/a	348.762
323.854	2.006	Blank	19	Picture	BLANK	4	1.534	n/a	353.752
327.393	n/a	ConfirmRating	19	Response	n/a	4	n/a	7	357.292
327.418	6.002	ITI	20	Picture	Fixation+	4	10.695	n/a	357.317
333.436	2.006	Cue	20	Picture	Maintain	4	8.672	n/a	363.335
335.442	4.99	Pic	20	Picture	IAPS_47	4	3.682	n/a	365.341
340.432	2.006	Blank	20	Picture	BLANK	4	1.676	n/a	370.331
344.114	n/a	ConfirmRating	20	Response	n/a	4	n/a	7	374.013
344.146	5.007	ITI	21	Picture	Fixation+	3	10.416	n/a	374.045
349.169	2.006	Cue	21	Picture	Suppress	3	8.394	n/a	379.068
351.175	4.99	Pic	21	Picture	IAPS_06	3	3.403	n/a	381.074
356.166	2.006	Blank	21	Picture	BLANK	3	1.397	n/a	386.064
359.569	n/a	ConfirmRating	21	Response	n/a	3	n/a	7	389.467
359.597	4.012	ITI	22	Picture	Fixation+	1	9.846	n/a	389.496
363.626	2.006	Cue	22	Picture	Maintain	1	7.824	n/a	393.525
365.632	4.99	Pic	22	Picture	IAPS_16	1	2.833	n/a	395.531
370.622	2.006	Blank	22	Picture	BLANK	1	0.827	n/a	400.521
373.456	n/a	ConfirmRating	22	Response	n/a	1	n/a	6	403.354
373.474	4.012	ITI	23	Picture	Fixation+	2	10.441	n/a	403.372
377.502	2.006	Cue	23	Picture	Enhance	2	8.418	n/a	407.401
379.509	4.99	Pic	23	Picture	IAPS_41	2	3.428	n/a	409.407
384.499	2.006	Blank	23	Picture	BLANK	2	1.422	n/a	414.397
387.927	n/a	ConfirmRating	23	Response	n/a	2	n/a	7	417.825
387.947	5.007	ITI	24	Picture	Fixation+	1	10.693	n/a	417.846
392.97	2.006	Cue	24	Picture	Maintain	1	8.671	n/a	422.869
394.976	4.99	Pic	24	Picture	IAPS_17	1	3.68	n/a	424.875
399.967	2.006	Blank	24	Picture	BLANK	1	1.675	n/a	429.865
403.647	0.017	ConfirmRating	24	Response	n/a	1	-0.017	7	433.546
403.68	4.012	ITI	25	Picture	Fixation+	2	10.216	n/a	433.579
407.709	2.006	Cue	25	Picture	Enhance	2	8.193	n/a	437.608
409.715	4.99	Pic	25	Picture	IAPS_42	2	3.203	n/a	439.614
414.705	2.006	Blank	25	Picture	BLANK	2	1.197	n/a	444.604
417.908	n/a	ConfirmRating	25	Response	n/a	2	n/a	5	447.807
417.938	6.002	ITI	26	Picture	Fixation+	4	10.331	n/a	447.837
423.956	2.006	Cue	26	Picture	Maintain	4	8.309	n/a	453.855
425.962	4.99	Pic	26	Picture	IAPS_50	4	3.318	n/a	455.861
430.952	2.006	Blank	26	Picture	BLANK	4	1.312	n/a	460.851
434.271	n/a	ConfirmRating	26	Response	n/a	4	n/a	7	464.169
434.301	5.007	ITI	27	Picture	Fixation+	3	11.248	n/a	464.2
439.325	2.006	Cue	27	Picture	Suppress	3	9.225	n/a	469.223
441.331	4.99	Pic	27	Picture	IAPS_07	3	4.235	n/a	471.229
446.321	2.006	Blank	27	Picture	BLANK	3	2.229	n/a	476.219
450.556	n/a	ConfirmRating	27	Response	n/a	3	n/a	7	480.454
450.582	5.007	ITI	28	Picture	Fixation+	2	10.754	n/a	480.48
455.605	2.006	Cue	28	Picture	Enhance	2	8.731	n/a	485.504
457.611	4.99	Pic	28	Picture	IAPS_43	2	3.741	n/a	487.51
462.601	2.006	Blank	28	Picture	BLANK	2	1.735	n/a	492.5
466.342	n/a	ConfirmRating	28	Response	n/a	2	n/a	5	496.241
466.365	4.012	ITI	29	Picture	Fixation+	3	10.642	n/a	496.263
470.393	2.006	Cue	29	Picture	Suppress	3	8.62	n/a	500.292
472.399	4.99	Pic	29	Picture	IAPS_08	3	3.63	n/a	502.298
477.389	2.006	Blank	29	Picture	BLANK	3	1.624	n/a	507.288
481.019	n/a	ConfirmRating	29	Response	n/a	3	n/a	7	510.918
481.037	15.004	Rest	29	Picture	Rest	n/a	-15.022	n/a	510.935
496.057	5.007	ITI	30	Picture	Fixation+	4	10.304	n/a	525.956
501.081	2.006	Cue	30	Picture	Maintain	4	8.281	n/a	530.979
503.087	4.99	Pic	30	Picture	IAPS_53	4	3.291	n/a	532.985
508.077	2.006	Blank	30	Picture	BLANK	4	1.285	n/a	537.975
511.368	n/a	ConfirmRating	30	Response	n/a	4	n/a	7	541.266
511.393	6.002	ITI	31	Picture	Fixation+	1	10.836	n/a	541.291
517.411	2.006	Cue	31	Picture	Maintain	1	8.814	n/a	547.309
519.417	4.99	Pic	31	Picture	IAPS_18	1	3.824	n/a	549.315
524.407	2.006	Blank	31	Picture	BLANK	1	1.818	n/a	554.305
528.23	n/a	ConfirmRating	31	Response	n/a	1	n/a	7	558.129
528.253	4.012	ITI	32	Picture	Fixation+	3	11.438	n/a	558.152
532.282	2.006	Cue	32	Picture	Suppress	3	9.415	n/a	562.18
534.288	4.99	Pic	32	Picture	IAPS_09	3	4.425	n/a	564.186
539.278	2.006	Blank	32	Picture	BLANK	3	2.419	n/a	569.177
543.703	n/a	ConfirmRating	32	Response	n/a	3	n/a	5	573.602
543.721	5.007	ITI	33	Picture	Fixation+	1	10.538	n/a	573.62
548.744	2.006	Cue	33	Picture	Maintain	1	8.515	n/a	578.643
550.75	4.99	Pic	33	Picture	IAPS_19	1	3.525	n/a	580.649
555.741	2.006	Blank	33	Picture	BLANK	1	1.519	n/a	585.639
559.266	n/a	ConfirmRating	33	Response	n/a	1	n/a	7	589.165
559.288	4.012	ITI	34	Picture	Fixation+	2	10.429	n/a	589.187
563.317	2.006	Cue	34	Picture	Enhance	2	8.407	n/a	593.216
565.323	4.99	Pic	34	Picture	IAPS_44	2	3.416	n/a	595.222
570.313	2.006	Blank	34	Picture	BLANK	2	1.41	n/a	600.212
573.73	n/a	ConfirmRating	34	Response	n/a	2	n/a	5	603.628
573.762	6.002	ITI	35	Picture	Fixation+	4	10.662	n/a	603.66
579.78	2.006	Cue	35	Picture	Maintain	4	8.64	n/a	609.678
581.786	4.99	Pic	35	Picture	IAPS_56	4	3.65	n/a	611.684
586.776	2.006	Blank	35	Picture	BLANK	4	1.644	n/a	616.675
590.426	n/a	ConfirmRating	35	Response	n/a	4	n/a	7	620.324
590.457	5.007	ITI	36	Picture	Fixation+	3	10.646	n/a	620.355
595.48	2.006	Cue	36	Picture	Suppress	3	8.623	n/a	625.379
597.486	4.99	Pic	36	Picture	IAPS_10	3	3.633	n/a	627.385
602.476	2.006	Blank	36	Picture	BLANK	3	1.627	n/a	632.375
606.109	n/a	ConfirmRating	36	Response	n/a	3	n/a	6	636.008
606.14	6.002	ITI	37	Picture	Fixation+	4	10.876	n/a	636.039
612.158	2.006	Cue	37	Picture	Maintain	4	8.853	n/a	642.057
614.164	4.99	Pic	37	Picture	IAPS_59	4	3.863	n/a	644.063
619.154	2.006	Blank	37	Picture	BLANK	4	1.857	n/a	649.053
623.017	n/a	ConfirmRating	37	Response	n/a	4	n/a	7	652.916
623.034	5.007	ITI	38	Picture	Fixation+	2	10.396	n/a	652.933
628.057	2.006	Cue	38	Picture	Enhance	2	8.374	n/a	657.956
630.063	4.99	Pic	38	Picture	IAPS_45	2	3.383	n/a	659.962
635.053	2.006	Blank	38	Picture	BLANK	2	1.377	n/a	664.952
638.437	n/a	ConfirmRating	38	Response	n/a	2	n/a	7	668.336
638.469	4.012	ITI	39	Picture	Fixation+	1	11.164	n/a	668.367
642.497	2.006	Cue	39	Picture	Maintain	1	9.141	n/a	672.396
644.503	4.99	Pic	39	Picture	IAPS_20	1	4.151	n/a	674.402
649.494	2.006	Blank	39	Picture	BLANK	1	2.145	n/a	679.392
653.645	n/a	ConfirmRating	39	Response	n/a	1	n/a	6	683.543
653.671	6.002	ITI	40	Picture	Fixation+	4	11.034	n/a	683.57
659.69	2.006	Cue	40	Picture	Maintain	4	9.011	n/a	689.588
661.696	4.99	Pic	40	Picture	IAPS_48	4	4.021	n/a	691.594
666.686	2.006	Blank	40	Picture	BLANK	4	2.015	n/a	696.584
670.706	n/a	ConfirmRating	40	Response	n/a	4	n/a	7	700.605
670.731	5.007	ITI	41	Picture	Fixation+	3	10.401	n/a	700.63
675.754	2.006	Cue	41	Picture	Suppress	3	8.379	n/a	705.653
677.76	4.99	Pic	41	Picture	IAPS_11	3	3.389	n/a	707.659
682.75	2.006	Blank	41	Picture	BLANK	3	1.383	n/a	712.649
686.139	n/a	ConfirmRating	41	Response	n/a	3	n/a	7	716.038
686.166	6.002	ITI	42	Picture	Fixation+	2	10.073	n/a	716.064
692.184	2.006	Cue	42	Picture	Enhance	2	8.05	n/a	722.082
694.19	4.99	Pic	42	Picture	IAPS_31	2	3.06	n/a	724.088
699.18	2.006	Blank	42	Picture	BLANK	2	1.054	n/a	729.079
702.24	n/a	ConfirmRating	42	Response	n/a	2	n/a	6	732.139
702.264	4.012	ITI	43	Picture	Fixation+	1	10.58	n/a	732.162
706.292	2.006	Cue	43	Picture	Maintain	1	8.557	n/a	736.191
708.298	4.99	Pic	43	Picture	IAPS_21	1	3.567	n/a	738.197
713.289	2.006	Blank	43	Picture	BLANK	1	1.561	n/a	743.187
716.856	n/a	ConfirmRating	43	Response	n/a	1	n/a	7	746.754
716.886	5.007	ITI	44	Picture	Fixation+	2	10.938	n/a	746.785
721.91	2.006	Cue	44	Picture	Enhance	2	8.916	n/a	751.808
723.916	4.99	Pic	44	Picture	IAPS_32	2	3.926	n/a	753.814
728.906	2.006	Blank	44	Picture	BLANK	2	1.92	n/a	758.804
732.832	n/a	ConfirmRating	44	Response	n/a	2	n/a	5	762.73
732.852	5.007	ITI	45	Picture	Fixation+	4	10.97	n/a	762.75
737.875	2.006	Cue	45	Picture	Maintain	4	8.947	n/a	767.774
739.881	4.99	Pic	45	Picture	IAPS_51	4	3.957	n/a	769.779
744.871	2.006	Blank	45	Picture	BLANK	4	1.951	n/a	774.77
748.828	n/a	ConfirmRating	45	Response	n/a	4	n/a	7	778.727
748.85	4.012	ITI	46	Picture	Fixation+	3	10.441	n/a	778.749
752.879	2.001	Cue	46	Picture	Suppress	3	8.423	n/a	782.777
754.88	4.995	Pic	46	Picture	IAPS_12	3	3.428	n/a	784.779
759.875	2.005	Blank	46	Picture	BLANK	3	1.423	n/a	789.774
763.303	n/a	ConfirmRating	46	Response	n/a	3	n/a	7	793.202
763.323	5.007	ITI	47	Picture	Fixation+	1	9.94	n/a	793.222
768.347	2.006	Cue	47	Picture	Maintain	1	7.917	n/a	798.245
770.353	4.99	Pic	47	Picture	IAPS_22	1	2.927	n/a	800.251
775.343	2.006	Blank	47	Picture	BLANK	1	0.921	n/a	805.241
778.27	n/a	ConfirmRating	47	Response	n/a	1	n/a	6	808.168
778.294	4.012	ITI	48	Picture	Fixation+	3	12.11	n/a	808.192
782.323	2.006	Cue	48	Picture	Suppress	3	10.087	n/a	812.221
784.329	4.99	Pic	48	Picture	IAPS_13	3	5.097	n/a	814.227
789.319	2.006	Blank	48	Picture	BLANK	3	3.091	n/a	819.217
794.416	n/a	ConfirmRating	48	Response	n/a	3	n/a	7	824.314
794.442	5.007	ITI	49	Picture	Fixation+	4	10.576	n/a	824.34
799.465	2.006	Cue	49	Picture	Maintain	4	8.553	n/a	829.364
801.471	4.99	Pic	49	Picture	IAPS_54	4	3.563	n/a	831.37
806.461	2.006	Blank	49	Picture	BLANK	4	1.557	n/a	836.36
810.024	n/a	ConfirmRating	49	Response	n/a	4	n/a	7	839.923
810.042	5.007	ITI	50	Picture	Fixation+	1	10.034	n/a	839.941
815.066	2.006	Cue	50	Picture	Maintain	1	8.012	n/a	844.964
817.072	4.99	Pic	50	Picture	IAPS_23	1	3.021	n/a	846.97
822.062	2.006	Blank	50	Picture	BLANK	1	1.015	n/a	851.96
825.083	n/a	ConfirmRating	50	Response	n/a	1	n/a	6	854.982
825.112	4.012	ITI	51	Picture	Fixation+	2	12.495	n/a	855.011
829.141	2.006	Cue	51	Picture	Enhance	2	10.473	n/a	859.04
831.147	4.99	Pic	51	Picture	IAPS_33	2	5.483	n/a	861.046
836.137	2.006	Blank	51	Picture	BLANK	2	3.477	n/a	866.036
841.62	n/a	ConfirmRating	51	Response	n/a	2	n/a	2	871.519
841.641	5.007	ITI	52	Picture	Fixation+	1	9.665	n/a	871.54
846.665	2.006	Cue	52	Picture	Maintain	1	7.642	n/a	876.563
848.671	4.99	Pic	52	Picture	IAPS_24	1	2.652	n/a	878.569
853.661	2.006	Blank	52	Picture	BLANK	1	0.646	n/a	883.56
856.313	n/a	ConfirmRating	52	Response	n/a	1	n/a	3	886.211
856.33	5.007	ITI	53	Picture	Fixation+	4	10.775	n/a	886.229
861.354	2.006	Cue	53	Picture	Maintain	4	8.753	n/a	891.252
863.36	4.99	Pic	53	Picture	IAPS_57	4	3.763	n/a	893.258
868.35	2.006	Blank	53	Picture	BLANK	4	1.757	n/a	898.248
872.112	n/a	ConfirmRating	53	Response	n/a	4	n/a	7	902.011
872.13	6.002	ITI	54	Picture	Fixation+	3	10.676	n/a	902.028
878.148	2.006	Cue	54	Picture	Suppress	3	8.654	n/a	908.046
880.154	4.99	Pic	54	Picture	IAPS_14	3	3.663	n/a	910.052
885.144	2.006	Blank	54	Picture	BLANK	3	1.657	n/a	915.043
888.807	n/a	ConfirmRating	54	Response	n/a	3	n/a	7	918.706
888.825	5.007	ITI	55	Picture	Fixation+	2	10.467	n/a	918.723
893.848	2.006	Cue	55	Picture	Enhance	2	8.444	n/a	923.746
895.854	4.99	Pic	55	Picture	IAPS_34	2	3.454	n/a	925.753
900.844	2.006	Blank	55	Picture	BLANK	2	1.448	n/a	930.743
904.298	n/a	ConfirmRating	55	Response	n/a	2	n/a	7	934.197
904.326	5.007	ITI	56	Picture	Fixation+	1	10.914	n/a	934.224
909.349	2.006	Cue	56	Picture	Maintain	1	8.892	n/a	939.248
911.355	4.99	Pic	56	Picture	IAPS_25	1	3.902	n/a	941.254
916.345	2.006	Blank	56	Picture	BLANK	1	1.896	n/a	946.244
920.247	n/a	ConfirmRating	56	Response	n/a	1	n/a	7	950.145
920.274	6.002	ITI	57	Picture	Fixation+	3	10.296	n/a	950.173
926.293	2.006	Cue	57	Picture	Suppress	3	8.273	n/a	956.191
928.298	4.99	Pic	57	Picture	IAPS_15	3	3.283	n/a	958.197
933.289	2.006	Blank	57	Picture	BLANK	3	1.277	n/a	963.187
936.572	n/a	ConfirmRating	57	Response	n/a	3	n/a	7	966.47
936.605	4.012	ITI	58	Picture	Fixation+	4	10.361	n/a	966.503
940.633	2.006	Cue	58	Picture	Maintain	4	8.338	n/a	970.532
942.639	4.99	Pic	58	Picture	IAPS_60	4	3.348	n/a	972.538
947.629	2.006	Blank	58	Picture	BLANK	4	1.342	n/a	977.528
950.977	n/a	ConfirmRating	58	Response	n/a	4	n/a	7	980.876
950.995	6.002	ITI	59	Picture	Fixation+	2	10.293	n/a	980.893
957.013	2.006	Cue	59	Picture	Enhance	2	8.27	n/a	986.912
959.019	4.99	Pic	59	Picture	IAPS_35	2	3.28	n/a	988.918
964.009	2.006	Blank	59	Picture	BLANK	2	1.274	n/a	993.908
967.289	n/a	ConfirmRating	59	Response	n/a	2	n/a	7	997.188
