onset	duration	trial_type	event_type	trial_number	condition	picture_number	time_until_response	response_time	unpleasantness_rating	onset_uncorrected
0.015	5.322	ITI	Fixation+	0	Pain	n/a	9.669	n/a	n/a	30.284
5.354	3.498	Pic2	Picture	0	Pain	7	6.154	n/a	n/a	35.622
8.852	2.006	Blank	Blank	0	Pain	n/a	4.148	n/a	n/a	39.12
15.006	n/a	ConfirmRating	Rate	0	Pain	7	n/a	3.631	45	45.275
15.036	5.952	ITI	Fixation+	1	Pain	n/a	8.06	n/a	n/a	45.304
21.004	3.498	Pic2	Picture	1	Pain	15	4.546	n/a	n/a	51.273
24.502	2.006	Blank	Blank	1	Pain	n/a	2.54	n/a	n/a	54.771
29.048	n/a	ConfirmRating	Rate	1	Pain	15	n/a	2.023	69	59.316
29.078	4.36	ITI	Fixation+	2	No_Pain	n/a	7.54	n/a	n/a	59.347
33.455	3.498	Pic2	Picture	2	No_Pain	34	4.026	n/a	n/a	63.723
36.953	2.006	Blank	Blank	2	No_Pain	n/a	2.02	n/a	n/a	67.222
40.979	n/a	ConfirmRating	Rate	2	No_Pain	34	n/a	1.503	0	71.247
40.998	4.775	ITI	Fixation+	3	No_Pain	n/a	8.048	n/a	n/a	71.267
45.789	3.498	Pic2	Picture	3	No_Pain	35	4.533	n/a	n/a	76.058
49.288	2.006	Blank	Blank	3	No_Pain	n/a	2.527	n/a	n/a	79.556
53.821	n/a	ConfirmRating	Rate	3	No_Pain	35	n/a	2.011	0	84.089
53.847	5.04	ITI	Fixation+	4	Pain	n/a	8.538	n/a	n/a	84.115
58.903	3.498	Pic2	Picture	4	Pain	6	5.023	n/a	n/a	89.172
62.401	2.006	Blank	Blank	4	Pain	n/a	3.017	n/a	n/a	92.67
67.424	n/a	ConfirmRating	Rate	4	Pain	6	n/a	2.5	33	97.693
67.441	4.327	ITI	Fixation+	5	No_Pain	n/a	7.112	n/a	n/a	97.71
71.785	3.498	Pic2	Picture	5	No_Pain	29	3.597	n/a	n/a	102.053
75.283	2.006	Blank	Blank	5	No_Pain	n/a	1.591	n/a	n/a	105.552
78.88	n/a	ConfirmRating	Rate	5	No_Pain	29	n/a	1.074	0	109.149
78.897	5.686	ITI	Fixation+	6	No_Pain	n/a	8.276	n/a	n/a	109.166
84.6	3.498	Pic2	Picture	6	No_Pain	39	4.762	n/a	n/a	114.869
88.098	2.006	Blank	Blank	6	No_Pain	n/a	2.756	n/a	n/a	118.367
92.86	n/a	ConfirmRating	Rate	6	No_Pain	39	n/a	2.239	0	123.129
92.89	5.968	ITI	Fixation+	7	Pain	n/a	9.327	n/a	n/a	123.158
98.875	3.498	Pic2	Picture	7	Pain	9	5.812	n/a	n/a	129.143
102.373	2.006	Blank	Blank	7	Pain	n/a	3.806	n/a	n/a	132.641
108.185	n/a	ConfirmRating	Rate	7	Pain	9	n/a	3.29	67	138.453
108.208	4.775	ITI	Fixation+	8	Pain	n/a	8.141	n/a	n/a	138.477
113.0	3.498	Pic2	Picture	8	Pain	14	4.626	n/a	n/a	143.268
116.498	2.006	Blank	Blank	8	Pain	n/a	2.62	n/a	n/a	146.766
121.124	n/a	ConfirmRating	Rate	8	Pain	14	n/a	2.103	74	151.392
121.156	5.139	ITI	Fixation+	9	No_Pain	n/a	7.017	n/a	n/a	151.425
126.312	3.498	Pic2	Picture	9	No_Pain	27	3.503	n/a	n/a	156.581
129.811	2.006	Blank	Blank	9	No_Pain	n/a	1.497	n/a	n/a	160.079
133.313	n/a	ConfirmRating	Rate	9	No_Pain	27	n/a	0.981	0	163.582
133.342	4.294	ITI	Fixation+	10	Pain	n/a	9.695	n/a	n/a	163.61
137.652	3.498	Pic2	Picture	10	Pain	20	6.18	n/a	n/a	167.921
141.15	2.006	Blank	Blank	10	Pain	n/a	4.174	n/a	n/a	171.419
147.33	n/a	ConfirmRating	Rate	10	Pain	20	n/a	3.657	57	177.599
147.351	4.708	ITI	Fixation+	11	No_Pain	n/a	8.444	n/a	n/a	177.619
152.076	3.498	Pic2	Picture	11	No_Pain	40	4.929	n/a	n/a	182.344
155.574	2.006	Blank	Blank	11	No_Pain	n/a	2.923	n/a	n/a	185.843
160.503	n/a	ConfirmRating	Rate	11	No_Pain	40	n/a	2.406	0	190.772
160.531	5.769	ITI	Fixation+	12	No_Pain	n/a	6.779	n/a	n/a	190.8
166.317	3.498	Pic2	Picture	12	No_Pain	33	3.265	n/a	n/a	196.586
169.815	2.006	Blank	Blank	12	No_Pain	n/a	1.259	n/a	n/a	200.084
173.08	n/a	ConfirmRating	Rate	12	No_Pain	33	n/a	0.742	0	203.348
173.098	4.642	ITI	Fixation+	13	Pain	n/a	8.895	n/a	n/a	203.366
177.756	3.498	Pic2	Picture	13	Pain	18	5.38	n/a	n/a	208.025
181.254	2.006	Blank	Blank	13	Pain	n/a	3.374	n/a	n/a	211.523
186.635	n/a	ConfirmRating	Rate	13	Pain	18	n/a	2.858	75	216.903
186.659	4.46	ITI	Fixation+	14	No_Pain	n/a	7.912	n/a	n/a	216.928
191.135	3.498	Pic2	Picture	14	No_Pain	31	4.397	n/a	n/a	221.404
194.633	2.006	Blank	Blank	14	No_Pain	n/a	2.391	n/a	n/a	224.902
199.03	n/a	ConfirmRating	Rate	14	No_Pain	31	n/a	1.875	0	229.299
199.06	4.576	ITI	Fixation+	15	Pain	n/a	8.285	n/a	n/a	229.329
203.652	3.498	Pic2	Picture	15	Pain	17	4.771	n/a	n/a	233.921
207.15	2.006	Blank	Blank	15	Pain	n/a	2.765	n/a	n/a	237.419
211.921	n/a	ConfirmRating	Rate	15	Pain	17	n/a	2.248	57	242.19
211.942	5.952	ITI	Fixation+	16	Pain	n/a	8.061	n/a	n/a	242.21
217.91	3.498	Pic2	Picture	16	Pain	11	4.546	n/a	n/a	248.179
221.408	2.006	Blank	Blank	16	Pain	n/a	2.54	n/a	n/a	251.677
225.954	n/a	ConfirmRating	Rate	16	Pain	11	n/a	2.023	54	256.223
225.984	4.824	ITI	Fixation+	17	No_Pain	n/a	8.4	n/a	n/a	256.252
230.825	3.498	Pic2	Picture	17	No_Pain	36	4.886	n/a	n/a	261.094
234.323	2.006	Blank	Blank	17	No_Pain	n/a	2.88	n/a	n/a	264.592
239.209	n/a	ConfirmRating	Rate	17	No_Pain	36	n/a	2.363	0	269.477
239.23	5.471	ITI	Fixation+	18	Pain	n/a	8.905	n/a	n/a	269.499
244.718	3.498	Pic2	Picture	18	Pain	10	5.391	n/a	n/a	274.986
248.216	2.006	Blank	Blank	18	Pain	n/a	3.385	n/a	n/a	278.485
253.607	n/a	ConfirmRating	Rate	18	Pain	10	n/a	2.868	68	283.875
253.637	5.786	ITI	Fixation+	19	No_Pain	n/a	8.742	n/a	n/a	283.906
259.44	3.498	Pic2	Picture	19	No_Pain	23	5.227	n/a	n/a	289.709
262.938	2.006	Blank	Blank	19	No_Pain	n/a	3.221	n/a	n/a	293.207
268.165	n/a	ConfirmRating	Rate	19	No_Pain	23	n/a	2.705	0	298.434
268.193	15.004	Rest	n/a	19	n/a	n/a	-15.032	n/a	n/a	298.462
283.214	5.438	ITI	Fixation+	20	Pain	n/a	9.083	n/a	n/a	313.482
288.668	3.498	Pic2	Picture	20	Pain	1	5.569	n/a	n/a	318.937
292.166	2.006	Blank	Blank	20	Pain	n/a	3.563	n/a	n/a	322.435
297.735	n/a	ConfirmRating	Rate	20	Pain	1	n/a	3.046	70	328.004
297.753	5.852	ITI	Fixation+	21	Pain	n/a	9.141	n/a	n/a	328.022
303.622	3.498	Pic2	Picture	21	Pain	8	5.626	n/a	n/a	333.891
307.12	2.006	Blank	Blank	21	Pain	n/a	3.62	n/a	n/a	337.389
312.747	n/a	ConfirmRating	Rate	21	Pain	8	n/a	3.104	71	343.015
312.774	4.526	ITI	Fixation+	22	No_Pain	n/a	7.612	n/a	n/a	343.042
317.316	3.498	Pic2	Picture	22	No_Pain	22	4.097	n/a	n/a	347.585
320.814	2.006	Blank	Blank	22	No_Pain	n/a	2.091	n/a	n/a	351.083
324.912	n/a	ConfirmRating	Rate	22	No_Pain	22	n/a	1.575	0	355.18
324.942	5.372	ITI	Fixation+	23	Pain	n/a	7.568	n/a	n/a	355.211
330.331	3.498	Pic2	Picture	23	Pain	16	4.054	n/a	n/a	360.599
333.829	2.006	Blank	Blank	23	Pain	n/a	2.048	n/a	n/a	364.097
337.882	n/a	ConfirmRating	Rate	23	Pain	16	n/a	1.531	70	368.151
337.907	5.935	ITI	Fixation+	24	No_Pain	n/a	6.954	n/a	n/a	368.176
343.859	3.498	Pic2	Picture	24	No_Pain	38	3.439	n/a	n/a	374.127
347.357	2.006	Blank	Blank	24	No_Pain	n/a	1.433	n/a	n/a	377.626
350.796	n/a	ConfirmRating	Rate	24	No_Pain	38	n/a	0.916	0	381.065
350.822	4.393	ITI	Fixation+	25	No_Pain	n/a	7.145	n/a	n/a	381.091
355.232	3.498	Pic2	Picture	25	No_Pain	21	3.63	n/a	n/a	385.5
358.73	2.006	Blank	Blank	25	No_Pain	n/a	1.624	n/a	n/a	388.999
362.36	n/a	ConfirmRating	Rate	25	No_Pain	21	n/a	1.107	0	392.629
362.377	5.952	ITI	Fixation+	26	Pain	n/a	8.953	n/a	n/a	392.646
368.346	3.498	Pic2	Picture	26	Pain	5	5.438	n/a	n/a	398.614
371.844	2.006	Blank	Blank	26	Pain	n/a	3.432	n/a	n/a	402.112
377.282	n/a	ConfirmRating	Rate	26	Pain	5	n/a	2.915	72	407.55
377.315	5.952	ITI	Fixation+	27	No_Pain	n/a	8.65	n/a	n/a	407.583
383.283	3.498	Pic2	Picture	27	No_Pain	32	5.135	n/a	n/a	413.552
386.781	2.006	Blank	Blank	27	No_Pain	n/a	3.129	n/a	n/a	417.05
391.917	n/a	ConfirmRating	Rate	27	No_Pain	32	n/a	2.613	0	422.185
391.937	5.703	ITI	Fixation+	28	Pain	n/a	9.284	n/a	n/a	422.206
397.657	3.498	Pic2	Picture	28	Pain	13	5.769	n/a	n/a	427.926
401.155	2.006	Blank	Blank	28	Pain	n/a	3.763	n/a	n/a	431.424
406.924	n/a	ConfirmRating	Rate	28	Pain	13	n/a	3.247	56	437.193
406.941	4.493	ITI	Fixation+	29	No_Pain	n/a	7.575	n/a	n/a	437.21
411.451	3.498	Pic2	Picture	29	No_Pain	28	4.061	n/a	n/a	441.719
414.949	2.006	Blank	Blank	29	No_Pain	n/a	2.055	n/a	n/a	445.217
419.009	n/a	ConfirmRating	Rate	29	No_Pain	28	n/a	1.538	0	449.278
419.027	4.443	ITI	Fixation+	30	Pain	n/a	9.835	n/a	n/a	449.296
423.487	3.498	Pic2	Picture	30	Pain	4	6.32	n/a	n/a	453.755
426.985	2.006	Blank	Blank	30	Pain	n/a	4.314	n/a	n/a	457.253
433.305	n/a	ConfirmRating	Rate	30	Pain	4	n/a	3.797	65	463.574
433.334	5.902	ITI	Fixation+	31	No_Pain	n/a	7.635	n/a	n/a	463.603
439.253	3.498	Pic2	Picture	31	No_Pain	30	4.121	n/a	n/a	469.522
442.751	2.006	Blank	Blank	31	No_Pain	n/a	2.115	n/a	n/a	473.02
446.872	n/a	ConfirmRating	Rate	31	No_Pain	30	n/a	1.598	0	477.14
446.896	4.758	ITI	Fixation+	32	Pain	n/a	7.983	n/a	n/a	477.164
451.671	3.498	Pic2	Picture	32	Pain	3	4.468	n/a	n/a	481.939
455.169	2.006	Blank	Blank	32	Pain	n/a	2.462	n/a	n/a	485.437
459.637	n/a	ConfirmRating	Rate	32	Pain	3	n/a	1.946	53	489.905
459.661	5.537	ITI	Fixation+	33	Pain	n/a	12.07	n/a	n/a	489.93
465.215	3.498	Pic2	Picture	33	Pain	12	8.556	n/a	n/a	495.484
468.714	2.006	Blank	Blank	33	Pain	n/a	6.55	n/a	n/a	498.982
477.269	n/a	ConfirmRating	Rate	33	Pain	12	n/a	6.033	0	507.538
477.301	5.222	ITI	Fixation+	34	No_Pain	n/a	7.654	n/a	n/a	507.57
482.54	3.498	Pic2	Picture	34	No_Pain	26	4.139	n/a	n/a	512.809
486.038	2.006	Blank	Blank	34	No_Pain	n/a	2.133	n/a	n/a	516.307
490.177	n/a	ConfirmRating	Rate	34	No_Pain	26	n/a	1.616	0	520.446
490.2	4.891	ITI	Fixation+	35	Pain	n/a	9.018	n/a	n/a	520.468
495.107	3.498	Pic2	Picture	35	Pain	2	5.503	n/a	n/a	525.375
498.605	2.006	Blank	Blank	35	Pain	n/a	3.497	n/a	n/a	528.874
504.108	n/a	ConfirmRating	Rate	35	Pain	2	n/a	2.98	69	534.377
504.126	5.156	ITI	Fixation+	36	No_Pain	n/a	7.653	n/a	n/a	534.394
509.298	3.498	Pic2	Picture	36	No_Pain	37	4.138	n/a	n/a	539.567
512.796	2.006	Blank	Blank	36	No_Pain	n/a	2.132	n/a	n/a	543.065
516.935	n/a	ConfirmRating	Rate	36	No_Pain	37	n/a	1.616	1	547.203
516.958	4.808	ITI	Fixation+	37	Pain	n/a	9.955	n/a	n/a	547.226
521.782	3.498	Pic2	Picture	37	Pain	19	6.44	n/a	n/a	552.051
525.28	2.006	Blank	Blank	37	Pain	n/a	4.434	n/a	n/a	555.549
531.721	n/a	ConfirmRating	Rate	37	Pain	19	n/a	3.918	60	561.989
531.746	4.095	ITI	Fixation+	38	No_Pain	n/a	7.361	n/a	n/a	562.015
535.857	3.498	Pic2	Picture	38	No_Pain	25	3.847	n/a	n/a	566.126
539.356	2.006	Blank	Blank	38	No_Pain	n/a	1.841	n/a	n/a	569.624
543.202	n/a	ConfirmRating	Rate	38	No_Pain	25	n/a	1.325	0	573.471
543.235	4.294	ITI	Fixation+	39	No_Pain	n/a	8.752	n/a	n/a	573.504
547.546	3.498	Pic2	Picture	39	No_Pain	24	5.238	n/a	n/a	577.814
551.044	2.006	Blank	Blank	39	No_Pain	n/a	3.232	n/a	n/a	581.312
556.281	n/a	ConfirmRating	Rate	39	No_Pain	24	n/a	2.715	0	586.55
