onset	duration	trial_type	event_type	time_until_response	response_time	trial_number	block_num_within_trial	image_seq_num_within_block	question_seq_num_within_block	image_seq_num	picture_number	condition	question_type	block_type	rating	rating_computed	onset_uncorrected	KDEV_imagefile
0.01	10.014	ITI	Fixation+	97.02	n/a	1	n/a	n/a	n/a	n/a	n/a	n/a	n/a	n/a	n/a	n/a	29.472	n/a
10.04	0.497	angry	Picture	96.507	n/a	1	1	1	n/a	1	108	3	n/a	n/a	n/a	n/a	39.502	AM09ANS.jpg
10.537	0.514	Blank	Blank	95.993	n/a	1	1	1	n/a	1	n/a	3	n/a	n/a	n/a	n/a	39.999	n/a
11.068	0.497	angry	Picture	95.479	n/a	1	1	2	n/a	2	99	3	n/a	n/a	n/a	n/a	40.53	AF31ANS.jpg
11.565	0.514	Blank	Blank	94.965	n/a	1	1	2	n/a	2	n/a	3	n/a	n/a	n/a	n/a	41.027	n/a
12.096	0.497	angry	Picture	94.451	n/a	1	1	3	n/a	3	98	3	n/a	n/a	n/a	n/a	41.558	BF29ANS.jpg
12.593	0.514	Blank	Blank	93.937	n/a	1	1	3	n/a	3	n/a	3	n/a	n/a	n/a	n/a	42.055	n/a
13.124	0.497	angry	Picture	93.423	n/a	1	1	4	n/a	4	107	3	n/a	n/a	n/a	n/a	42.586	BM08ANS.jpg
13.621	0.514	Blank	Blank	92.909	n/a	1	1	4	n/a	4	n/a	3	n/a	n/a	n/a	n/a	43.083	n/a
14.151	0.497	angry	Picture	92.395	n/a	1	1	5	n/a	5	104	3	n/a	n/a	n/a	n/a	43.613	BM05ANS.jpg
14.649	0.514	Blank	Blank	91.881	n/a	1	1	5	n/a	5	n/a	3	n/a	n/a	n/a	n/a	44.111	n/a
15.179	0.497	angry	Picture	91.367	n/a	1	1	6	n/a	6	101	3	n/a	n/a	n/a	n/a	44.641	AM01ANS.jpg
15.677	0.514	Blank	Blank	90.853	n/a	1	1	6	n/a	6	n/a	3	n/a	n/a	n/a	n/a	45.139	n/a
16.207	0.497	angry	Picture	90.339	n/a	1	1	7	n/a	7	103	3	n/a	n/a	n/a	n/a	45.669	AM04ANS.jpg
16.705	0.514	Blank	Blank	89.825	n/a	1	1	7	n/a	7	n/a	3	n/a	n/a	n/a	n/a	46.166	n/a
17.235	0.497	angry	Picture	89.311	n/a	1	1	8	n/a	8	111	3	n/a	n/a	n/a	n/a	46.697	BM12ANS.jpg
17.733	0.514	Blank	Blank	88.797	n/a	1	1	8	n/a	8	n/a	3	n/a	n/a	n/a	n/a	47.194	n/a
18.263	0.497	angry	Picture	88.284	n/a	1	1	9	n/a	9	110	3	n/a	n/a	n/a	n/a	47.725	AM11ANS.jpg
18.76	0.514	Blank	Blank	87.77	n/a	1	1	9	n/a	9	n/a	3	n/a	n/a	n/a	n/a	48.222	n/a
19.291	0.497	angry	Picture	87.256	n/a	1	1	10	n/a	10	85	3	n/a	n/a	n/a	n/a	48.753	BF07ANS.jpg
19.788	0.514	Blank	Blank	86.742	n/a	1	1	10	n/a	10	n/a	3	n/a	n/a	n/a	n/a	49.25	n/a
20.319	0.497	angry	Picture	86.228	n/a	1	1	11	n/a	11	87	3	n/a	n/a	n/a	n/a	49.781	BF11ANS.jpg
20.816	0.514	Blank	Blank	85.714	n/a	1	1	11	n/a	11	n/a	3	n/a	n/a	n/a	n/a	50.278	n/a
21.347	0.497	angry	Picture	85.2	n/a	1	1	12	n/a	12	91	3	n/a	n/a	n/a	n/a	50.809	AF20ANS.jpg
21.844	0.514	Blank	Blank	84.686	n/a	1	1	12	n/a	12	n/a	3	n/a	n/a	n/a	n/a	51.306	n/a
22.374	0.497	angry	Picture	84.172	n/a	1	1	13	n/a	13	115	3	n/a	n/a	n/a	n/a	51.836	AM23ANS.jpg
22.872	0.514	Blank	Blank	83.658	n/a	1	1	13	n/a	13	n/a	3	n/a	n/a	n/a	n/a	52.334	n/a
23.402	0.497	angry	Picture	83.144	n/a	1	1	14	n/a	14	97	3	n/a	n/a	n/a	n/a	52.864	BF28ANS.jpg
23.9	0.514	Blank	Blank	82.63	n/a	1	1	14	n/a	14	n/a	3	n/a	n/a	n/a	n/a	53.362	n/a
24.43	0.497	angry	Picture	82.116	n/a	1	1	15	n/a	15	82	3	n/a	n/a	n/a	n/a	53.892	AF03ANS.jpg
24.928	0.514	Blank	Blank	81.602	n/a	1	1	15	n/a	15	n/a	3	n/a	n/a	n/a	n/a	54.39	n/a
25.458	0.497	angry	Picture	81.088	n/a	1	1	16	n/a	16	96	3	n/a	n/a	n/a	n/a	54.92	AF26ANS.jpg
25.956	0.514	Blank	Blank	80.574	n/a	1	1	16	n/a	16	n/a	3	n/a	n/a	n/a	n/a	55.417	n/a
26.486	0.497	angry	Picture	80.06	n/a	1	1	17	n/a	17	109	3	n/a	n/a	n/a	n/a	55.948	AM10ANS.jpg
26.983	0.514	Blank	Blank	79.546	n/a	1	1	17	n/a	17	n/a	3	n/a	n/a	n/a	n/a	56.445	n/a
27.514	0.497	angry	Picture	79.033	n/a	1	1	18	n/a	18	114	3	n/a	n/a	n/a	n/a	56.976	AM22ANS.jpg
28.011	0.514	Blank	Blank	78.519	n/a	1	1	18	n/a	18	n/a	3	n/a	n/a	n/a	n/a	57.473	n/a
28.542	0.497	angry	Picture	78.005	n/a	1	1	19	n/a	19	120	3	n/a	n/a	n/a	n/a	58.004	AM35ANS.jpg
29.039	0.514	Blank	Blank	77.491	n/a	1	1	19	n/a	19	n/a	3	n/a	n/a	n/a	n/a	58.501	n/a
29.57	0.497	angry	Picture	76.977	n/a	1	1	20	n/a	20	81	3	n/a	n/a	n/a	n/a	59.032	AF01ANS.jpg
30.067	0.514	Blank	Blank	76.463	n/a	1	1	20	n/a	20	n/a	3	n/a	n/a	n/a	n/a	59.529	n/a
30.598	10.014	ITI	Fixation+	66.433	n/a	1	n/a	n/a	n/a	n/a	n/a	n/a	n/a	n/a	n/a	n/a	60.059	n/a
40.628	0.497	neutral	Picture	65.919	n/a	1	2	1	n/a	21	28	1	n/a	n/a	n/a	n/a	70.09	AM09NES.jpg
41.125	0.514	Blank	Blank	65.405	n/a	1	2	1	n/a	21	n/a	1	n/a	n/a	n/a	n/a	70.587	n/a
41.656	0.497	neutral	Picture	64.891	n/a	1	2	2	n/a	22	27	1	n/a	n/a	n/a	n/a	71.118	BM08NES.jpg
42.153	0.514	Blank	Blank	64.377	n/a	1	2	2	n/a	22	n/a	1	n/a	n/a	n/a	n/a	71.615	n/a
42.683	0.497	neutral	Picture	63.863	n/a	1	2	3	n/a	23	16	1	n/a	n/a	n/a	n/a	72.145	AF26NES.jpg
43.181	0.514	Blank	Blank	63.349	n/a	1	2	3	n/a	23	n/a	1	n/a	n/a	n/a	n/a	72.643	n/a
43.711	0.497	neutral	Picture	62.835	n/a	1	2	4	n/a	24	3	1	n/a	n/a	n/a	n/a	73.173	BF04NES.jpg
44.209	0.514	Blank	Blank	62.321	n/a	1	2	4	n/a	24	n/a	1	n/a	n/a	n/a	n/a	73.671	n/a
44.739	0.497	neutral	Picture	61.807	n/a	1	2	5	n/a	25	32	1	n/a	n/a	n/a	n/a	74.201	AM14NES.jpg
45.237	0.514	Blank	Blank	61.293	n/a	1	2	5	n/a	25	n/a	1	n/a	n/a	n/a	n/a	74.698	n/a
45.767	0.497	neutral	Picture	60.779	n/a	1	2	6	n/a	26	37	1	n/a	n/a	n/a	n/a	75.229	BM25NES.jpg
46.264	0.514	Blank	Blank	60.265	n/a	1	2	6	n/a	26	n/a	1	n/a	n/a	n/a	n/a	75.726	n/a
46.795	0.497	neutral	Picture	59.751	n/a	1	2	7	n/a	27	15	1	n/a	n/a	n/a	n/a	76.257	AF25NES.jpg
47.292	0.514	Blank	Blank	59.237	n/a	1	2	7	n/a	27	n/a	1	n/a	n/a	n/a	n/a	76.754	n/a
47.823	0.497	neutral	Picture	58.724	n/a	1	2	8	n/a	28	23	1	n/a	n/a	n/a	n/a	77.285	AM04NES.jpg
48.32	0.514	Blank	Blank	58.21	n/a	1	2	8	n/a	28	n/a	1	n/a	n/a	n/a	n/a	77.782	n/a
48.851	0.497	neutral	Picture	57.696	n/a	1	2	9	n/a	29	34	1	n/a	n/a	n/a	n/a	78.313	AM22NES.jpg
49.348	0.514	Blank	Blank	57.182	n/a	1	2	9	n/a	29	n/a	1	n/a	n/a	n/a	n/a	78.81	n/a
49.879	0.497	neutral	Picture	56.668	n/a	1	2	10	n/a	30	24	1	n/a	n/a	n/a	n/a	79.341	BM05NES.jpg
50.376	0.514	Blank	Blank	56.154	n/a	1	2	10	n/a	30	n/a	1	n/a	n/a	n/a	n/a	79.838	n/a
50.907	0.497	neutral	Picture	55.64	n/a	1	2	11	n/a	31	12	1	n/a	n/a	n/a	n/a	80.368	AF21NES.jpg
51.404	0.514	Blank	Blank	55.126	n/a	1	2	11	n/a	31	n/a	1	n/a	n/a	n/a	n/a	80.866	n/a
51.934	0.497	neutral	Picture	54.612	n/a	1	2	12	n/a	32	6	1	n/a	n/a	n/a	n/a	81.396	AF09NES.jpg
52.432	0.514	Blank	Blank	54.098	n/a	1	2	12	n/a	32	n/a	1	n/a	n/a	n/a	n/a	81.894	n/a
52.962	0.497	neutral	Picture	53.584	n/a	1	2	13	n/a	33	17	1	n/a	n/a	n/a	n/a	82.424	BF28NES.jpg
53.46	0.514	Blank	Blank	53.07	n/a	1	2	13	n/a	33	n/a	1	n/a	n/a	n/a	n/a	82.922	n/a
53.99	0.497	neutral	Picture	52.556	n/a	1	2	14	n/a	34	2	1	n/a	n/a	n/a	n/a	83.452	AF03NES.jpg
54.488	0.514	Blank	Blank	52.042	n/a	1	2	14	n/a	34	n/a	1	n/a	n/a	n/a	n/a	83.95	n/a
55.018	0.497	neutral	Picture	51.528	n/a	1	2	15	n/a	35	9	1	n/a	n/a	n/a	n/a	84.48	AF17NES.jpg
55.516	0.514	Blank	Blank	51.014	n/a	1	2	15	n/a	35	n/a	1	n/a	n/a	n/a	n/a	84.977	n/a
56.046	0.497	neutral	Picture	50.5	n/a	1	2	16	n/a	36	25	1	n/a	n/a	n/a	n/a	85.508	BM06NES.jpg
56.543	0.514	Blank	Blank	49.987	n/a	1	2	16	n/a	36	n/a	1	n/a	n/a	n/a	n/a	86.005	n/a
57.074	0.497	neutral	Picture	49.473	n/a	1	2	17	n/a	37	8	1	n/a	n/a	n/a	n/a	86.536	AF14NES.jpg
57.571	0.514	Blank	Blank	48.959	n/a	1	2	17	n/a	37	n/a	1	n/a	n/a	n/a	n/a	87.033	n/a
58.102	0.497	neutral	Picture	48.445	n/a	1	2	18	n/a	38	19	1	n/a	n/a	n/a	n/a	87.564	AF31NES.jpg
58.599	0.514	Blank	Blank	47.931	n/a	1	2	18	n/a	38	n/a	1	n/a	n/a	n/a	n/a	88.061	n/a
59.13	0.497	neutral	Picture	47.417	n/a	1	2	19	n/a	39	14	1	n/a	n/a	n/a	n/a	88.591	AF23NES.jpg
59.627	0.514	Blank	Blank	46.903	n/a	1	2	19	n/a	39	n/a	1	n/a	n/a	n/a	n/a	89.089	n/a
60.157	0.497	neutral	Picture	46.389	n/a	1	2	20	n/a	40	4	1	n/a	n/a	n/a	n/a	89.619	AF05NES.jpg
60.655	0.514	Blank	Blank	45.875	n/a	1	2	20	n/a	40	n/a	1	n/a	n/a	n/a	n/a	90.117	n/a
61.185	10.014	ITI	Fixation+	35.845	n/a	1	n/a	n/a	n/a	n/a	n/a	n/a	n/a	n/a	n/a	n/a	90.647	n/a
71.216	0.497	angry	Picture	35.331	n/a	1	3	1	n/a	41	84	3	n/a	n/a	n/a	n/a	100.677	AF05ANS.jpg
71.713	0.514	Blank	Blank	34.817	n/a	1	3	1	n/a	41	n/a	3	n/a	n/a	n/a	n/a	101.175	n/a
72.243	0.497	angry	Picture	34.303	n/a	1	3	2	n/a	42	92	3	n/a	n/a	n/a	n/a	101.705	AF21ANS.jpg
72.741	0.514	Blank	Blank	33.789	n/a	1	3	2	n/a	42	n/a	3	n/a	n/a	n/a	n/a	102.203	n/a
73.271	0.497	angry	Picture	33.275	n/a	1	3	3	n/a	43	86	3	n/a	n/a	n/a	n/a	102.733	AF09ANS.jpg
73.769	0.514	Blank	Blank	32.761	n/a	1	3	3	n/a	43	n/a	3	n/a	n/a	n/a	n/a	103.231	n/a
74.299	0.497	angry	Picture	32.247	n/a	1	3	4	n/a	44	93	3	n/a	n/a	n/a	n/a	103.761	BF22ANS.jpg
74.797	0.514	Blank	Blank	31.733	n/a	1	3	4	n/a	44	n/a	3	n/a	n/a	n/a	n/a	104.258	n/a
75.327	0.497	angry	Picture	31.219	n/a	1	3	5	n/a	45	88	3	n/a	n/a	n/a	n/a	104.789	AF14ANS.jpg
75.825	0.514	Blank	Blank	30.705	n/a	1	3	5	n/a	45	n/a	3	n/a	n/a	n/a	n/a	105.286	n/a
76.355	0.497	angry	Picture	30.192	n/a	1	3	6	n/a	46	113	3	n/a	n/a	n/a	n/a	105.817	AM21ANS.jpg
76.852	0.514	Blank	Blank	29.678	n/a	1	3	6	n/a	46	n/a	3	n/a	n/a	n/a	n/a	106.314	n/a
77.383	0.497	angry	Picture	29.164	n/a	1	3	7	n/a	47	95	3	n/a	n/a	n/a	n/a	106.845	AF25ANS.jpg
77.88	0.514	Blank	Blank	28.65	n/a	1	3	7	n/a	47	n/a	3	n/a	n/a	n/a	n/a	107.342	n/a
78.411	0.497	angry	Picture	28.136	n/a	1	3	8	n/a	48	102	3	n/a	n/a	n/a	n/a	107.873	BM03ANS.jpg
78.908	0.514	Blank	Blank	27.622	n/a	1	3	8	n/a	48	n/a	3	n/a	n/a	n/a	n/a	108.37	n/a
79.439	0.497	angry	Picture	27.108	n/a	1	3	9	n/a	49	112	3	n/a	n/a	n/a	n/a	108.9	AM14ANS.jpg
79.936	0.514	Blank	Blank	26.594	n/a	1	3	9	n/a	49	n/a	3	n/a	n/a	n/a	n/a	109.398	n/a
80.466	0.497	angry	Picture	26.08	n/a	1	3	10	n/a	50	83	3	n/a	n/a	n/a	n/a	109.928	BF04ANS.jpg
80.964	0.514	Blank	Blank	25.566	n/a	1	3	10	n/a	50	n/a	3	n/a	n/a	n/a	n/a	110.426	n/a
81.494	0.497	angry	Picture	25.052	n/a	1	3	11	n/a	51	90	3	n/a	n/a	n/a	n/a	110.956	AF18ANS.jpg
81.992	0.514	Blank	Blank	24.538	n/a	1	3	11	n/a	51	n/a	3	n/a	n/a	n/a	n/a	111.454	n/a
82.522	0.497	angry	Picture	24.024	n/a	1	3	12	n/a	52	117	3	n/a	n/a	n/a	n/a	111.984	BM25ANS.jpg
83.02	0.514	Blank	Blank	23.51	n/a	1	3	12	n/a	52	n/a	3	n/a	n/a	n/a	n/a	112.481	n/a
83.55	0.497	angry	Picture	22.996	n/a	1	3	13	n/a	53	94	3	n/a	n/a	n/a	n/a	113.012	AF23ANS.jpg
84.047	0.514	Blank	Blank	22.482	n/a	1	3	13	n/a	53	n/a	3	n/a	n/a	n/a	n/a	113.509	n/a
84.578	0.497	angry	Picture	21.968	n/a	1	3	14	n/a	54	106	3	n/a	n/a	n/a	n/a	114.04	AM07ANS.jpg
85.075	0.514	Blank	Blank	21.455	n/a	1	3	14	n/a	54	n/a	3	n/a	n/a	n/a	n/a	114.537	n/a
85.606	0.497	angry	Picture	20.941	n/a	1	3	15	n/a	55	105	3	n/a	n/a	n/a	n/a	115.068	BM06ANS.jpg
86.103	0.514	Blank	Blank	20.427	n/a	1	3	15	n/a	55	n/a	3	n/a	n/a	n/a	n/a	115.565	n/a
86.634	0.497	angry	Picture	19.913	n/a	1	3	16	n/a	56	116	3	n/a	n/a	n/a	n/a	116.096	BM24ANS.jpg
87.131	0.514	Blank	Blank	19.399	n/a	1	3	16	n/a	56	n/a	3	n/a	n/a	n/a	n/a	116.593	n/a
87.662	0.497	angry	Picture	18.885	n/a	1	3	17	n/a	57	89	3	n/a	n/a	n/a	n/a	117.124	AF17ANS.jpg
88.159	0.514	Blank	Blank	18.371	n/a	1	3	17	n/a	57	n/a	3	n/a	n/a	n/a	n/a	117.621	n/a
88.69	0.497	angry	Picture	17.857	n/a	1	3	18	n/a	58	118	3	n/a	n/a	n/a	n/a	118.151	BM26ANS.jpg
89.187	0.514	Blank	Blank	17.343	n/a	1	3	18	n/a	58	n/a	3	n/a	n/a	n/a	n/a	118.649	n/a
89.718	0.497	angry	Picture	16.829	n/a	1	3	19	n/a	59	100	3	n/a	n/a	n/a	n/a	119.179	AF32ANS.jpg
90.215	0.514	Blank	Blank	16.315	n/a	1	3	19	n/a	59	n/a	3	n/a	n/a	n/a	n/a	119.677	n/a
90.745	0.497	angry	Picture	15.801	n/a	1	3	20	n/a	60	119	3	n/a	n/a	n/a	n/a	120.207	BM28ANS.jpg
91.243	0.514	Blank	Blank	15.287	n/a	1	3	20	n/a	60	n/a	3	n/a	n/a	n/a	n/a	120.705	n/a
91.773	10.014	ITI	Fixation+	5.257	n/a	1	n/a	n/a	n/a	n/a	n/a	n/a	n/a	n/a	n/a	n/a	121.235	n/a
107.044	n/a	ConfirmRating	Rate	n/a	5.239	1	n/a	n/a	0	n/a	n/a	n/a	2	Angry	41	49	136.506	n/a
110.127	n/a	ConfirmRating	Rate	n/a	3.067	1	n/a	n/a	1	n/a	n/a	n/a	3	Angry	0	48	139.589	n/a
110.159	10.014	ITI	Fixation+	95.135	n/a	2	n/a	n/a	n/a	n/a	n/a	n/a	n/a	n/a	n/a	n/a	139.621	n/a
120.189	0.497	happy	Picture	94.621	n/a	2	4	1	n/a	61	79	2	n/a	n/a	n/a	n/a	149.651	BM28HAS.jpg
120.687	0.514	Blank	Blank	94.107	n/a	2	4	1	n/a	61	n/a	2	n/a	n/a	n/a	n/a	150.149	n/a
121.217	0.497	happy	Picture	93.593	n/a	2	4	2	n/a	62	61	2	n/a	n/a	n/a	n/a	150.679	AM01HAS.jpg
121.715	0.514	Blank	Blank	93.079	n/a	2	4	2	n/a	62	n/a	2	n/a	n/a	n/a	n/a	151.176	n/a
122.245	0.497	happy	Picture	92.565	n/a	2	4	3	n/a	63	57	2	n/a	n/a	n/a	n/a	151.707	BF28HAS.jpg
122.742	0.514	Blank	Blank	92.051	n/a	2	4	3	n/a	63	n/a	2	n/a	n/a	n/a	n/a	152.204	n/a
123.273	0.497	happy	Picture	91.537	n/a	2	4	4	n/a	64	77	2	n/a	n/a	n/a	n/a	152.735	BM25HAS.jpg
123.77	0.514	Blank	Blank	91.023	n/a	2	4	4	n/a	64	n/a	2	n/a	n/a	n/a	n/a	153.232	n/a
124.301	0.497	happy	Picture	90.509	n/a	2	4	5	n/a	65	47	2	n/a	n/a	n/a	n/a	153.763	BF11HAS.jpg
124.798	0.514	Blank	Blank	89.995	n/a	2	4	5	n/a	65	n/a	2	n/a	n/a	n/a	n/a	154.26	n/a
125.329	0.497	happy	Picture	89.481	n/a	2	4	6	n/a	66	50	2	n/a	n/a	n/a	n/a	154.791	AF18HAS.jpg
125.826	0.514	Blank	Blank	88.967	n/a	2	4	6	n/a	66	n/a	2	n/a	n/a	n/a	n/a	155.288	n/a
126.356	0.497	happy	Picture	88.453	n/a	2	4	7	n/a	67	78	2	n/a	n/a	n/a	n/a	155.818	BM26HAS.jpg
126.854	0.514	Blank	Blank	87.939	n/a	2	4	7	n/a	67	n/a	2	n/a	n/a	n/a	n/a	156.316	n/a
127.384	0.497	happy	Picture	87.425	n/a	2	4	8	n/a	68	45	2	n/a	n/a	n/a	n/a	156.846	BF07HAS.jpg
127.882	0.514	Blank	Blank	86.912	n/a	2	4	8	n/a	68	n/a	2	n/a	n/a	n/a	n/a	157.344	n/a
128.412	0.497	happy	Picture	86.398	n/a	2	4	9	n/a	69	56	2	n/a	n/a	n/a	n/a	157.874	AF26HAS.jpg
128.91	0.514	Blank	Blank	85.884	n/a	2	4	9	n/a	69	n/a	2	n/a	n/a	n/a	n/a	158.371	n/a
129.44	0.497	happy	Picture	85.37	n/a	2	4	10	n/a	70	65	2	n/a	n/a	n/a	n/a	158.902	BM06HAS.jpg
129.938	0.514	Blank	Blank	84.856	n/a	2	4	10	n/a	70	n/a	2	n/a	n/a	n/a	n/a	159.399	n/a
130.468	0.497	happy	Picture	84.342	n/a	2	4	11	n/a	71	73	2	n/a	n/a	n/a	n/a	159.93	AM21HAS.jpg
130.965	0.514	Blank	Blank	83.828	n/a	2	4	11	n/a	71	n/a	2	n/a	n/a	n/a	n/a	160.427	n/a
131.496	0.498	happy	Picture	83.314	n/a	2	4	12	n/a	72	41	2	n/a	n/a	n/a	n/a	160.958	AF01HAS.jpg
131.993	0.514	Blank	Blank	82.8	n/a	2	4	12	n/a	72	n/a	2	n/a	n/a	n/a	n/a	161.455	n/a
132.524	0.497	happy	Picture	82.286	n/a	2	4	13	n/a	73	59	2	n/a	n/a	n/a	n/a	161.986	AF31HAS.jpg
133.021	0.514	Blank	Blank	81.772	n/a	2	4	13	n/a	73	n/a	2	n/a	n/a	n/a	n/a	162.483	n/a
133.552	0.497	happy	Picture	81.258	n/a	2	4	14	n/a	74	64	2	n/a	n/a	n/a	n/a	163.014	BM05HAS.jpg
134.049	0.514	Blank	Blank	80.744	n/a	2	4	14	n/a	74	n/a	2	n/a	n/a	n/a	n/a	163.511	n/a
134.58	0.497	happy	Picture	80.23	n/a	2	4	15	n/a	75	68	2	n/a	n/a	n/a	n/a	164.042	AM09HAS.jpg
135.077	0.514	Blank	Blank	79.716	n/a	2	4	15	n/a	75	n/a	2	n/a	n/a	n/a	n/a	164.539	n/a
135.607	0.497	happy	Picture	79.203	n/a	2	4	16	n/a	76	54	2	n/a	n/a	n/a	n/a	165.069	AF23HAS.jpg
136.105	0.514	Blank	Blank	78.688	n/a	2	4	16	n/a	76	n/a	2	n/a	n/a	n/a	n/a	165.567	n/a
136.635	0.497	happy	Picture	78.175	n/a	2	4	17	n/a	77	53	2	n/a	n/a	n/a	n/a	166.097	BF22HAS.jpg
137.133	0.514	Blank	Blank	77.661	n/a	2	4	17	n/a	77	n/a	2	n/a	n/a	n/a	n/a	166.595	n/a
137.663	0.497	happy	Picture	77.147	n/a	2	4	18	n/a	78	44	2	n/a	n/a	n/a	n/a	167.125	AF05HAS.jpg
138.161	0.514	Blank	Blank	76.633	n/a	2	4	18	n/a	78	n/a	2	n/a	n/a	n/a	n/a	167.623	n/a
138.691	0.497	happy	Picture	76.119	n/a	2	4	19	n/a	79	52	2	n/a	n/a	n/a	n/a	168.153	AF21HAS.jpg
139.188	0.514	Blank	Blank	75.605	n/a	2	4	19	n/a	79	n/a	2	n/a	n/a	n/a	n/a	168.65	n/a
139.719	0.497	happy	Picture	75.091	n/a	2	4	20	n/a	80	62	2	n/a	n/a	n/a	n/a	169.181	BM03HAS.jpg
140.216	0.514	Blank	Blank	74.577	n/a	2	4	20	n/a	80	n/a	2	n/a	n/a	n/a	n/a	169.678	n/a
140.747	10.014	ITI	Fixation+	64.547	n/a	2	n/a	n/a	n/a	n/a	n/a	n/a	n/a	n/a	n/a	n/a	170.209	n/a
150.777	0.497	neutral	Picture	64.033	n/a	2	5	1	n/a	81	23	1	n/a	n/a	n/a	n/a	180.239	AM04NES.jpg
151.274	0.514	Blank	Blank	63.519	n/a	2	5	1	n/a	81	n/a	1	n/a	n/a	n/a	n/a	180.736	n/a
151.805	0.497	neutral	Picture	63.005	n/a	2	5	2	n/a	82	29	1	n/a	n/a	n/a	n/a	181.267	AM10NES.jpg
152.302	0.514	Blank	Blank	62.491	n/a	2	5	2	n/a	82	n/a	1	n/a	n/a	n/a	n/a	181.764	n/a
152.833	0.497	neutral	Picture	61.977	n/a	2	5	3	n/a	83	24	1	n/a	n/a	n/a	n/a	182.295	BM05NES.jpg
153.33	0.514	Blank	Blank	61.463	n/a	2	5	3	n/a	83	n/a	1	n/a	n/a	n/a	n/a	182.792	n/a
153.861	0.497	neutral	Picture	60.949	n/a	2	5	4	n/a	84	12	1	n/a	n/a	n/a	n/a	183.323	AF21NES.jpg
154.358	0.514	Blank	Blank	60.435	n/a	2	5	4	n/a	84	n/a	1	n/a	n/a	n/a	n/a	183.82	n/a
154.889	0.497	neutral	Picture	59.921	n/a	2	5	5	n/a	85	13	1	n/a	n/a	n/a	n/a	184.351	BF22NES.jpg
155.386	0.514	Blank	Blank	59.407	n/a	2	5	5	n/a	85	n/a	1	n/a	n/a	n/a	n/a	184.848	n/a
155.916	0.497	neutral	Picture	58.893	n/a	2	5	6	n/a	86	17	1	n/a	n/a	n/a	n/a	185.378	BF28NES.jpg
156.414	0.514	Blank	Blank	58.38	n/a	2	5	6	n/a	86	n/a	1	n/a	n/a	n/a	n/a	185.876	n/a
156.944	0.497	neutral	Picture	57.866	n/a	2	5	7	n/a	87	4	1	n/a	n/a	n/a	n/a	186.406	AF05NES.jpg
157.442	0.514	Blank	Blank	57.352	n/a	2	5	7	n/a	87	n/a	1	n/a	n/a	n/a	n/a	186.904	n/a
157.972	0.497	neutral	Picture	56.838	n/a	2	5	8	n/a	88	11	1	n/a	n/a	n/a	n/a	187.434	AF20NES.jpg
158.47	0.514	Blank	Blank	56.324	n/a	2	5	8	n/a	88	n/a	1	n/a	n/a	n/a	n/a	187.931	n/a
159.0	0.494	neutral	Picture	55.813	n/a	2	5	9	n/a	89	22	1	n/a	n/a	n/a	n/a	188.462	BM03NES.jpg
159.495	0.517	Blank	Blank	55.296	n/a	2	5	9	n/a	89	n/a	1	n/a	n/a	n/a	n/a	188.957	n/a
160.028	0.497	neutral	Picture	54.782	n/a	2	5	10	n/a	90	15	1	n/a	n/a	n/a	n/a	189.49	AF25NES.jpg
160.525	0.514	Blank	Blank	54.268	n/a	2	5	10	n/a	90	n/a	1	n/a	n/a	n/a	n/a	189.987	n/a
161.056	0.497	neutral	Picture	53.754	n/a	2	5	11	n/a	91	19	1	n/a	n/a	n/a	n/a	190.518	AF31NES.jpg
161.553	0.514	Blank	Blank	53.24	n/a	2	5	11	n/a	91	n/a	1	n/a	n/a	n/a	n/a	191.015	n/a
162.084	0.497	neutral	Picture	52.726	n/a	2	5	12	n/a	92	9	1	n/a	n/a	n/a	n/a	191.546	AF17NES.jpg
162.581	0.514	Blank	Blank	52.212	n/a	2	5	12	n/a	92	n/a	1	n/a	n/a	n/a	n/a	192.043	n/a
163.112	0.497	neutral	Picture	51.698	n/a	2	5	13	n/a	93	14	1	n/a	n/a	n/a	n/a	192.573	AF23NES.jpg
163.609	0.514	Blank	Blank	51.184	n/a	2	5	13	n/a	93	n/a	1	n/a	n/a	n/a	n/a	193.071	n/a
164.139	0.497	neutral	Picture	50.67	n/a	2	5	14	n/a	94	36	1	n/a	n/a	n/a	n/a	193.601	BM24NES.jpg
164.637	0.514	Blank	Blank	50.156	n/a	2	5	14	n/a	94	n/a	1	n/a	n/a	n/a	n/a	194.099	n/a
165.167	0.497	neutral	Picture	49.643	n/a	2	5	15	n/a	95	34	1	n/a	n/a	n/a	n/a	194.629	AM22NES.jpg
165.665	0.514	Blank	Blank	49.129	n/a	2	5	15	n/a	95	n/a	1	n/a	n/a	n/a	n/a	195.127	n/a
166.195	0.497	neutral	Picture	48.615	n/a	2	5	16	n/a	96	10	1	n/a	n/a	n/a	n/a	195.657	AF18NES.jpg
166.693	0.514	Blank	Blank	48.101	n/a	2	5	16	n/a	96	n/a	1	n/a	n/a	n/a	n/a	196.155	n/a
167.223	0.497	neutral	Picture	47.587	n/a	2	5	17	n/a	97	5	1	n/a	n/a	n/a	n/a	196.685	BF07NES.jpg
167.721	0.514	Blank	Blank	47.073	n/a	2	5	17	n/a	97	n/a	1	n/a	n/a	n/a	n/a	197.182	n/a
168.251	0.497	neutral	Picture	46.559	n/a	2	5	18	n/a	98	25	1	n/a	n/a	n/a	n/a	197.713	BM06NES.jpg
168.748	0.514	Blank	Blank	46.045	n/a	2	5	18	n/a	98	n/a	1	n/a	n/a	n/a	n/a	198.21	n/a
169.279	0.497	neutral	Picture	45.531	n/a	2	5	19	n/a	99	39	1	n/a	n/a	n/a	n/a	198.741	AM28NES.jpg
169.776	0.514	Blank	Blank	45.017	n/a	2	5	19	n/a	99	n/a	1	n/a	n/a	n/a	n/a	199.238	n/a
170.307	0.497	neutral	Picture	44.503	n/a	2	5	20	n/a	100	33	1	n/a	n/a	n/a	n/a	199.769	AM21NES.jpg
170.804	0.514	Blank	Blank	43.989	n/a	2	5	20	n/a	100	n/a	1	n/a	n/a	n/a	n/a	200.266	n/a
171.335	10.014	ITI	Fixation+	33.959	n/a	2	n/a	n/a	n/a	n/a	n/a	n/a	n/a	n/a	n/a	n/a	200.797	n/a
181.365	0.497	happy	Picture	33.445	n/a	2	6	1	n/a	101	74	2	n/a	n/a	n/a	n/a	210.827	AM22HAS.jpg
181.862	0.514	Blank	Blank	32.931	n/a	2	6	1	n/a	101	n/a	2	n/a	n/a	n/a	n/a	211.324	n/a
182.393	0.497	happy	Picture	32.417	n/a	2	6	2	n/a	102	76	2	n/a	n/a	n/a	n/a	211.855	BM24HAS.jpg
182.89	0.514	Blank	Blank	31.903	n/a	2	6	2	n/a	102	n/a	2	n/a	n/a	n/a	n/a	212.352	n/a
183.421	0.497	happy	Picture	31.389	n/a	2	6	3	n/a	103	80	2	n/a	n/a	n/a	n/a	212.882	BM35HAS.jpg
183.918	0.514	Blank	Blank	30.875	n/a	2	6	3	n/a	103	n/a	2	n/a	n/a	n/a	n/a	213.38	n/a
184.449	0.497	happy	Picture	30.361	n/a	2	6	4	n/a	104	75	2	n/a	n/a	n/a	n/a	213.91	AM23HAS.jpg
184.946	0.514	Blank	Blank	29.847	n/a	2	6	4	n/a	104	n/a	2	n/a	n/a	n/a	n/a	214.408	n/a
185.476	0.497	happy	Picture	29.334	n/a	2	6	5	n/a	105	49	2	n/a	n/a	n/a	n/a	214.938	AF17HAS.jpg
185.974	0.514	Blank	Blank	28.82	n/a	2	6	5	n/a	105	n/a	2	n/a	n/a	n/a	n/a	215.436	n/a
186.504	0.497	happy	Picture	28.306	n/a	2	6	6	n/a	106	43	2	n/a	n/a	n/a	n/a	215.966	BF04HAS.jpg
187.002	0.514	Blank	Blank	27.792	n/a	2	6	6	n/a	106	n/a	2	n/a	n/a	n/a	n/a	216.464	n/a
187.532	0.497	happy	Picture	27.278	n/a	2	6	7	n/a	107	70	2	n/a	n/a	n/a	n/a	216.994	BM11HAS.jpg
188.029	0.514	Blank	Blank	26.764	n/a	2	6	7	n/a	107	n/a	2	n/a	n/a	n/a	n/a	217.491	n/a
188.56	0.497	happy	Picture	26.25	n/a	2	6	8	n/a	108	66	2	n/a	n/a	n/a	n/a	218.022	BM07HAS.jpg
189.057	0.514	Blank	Blank	25.736	n/a	2	6	8	n/a	108	n/a	2	n/a	n/a	n/a	n/a	218.519	n/a
189.588	0.497	happy	Picture	25.222	n/a	2	6	9	n/a	109	48	2	n/a	n/a	n/a	n/a	219.05	AF14HAS.jpg
190.085	0.514	Blank	Blank	24.708	n/a	2	6	9	n/a	109	n/a	2	n/a	n/a	n/a	n/a	219.547	n/a
190.616	0.497	happy	Picture	24.194	n/a	2	6	10	n/a	110	58	2	n/a	n/a	n/a	n/a	220.078	BF29HAS.jpg
191.113	0.514	Blank	Blank	23.68	n/a	2	6	10	n/a	110	n/a	2	n/a	n/a	n/a	n/a	220.575	n/a
191.644	0.497	happy	Picture	23.166	n/a	2	6	11	n/a	111	63	2	n/a	n/a	n/a	n/a	221.106	AM04HAS.jpg
192.141	0.514	Blank	Blank	22.652	n/a	2	6	11	n/a	111	n/a	2	n/a	n/a	n/a	n/a	221.603	n/a
192.671	0.497	happy	Picture	22.138	n/a	2	6	12	n/a	112	72	2	n/a	n/a	n/a	n/a	222.133	AM14HAS.jpg
193.169	0.514	Blank	Blank	21.624	n/a	2	6	12	n/a	112	n/a	2	n/a	n/a	n/a	n/a	222.631	n/a
193.699	0.497	happy	Picture	21.11	n/a	2	6	13	n/a	113	55	2	n/a	n/a	n/a	n/a	223.161	AF25HAS.jpg
194.197	0.514	Blank	Blank	20.597	n/a	2	6	13	n/a	113	n/a	2	n/a	n/a	n/a	n/a	223.659	n/a
194.727	0.497	happy	Picture	20.083	n/a	2	6	14	n/a	114	42	2	n/a	n/a	n/a	n/a	224.189	AF03HAS.jpg
195.225	0.514	Blank	Blank	19.569	n/a	2	6	14	n/a	114	n/a	2	n/a	n/a	n/a	n/a	224.687	n/a
195.755	0.497	happy	Picture	19.055	n/a	2	6	15	n/a	115	60	2	n/a	n/a	n/a	n/a	225.217	AF32HAS.jpg
196.253	0.514	Blank	Blank	18.541	n/a	2	6	15	n/a	115	n/a	2	n/a	n/a	n/a	n/a	225.714	n/a
196.783	0.497	happy	Picture	18.027	n/a	2	6	16	n/a	116	67	2	n/a	n/a	n/a	n/a	226.245	BM08HAS.jpg
197.28	0.514	Blank	Blank	17.513	n/a	2	6	16	n/a	116	n/a	2	n/a	n/a	n/a	n/a	226.742	n/a
197.811	0.497	happy	Picture	16.999	n/a	2	6	17	n/a	117	51	2	n/a	n/a	n/a	n/a	227.273	AF20HAS.jpg
198.308	0.514	Blank	Blank	16.485	n/a	2	6	17	n/a	117	n/a	2	n/a	n/a	n/a	n/a	227.77	n/a
198.839	0.497	happy	Picture	15.971	n/a	2	6	18	n/a	118	71	2	n/a	n/a	n/a	n/a	228.301	BM12HAS.jpg
199.336	0.514	Blank	Blank	15.457	n/a	2	6	18	n/a	118	n/a	2	n/a	n/a	n/a	n/a	228.798	n/a
199.867	0.497	happy	Picture	14.943	n/a	2	6	19	n/a	119	69	2	n/a	n/a	n/a	n/a	229.329	AM10HAS.jpg
200.364	0.514	Blank	Blank	14.429	n/a	2	6	19	n/a	119	n/a	2	n/a	n/a	n/a	n/a	229.826	n/a
200.895	0.497	happy	Picture	13.915	n/a	2	6	20	n/a	120	46	2	n/a	n/a	n/a	n/a	230.357	AF09HAS.jpg
201.392	0.514	Blank	Blank	13.401	n/a	2	6	20	n/a	120	n/a	2	n/a	n/a	n/a	n/a	230.854	n/a
201.923	10.014	ITI	Fixation+	3.371	n/a	2	n/a	n/a	n/a	n/a	n/a	n/a	n/a	n/a	n/a	n/a	231.384	n/a
215.307	n/a	ConfirmRating	Rate	n/a	3.366	2	n/a	n/a	0	n/a	n/a	n/a	2	Happy	73	52	244.769	n/a
217.852	n/a	ConfirmRating	Rate	n/a	2.52	2	n/a	n/a	1	n/a	n/a	n/a	3	Happy	0	48	247.314	n/a
217.871	15.004	Rest	Picture	n/a	n/a	n/a	n/a	n/a	n/a	n/a	n/a	n/a	0	n/a	0	0	247.333	n/a
232.892	10.014	ITI	Fixation+	94.169	n/a	3	n/a	n/a	n/a	n/a	n/a	n/a	n/a	n/a	n/a	n/a	262.353	n/a
242.922	0.497	angry	Picture	93.656	n/a	3	7	1	n/a	1	108	3	n/a	n/a	n/a	n/a	272.384	AM09ANS.jpg
243.419	0.514	Blank	Blank	93.142	n/a	3	7	1	n/a	1	n/a	3	n/a	n/a	n/a	n/a	272.881	n/a
243.95	0.497	angry	Picture	92.628	n/a	3	7	2	n/a	2	99	3	n/a	n/a	n/a	n/a	273.411	AF31ANS.jpg
244.447	0.514	Blank	Blank	92.114	n/a	3	7	2	n/a	2	n/a	3	n/a	n/a	n/a	n/a	273.909	n/a
244.977	0.497	angry	Picture	91.6	n/a	3	7	3	n/a	3	98	3	n/a	n/a	n/a	n/a	274.439	BF29ANS.jpg
245.475	0.514	Blank	Blank	91.086	n/a	3	7	3	n/a	3	n/a	3	n/a	n/a	n/a	n/a	274.937	n/a
246.005	0.497	angry	Picture	90.572	n/a	3	7	4	n/a	4	107	3	n/a	n/a	n/a	n/a	275.467	BM08ANS.jpg
246.503	0.514	Blank	Blank	90.058	n/a	3	7	4	n/a	4	n/a	3	n/a	n/a	n/a	n/a	275.965	n/a
247.033	0.497	angry	Picture	89.544	n/a	3	7	5	n/a	5	104	3	n/a	n/a	n/a	n/a	276.495	BM05ANS.jpg
247.531	0.514	Blank	Blank	89.03	n/a	3	7	5	n/a	5	n/a	3	n/a	n/a	n/a	n/a	276.993	n/a
248.061	0.497	angry	Picture	88.516	n/a	3	7	6	n/a	6	101	3	n/a	n/a	n/a	n/a	277.523	AM01ANS.jpg
248.558	0.514	Blank	Blank	88.002	n/a	3	7	6	n/a	6	n/a	3	n/a	n/a	n/a	n/a	278.02	n/a
249.089	0.497	angry	Picture	87.488	n/a	3	7	7	n/a	7	103	3	n/a	n/a	n/a	n/a	278.551	AM04ANS.jpg
249.586	0.514	Blank	Blank	86.974	n/a	3	7	7	n/a	7	n/a	3	n/a	n/a	n/a	n/a	279.048	n/a
250.117	0.497	angry	Picture	86.46	n/a	3	7	8	n/a	8	111	3	n/a	n/a	n/a	n/a	279.579	BM12ANS.jpg
250.614	0.514	Blank	Blank	85.946	n/a	3	7	8	n/a	8	n/a	3	n/a	n/a	n/a	n/a	280.076	n/a
251.145	0.497	angry	Picture	85.432	n/a	3	7	9	n/a	9	110	3	n/a	n/a	n/a	n/a	280.607	AM11ANS.jpg
251.642	0.514	Blank	Blank	84.918	n/a	3	7	9	n/a	9	n/a	3	n/a	n/a	n/a	n/a	281.104	n/a
252.173	0.497	angry	Picture	84.405	n/a	3	7	10	n/a	10	85	3	n/a	n/a	n/a	n/a	281.635	BF07ANS.jpg
252.67	0.514	Blank	Blank	83.891	n/a	3	7	10	n/a	10	n/a	3	n/a	n/a	n/a	n/a	282.132	n/a
253.201	0.497	angry	Picture	83.377	n/a	3	7	11	n/a	11	87	3	n/a	n/a	n/a	n/a	282.663	BF11ANS.jpg
253.698	0.514	Blank	Blank	82.863	n/a	3	7	11	n/a	11	n/a	3	n/a	n/a	n/a	n/a	283.16	n/a
254.228	0.497	angry	Picture	82.349	n/a	3	7	12	n/a	12	91	3	n/a	n/a	n/a	n/a	283.69	AF20ANS.jpg
254.726	0.514	Blank	Blank	81.835	n/a	3	7	12	n/a	12	n/a	3	n/a	n/a	n/a	n/a	284.188	n/a
255.256	0.497	angry	Picture	81.321	n/a	3	7	13	n/a	13	115	3	n/a	n/a	n/a	n/a	284.718	AM23ANS.jpg
255.754	0.514	Blank	Blank	80.807	n/a	3	7	13	n/a	13	n/a	3	n/a	n/a	n/a	n/a	285.216	n/a
256.284	0.497	angry	Picture	80.293	n/a	3	7	14	n/a	14	97	3	n/a	n/a	n/a	n/a	285.746	BF28ANS.jpg
256.782	0.514	Blank	Blank	79.779	n/a	3	7	14	n/a	14	n/a	3	n/a	n/a	n/a	n/a	286.243	n/a
257.312	0.497	angry	Picture	79.265	n/a	3	7	15	n/a	15	82	3	n/a	n/a	n/a	n/a	286.774	AF03ANS.jpg
257.81	0.514	Blank	Blank	78.751	n/a	3	7	15	n/a	15	n/a	3	n/a	n/a	n/a	n/a	287.271	n/a
258.34	0.497	angry	Picture	78.237	n/a	3	7	16	n/a	16	96	3	n/a	n/a	n/a	n/a	287.802	AF26ANS.jpg
258.837	0.514	Blank	Blank	77.723	n/a	3	7	16	n/a	16	n/a	3	n/a	n/a	n/a	n/a	288.299	n/a
259.368	0.497	angry	Picture	77.209	n/a	3	7	17	n/a	17	109	3	n/a	n/a	n/a	n/a	288.83	AM10ANS.jpg
259.865	0.514	Blank	Blank	76.695	n/a	3	7	17	n/a	17	n/a	3	n/a	n/a	n/a	n/a	289.327	n/a
260.396	0.497	angry	Picture	76.181	n/a	3	7	18	n/a	18	114	3	n/a	n/a	n/a	n/a	289.858	AM22ANS.jpg
260.893	0.514	Blank	Blank	75.667	n/a	3	7	18	n/a	18	n/a	3	n/a	n/a	n/a	n/a	290.355	n/a
261.424	0.497	angry	Picture	75.154	n/a	3	7	19	n/a	19	120	3	n/a	n/a	n/a	n/a	290.886	AM35ANS.jpg
261.921	0.514	Blank	Blank	74.64	n/a	3	7	19	n/a	19	n/a	3	n/a	n/a	n/a	n/a	291.383	n/a
262.452	0.497	angry	Picture	74.126	n/a	3	7	20	n/a	20	81	3	n/a	n/a	n/a	n/a	291.913	AF01ANS.jpg
262.949	0.514	Blank	Blank	73.612	n/a	3	7	20	n/a	20	n/a	3	n/a	n/a	n/a	n/a	292.411	n/a
263.479	10.013	ITI	Fixation+	63.582	n/a	3	n/a	n/a	n/a	n/a	n/a	n/a	n/a	n/a	n/a	n/a	292.941	n/a
273.51	0.497	neutral	Picture	63.068	n/a	3	8	1	n/a	21	28	1	n/a	n/a	n/a	n/a	302.971	AM09NES.jpg
274.007	0.514	Blank	Blank	62.554	n/a	3	8	1	n/a	21	n/a	1	n/a	n/a	n/a	n/a	303.469	n/a
274.537	0.497	neutral	Picture	62.04	n/a	3	8	2	n/a	22	27	1	n/a	n/a	n/a	n/a	303.999	BM08NES.jpg
275.035	0.514	Blank	Blank	61.526	n/a	3	8	2	n/a	22	n/a	1	n/a	n/a	n/a	n/a	304.497	n/a
275.565	0.497	neutral	Picture	61.012	n/a	3	8	3	n/a	23	16	1	n/a	n/a	n/a	n/a	305.027	AF26NES.jpg
276.063	0.514	Blank	Blank	60.498	n/a	3	8	3	n/a	23	n/a	1	n/a	n/a	n/a	n/a	305.525	n/a
276.593	0.497	neutral	Picture	59.984	n/a	3	8	4	n/a	24	3	1	n/a	n/a	n/a	n/a	306.055	BF04NES.jpg
277.091	0.514	Blank	Blank	59.47	n/a	3	8	4	n/a	24	n/a	1	n/a	n/a	n/a	n/a	306.553	n/a
277.621	0.497	neutral	Picture	58.956	n/a	3	8	5	n/a	25	32	1	n/a	n/a	n/a	n/a	307.083	AM14NES.jpg
278.118	0.514	Blank	Blank	58.442	n/a	3	8	5	n/a	25	n/a	1	n/a	n/a	n/a	n/a	307.58	n/a
278.649	0.497	neutral	Picture	57.928	n/a	3	8	6	n/a	26	37	1	n/a	n/a	n/a	n/a	308.111	BM25NES.jpg
279.146	0.514	Blank	Blank	57.414	n/a	3	8	6	n/a	26	n/a	1	n/a	n/a	n/a	n/a	308.608	n/a
279.677	0.497	neutral	Picture	56.9	n/a	3	8	7	n/a	27	15	1	n/a	n/a	n/a	n/a	309.139	AF25NES.jpg
280.174	0.514	Blank	Blank	56.386	n/a	3	8	7	n/a	27	n/a	1	n/a	n/a	n/a	n/a	309.636	n/a
280.705	0.497	neutral	Picture	55.873	n/a	3	8	8	n/a	28	23	1	n/a	n/a	n/a	n/a	310.167	AM04NES.jpg
281.202	0.514	Blank	Blank	55.358	n/a	3	8	8	n/a	28	n/a	1	n/a	n/a	n/a	n/a	310.664	n/a
281.733	0.497	neutral	Picture	54.845	n/a	3	8	9	n/a	29	34	1	n/a	n/a	n/a	n/a	311.195	AM22NES.jpg
282.23	0.514	Blank	Blank	54.331	n/a	3	8	9	n/a	29	n/a	1	n/a	n/a	n/a	n/a	311.692	n/a
282.76	0.497	neutral	Picture	53.817	n/a	3	8	10	n/a	30	24	1	n/a	n/a	n/a	n/a	312.222	BM05NES.jpg
283.258	0.514	Blank	Blank	53.303	n/a	3	8	10	n/a	30	n/a	1	n/a	n/a	n/a	n/a	312.72	n/a
283.788	0.497	neutral	Picture	52.789	n/a	3	8	11	n/a	31	12	1	n/a	n/a	n/a	n/a	313.25	AF21NES.jpg
284.286	0.514	Blank	Blank	52.275	n/a	3	8	11	n/a	31	n/a	1	n/a	n/a	n/a	n/a	313.748	n/a
284.816	0.497	neutral	Picture	51.761	n/a	3	8	12	n/a	32	6	1	n/a	n/a	n/a	n/a	314.278	AF09NES.jpg
285.314	0.514	Blank	Blank	51.247	n/a	3	8	12	n/a	32	n/a	1	n/a	n/a	n/a	n/a	314.776	n/a
285.844	0.497	neutral	Picture	50.733	n/a	3	8	13	n/a	33	17	1	n/a	n/a	n/a	n/a	315.306	BF28NES.jpg
286.341	0.514	Blank	Blank	50.219	n/a	3	8	13	n/a	33	n/a	1	n/a	n/a	n/a	n/a	315.803	n/a
286.872	0.497	neutral	Picture	49.705	n/a	3	8	14	n/a	34	2	1	n/a	n/a	n/a	n/a	316.334	AF03NES.jpg
287.369	0.514	Blank	Blank	49.191	n/a	3	8	14	n/a	34	n/a	1	n/a	n/a	n/a	n/a	316.831	n/a
287.9	0.497	neutral	Picture	48.677	n/a	3	8	15	n/a	35	9	1	n/a	n/a	n/a	n/a	317.362	AF17NES.jpg
288.397	0.514	Blank	Blank	48.163	n/a	3	8	15	n/a	35	n/a	1	n/a	n/a	n/a	n/a	317.859	n/a
288.928	0.497	neutral	Picture	47.649	n/a	3	8	16	n/a	36	25	1	n/a	n/a	n/a	n/a	318.39	BM06NES.jpg
289.425	0.514	Blank	Blank	47.136	n/a	3	8	16	n/a	36	n/a	1	n/a	n/a	n/a	n/a	318.887	n/a
289.956	0.497	neutral	Picture	46.621	n/a	3	8	17	n/a	37	8	1	n/a	n/a	n/a	n/a	319.418	AF14NES.jpg
290.453	0.514	Blank	Blank	46.108	n/a	3	8	17	n/a	37	n/a	1	n/a	n/a	n/a	n/a	319.915	n/a
290.984	0.497	neutral	Picture	45.594	n/a	3	8	18	n/a	38	19	1	n/a	n/a	n/a	n/a	320.445	AF31NES.jpg
291.481	0.514	Blank	Blank	45.08	n/a	3	8	18	n/a	38	n/a	1	n/a	n/a	n/a	n/a	320.943	n/a
292.012	0.497	neutral	Picture	44.566	n/a	3	8	19	n/a	39	14	1	n/a	n/a	n/a	n/a	321.473	AF23NES.jpg
292.509	0.514	Blank	Blank	44.052	n/a	3	8	19	n/a	39	n/a	1	n/a	n/a	n/a	n/a	321.971	n/a
293.039	0.497	neutral	Picture	43.538	n/a	3	8	20	n/a	40	4	1	n/a	n/a	n/a	n/a	322.501	AF05NES.jpg
293.537	0.514	Blank	Blank	43.024	n/a	3	8	20	n/a	40	n/a	1	n/a	n/a	n/a	n/a	322.999	n/a
294.067	10.014	ITI	Fixation+	32.994	n/a	3	n/a	n/a	n/a	n/a	n/a	n/a	n/a	n/a	n/a	n/a	323.529	n/a
304.097	0.497	angry	Picture	32.48	n/a	3	9	1	n/a	41	84	3	n/a	n/a	n/a	n/a	333.559	AF05ANS.jpg
304.595	0.514	Blank	Blank	31.966	n/a	3	9	1	n/a	41	n/a	3	n/a	n/a	n/a	n/a	334.057	n/a
305.125	0.497	angry	Picture	31.452	n/a	3	9	2	n/a	42	92	3	n/a	n/a	n/a	n/a	334.587	AF21ANS.jpg
305.623	0.514	Blank	Blank	30.938	n/a	3	9	2	n/a	42	n/a	3	n/a	n/a	n/a	n/a	335.084	n/a
306.153	0.497	angry	Picture	30.424	n/a	3	9	3	n/a	43	86	3	n/a	n/a	n/a	n/a	335.615	AF09ANS.jpg
306.65	0.514	Blank	Blank	29.91	n/a	3	9	3	n/a	43	n/a	3	n/a	n/a	n/a	n/a	336.112	n/a
307.181	0.497	angry	Picture	29.396	n/a	3	9	4	n/a	44	93	3	n/a	n/a	n/a	n/a	336.643	BF22ANS.jpg
307.678	0.514	Blank	Blank	28.882	n/a	3	9	4	n/a	44	n/a	3	n/a	n/a	n/a	n/a	337.14	n/a
308.209	0.497	angry	Picture	28.368	n/a	3	9	5	n/a	45	88	3	n/a	n/a	n/a	n/a	337.671	AF14ANS.jpg
308.706	0.514	Blank	Blank	27.854	n/a	3	9	5	n/a	45	n/a	3	n/a	n/a	n/a	n/a	338.168	n/a
309.237	0.497	angry	Picture	27.34	n/a	3	9	6	n/a	46	113	3	n/a	n/a	n/a	n/a	338.699	AM21ANS.jpg
309.734	0.514	Blank	Blank	26.827	n/a	3	9	6	n/a	46	n/a	3	n/a	n/a	n/a	n/a	339.196	n/a
310.265	0.497	angry	Picture	26.313	n/a	3	9	7	n/a	47	95	3	n/a	n/a	n/a	n/a	339.727	AF25ANS.jpg
310.762	0.514	Blank	Blank	25.799	n/a	3	9	7	n/a	47	n/a	3	n/a	n/a	n/a	n/a	340.224	n/a
311.293	0.497	angry	Picture	25.285	n/a	3	9	8	n/a	48	102	3	n/a	n/a	n/a	n/a	340.755	BM03ANS.jpg
311.79	0.514	Blank	Blank	24.771	n/a	3	9	8	n/a	48	n/a	3	n/a	n/a	n/a	n/a	341.252	n/a
312.32	0.497	angry	Picture	24.257	n/a	3	9	9	n/a	49	112	3	n/a	n/a	n/a	n/a	341.782	AM14ANS.jpg
312.818	0.514	Blank	Blank	23.743	n/a	3	9	9	n/a	49	n/a	3	n/a	n/a	n/a	n/a	342.28	n/a
313.348	0.497	angry	Picture	23.229	n/a	3	9	10	n/a	50	83	3	n/a	n/a	n/a	n/a	342.81	BF04ANS.jpg
313.846	0.514	Blank	Blank	22.715	n/a	3	9	10	n/a	50	n/a	3	n/a	n/a	n/a	n/a	343.308	n/a
314.376	0.497	angry	Picture	22.201	n/a	3	9	11	n/a	51	90	3	n/a	n/a	n/a	n/a	343.838	AF18ANS.jpg
314.874	0.514	Blank	Blank	21.687	n/a	3	9	11	n/a	51	n/a	3	n/a	n/a	n/a	n/a	344.336	n/a
315.404	0.497	angry	Picture	21.173	n/a	3	9	12	n/a	52	117	3	n/a	n/a	n/a	n/a	344.866	BM25ANS.jpg
315.901	0.514	Blank	Blank	20.659	n/a	3	9	12	n/a	52	n/a	3	n/a	n/a	n/a	n/a	345.363	n/a
316.432	0.497	angry	Picture	20.145	n/a	3	9	13	n/a	53	94	3	n/a	n/a	n/a	n/a	345.894	AF23ANS.jpg
316.929	0.514	Blank	Blank	19.631	n/a	3	9	13	n/a	53	n/a	3	n/a	n/a	n/a	n/a	346.391	n/a
317.46	0.497	angry	Picture	19.117	n/a	3	9	14	n/a	54	106	3	n/a	n/a	n/a	n/a	346.922	AM07ANS.jpg
317.957	0.514	Blank	Blank	18.603	n/a	3	9	14	n/a	54	n/a	3	n/a	n/a	n/a	n/a	347.419	n/a
318.488	0.497	angry	Picture	18.089	n/a	3	9	15	n/a	55	105	3	n/a	n/a	n/a	n/a	347.95	BM06ANS.jpg
318.985	0.514	Blank	Blank	17.576	n/a	3	9	15	n/a	55	n/a	3	n/a	n/a	n/a	n/a	348.447	n/a
319.516	0.497	angry	Picture	17.062	n/a	3	9	16	n/a	56	116	3	n/a	n/a	n/a	n/a	348.978	BM24ANS.jpg
320.013	0.514	Blank	Blank	16.548	n/a	3	9	16	n/a	56	n/a	3	n/a	n/a	n/a	n/a	349.475	n/a
320.543	0.497	angry	Picture	16.034	n/a	3	9	17	n/a	57	89	3	n/a	n/a	n/a	n/a	350.005	AF17ANS.jpg
321.041	0.514	Blank	Blank	15.52	n/a	3	9	17	n/a	57	n/a	3	n/a	n/a	n/a	n/a	350.503	n/a
321.571	0.497	angry	Picture	15.006	n/a	3	9	18	n/a	58	118	3	n/a	n/a	n/a	n/a	351.033	BM26ANS.jpg
322.069	0.514	Blank	Blank	14.492	n/a	3	9	18	n/a	58	n/a	3	n/a	n/a	n/a	n/a	351.531	n/a
322.599	0.497	angry	Picture	13.978	n/a	3	9	19	n/a	59	100	3	n/a	n/a	n/a	n/a	352.061	AF32ANS.jpg
323.097	0.514	Blank	Blank	13.464	n/a	3	9	19	n/a	59	n/a	3	n/a	n/a	n/a	n/a	352.558	n/a
323.627	0.497	angry	Picture	12.95	n/a	3	9	20	n/a	60	119	3	n/a	n/a	n/a	n/a	353.089	BM28ANS.jpg
324.125	0.514	Blank	Blank	12.436	n/a	3	9	20	n/a	60	n/a	3	n/a	n/a	n/a	n/a	353.586	n/a
324.655	10.014	ITI	Fixation+	2.406	n/a	3	n/a	n/a	n/a	n/a	n/a	n/a	n/a	n/a	n/a	n/a	354.117	n/a
337.075	n/a	ConfirmRating	Rate	n/a	2.404	3	n/a	n/a	0	n/a	n/a	n/a	2	Angry	21	49	366.536	n/a
341.25	n/a	ConfirmRating	Rate	n/a	4.145	3	n/a	n/a	1	n/a	n/a	n/a	3	Angry	5	47	370.711	n/a
341.267	10.014	ITI	Fixation+	94.422	n/a	4	n/a	n/a	n/a	n/a	n/a	n/a	n/a	n/a	n/a	n/a	370.729	n/a
351.297	0.497	happy	Picture	93.908	n/a	4	10	1	n/a	61	79	2	n/a	n/a	n/a	n/a	380.759	BM28HAS.jpg
351.794	0.514	Blank	Blank	93.395	n/a	4	10	1	n/a	61	n/a	2	n/a	n/a	n/a	n/a	381.256	n/a
352.325	0.497	happy	Picture	92.881	n/a	4	10	2	n/a	62	61	2	n/a	n/a	n/a	n/a	381.787	AM01HAS.jpg
352.822	0.514	Blank	Blank	92.367	n/a	4	10	2	n/a	62	n/a	2	n/a	n/a	n/a	n/a	382.284	n/a
353.353	0.497	happy	Picture	91.853	n/a	4	10	3	n/a	63	57	2	n/a	n/a	n/a	n/a	382.815	BF28HAS.jpg
353.85	0.514	Blank	Blank	91.339	n/a	4	10	3	n/a	63	n/a	2	n/a	n/a	n/a	n/a	383.312	n/a
354.381	0.497	happy	Picture	90.825	n/a	4	10	4	n/a	64	77	2	n/a	n/a	n/a	n/a	383.843	BM25HAS.jpg
354.878	0.514	Blank	Blank	90.311	n/a	4	10	4	n/a	64	n/a	2	n/a	n/a	n/a	n/a	384.34	n/a
355.409	0.497	happy	Picture	89.797	n/a	4	10	5	n/a	65	47	2	n/a	n/a	n/a	n/a	384.87	BF11HAS.jpg
355.906	0.514	Blank	Blank	89.283	n/a	4	10	5	n/a	65	n/a	2	n/a	n/a	n/a	n/a	385.368	n/a
356.436	0.497	happy	Picture	88.769	n/a	4	10	6	n/a	66	50	2	n/a	n/a	n/a	n/a	385.898	AF18HAS.jpg
356.934	0.514	Blank	Blank	88.255	n/a	4	10	6	n/a	66	n/a	2	n/a	n/a	n/a	n/a	386.396	n/a
357.464	0.497	happy	Picture	87.741	n/a	4	10	7	n/a	67	78	2	n/a	n/a	n/a	n/a	386.926	BM26HAS.jpg
357.962	0.514	Blank	Blank	87.227	n/a	4	10	7	n/a	67	n/a	2	n/a	n/a	n/a	n/a	387.424	n/a
358.492	0.497	happy	Picture	86.713	n/a	4	10	8	n/a	68	45	2	n/a	n/a	n/a	n/a	387.954	BF07HAS.jpg
358.99	0.514	Blank	Blank	86.199	n/a	4	10	8	n/a	68	n/a	2	n/a	n/a	n/a	n/a	388.452	n/a
359.52	0.497	happy	Picture	85.685	n/a	4	10	9	n/a	69	56	2	n/a	n/a	n/a	n/a	388.982	AF26HAS.jpg
360.017	0.514	Blank	Blank	85.171	n/a	4	10	9	n/a	69	n/a	2	n/a	n/a	n/a	n/a	389.479	n/a
360.548	0.497	happy	Picture	84.658	n/a	4	10	10	n/a	70	65	2	n/a	n/a	n/a	n/a	390.01	BM06HAS.jpg
361.045	0.514	Blank	Blank	84.144	n/a	4	10	10	n/a	70	n/a	2	n/a	n/a	n/a	n/a	390.507	n/a
361.576	0.497	happy	Picture	83.63	n/a	4	10	11	n/a	71	73	2	n/a	n/a	n/a	n/a	391.038	AM21HAS.jpg
362.073	0.514	Blank	Blank	83.116	n/a	4	10	11	n/a	71	n/a	2	n/a	n/a	n/a	n/a	391.535	n/a
362.604	0.497	happy	Picture	82.602	n/a	4	10	12	n/a	72	41	2	n/a	n/a	n/a	n/a	392.066	AF01HAS.jpg
363.101	0.514	Blank	Blank	82.088	n/a	4	10	12	n/a	72	n/a	2	n/a	n/a	n/a	n/a	392.563	n/a
363.632	0.497	happy	Picture	81.574	n/a	4	10	13	n/a	73	59	2	n/a	n/a	n/a	n/a	393.094	AF31HAS.jpg
364.129	0.514	Blank	Blank	81.06	n/a	4	10	13	n/a	73	n/a	2	n/a	n/a	n/a	n/a	393.591	n/a
364.66	0.497	happy	Picture	80.546	n/a	4	10	14	n/a	74	64	2	n/a	n/a	n/a	n/a	394.122	BM05HAS.jpg
365.157	0.514	Blank	Blank	80.032	n/a	4	10	14	n/a	74	n/a	2	n/a	n/a	n/a	n/a	394.619	n/a
365.688	0.497	happy	Picture	79.518	n/a	4	10	15	n/a	75	68	2	n/a	n/a	n/a	n/a	395.149	AM09HAS.jpg
366.185	0.514	Blank	Blank	79.004	n/a	4	10	15	n/a	75	n/a	2	n/a	n/a	n/a	n/a	395.647	n/a
366.715	0.497	happy	Picture	78.49	n/a	4	10	16	n/a	76	54	2	n/a	n/a	n/a	n/a	396.177	AF23HAS.jpg
367.213	0.514	Blank	Blank	77.976	n/a	4	10	16	n/a	76	n/a	2	n/a	n/a	n/a	n/a	396.675	n/a
367.743	0.497	happy	Picture	77.462	n/a	4	10	17	n/a	77	53	2	n/a	n/a	n/a	n/a	397.205	BF22HAS.jpg
368.241	0.514	Blank	Blank	76.949	n/a	4	10	17	n/a	77	n/a	2	n/a	n/a	n/a	n/a	397.702	n/a
368.771	0.497	happy	Picture	76.434	n/a	4	10	18	n/a	78	44	2	n/a	n/a	n/a	n/a	398.233	AF05HAS.jpg
369.268	0.514	Blank	Blank	75.921	n/a	4	10	18	n/a	78	n/a	2	n/a	n/a	n/a	n/a	398.73	n/a
369.799	0.497	happy	Picture	75.407	n/a	4	10	19	n/a	79	52	2	n/a	n/a	n/a	n/a	399.261	AF21HAS.jpg
370.296	0.514	Blank	Blank	74.893	n/a	4	10	19	n/a	79	n/a	2	n/a	n/a	n/a	n/a	399.758	n/a
370.827	0.497	happy	Picture	74.379	n/a	4	10	20	n/a	80	62	2	n/a	n/a	n/a	n/a	400.289	BM03HAS.jpg
371.324	0.514	Blank	Blank	73.865	n/a	4	10	20	n/a	80	n/a	2	n/a	n/a	n/a	n/a	400.786	n/a
371.855	10.014	ITI	Fixation+	63.835	n/a	4	n/a	n/a	n/a	n/a	n/a	n/a	n/a	n/a	n/a	n/a	401.317	n/a
381.885	0.497	neutral	Picture	63.321	n/a	4	11	1	n/a	81	23	1	n/a	n/a	n/a	n/a	411.347	AM04NES.jpg
382.382	0.514	Blank	Blank	62.807	n/a	4	11	1	n/a	81	n/a	1	n/a	n/a	n/a	n/a	411.844	n/a
382.913	0.497	neutral	Picture	62.293	n/a	4	11	2	n/a	82	29	1	n/a	n/a	n/a	n/a	412.375	AM10NES.jpg
383.41	0.514	Blank	Blank	61.779	n/a	4	11	2	n/a	82	n/a	1	n/a	n/a	n/a	n/a	412.872	n/a
383.941	0.497	neutral	Picture	61.265	n/a	4	11	3	n/a	83	24	1	n/a	n/a	n/a	n/a	413.403	BM05NES.jpg
384.438	0.514	Blank	Blank	60.751	n/a	4	11	3	n/a	83	n/a	1	n/a	n/a	n/a	n/a	413.9	n/a
384.969	0.497	neutral	Picture	60.237	n/a	4	11	4	n/a	84	12	1	n/a	n/a	n/a	n/a	414.43	AF21NES.jpg
385.466	0.514	Blank	Blank	59.723	n/a	4	11	4	n/a	84	n/a	1	n/a	n/a	n/a	n/a	414.928	n/a
385.996	0.497	neutral	Picture	59.209	n/a	4	11	5	n/a	85	13	1	n/a	n/a	n/a	n/a	415.458	BF22NES.jpg
386.494	0.514	Blank	Blank	58.695	n/a	4	11	5	n/a	85	n/a	1	n/a	n/a	n/a	n/a	415.956	n/a
387.024	0.497	neutral	Picture	58.181	n/a	4	11	6	n/a	86	17	1	n/a	n/a	n/a	n/a	416.486	BF28NES.jpg
387.522	0.514	Blank	Blank	57.667	n/a	4	11	6	n/a	86	n/a	1	n/a	n/a	n/a	n/a	416.984	n/a
388.052	0.497	neutral	Picture	57.153	n/a	4	11	7	n/a	87	4	1	n/a	n/a	n/a	n/a	417.514	AF05NES.jpg
388.55	0.514	Blank	Blank	56.639	n/a	4	11	7	n/a	87	n/a	1	n/a	n/a	n/a	n/a	418.012	n/a
389.08	0.497	neutral	Picture	56.125	n/a	4	11	8	n/a	88	11	1	n/a	n/a	n/a	n/a	418.542	AF20NES.jpg
389.577	0.514	Blank	Blank	55.612	n/a	4	11	8	n/a	88	n/a	1	n/a	n/a	n/a	n/a	419.039	n/a
390.108	0.497	neutral	Picture	55.098	n/a	4	11	9	n/a	89	22	1	n/a	n/a	n/a	n/a	419.57	BM03NES.jpg
390.605	0.514	Blank	Blank	54.584	n/a	4	11	9	n/a	89	n/a	1	n/a	n/a	n/a	n/a	420.067	n/a
391.136	0.497	neutral	Picture	54.07	n/a	4	11	10	n/a	90	15	1	n/a	n/a	n/a	n/a	420.598	AF25NES.jpg
391.633	0.514	Blank	Blank	53.556	n/a	4	11	10	n/a	90	n/a	1	n/a	n/a	n/a	n/a	421.095	n/a
392.164	0.497	neutral	Picture	53.042	n/a	4	11	11	n/a	91	19	1	n/a	n/a	n/a	n/a	421.626	AF31NES.jpg
392.661	0.514	Blank	Blank	52.528	n/a	4	11	11	n/a	91	n/a	1	n/a	n/a	n/a	n/a	422.123	n/a
393.192	0.497	neutral	Picture	52.014	n/a	4	11	12	n/a	92	9	1	n/a	n/a	n/a	n/a	422.654	AF17NES.jpg
393.689	0.514	Blank	Blank	51.5	n/a	4	11	12	n/a	92	n/a	1	n/a	n/a	n/a	n/a	423.151	n/a
394.219	0.497	neutral	Picture	50.986	n/a	4	11	13	n/a	93	14	1	n/a	n/a	n/a	n/a	423.681	AF23NES.jpg
394.717	0.514	Blank	Blank	50.472	n/a	4	11	13	n/a	93	n/a	1	n/a	n/a	n/a	n/a	424.179	n/a
395.247	0.497	neutral	Picture	49.958	n/a	4	11	14	n/a	94	36	1	n/a	n/a	n/a	n/a	424.709	BM24NES.jpg
395.745	0.514	Blank	Blank	49.444	n/a	4	11	14	n/a	94	n/a	1	n/a	n/a	n/a	n/a	425.207	n/a
396.275	0.497	neutral	Picture	48.93	n/a	4	11	15	n/a	95	34	1	n/a	n/a	n/a	n/a	425.737	AM22NES.jpg
396.773	0.514	Blank	Blank	48.416	n/a	4	11	15	n/a	95	n/a	1	n/a	n/a	n/a	n/a	426.235	n/a
397.303	0.497	neutral	Picture	47.902	n/a	4	11	16	n/a	96	10	1	n/a	n/a	n/a	n/a	426.765	AF18NES.jpg
397.8	0.514	Blank	Blank	47.388	n/a	4	11	16	n/a	96	n/a	1	n/a	n/a	n/a	n/a	427.262	n/a
398.331	0.497	neutral	Picture	46.875	n/a	4	11	17	n/a	97	5	1	n/a	n/a	n/a	n/a	427.793	BF07NES.jpg
398.828	0.514	Blank	Blank	46.361	n/a	4	11	17	n/a	97	n/a	1	n/a	n/a	n/a	n/a	428.29	n/a
399.359	0.497	neutral	Picture	45.847	n/a	4	11	18	n/a	98	25	1	n/a	n/a	n/a	n/a	428.821	BM06NES.jpg
399.856	0.514	Blank	Blank	45.333	n/a	4	11	18	n/a	98	n/a	1	n/a	n/a	n/a	n/a	429.318	n/a
400.387	0.497	neutral	Picture	44.819	n/a	4	11	19	n/a	99	39	1	n/a	n/a	n/a	n/a	429.849	AM28NES.jpg
400.884	0.514	Blank	Blank	44.305	n/a	4	11	19	n/a	99	n/a	1	n/a	n/a	n/a	n/a	430.346	n/a
401.415	0.497	neutral	Picture	43.791	n/a	4	11	20	n/a	100	33	1	n/a	n/a	n/a	n/a	430.877	AM21NES.jpg
401.912	0.514	Blank	Blank	43.277	n/a	4	11	20	n/a	100	n/a	1	n/a	n/a	n/a	n/a	431.374	n/a
402.443	10.014	ITI	Fixation+	33.247	n/a	4	n/a	n/a	n/a	n/a	n/a	n/a	n/a	n/a	n/a	n/a	431.904	n/a
412.473	0.497	happy	Picture	32.733	n/a	4	12	1	n/a	101	74	2	n/a	n/a	n/a	n/a	441.935	AM22HAS.jpg
412.97	0.514	Blank	Blank	32.219	n/a	4	12	1	n/a	101	n/a	2	n/a	n/a	n/a	n/a	442.432	n/a
413.501	0.497	happy	Picture	31.705	n/a	4	12	2	n/a	102	76	2	n/a	n/a	n/a	n/a	442.962	BM24HAS.jpg
413.998	0.514	Blank	Blank	31.191	n/a	4	12	2	n/a	102	n/a	2	n/a	n/a	n/a	n/a	443.46	n/a
414.529	0.497	happy	Picture	30.677	n/a	4	12	3	n/a	103	80	2	n/a	n/a	n/a	n/a	443.99	BM35HAS.jpg
415.026	0.514	Blank	Blank	30.163	n/a	4	12	3	n/a	103	n/a	2	n/a	n/a	n/a	n/a	444.488	n/a
415.556	0.497	happy	Picture	29.649	n/a	4	12	4	n/a	104	75	2	n/a	n/a	n/a	n/a	445.018	AM23HAS.jpg
416.054	0.514	Blank	Blank	29.135	n/a	4	12	4	n/a	104	n/a	2	n/a	n/a	n/a	n/a	445.516	n/a
416.584	0.497	happy	Picture	28.621	n/a	4	12	5	n/a	105	49	2	n/a	n/a	n/a	n/a	446.046	AF17HAS.jpg
417.082	0.514	Blank	Blank	28.107	n/a	4	12	5	n/a	105	n/a	2	n/a	n/a	n/a	n/a	446.543	n/a
417.612	0.497	happy	Picture	27.593	n/a	4	12	6	n/a	106	43	2	n/a	n/a	n/a	n/a	447.074	BF04HAS.jpg
418.109	0.514	Blank	Blank	27.08	n/a	4	12	6	n/a	106	n/a	2	n/a	n/a	n/a	n/a	447.571	n/a
418.64	0.497	happy	Picture	26.566	n/a	4	12	7	n/a	107	70	2	n/a	n/a	n/a	n/a	448.102	BM11HAS.jpg
419.137	0.514	Blank	Blank	26.052	n/a	4	12	7	n/a	107	n/a	2	n/a	n/a	n/a	n/a	448.599	n/a
419.668	0.497	happy	Picture	25.538	n/a	4	12	8	n/a	108	66	2	n/a	n/a	n/a	n/a	449.13	BM07HAS.jpg
420.165	0.514	Blank	Blank	25.024	n/a	4	12	8	n/a	108	n/a	2	n/a	n/a	n/a	n/a	449.627	n/a
420.696	0.497	happy	Picture	24.51	n/a	4	12	9	n/a	109	48	2	n/a	n/a	n/a	n/a	450.158	AF14HAS.jpg
421.193	0.514	Blank	Blank	23.996	n/a	4	12	9	n/a	109	n/a	2	n/a	n/a	n/a	n/a	450.655	n/a
421.724	0.497	happy	Picture	23.482	n/a	4	12	10	n/a	110	58	2	n/a	n/a	n/a	n/a	451.186	BF29HAS.jpg
422.221	0.514	Blank	Blank	22.968	n/a	4	12	10	n/a	110	n/a	2	n/a	n/a	n/a	n/a	451.683	n/a
422.752	0.497	happy	Picture	22.454	n/a	4	12	11	n/a	111	63	2	n/a	n/a	n/a	n/a	452.214	AM04HAS.jpg
423.249	0.514	Blank	Blank	21.94	n/a	4	12	11	n/a	111	n/a	2	n/a	n/a	n/a	n/a	452.711	n/a
423.779	0.497	happy	Picture	21.426	n/a	4	12	12	n/a	112	72	2	n/a	n/a	n/a	n/a	453.241	AM14HAS.jpg
424.277	0.514	Blank	Blank	20.912	n/a	4	12	12	n/a	112	n/a	2	n/a	n/a	n/a	n/a	453.739	n/a
424.807	0.497	happy	Picture	20.398	n/a	4	12	13	n/a	113	55	2	n/a	n/a	n/a	n/a	454.269	AF25HAS.jpg
425.305	0.514	Blank	Blank	19.884	n/a	4	12	13	n/a	113	n/a	2	n/a	n/a	n/a	n/a	454.767	n/a
425.835	0.497	happy	Picture	19.37	n/a	4	12	14	n/a	114	42	2	n/a	n/a	n/a	n/a	455.297	AF03HAS.jpg
426.333	0.514	Blank	Blank	18.856	n/a	4	12	14	n/a	114	n/a	2	n/a	n/a	n/a	n/a	455.795	n/a
426.863	0.497	happy	Picture	18.342	n/a	4	12	15	n/a	115	60	2	n/a	n/a	n/a	n/a	456.325	AF32HAS.jpg
427.361	0.514	Blank	Blank	17.829	n/a	4	12	15	n/a	115	n/a	2	n/a	n/a	n/a	n/a	456.822	n/a
427.891	0.497	happy	Picture	17.315	n/a	4	12	16	n/a	116	67	2	n/a	n/a	n/a	n/a	457.353	BM08HAS.jpg
428.388	0.514	Blank	Blank	16.801	n/a	4	12	16	n/a	116	n/a	2	n/a	n/a	n/a	n/a	457.85	n/a
428.919	0.497	happy	Picture	16.287	n/a	4	12	17	n/a	117	51	2	n/a	n/a	n/a	n/a	458.381	AF20HAS.jpg
429.416	0.514	Blank	Blank	15.773	n/a	4	12	17	n/a	117	n/a	2	n/a	n/a	n/a	n/a	458.878	n/a
429.947	0.497	happy	Picture	15.259	n/a	4	12	18	n/a	118	71	2	n/a	n/a	n/a	n/a	459.409	BM12HAS.jpg
430.444	0.514	Blank	Blank	14.745	n/a	4	12	18	n/a	118	n/a	2	n/a	n/a	n/a	n/a	459.906	n/a
430.975	0.497	happy	Picture	14.231	n/a	4	12	19	n/a	119	69	2	n/a	n/a	n/a	n/a	460.437	AM10HAS.jpg
431.472	0.514	Blank	Blank	13.717	n/a	4	12	19	n/a	119	n/a	2	n/a	n/a	n/a	n/a	460.934	n/a
432.002	0.497	happy	Picture	13.203	n/a	4	12	20	n/a	120	46	2	n/a	n/a	n/a	n/a	461.464	AF09HAS.jpg
432.5	0.514	Blank	Blank	12.689	n/a	4	12	20	n/a	120	n/a	2	n/a	n/a	n/a	n/a	461.962	n/a
433.03	10.014	ITI	Fixation+	2.659	n/a	4	n/a	n/a	n/a	n/a	n/a	n/a	n/a	n/a	n/a	n/a	462.492	n/a
445.703	n/a	ConfirmRating	Rate	n/a	2.653	4	n/a	n/a	0	n/a	n/a	n/a	2	Happy	61	51	475.165	n/a
448.046	n/a	ConfirmRating	Rate	n/a	2.321	4	n/a	n/a	1	n/a	n/a	n/a	3	Happy	0	49	477.508	n/a
