onset	duration	trial_type	trial_number	event_type	cue_to_participant	stimulus_type	time_until_response	rated_success_of_regulation	onset_uncorrected
0.004	10.014	Instruction	-1	Picture	Instruction	n/a	n/a	n/a	32.24
10.034	5.007	ITI	0	Picture	Fixation+	1	12.221	n/a	42.27
15.058	2.006	Cue	0	Picture	Maintain	1	10.198	n/a	47.294
17.064	4.99	Pic	0	Picture	IAPS_26	1	5.208	n/a	49.3
22.054	2.006	Blank	0	Picture	BLANK	1	3.202	n/a	54.29
27.262	n/a	ConfirmRating	0	Response	n/a	1	n/a	7	59.498
27.293	6.001	ITI	1	Picture	Fixation+	2	12.836	n/a	59.529
33.311	2.006	Cue	1	Picture	Enhance	2	10.813	n/a	65.547
35.317	4.99	Pic	1	Picture	IAPS_36	2	5.823	n/a	67.553
40.307	2.006	Blank	1	Picture	BLANK	2	3.817	n/a	72.543
46.13	n/a	ConfirmRating	1	Response	n/a	2	n/a	5	78.366
46.159	4.012	ITI	2	Picture	Fixation+	3	12.225	n/a	78.395
50.188	2.006	Cue	2	Picture	Suppress	3	10.202	n/a	82.424
52.194	4.99	Pic	2	Picture	IAPS_01	3	5.212	n/a	84.43
57.184	2.006	Blank	2	Picture	BLANK	3	3.206	n/a	89.42
62.397	n/a	ConfirmRating	2	Response	n/a	3	n/a	6	94.632
62.423	5.007	ITI	3	Picture	Fixation+	4	13.679	n/a	94.659
67.447	2.006	Cue	3	Picture	Maintain	4	11.657	n/a	99.682
69.453	4.99	Pic	3	Picture	IAPS_46	4	6.666	n/a	101.688
74.443	2.006	Blank	3	Picture	BLANK	4	4.66	n/a	106.679
81.109	n/a	ConfirmRating	3	Response	n/a	4	n/a	7	113.345
81.141	5.007	ITI	4	Picture	Fixation+	4	12.001	n/a	113.376
86.164	2.006	Cue	4	Picture	Maintain	4	9.978	n/a	118.4
88.17	4.99	Pic	4	Picture	IAPS_49	4	4.988	n/a	120.406
93.16	2.006	Blank	4	Picture	BLANK	4	2.982	n/a	125.396
98.148	n/a	ConfirmRating	4	Response	n/a	4	n/a	7	130.384
98.167	6.002	ITI	5	Picture	Fixation+	2	12.966	n/a	130.403
104.185	2.006	Cue	5	Picture	Enhance	2	10.944	n/a	136.421
106.191	4.99	Pic	5	Picture	IAPS_37	2	5.953	n/a	138.427
111.181	2.006	Blank	5	Picture	BLANK	2	3.947	n/a	143.417
117.134	n/a	ConfirmRating	5	Response	n/a	2	n/a	5	149.37
117.166	4.012	ITI	6	Picture	Fixation+	1	11.643	n/a	149.402
121.195	2.006	Cue	6	Picture	Maintain	1	9.621	n/a	153.43
123.201	4.99	Pic	6	Picture	IAPS_27	1	4.63	n/a	155.436
128.191	2.006	Blank	6	Picture	BLANK	1	2.624	n/a	160.427
132.821	n/a	ConfirmRating	6	Response	n/a	1	n/a	6	165.057
132.849	6.002	ITI	7	Picture	Fixation+	3	11.489	n/a	165.085
138.868	2.006	Cue	7	Picture	Suppress	3	9.466	n/a	171.103
140.873	4.989	Pic	7	Picture	IAPS_02	3	4.477	n/a	173.109
145.863	2.007	Blank	7	Picture	BLANK	3	2.47	n/a	178.099
150.34	0.017	ConfirmRating	7	Response	n/a	3	-0.017	6	182.576
150.356	5.007	ITI	8	Picture	Fixation+	4	10.639	n/a	182.592
155.38	2.006	Cue	8	Picture	Maintain	4	8.617	n/a	187.616
157.386	4.99	Pic	8	Picture	IAPS_52	4	3.626	n/a	189.622
162.376	2.006	Blank	8	Picture	BLANK	4	1.62	n/a	194.612
166.003	n/a	ConfirmRating	8	Response	n/a	4	n/a	6	198.238
166.023	6.002	ITI	9	Picture	Fixation+	1	12.237	n/a	198.259
172.041	2.006	Cue	9	Picture	Maintain	1	10.215	n/a	204.277
174.048	4.99	Pic	9	Picture	IAPS_28	1	5.225	n/a	206.283
179.038	2.006	Blank	9	Picture	BLANK	1	3.219	n/a	211.274
184.262	n/a	ConfirmRating	9	Response	n/a	1	n/a	6	216.498
184.293	5.007	ITI	10	Picture	Fixation+	2	12.772	n/a	216.529
189.317	2.006	Cue	10	Picture	Enhance	2	10.749	n/a	221.552
191.322	4.99	Pic	10	Picture	IAPS_38	2	5.759	n/a	223.558
196.313	2.006	Blank	10	Picture	BLANK	2	3.753	n/a	228.549
202.072	n/a	ConfirmRating	10	Response	n/a	2	n/a	6	234.308
202.099	4.012	ITI	11	Picture	Fixation+	3	10.842	n/a	234.334
206.127	2.006	Cue	11	Picture	Suppress	3	8.819	n/a	238.363
208.133	4.99	Pic	11	Picture	IAPS_03	3	3.829	n/a	240.369
213.123	2.006	Blank	11	Picture	BLANK	3	1.823	n/a	245.359
216.953	n/a	ConfirmRating	11	Response	n/a	3	n/a	5	249.189
216.97	6.002	ITI	12	Picture	Fixation+	2	11.295	n/a	249.206
222.988	2.006	Cue	12	Picture	Enhance	2	9.273	n/a	255.224
224.994	4.99	Pic	12	Picture	IAPS_39	2	4.282	n/a	257.23
229.984	2.006	Blank	12	Picture	BLANK	2	2.276	n/a	262.22
234.266	n/a	ConfirmRating	12	Response	n/a	2	n/a	5	266.502
234.294	5.007	ITI	13	Picture	Fixation+	1	10.733	n/a	266.53
239.318	2.006	Cue	13	Picture	Maintain	1	8.71	n/a	271.554
241.324	4.99	Pic	13	Picture	IAPS_29	1	3.72	n/a	273.56
246.314	2.006	Blank	13	Picture	BLANK	1	1.714	n/a	278.55
250.034	n/a	ConfirmRating	13	Response	n/a	1	n/a	6	282.27
250.061	4.012	ITI	14	Picture	Fixation+	4	14.663	n/a	282.297
254.089	2.006	Cue	14	Picture	Maintain	4	12.64	n/a	286.325
256.095	4.99	Pic	14	Picture	IAPS_55	4	7.65	n/a	288.331
261.086	2.006	Blank	14	Picture	BLANK	4	5.644	n/a	293.322
268.736	n/a	ConfirmRating	14	Response	n/a	4	n/a	7	300.972
268.762	5.007	ITI	15	Picture	Fixation+	3	11.275	n/a	300.998
273.785	2.006	Cue	15	Picture	Suppress	3	9.252	n/a	306.021
275.791	4.99	Pic	15	Picture	IAPS_04	3	4.262	n/a	308.027
280.781	2.006	Blank	15	Picture	BLANK	3	2.256	n/a	313.017
285.043	n/a	ConfirmRating	15	Response	n/a	3	n/a	6	317.279
285.075	6.002	ITI	16	Picture	Fixation+	2	11.245	n/a	317.311
291.093	2.006	Cue	16	Picture	Enhance	2	9.222	n/a	323.329
293.099	4.99	Pic	16	Picture	IAPS_40	2	4.232	n/a	325.335
298.089	2.006	Blank	16	Picture	BLANK	2	2.226	n/a	330.325
302.321	n/a	ConfirmRating	16	Response	n/a	2	n/a	5	334.557
302.35	6.002	ITI	17	Picture	Fixation+	1	11.577	n/a	334.586
308.368	2.006	Cue	17	Picture	Maintain	1	9.555	n/a	340.604
310.374	4.99	Pic	17	Picture	IAPS_30	1	4.564	n/a	342.61
315.364	2.006	Blank	17	Picture	BLANK	1	2.559	n/a	347.6
319.929	n/a	ConfirmRating	17	Response	n/a	1	n/a	6	352.165
319.957	4.012	ITI	18	Picture	Fixation+	3	10.971	n/a	352.192
323.985	2.006	Cue	18	Picture	Suppress	3	8.948	n/a	356.221
325.991	4.99	Pic	18	Picture	IAPS_05	3	3.958	n/a	358.227
330.981	2.006	Blank	18	Picture	BLANK	3	1.952	n/a	363.217
334.94	n/a	ConfirmRating	18	Response	n/a	3	n/a	3	367.175
334.96	5.007	ITI	19	Picture	Fixation+	4	11.219	n/a	367.196
339.984	2.006	Cue	19	Picture	Maintain	4	9.197	n/a	372.22
341.99	4.99	Pic	19	Picture	IAPS_58	4	4.206	n/a	374.226
346.98	2.006	Blank	19	Picture	BLANK	4	2.2	n/a	379.216
351.186	n/a	ConfirmRating	19	Response	n/a	4	n/a	7	383.422
351.207	6.001	ITI	20	Picture	Fixation+	4	11.382	n/a	383.443
357.226	2.006	Cue	20	Picture	Maintain	4	9.359	n/a	389.461
359.231	4.99	Pic	20	Picture	IAPS_47	4	4.369	n/a	391.467
364.222	2.006	Blank	20	Picture	BLANK	4	2.363	n/a	396.458
368.591	n/a	ConfirmRating	20	Response	n/a	4	n/a	7	400.827
368.615	5.007	ITI	21	Picture	Fixation+	3	11.359	n/a	400.851
373.638	2.006	Cue	21	Picture	Suppress	3	9.336	n/a	405.874
375.644	4.99	Pic	21	Picture	IAPS_06	3	4.346	n/a	407.88
380.635	2.006	Blank	21	Picture	BLANK	3	2.34	n/a	412.87
384.981	n/a	ConfirmRating	21	Response	n/a	3	n/a	6	417.216
385.011	4.012	ITI	22	Picture	Fixation+	1	11.552	n/a	417.247
389.04	2.006	Cue	22	Picture	Maintain	1	9.529	n/a	421.276
391.046	4.99	Pic	22	Picture	IAPS_16	1	4.539	n/a	423.282
396.036	2.006	Blank	22	Picture	BLANK	1	2.533	n/a	428.272
400.575	n/a	ConfirmRating	22	Response	n/a	1	n/a	6	432.811
400.595	4.012	ITI	23	Picture	Fixation+	2	10.818	n/a	432.831
404.624	2.006	Cue	23	Picture	Enhance	2	8.795	n/a	436.86
406.63	4.99	Pic	23	Picture	IAPS_41	2	3.805	n/a	438.866
411.62	2.006	Blank	23	Picture	BLANK	2	1.799	n/a	443.856
415.425	n/a	ConfirmRating	23	Response	n/a	2	n/a	5	447.661
415.45	5.007	ITI	24	Picture	Fixation+	1	11.228	n/a	447.686
420.473	2.006	Cue	24	Picture	Maintain	1	9.205	n/a	452.709
422.479	4.99	Pic	24	Picture	IAPS_17	1	4.215	n/a	454.715
427.469	2.006	Blank	24	Picture	BLANK	1	2.209	n/a	459.705
431.685	n/a	ConfirmRating	24	Response	n/a	1	n/a	5	463.921
431.714	4.012	ITI	25	Picture	Fixation+	2	11.85	n/a	463.95
435.742	2.006	Cue	25	Picture	Enhance	2	9.827	n/a	467.978
437.748	4.99	Pic	25	Picture	IAPS_42	2	4.837	n/a	469.984
442.738	2.006	Blank	25	Picture	BLANK	2	2.831	n/a	474.974
447.575	n/a	ConfirmRating	25	Response	n/a	2	n/a	6	479.811
447.596	6.002	ITI	26	Picture	Fixation+	4	11.277	n/a	479.832
453.614	2.006	Cue	26	Picture	Maintain	4	9.254	n/a	485.85
455.62	4.99	Pic	26	Picture	IAPS_50	4	4.264	n/a	487.856
460.61	2.006	Blank	26	Picture	BLANK	4	2.258	n/a	492.846
464.874	n/a	ConfirmRating	26	Response	n/a	4	n/a	6	497.11
464.904	5.007	ITI	27	Picture	Fixation+	3	11.205	n/a	497.14
469.928	2.006	Cue	27	Picture	Suppress	3	9.182	n/a	502.163
471.933	4.99	Pic	27	Picture	IAPS_07	3	4.192	n/a	504.169
476.924	2.006	Blank	27	Picture	BLANK	3	2.186	n/a	509.16
481.116	n/a	ConfirmRating	27	Response	n/a	3	n/a	6	513.352
481.135	5.007	ITI	28	Picture	Fixation+	2	14.125	n/a	513.371
486.158	2.006	Cue	28	Picture	Enhance	2	12.102	n/a	518.394
488.164	4.99	Pic	28	Picture	IAPS_43	2	7.112	n/a	520.4
493.154	2.006	Blank	28	Picture	BLANK	2	5.106	n/a	525.39
500.266	0.017	ConfirmRating	28	Response	n/a	2	-0.017	4	532.502
500.283	4.012	ITI	29	Picture	Fixation+	3	10.859	n/a	532.519
504.312	2.006	Cue	29	Picture	Suppress	3	8.837	n/a	536.548
506.318	4.99	Pic	29	Picture	IAPS_08	3	3.846	n/a	538.554
511.308	2.006	Blank	29	Picture	BLANK	3	1.84	n/a	543.544
515.154	n/a	ConfirmRating	29	Response	n/a	3	n/a	6	547.39
515.171	15.004	Rest	29	Picture	Rest	n/a	-15.02	n/a	547.407
530.191	5.007	ITI	30	Picture	Fixation+	4	12.59	n/a	562.427
535.214	2.006	Cue	30	Picture	Maintain	4	10.567	n/a	567.45
537.22	4.99	Pic	30	Picture	IAPS_53	4	5.577	n/a	569.456
542.211	2.006	Blank	30	Picture	BLANK	4	3.571	n/a	574.447
547.788	n/a	ConfirmRating	30	Response	n/a	4	n/a	7	580.024
547.814	6.002	ITI	31	Picture	Fixation+	1	12.388	n/a	580.05
553.832	2.006	Cue	31	Picture	Maintain	1	10.365	n/a	586.068
555.838	4.99	Pic	31	Picture	IAPS_18	1	5.375	n/a	588.074
560.828	2.006	Blank	31	Picture	BLANK	1	3.369	n/a	593.064
566.203	n/a	ConfirmRating	31	Response	n/a	1	n/a	6	598.439
566.233	4.012	ITI	32	Picture	Fixation+	3	10.991	n/a	598.469
570.262	2.006	Cue	32	Picture	Suppress	3	8.968	n/a	602.498
572.268	4.99	Pic	32	Picture	IAPS_09	3	3.978	n/a	604.504
577.258	2.006	Blank	32	Picture	BLANK	3	1.972	n/a	609.494
581.236	n/a	ConfirmRating	32	Response	n/a	3	n/a	5	613.472
581.254	5.007	ITI	33	Picture	Fixation+	1	11.051	n/a	613.489
586.277	2.006	Cue	33	Picture	Maintain	1	9.029	n/a	618.513
588.283	4.99	Pic	33	Picture	IAPS_19	1	4.039	n/a	620.519
593.273	2.006	Blank	33	Picture	BLANK	1	2.033	n/a	625.509
597.312	n/a	ConfirmRating	33	Response	n/a	1	n/a	5	629.548
597.335	4.012	ITI	34	Picture	Fixation+	2	13.958	n/a	629.571
601.363	2.006	Cue	34	Picture	Enhance	2	11.935	n/a	633.599
603.369	4.99	Pic	34	Picture	IAPS_44	2	6.945	n/a	635.605
608.36	2.006	Blank	34	Picture	BLANK	2	4.939	n/a	640.596
615.304	n/a	ConfirmRating	34	Response	n/a	2	n/a	5	647.54
615.323	6.002	ITI	35	Picture	Fixation+	4	11.729	n/a	647.559
621.341	2.006	Cue	35	Picture	Maintain	4	9.706	n/a	653.577
623.347	4.99	Pic	35	Picture	IAPS_56	4	4.716	n/a	655.583
628.337	2.006	Blank	35	Picture	BLANK	4	2.71	n/a	660.573
633.053	n/a	ConfirmRating	35	Response	n/a	4	n/a	7	665.289
633.078	5.007	ITI	36	Picture	Fixation+	3	12.025	n/a	665.314
638.102	2.006	Cue	36	Picture	Suppress	3	10.003	n/a	670.338
640.108	4.99	Pic	36	Picture	IAPS_10	3	5.013	n/a	672.344
645.098	2.006	Blank	36	Picture	BLANK	3	3.007	n/a	677.334
650.111	n/a	ConfirmRating	36	Response	n/a	3	n/a	6	682.347
650.138	6.001	ITI	37	Picture	Fixation+	4	10.715	n/a	682.374
656.156	2.006	Cue	37	Picture	Maintain	4	8.692	n/a	688.392
658.162	4.99	Pic	37	Picture	IAPS_59	4	3.702	n/a	690.398
663.152	2.006	Blank	37	Picture	BLANK	4	1.696	n/a	695.388
666.854	n/a	ConfirmRating	37	Response	n/a	4	n/a	6	699.09
666.882	5.007	ITI	38	Picture	Fixation+	2	12.489	n/a	699.118
671.906	2.006	Cue	38	Picture	Enhance	2	10.466	n/a	704.142
673.912	4.99	Pic	38	Picture	IAPS_45	2	5.476	n/a	706.148
678.902	2.006	Blank	38	Picture	BLANK	2	3.47	n/a	711.138
684.378	n/a	ConfirmRating	38	Response	n/a	2	n/a	6	716.614
684.406	4.012	ITI	39	Picture	Fixation+	1	12.639	n/a	716.642
688.435	2.006	Cue	39	Picture	Maintain	1	10.616	n/a	720.671
690.441	4.99	Pic	39	Picture	IAPS_20	1	5.626	n/a	722.677
695.431	2.006	Blank	39	Picture	BLANK	1	3.62	n/a	727.667
701.057	n/a	ConfirmRating	39	Response	n/a	1	n/a	5	733.293
701.084	6.002	ITI	40	Picture	Fixation+	4	11.91	n/a	733.32
707.102	2.006	Cue	40	Picture	Maintain	4	9.887	n/a	739.338
709.108	4.99	Pic	40	Picture	IAPS_48	4	4.897	n/a	741.344
714.099	2.006	Blank	40	Picture	BLANK	4	2.891	n/a	746.335
718.995	n/a	ConfirmRating	40	Response	n/a	4	n/a	6	751.231
719.022	5.007	ITI	41	Picture	Fixation+	3	11.251	n/a	751.258
724.046	2.006	Cue	41	Picture	Suppress	3	9.228	n/a	756.282
726.052	4.99	Pic	41	Picture	IAPS_11	3	4.238	n/a	758.288
731.042	2.006	Blank	41	Picture	BLANK	3	2.232	n/a	763.278
735.28	n/a	ConfirmRating	41	Response	n/a	3	n/a	7	767.516
735.303	6.002	ITI	42	Picture	Fixation+	2	12.305	n/a	767.539
741.321	2.006	Cue	42	Picture	Enhance	2	10.282	n/a	773.557
743.327	4.99	Pic	42	Picture	IAPS_31	2	5.292	n/a	775.563
748.317	2.006	Blank	42	Picture	BLANK	2	3.286	n/a	780.553
753.609	n/a	ConfirmRating	42	Response	n/a	2	n/a	6	785.845
753.639	4.012	ITI	43	Picture	Fixation+	1	12.422	n/a	785.875
757.667	2.006	Cue	43	Picture	Maintain	1	10.399	n/a	789.903
759.673	4.99	Pic	43	Picture	IAPS_21	1	5.409	n/a	791.909
764.664	2.006	Blank	43	Picture	BLANK	1	3.403	n/a	796.899
770.072	n/a	ConfirmRating	43	Response	n/a	1	n/a	5	802.308
770.101	5.007	ITI	44	Picture	Fixation+	2	14.895	n/a	802.337
775.125	2.006	Cue	44	Picture	Enhance	2	12.872	n/a	807.361
777.131	4.99	Pic	44	Picture	IAPS_32	2	7.882	n/a	809.367
782.121	2.006	Blank	44	Picture	BLANK	2	5.876	n/a	814.357
790.003	n/a	ConfirmRating	44	Response	n/a	2	n/a	5	822.239
790.029	5.007	ITI	45	Picture	Fixation+	4	11.326	n/a	822.265
795.052	2.006	Cue	45	Picture	Maintain	4	9.303	n/a	827.288
797.058	4.99	Pic	45	Picture	IAPS_51	4	4.313	n/a	829.294
802.049	2.006	Blank	45	Picture	BLANK	4	2.307	n/a	834.284
806.362	n/a	ConfirmRating	45	Response	n/a	4	n/a	5	838.598
806.392	4.012	ITI	46	Picture	Fixation+	3	10.784	n/a	838.628
810.421	2.006	Cue	46	Picture	Suppress	3	8.762	n/a	842.657
812.427	4.99	Pic	46	Picture	IAPS_12	3	3.772	n/a	844.663
817.417	2.006	Blank	46	Picture	BLANK	3	1.765	n/a	849.653
821.188	n/a	ConfirmRating	46	Response	n/a	3	n/a	6	853.424
821.213	5.007	ITI	47	Picture	Fixation+	1	15.116	n/a	853.449
826.237	2.006	Cue	47	Picture	Maintain	1	13.093	n/a	858.473
828.243	4.99	Pic	47	Picture	IAPS_22	1	8.103	n/a	860.479
833.233	2.006	Blank	47	Picture	BLANK	1	6.097	n/a	865.469
841.336	n/a	ConfirmRating	47	Response	n/a	1	n/a	6	873.572
841.357	4.012	ITI	48	Picture	Fixation+	3	12.253	n/a	873.592
845.385	2.006	Cue	48	Picture	Suppress	3	10.231	n/a	877.621
847.391	4.99	Pic	48	Picture	IAPS_13	3	5.24	n/a	879.627
852.381	2.006	Blank	48	Picture	BLANK	3	3.234	n/a	884.617
857.622	n/a	ConfirmRating	48	Response	n/a	3	n/a	5	889.858
857.654	5.007	ITI	49	Picture	Fixation+	4	11.21	n/a	889.889
862.677	2.006	Cue	49	Picture	Maintain	4	9.188	n/a	894.913
864.683	4.99	Pic	49	Picture	IAPS_54	4	4.197	n/a	896.919
869.673	2.006	Blank	49	Picture	BLANK	4	2.192	n/a	901.909
873.871	n/a	ConfirmRating	49	Response	n/a	4	n/a	7	906.106
873.901	5.007	ITI	50	Picture	Fixation+	1	11.811	n/a	906.136
878.924	2.006	Cue	50	Picture	Maintain	1	9.788	n/a	911.16
880.93	4.99	Pic	50	Picture	IAPS_23	1	4.798	n/a	913.166
885.92	2.006	Blank	50	Picture	BLANK	1	2.792	n/a	918.156
890.718	n/a	ConfirmRating	50	Response	n/a	1	n/a	1	922.954
890.745	4.012	ITI	51	Picture	Fixation+	2	10.502	n/a	922.981
894.773	2.006	Cue	51	Picture	Enhance	2	8.48	n/a	927.009
896.779	4.99	Pic	51	Picture	IAPS_33	2	3.49	n/a	929.015
901.769	2.006	Blank	51	Picture	BLANK	2	1.484	n/a	934.005
905.259	n/a	ConfirmRating	51	Response	n/a	2	n/a	5	937.495
905.284	5.007	ITI	52	Picture	Fixation+	1	12.717	n/a	937.52
910.308	2.006	Cue	52	Picture	Maintain	1	10.694	n/a	942.543
912.313	4.99	Pic	52	Picture	IAPS_24	1	5.704	n/a	944.549
917.304	2.006	Blank	52	Picture	BLANK	1	3.698	n/a	949.54
923.008	n/a	ConfirmRating	52	Response	n/a	1	n/a	6	955.244
923.04	5.007	ITI	53	Picture	Fixation+	4	12.352	n/a	955.276
928.063	2.006	Cue	53	Picture	Maintain	4	10.329	n/a	960.299
930.069	4.99	Pic	53	Picture	IAPS_57	4	5.339	n/a	962.305
935.059	2.006	Blank	53	Picture	BLANK	4	3.333	n/a	967.295
940.398	n/a	ConfirmRating	53	Response	n/a	4	n/a	7	972.634
940.431	6.001	ITI	54	Picture	Fixation+	3	11.059	n/a	972.667
946.449	2.006	Cue	54	Picture	Suppress	3	9.036	n/a	978.685
948.455	4.99	Pic	54	Picture	IAPS_14	3	4.046	n/a	980.691
953.445	2.006	Blank	54	Picture	BLANK	3	2.04	n/a	985.681
957.491	n/a	ConfirmRating	54	Response	n/a	3	n/a	6	989.727
957.524	5.007	ITI	55	Picture	Fixation+	2	10.919	n/a	989.76
962.547	2.006	Cue	55	Picture	Enhance	2	8.897	n/a	994.783
964.553	4.99	Pic	55	Picture	IAPS_34	2	3.907	n/a	996.789
969.543	2.006	Blank	55	Picture	BLANK	2	1.901	n/a	1001.779
973.45	n/a	ConfirmRating	55	Response	n/a	2	n/a	6	1005.686
973.472	5.007	ITI	56	Picture	Fixation+	1	11.416	n/a	1005.708
978.496	2.006	Cue	56	Picture	Maintain	1	9.394	n/a	1010.731
980.502	4.99	Pic	56	Picture	IAPS_25	1	4.404	n/a	1012.738
985.492	2.006	Blank	56	Picture	BLANK	1	2.398	n/a	1017.728
989.895	n/a	ConfirmRating	56	Response	n/a	1	n/a	6	1022.131
989.918	6.001	ITI	57	Picture	Fixation+	3	11.713	n/a	1022.154
995.936	2.006	Cue	57	Picture	Suppress	3	9.691	n/a	1028.172
997.942	4.99	Pic	57	Picture	IAPS_15	3	4.7	n/a	1030.178
1002.933	2.006	Blank	57	Picture	BLANK	3	2.694	n/a	1035.168
1007.633	n/a	ConfirmRating	57	Response	n/a	3	n/a	6	1039.869
1007.658	4.012	ITI	58	Picture	Fixation+	4	12.163	n/a	1039.893
1011.686	2.006	Cue	58	Picture	Maintain	4	10.141	n/a	1043.922
1013.692	4.99	Pic	58	Picture	IAPS_60	4	5.15	n/a	1045.928
1018.682	2.006	Blank	58	Picture	BLANK	4	3.144	n/a	1050.918
1023.833	n/a	ConfirmRating	58	Response	n/a	4	n/a	7	1056.069
1023.855	6.001	ITI	59	Picture	Fixation+	2	16.028	n/a	1056.091
1029.873	2.006	Cue	59	Picture	Enhance	2	14.005	n/a	1062.109
1031.879	4.99	Pic	59	Picture	IAPS_35	2	9.015	n/a	1064.115
1036.869	2.006	Blank	59	Picture	BLANK	2	7.009	n/a	1069.105
1045.884	n/a	ConfirmRating	59	Response	n/a	2	n/a	5	1078.12
