onset	duration	trial_type	event_type	time_until_response	response_time	trial_number	block_num_within_trial	image_seq_num_within_block	question_seq_num_within_block	image_seq_num	picture_number	condition	question_type	block_type	rating	rating_computed	onset_uncorrected	KDEV_imagefile
0.018	10.014	ITI	Fixation+	99.765	n/a	1	n/a	n/a	n/a	n/a	n/a	n/a	n/a	n/a	n/a	n/a	30.151	n/a
10.048	0.497	angry	Picture	99.251	n/a	1	1	1	n/a	1	46	2	n/a	n/a	n/a	n/a	40.181	AF09HAS.jpg
10.546	0.514	Blank	Blank	98.737	n/a	1	1	1	n/a	1	n/a	2	n/a	n/a	n/a	n/a	40.679	n/a
11.076	0.497	angry	Picture	98.223	n/a	1	1	2	n/a	2	69	2	n/a	n/a	n/a	n/a	41.209	AM10HAS.jpg
11.574	0.514	Blank	Blank	97.709	n/a	1	1	2	n/a	2	n/a	2	n/a	n/a	n/a	n/a	41.707	n/a
12.104	0.497	angry	Picture	97.195	n/a	1	1	3	n/a	3	71	2	n/a	n/a	n/a	n/a	42.237	BM12HAS.jpg
12.601	0.514	Blank	Blank	96.681	n/a	1	1	3	n/a	3	n/a	2	n/a	n/a	n/a	n/a	42.735	n/a
13.132	0.497	angry	Picture	96.167	n/a	1	1	4	n/a	4	51	2	n/a	n/a	n/a	n/a	43.265	AF20HAS.jpg
13.629	0.514	Blank	Blank	95.653	n/a	1	1	4	n/a	4	n/a	2	n/a	n/a	n/a	n/a	43.763	n/a
14.16	0.497	angry	Picture	95.139	n/a	1	1	5	n/a	5	67	2	n/a	n/a	n/a	n/a	44.293	BM08HAS.jpg
14.657	0.514	Blank	Blank	94.625	n/a	1	1	5	n/a	5	n/a	2	n/a	n/a	n/a	n/a	44.79	n/a
15.188	0.497	angry	Picture	94.111	n/a	1	1	6	n/a	6	60	2	n/a	n/a	n/a	n/a	45.321	AF32HAS.jpg
15.685	0.514	Blank	Blank	93.597	n/a	1	1	6	n/a	6	n/a	2	n/a	n/a	n/a	n/a	45.818	n/a
16.216	0.497	angry	Picture	93.083	n/a	1	1	7	n/a	7	42	2	n/a	n/a	n/a	n/a	46.349	AF03HAS.jpg
16.713	0.514	Blank	Blank	92.569	n/a	1	1	7	n/a	7	n/a	2	n/a	n/a	n/a	n/a	46.846	n/a
17.244	0.497	angry	Picture	92.055	n/a	1	1	8	n/a	8	55	2	n/a	n/a	n/a	n/a	47.377	AF25HAS.jpg
17.741	0.514	Blank	Blank	91.541	n/a	1	1	8	n/a	8	n/a	2	n/a	n/a	n/a	n/a	47.874	n/a
18.271	0.497	angry	Picture	91.028	n/a	1	1	9	n/a	9	72	2	n/a	n/a	n/a	n/a	48.405	AM14HAS.jpg
18.769	0.514	Blank	Blank	90.514	n/a	1	1	9	n/a	9	n/a	2	n/a	n/a	n/a	n/a	48.902	n/a
19.299	0.497	angry	Picture	90.0	n/a	1	1	10	n/a	10	63	2	n/a	n/a	n/a	n/a	49.432	AM04HAS.jpg
19.797	0.514	Blank	Blank	89.486	n/a	1	1	10	n/a	10	n/a	2	n/a	n/a	n/a	n/a	49.93	n/a
20.327	0.497	angry	Picture	88.972	n/a	1	1	11	n/a	11	58	2	n/a	n/a	n/a	n/a	50.46	BF29HAS.jpg
20.825	0.514	Blank	Blank	88.458	n/a	1	1	11	n/a	11	n/a	2	n/a	n/a	n/a	n/a	50.958	n/a
21.355	0.497	angry	Picture	87.944	n/a	1	1	12	n/a	12	48	2	n/a	n/a	n/a	n/a	51.488	AF14HAS.jpg
21.852	0.514	Blank	Blank	87.43	n/a	1	1	12	n/a	12	n/a	2	n/a	n/a	n/a	n/a	51.986	n/a
22.383	0.497	angry	Picture	86.916	n/a	1	1	13	n/a	13	66	2	n/a	n/a	n/a	n/a	52.516	BM07HAS.jpg
22.88	0.514	Blank	Blank	86.402	n/a	1	1	13	n/a	13	n/a	2	n/a	n/a	n/a	n/a	53.014	n/a
23.411	0.497	angry	Picture	85.888	n/a	1	1	14	n/a	14	70	2	n/a	n/a	n/a	n/a	53.544	BM11HAS.jpg
23.908	0.514	Blank	Blank	85.374	n/a	1	1	14	n/a	14	n/a	2	n/a	n/a	n/a	n/a	54.041	n/a
24.439	0.497	angry	Picture	84.86	n/a	1	1	15	n/a	15	43	2	n/a	n/a	n/a	n/a	54.572	BF04HAS.jpg
24.936	0.514	Blank	Blank	84.346	n/a	1	1	15	n/a	15	n/a	2	n/a	n/a	n/a	n/a	55.069	n/a
25.467	0.497	angry	Picture	83.832	n/a	1	1	16	n/a	16	49	2	n/a	n/a	n/a	n/a	55.6	AF17HAS.jpg
25.964	0.514	Blank	Blank	83.318	n/a	1	1	16	n/a	16	n/a	2	n/a	n/a	n/a	n/a	56.097	n/a
26.494	0.497	angry	Picture	82.804	n/a	1	1	17	n/a	17	75	2	n/a	n/a	n/a	n/a	56.628	AM23HAS.jpg
26.992	0.514	Blank	Blank	82.291	n/a	1	1	17	n/a	17	n/a	2	n/a	n/a	n/a	n/a	57.125	n/a
27.522	0.497	angry	Picture	81.777	n/a	1	1	18	n/a	18	80	2	n/a	n/a	n/a	n/a	57.656	BM35HAS.jpg
28.02	0.514	Blank	Blank	81.263	n/a	1	1	18	n/a	18	n/a	2	n/a	n/a	n/a	n/a	58.153	n/a
28.55	0.497	angry	Picture	80.749	n/a	1	1	19	n/a	19	76	2	n/a	n/a	n/a	n/a	58.683	BM24HAS.jpg
29.048	0.514	Blank	Blank	80.235	n/a	1	1	19	n/a	19	n/a	2	n/a	n/a	n/a	n/a	59.181	n/a
29.578	0.497	angry	Picture	79.721	n/a	1	1	20	n/a	20	74	2	n/a	n/a	n/a	n/a	59.711	AM22HAS.jpg
30.075	0.514	Blank	Blank	79.207	n/a	1	1	20	n/a	20	n/a	2	n/a	n/a	n/a	n/a	60.209	n/a
30.606	10.014	ITI	Fixation+	69.177	n/a	1	n/a	n/a	n/a	n/a	n/a	n/a	n/a	n/a	n/a	n/a	60.739	n/a
40.636	0.497	neutral	Picture	68.663	n/a	1	2	1	n/a	21	33	1	n/a	n/a	n/a	n/a	70.769	AM21NES.jpg
41.133	0.514	Blank	Blank	68.149	n/a	1	2	1	n/a	21	n/a	1	n/a	n/a	n/a	n/a	71.267	n/a
41.664	0.497	neutral	Picture	67.635	n/a	1	2	2	n/a	22	39	1	n/a	n/a	n/a	n/a	71.797	AM28NES.jpg
42.161	0.514	Blank	Blank	67.121	n/a	1	2	2	n/a	22	n/a	1	n/a	n/a	n/a	n/a	72.295	n/a
42.692	0.497	neutral	Picture	66.607	n/a	1	2	3	n/a	23	25	1	n/a	n/a	n/a	n/a	72.825	BM06NES.jpg
43.189	0.514	Blank	Blank	66.093	n/a	1	2	3	n/a	23	n/a	1	n/a	n/a	n/a	n/a	73.322	n/a
43.72	0.497	neutral	Picture	65.579	n/a	1	2	4	n/a	24	5	1	n/a	n/a	n/a	n/a	73.853	BF07NES.jpg
44.217	0.514	Blank	Blank	65.065	n/a	1	2	4	n/a	24	n/a	1	n/a	n/a	n/a	n/a	74.35	n/a
44.748	0.497	neutral	Picture	64.551	n/a	1	2	5	n/a	25	10	1	n/a	n/a	n/a	n/a	74.881	AF18NES.jpg
45.245	0.514	Blank	Blank	64.037	n/a	1	2	5	n/a	25	n/a	1	n/a	n/a	n/a	n/a	75.378	n/a
45.775	0.497	neutral	Picture	63.523	n/a	1	2	6	n/a	26	34	1	n/a	n/a	n/a	n/a	75.909	AM22NES.jpg
46.273	0.514	Blank	Blank	63.009	n/a	1	2	6	n/a	26	n/a	1	n/a	n/a	n/a	n/a	76.406	n/a
46.803	0.497	neutral	Picture	62.495	n/a	1	2	7	n/a	27	36	1	n/a	n/a	n/a	n/a	76.937	BM24NES.jpg
47.301	0.514	Blank	Blank	61.982	n/a	1	2	7	n/a	27	n/a	1	n/a	n/a	n/a	n/a	77.434	n/a
47.831	0.497	neutral	Picture	61.468	n/a	1	2	8	n/a	28	14	1	n/a	n/a	n/a	n/a	77.965	AF23NES.jpg
48.329	0.514	Blank	Blank	60.954	n/a	1	2	8	n/a	28	n/a	1	n/a	n/a	n/a	n/a	78.462	n/a
48.859	0.497	neutral	Picture	60.44	n/a	1	2	9	n/a	29	9	1	n/a	n/a	n/a	n/a	78.992	AF17NES.jpg
49.356	0.514	Blank	Blank	59.926	n/a	1	2	9	n/a	29	n/a	1	n/a	n/a	n/a	n/a	79.49	n/a
49.887	0.497	neutral	Picture	59.412	n/a	1	2	10	n/a	30	19	1	n/a	n/a	n/a	n/a	80.02	AF31NES.jpg
50.384	0.514	Blank	Blank	58.898	n/a	1	2	10	n/a	30	n/a	1	n/a	n/a	n/a	n/a	80.518	n/a
50.915	0.497	neutral	Picture	58.384	n/a	1	2	11	n/a	31	15	1	n/a	n/a	n/a	n/a	81.048	AF25NES.jpg
51.412	0.514	Blank	Blank	57.87	n/a	1	2	11	n/a	31	n/a	1	n/a	n/a	n/a	n/a	81.546	n/a
51.943	0.497	neutral	Picture	57.356	n/a	1	2	12	n/a	32	22	1	n/a	n/a	n/a	n/a	82.076	BM03NES.jpg
52.44	0.514	Blank	Blank	56.842	n/a	1	2	12	n/a	32	n/a	1	n/a	n/a	n/a	n/a	82.573	n/a
52.971	0.497	neutral	Picture	56.328	n/a	1	2	13	n/a	33	11	1	n/a	n/a	n/a	n/a	83.104	AF20NES.jpg
53.468	0.514	Blank	Blank	55.814	n/a	1	2	13	n/a	33	n/a	1	n/a	n/a	n/a	n/a	83.601	n/a
53.999	0.497	neutral	Picture	55.3	n/a	1	2	14	n/a	34	4	1	n/a	n/a	n/a	n/a	84.132	AF05NES.jpg
54.496	0.514	Blank	Blank	54.786	n/a	1	2	14	n/a	34	n/a	1	n/a	n/a	n/a	n/a	84.629	n/a
55.026	0.497	neutral	Picture	54.272	n/a	1	2	15	n/a	35	17	1	n/a	n/a	n/a	n/a	85.16	BF28NES.jpg
55.524	0.514	Blank	Blank	53.758	n/a	1	2	15	n/a	35	n/a	1	n/a	n/a	n/a	n/a	85.657	n/a
56.054	0.497	neutral	Picture	53.245	n/a	1	2	16	n/a	36	13	1	n/a	n/a	n/a	n/a	86.188	BF22NES.jpg
56.552	0.514	Blank	Blank	52.731	n/a	1	2	16	n/a	36	n/a	1	n/a	n/a	n/a	n/a	86.685	n/a
57.082	0.497	neutral	Picture	52.217	n/a	1	2	17	n/a	37	12	1	n/a	n/a	n/a	n/a	87.215	AF21NES.jpg
57.58	0.514	Blank	Blank	51.703	n/a	1	2	17	n/a	37	n/a	1	n/a	n/a	n/a	n/a	87.713	n/a
58.11	0.497	neutral	Picture	51.189	n/a	1	2	18	n/a	38	24	1	n/a	n/a	n/a	n/a	88.243	BM05NES.jpg
58.608	0.514	Blank	Blank	50.675	n/a	1	2	18	n/a	38	n/a	1	n/a	n/a	n/a	n/a	88.741	n/a
59.138	0.497	neutral	Picture	50.161	n/a	1	2	19	n/a	39	29	1	n/a	n/a	n/a	n/a	89.271	AM10NES.jpg
59.635	0.514	Blank	Blank	49.647	n/a	1	2	19	n/a	39	n/a	1	n/a	n/a	n/a	n/a	89.769	n/a
60.166	0.497	neutral	Picture	49.133	n/a	1	2	20	n/a	40	23	1	n/a	n/a	n/a	n/a	90.299	AM04NES.jpg
60.663	0.514	Blank	Blank	48.619	n/a	1	2	20	n/a	40	n/a	1	n/a	n/a	n/a	n/a	90.796	n/a
61.194	10.014	ITI	Fixation+	38.589	n/a	1	n/a	n/a	n/a	n/a	n/a	n/a	n/a	n/a	n/a	n/a	91.327	n/a
71.224	0.497	angry	Picture	38.075	n/a	1	3	1	n/a	41	62	2	n/a	n/a	n/a	n/a	101.357	BM03HAS.jpg
71.721	0.514	Blank	Blank	37.561	n/a	1	3	1	n/a	41	n/a	2	n/a	n/a	n/a	n/a	101.855	n/a
72.252	0.497	angry	Picture	37.047	n/a	1	3	2	n/a	42	52	2	n/a	n/a	n/a	n/a	102.385	AF21HAS.jpg
72.749	0.514	Blank	Blank	36.533	n/a	1	3	2	n/a	42	n/a	2	n/a	n/a	n/a	n/a	102.882	n/a
73.28	0.497	angry	Picture	36.019	n/a	1	3	3	n/a	43	44	2	n/a	n/a	n/a	n/a	103.413	AF05HAS.jpg
73.777	0.514	Blank	Blank	35.505	n/a	1	3	3	n/a	43	n/a	2	n/a	n/a	n/a	n/a	103.91	n/a
74.308	0.497	angry	Picture	34.991	n/a	1	3	4	n/a	44	53	2	n/a	n/a	n/a	n/a	104.441	BF22HAS.jpg
74.805	0.514	Blank	Blank	34.477	n/a	1	3	4	n/a	44	n/a	2	n/a	n/a	n/a	n/a	104.938	n/a
75.335	0.497	angry	Picture	33.963	n/a	1	3	5	n/a	45	54	2	n/a	n/a	n/a	n/a	105.469	AF23HAS.jpg
75.833	0.514	Blank	Blank	33.45	n/a	1	3	5	n/a	45	n/a	2	n/a	n/a	n/a	n/a	105.966	n/a
76.363	0.497	angry	Picture	32.936	n/a	1	3	6	n/a	46	68	2	n/a	n/a	n/a	n/a	106.496	AM09HAS.jpg
76.861	0.514	Blank	Blank	32.422	n/a	1	3	6	n/a	46	n/a	2	n/a	n/a	n/a	n/a	106.994	n/a
77.391	0.497	angry	Picture	31.908	n/a	1	3	7	n/a	47	64	2	n/a	n/a	n/a	n/a	107.524	BM05HAS.jpg
77.888	0.514	Blank	Blank	31.394	n/a	1	3	7	n/a	47	n/a	2	n/a	n/a	n/a	n/a	108.022	n/a
78.419	0.497	angry	Picture	30.88	n/a	1	3	8	n/a	48	59	2	n/a	n/a	n/a	n/a	108.552	AF31HAS.jpg
78.916	0.514	Blank	Blank	30.366	n/a	1	3	8	n/a	48	n/a	2	n/a	n/a	n/a	n/a	109.05	n/a
79.447	0.497	angry	Picture	29.852	n/a	1	3	9	n/a	49	41	2	n/a	n/a	n/a	n/a	109.58	AF01HAS.jpg
79.944	0.514	Blank	Blank	29.338	n/a	1	3	9	n/a	49	n/a	2	n/a	n/a	n/a	n/a	110.078	n/a
80.475	0.497	angry	Picture	28.824	n/a	1	3	10	n/a	50	73	2	n/a	n/a	n/a	n/a	110.608	AM21HAS.jpg
80.972	0.514	Blank	Blank	28.31	n/a	1	3	10	n/a	50	n/a	2	n/a	n/a	n/a	n/a	111.105	n/a
81.503	0.497	angry	Picture	27.796	n/a	1	3	11	n/a	51	65	2	n/a	n/a	n/a	n/a	111.636	BM06HAS.jpg
82.0	0.514	Blank	Blank	27.282	n/a	1	3	11	n/a	51	n/a	2	n/a	n/a	n/a	n/a	112.133	n/a
82.531	0.497	angry	Picture	26.768	n/a	1	3	12	n/a	52	56	2	n/a	n/a	n/a	n/a	112.664	AF26HAS.jpg
83.028	0.514	Blank	Blank	26.254	n/a	1	3	12	n/a	52	n/a	2	n/a	n/a	n/a	n/a	113.161	n/a
83.558	0.497	angry	Picture	25.74	n/a	1	3	13	n/a	53	45	2	n/a	n/a	n/a	n/a	113.692	BF07HAS.jpg
84.056	0.514	Blank	Blank	25.227	n/a	1	3	13	n/a	53	n/a	2	n/a	n/a	n/a	n/a	114.189	n/a
84.586	0.497	angry	Picture	24.713	n/a	1	3	14	n/a	54	78	2	n/a	n/a	n/a	n/a	114.72	BM26HAS.jpg
85.084	0.514	Blank	Blank	24.199	n/a	1	3	14	n/a	54	n/a	2	n/a	n/a	n/a	n/a	115.217	n/a
85.614	0.497	angry	Picture	23.685	n/a	1	3	15	n/a	55	50	2	n/a	n/a	n/a	n/a	115.747	AF18HAS.jpg
86.112	0.514	Blank	Blank	23.171	n/a	1	3	15	n/a	55	n/a	2	n/a	n/a	n/a	n/a	116.245	n/a
86.642	0.497	angry	Picture	22.657	n/a	1	3	16	n/a	56	47	2	n/a	n/a	n/a	n/a	116.775	BF11HAS.jpg
87.139	0.514	Blank	Blank	22.143	n/a	1	3	16	n/a	56	n/a	2	n/a	n/a	n/a	n/a	117.273	n/a
87.67	0.497	angry	Picture	21.629	n/a	1	3	17	n/a	57	77	2	n/a	n/a	n/a	n/a	117.803	BM25HAS.jpg
88.167	0.514	Blank	Blank	21.115	n/a	1	3	17	n/a	57	n/a	2	n/a	n/a	n/a	n/a	118.301	n/a
88.698	0.497	angry	Picture	20.601	n/a	1	3	18	n/a	58	57	2	n/a	n/a	n/a	n/a	118.831	BF28HAS.jpg
89.195	0.514	Blank	Blank	20.087	n/a	1	3	18	n/a	58	n/a	2	n/a	n/a	n/a	n/a	119.328	n/a
89.726	0.497	angry	Picture	19.573	n/a	1	3	19	n/a	59	61	2	n/a	n/a	n/a	n/a	119.859	AM01HAS.jpg
90.223	0.514	Blank	Blank	19.059	n/a	1	3	19	n/a	59	n/a	2	n/a	n/a	n/a	n/a	120.356	n/a
90.754	0.497	angry	Picture	18.545	n/a	1	3	20	n/a	60	79	2	n/a	n/a	n/a	n/a	120.887	BM28HAS.jpg
91.251	0.514	Blank	Blank	18.031	n/a	1	3	20	n/a	60	n/a	2	n/a	n/a	n/a	n/a	121.384	n/a
91.781	10.014	ITI	Fixation+	8.001	n/a	1	n/a	n/a	n/a	n/a	n/a	n/a	n/a	n/a	n/a	n/a	121.915	n/a
109.796	n/a	ConfirmRating	Rate	n/a	7.974	1	n/a	n/a	0	n/a	n/a	n/a	2	Angry	33	49	139.929	n/a
120.337	n/a	ConfirmRating	Rate	n/a	10.527	1	n/a	n/a	1	n/a	n/a	n/a	3	Angry	64	51	150.47	n/a
120.363	10.014	ITI	Fixation+	96.741	n/a	2	n/a	n/a	n/a	n/a	n/a	n/a	n/a	n/a	n/a	n/a	150.496	n/a
130.393	0.497	happy	Picture	96.227	n/a	2	4	1	n/a	61	119	3	n/a	n/a	n/a	n/a	160.527	BM28ANS.jpg
130.891	0.514	Blank	Blank	95.713	n/a	2	4	1	n/a	61	n/a	3	n/a	n/a	n/a	n/a	161.024	n/a
131.421	0.497	happy	Picture	95.199	n/a	2	4	2	n/a	62	100	3	n/a	n/a	n/a	n/a	161.554	AF32ANS.jpg
131.919	0.514	Blank	Blank	94.686	n/a	2	4	2	n/a	62	n/a	3	n/a	n/a	n/a	n/a	162.052	n/a
132.449	0.497	happy	Picture	94.172	n/a	2	4	3	n/a	63	118	3	n/a	n/a	n/a	n/a	162.582	BM26ANS.jpg
132.947	0.514	Blank	Blank	93.658	n/a	2	4	3	n/a	63	n/a	3	n/a	n/a	n/a	n/a	163.08	n/a
133.477	0.497	happy	Picture	93.144	n/a	2	4	4	n/a	64	89	3	n/a	n/a	n/a	n/a	163.61	AF17ANS.jpg
133.974	0.514	Blank	Blank	92.63	n/a	2	4	4	n/a	64	n/a	3	n/a	n/a	n/a	n/a	164.108	n/a
134.505	0.497	happy	Picture	92.116	n/a	2	4	5	n/a	65	116	3	n/a	n/a	n/a	n/a	164.638	BM24ANS.jpg
135.002	0.514	Blank	Blank	91.602	n/a	2	4	5	n/a	65	n/a	3	n/a	n/a	n/a	n/a	165.136	n/a
135.533	0.497	happy	Picture	91.088	n/a	2	4	6	n/a	66	105	3	n/a	n/a	n/a	n/a	165.666	BM06ANS.jpg
136.03	0.514	Blank	Blank	90.574	n/a	2	4	6	n/a	66	n/a	3	n/a	n/a	n/a	n/a	166.163	n/a
136.561	0.497	happy	Picture	90.06	n/a	2	4	7	n/a	67	106	3	n/a	n/a	n/a	n/a	166.694	AM07ANS.jpg
137.058	0.514	Blank	Blank	89.546	n/a	2	4	7	n/a	67	n/a	3	n/a	n/a	n/a	n/a	167.191	n/a
137.589	0.497	happy	Picture	89.032	n/a	2	4	8	n/a	68	94	3	n/a	n/a	n/a	n/a	167.722	AF23ANS.jpg
138.086	0.514	Blank	Blank	88.518	n/a	2	4	8	n/a	68	n/a	3	n/a	n/a	n/a	n/a	168.219	n/a
138.617	0.497	happy	Picture	88.004	n/a	2	4	9	n/a	69	117	3	n/a	n/a	n/a	n/a	168.75	BM25ANS.jpg
139.114	0.514	Blank	Blank	87.49	n/a	2	4	9	n/a	69	n/a	3	n/a	n/a	n/a	n/a	169.247	n/a
139.644	0.497	happy	Picture	86.976	n/a	2	4	10	n/a	70	90	3	n/a	n/a	n/a	n/a	169.778	AF18ANS.jpg
140.142	0.514	Blank	Blank	86.462	n/a	2	4	10	n/a	70	n/a	3	n/a	n/a	n/a	n/a	170.275	n/a
140.672	0.497	happy	Picture	85.949	n/a	2	4	11	n/a	71	83	3	n/a	n/a	n/a	n/a	170.805	BF04ANS.jpg
141.17	0.514	Blank	Blank	85.435	n/a	2	4	11	n/a	71	n/a	3	n/a	n/a	n/a	n/a	171.303	n/a
141.7	0.497	happy	Picture	84.921	n/a	2	4	12	n/a	72	112	3	n/a	n/a	n/a	n/a	171.833	AM14ANS.jpg
142.198	0.514	Blank	Blank	84.407	n/a	2	4	12	n/a	72	n/a	3	n/a	n/a	n/a	n/a	172.331	n/a
142.728	0.497	happy	Picture	83.893	n/a	2	4	13	n/a	73	102	3	n/a	n/a	n/a	n/a	172.861	BM03ANS.jpg
143.225	0.514	Blank	Blank	83.379	n/a	2	4	13	n/a	73	n/a	3	n/a	n/a	n/a	n/a	173.359	n/a
143.756	0.497	happy	Picture	82.865	n/a	2	4	14	n/a	74	95	3	n/a	n/a	n/a	n/a	173.889	AF25ANS.jpg
144.253	0.514	Blank	Blank	82.351	n/a	2	4	14	n/a	74	n/a	3	n/a	n/a	n/a	n/a	174.387	n/a
144.784	0.497	happy	Picture	81.837	n/a	2	4	15	n/a	75	113	3	n/a	n/a	n/a	n/a	174.917	AM21ANS.jpg
145.281	0.514	Blank	Blank	81.323	n/a	2	4	15	n/a	75	n/a	3	n/a	n/a	n/a	n/a	175.414	n/a
145.812	0.497	happy	Picture	80.809	n/a	2	4	16	n/a	76	88	3	n/a	n/a	n/a	n/a	175.945	AF14ANS.jpg
146.309	0.514	Blank	Blank	80.295	n/a	2	4	16	n/a	76	n/a	3	n/a	n/a	n/a	n/a	176.442	n/a
146.84	0.497	happy	Picture	79.781	n/a	2	4	17	n/a	77	93	3	n/a	n/a	n/a	n/a	176.973	BF22ANS.jpg
147.337	0.514	Blank	Blank	79.267	n/a	2	4	17	n/a	77	n/a	3	n/a	n/a	n/a	n/a	177.47	n/a
147.867	0.497	happy	Picture	78.753	n/a	2	4	18	n/a	78	86	3	n/a	n/a	n/a	n/a	178.001	AF09ANS.jpg
148.365	0.514	Blank	Blank	78.239	n/a	2	4	18	n/a	78	n/a	3	n/a	n/a	n/a	n/a	178.498	n/a
148.895	0.497	happy	Picture	77.725	n/a	2	4	19	n/a	79	92	3	n/a	n/a	n/a	n/a	179.029	AF21ANS.jpg
149.393	0.514	Blank	Blank	77.212	n/a	2	4	19	n/a	79	n/a	3	n/a	n/a	n/a	n/a	179.526	n/a
149.923	0.497	happy	Picture	76.698	n/a	2	4	20	n/a	80	84	3	n/a	n/a	n/a	n/a	180.056	AF05ANS.jpg
150.421	0.514	Blank	Blank	76.184	n/a	2	4	20	n/a	80	n/a	3	n/a	n/a	n/a	n/a	180.554	n/a
150.951	10.014	ITI	Fixation+	66.154	n/a	2	n/a	n/a	n/a	n/a	n/a	n/a	n/a	n/a	n/a	n/a	181.084	n/a
160.981	0.497	neutral	Picture	65.64	n/a	2	5	1	n/a	81	4	1	n/a	n/a	n/a	n/a	191.114	AF05NES.jpg
161.479	0.514	Blank	Blank	65.126	n/a	2	5	1	n/a	81	n/a	1	n/a	n/a	n/a	n/a	191.612	n/a
162.009	0.497	neutral	Picture	64.612	n/a	2	5	2	n/a	82	14	1	n/a	n/a	n/a	n/a	192.142	AF23NES.jpg
162.506	0.514	Blank	Blank	64.098	n/a	2	5	2	n/a	82	n/a	1	n/a	n/a	n/a	n/a	192.64	n/a
163.037	0.497	neutral	Picture	63.584	n/a	2	5	3	n/a	83	19	1	n/a	n/a	n/a	n/a	193.17	AF31NES.jpg
163.534	0.514	Blank	Blank	63.07	n/a	2	5	3	n/a	83	n/a	1	n/a	n/a	n/a	n/a	193.667	n/a
164.065	0.497	neutral	Picture	62.556	n/a	2	5	4	n/a	84	8	1	n/a	n/a	n/a	n/a	194.198	AF14NES.jpg
164.562	0.514	Blank	Blank	62.042	n/a	2	5	4	n/a	84	n/a	1	n/a	n/a	n/a	n/a	194.695	n/a
165.093	0.497	neutral	Picture	61.528	n/a	2	5	5	n/a	85	25	1	n/a	n/a	n/a	n/a	195.226	BM06NES.jpg
165.59	0.514	Blank	Blank	61.014	n/a	2	5	5	n/a	85	n/a	1	n/a	n/a	n/a	n/a	195.723	n/a
166.121	0.497	neutral	Picture	60.5	n/a	2	5	6	n/a	86	9	1	n/a	n/a	n/a	n/a	196.254	AF17NES.jpg
166.618	0.514	Blank	Blank	59.986	n/a	2	5	6	n/a	86	n/a	1	n/a	n/a	n/a	n/a	196.751	n/a
167.149	0.497	neutral	Picture	59.472	n/a	2	5	7	n/a	87	2	1	n/a	n/a	n/a	n/a	197.282	AF03NES.jpg
167.646	0.514	Blank	Blank	58.958	n/a	2	5	7	n/a	87	n/a	1	n/a	n/a	n/a	n/a	197.779	n/a
168.176	0.497	neutral	Picture	58.444	n/a	2	5	8	n/a	88	17	1	n/a	n/a	n/a	n/a	198.31	BF28NES.jpg
168.674	0.514	Blank	Blank	57.93	n/a	2	5	8	n/a	88	n/a	1	n/a	n/a	n/a	n/a	198.807	n/a
169.204	0.497	neutral	Picture	57.417	n/a	2	5	9	n/a	89	6	1	n/a	n/a	n/a	n/a	199.338	AF09NES.jpg
169.702	0.514	Blank	Blank	56.903	n/a	2	5	9	n/a	89	n/a	1	n/a	n/a	n/a	n/a	199.835	n/a
170.232	0.497	neutral	Picture	56.389	n/a	2	5	10	n/a	90	12	1	n/a	n/a	n/a	n/a	200.365	AF21NES.jpg
170.73	0.514	Blank	Blank	55.875	n/a	2	5	10	n/a	90	n/a	1	n/a	n/a	n/a	n/a	200.863	n/a
171.26	0.497	neutral	Picture	55.361	n/a	2	5	11	n/a	91	24	1	n/a	n/a	n/a	n/a	201.393	BM05NES.jpg
171.757	0.514	Blank	Blank	54.847	n/a	2	5	11	n/a	91	n/a	1	n/a	n/a	n/a	n/a	201.891	n/a
172.288	0.497	neutral	Picture	54.333	n/a	2	5	12	n/a	92	34	1	n/a	n/a	n/a	n/a	202.421	AM22NES.jpg
172.785	0.514	Blank	Blank	53.819	n/a	2	5	12	n/a	92	n/a	1	n/a	n/a	n/a	n/a	202.918	n/a
173.316	0.497	neutral	Picture	53.305	n/a	2	5	13	n/a	93	23	1	n/a	n/a	n/a	n/a	203.449	AM04NES.jpg
173.813	0.514	Blank	Blank	52.791	n/a	2	5	13	n/a	93	n/a	1	n/a	n/a	n/a	n/a	203.946	n/a
174.344	0.497	neutral	Picture	52.277	n/a	2	5	14	n/a	94	15	1	n/a	n/a	n/a	n/a	204.477	AF25NES.jpg
174.841	0.514	Blank	Blank	51.763	n/a	2	5	14	n/a	94	n/a	1	n/a	n/a	n/a	n/a	204.974	n/a
175.372	0.497	neutral	Picture	51.249	n/a	2	5	15	n/a	95	37	1	n/a	n/a	n/a	n/a	205.505	BM25NES.jpg
175.869	0.514	Blank	Blank	50.735	n/a	2	5	15	n/a	95	n/a	1	n/a	n/a	n/a	n/a	206.002	n/a
176.399	0.497	neutral	Picture	50.221	n/a	2	5	16	n/a	96	32	1	n/a	n/a	n/a	n/a	206.533	AM14NES.jpg
176.897	0.514	Blank	Blank	49.707	n/a	2	5	16	n/a	96	n/a	1	n/a	n/a	n/a	n/a	207.03	n/a
177.427	0.497	neutral	Picture	49.193	n/a	2	5	17	n/a	97	3	1	n/a	n/a	n/a	n/a	207.56	BF04NES.jpg
177.925	0.514	Blank	Blank	48.68	n/a	2	5	17	n/a	97	n/a	1	n/a	n/a	n/a	n/a	208.058	n/a
178.455	0.497	neutral	Picture	48.166	n/a	2	5	18	n/a	98	16	1	n/a	n/a	n/a	n/a	208.588	AF26NES.jpg
178.953	0.514	Blank	Blank	47.652	n/a	2	5	18	n/a	98	n/a	1	n/a	n/a	n/a	n/a	209.086	n/a
179.483	0.497	neutral	Picture	47.138	n/a	2	5	19	n/a	99	27	1	n/a	n/a	n/a	n/a	209.616	BM08NES.jpg
179.98	0.514	Blank	Blank	46.624	n/a	2	5	19	n/a	99	n/a	1	n/a	n/a	n/a	n/a	210.114	n/a
180.511	0.497	neutral	Picture	46.11	n/a	2	5	20	n/a	100	28	1	n/a	n/a	n/a	n/a	210.644	AM09NES.jpg
181.008	0.514	Blank	Blank	45.596	n/a	2	5	20	n/a	100	n/a	1	n/a	n/a	n/a	n/a	211.142	n/a
181.539	10.014	ITI	Fixation+	35.566	n/a	2	n/a	n/a	n/a	n/a	n/a	n/a	n/a	n/a	n/a	n/a	211.672	n/a
191.569	0.497	happy	Picture	35.052	n/a	2	6	1	n/a	101	81	3	n/a	n/a	n/a	n/a	221.702	AF01ANS.jpg
192.066	0.514	Blank	Blank	34.538	n/a	2	6	1	n/a	101	n/a	3	n/a	n/a	n/a	n/a	222.2	n/a
192.597	0.497	happy	Picture	34.024	n/a	2	6	2	n/a	102	120	3	n/a	n/a	n/a	n/a	222.73	AM35ANS.jpg
193.094	0.514	Blank	Blank	33.51	n/a	2	6	2	n/a	102	n/a	3	n/a	n/a	n/a	n/a	223.227	n/a
193.625	0.497	happy	Picture	32.996	n/a	2	6	3	n/a	103	114	3	n/a	n/a	n/a	n/a	223.758	AM22ANS.jpg
194.122	0.514	Blank	Blank	32.482	n/a	2	6	3	n/a	103	n/a	3	n/a	n/a	n/a	n/a	224.255	n/a
194.653	0.497	happy	Picture	31.968	n/a	2	6	4	n/a	104	109	3	n/a	n/a	n/a	n/a	224.786	AM10ANS.jpg
195.15	0.514	Blank	Blank	31.454	n/a	2	6	4	n/a	104	n/a	3	n/a	n/a	n/a	n/a	225.283	n/a
195.681	0.497	happy	Picture	30.94	n/a	2	6	5	n/a	105	96	3	n/a	n/a	n/a	n/a	225.814	AF26ANS.jpg
196.178	0.514	Blank	Blank	30.426	n/a	2	6	5	n/a	105	n/a	3	n/a	n/a	n/a	n/a	226.311	n/a
196.708	0.497	happy	Picture	29.912	n/a	2	6	6	n/a	106	82	3	n/a	n/a	n/a	n/a	226.842	AF03ANS.jpg
197.206	0.514	Blank	Blank	29.398	n/a	2	6	6	n/a	106	n/a	3	n/a	n/a	n/a	n/a	227.339	n/a
197.736	0.497	happy	Picture	28.885	n/a	2	6	7	n/a	107	97	3	n/a	n/a	n/a	n/a	227.869	BF28ANS.jpg
198.234	0.514	Blank	Blank	28.37	n/a	2	6	7	n/a	107	n/a	3	n/a	n/a	n/a	n/a	228.367	n/a
198.764	0.497	happy	Picture	27.857	n/a	2	6	8	n/a	108	115	3	n/a	n/a	n/a	n/a	228.897	AM23ANS.jpg
199.262	0.514	Blank	Blank	27.343	n/a	2	6	8	n/a	108	n/a	3	n/a	n/a	n/a	n/a	229.395	n/a
199.792	0.497	happy	Picture	26.829	n/a	2	6	9	n/a	109	91	3	n/a	n/a	n/a	n/a	229.925	AF20ANS.jpg
200.289	0.514	Blank	Blank	26.315	n/a	2	6	9	n/a	109	n/a	3	n/a	n/a	n/a	n/a	230.423	n/a
200.82	0.497	happy	Picture	25.801	n/a	2	6	10	n/a	110	87	3	n/a	n/a	n/a	n/a	230.953	BF11ANS.jpg
201.317	0.514	Blank	Blank	25.287	n/a	2	6	10	n/a	110	n/a	3	n/a	n/a	n/a	n/a	231.451	n/a
201.848	0.497	happy	Picture	24.773	n/a	2	6	11	n/a	111	85	3	n/a	n/a	n/a	n/a	231.981	BF07ANS.jpg
202.345	0.514	Blank	Blank	24.259	n/a	2	6	11	n/a	111	n/a	3	n/a	n/a	n/a	n/a	232.478	n/a
202.876	0.497	happy	Picture	23.745	n/a	2	6	12	n/a	112	110	3	n/a	n/a	n/a	n/a	233.009	AM11ANS.jpg
203.373	0.514	Blank	Blank	23.231	n/a	2	6	12	n/a	112	n/a	3	n/a	n/a	n/a	n/a	233.506	n/a
203.904	0.497	happy	Picture	22.717	n/a	2	6	13	n/a	113	111	3	n/a	n/a	n/a	n/a	234.037	BM12ANS.jpg
204.401	0.514	Blank	Blank	22.203	n/a	2	6	13	n/a	113	n/a	3	n/a	n/a	n/a	n/a	234.534	n/a
204.931	0.497	happy	Picture	21.689	n/a	2	6	14	n/a	114	103	3	n/a	n/a	n/a	n/a	235.065	AM04ANS.jpg
205.429	0.514	Blank	Blank	21.175	n/a	2	6	14	n/a	114	n/a	3	n/a	n/a	n/a	n/a	235.562	n/a
205.959	0.497	happy	Picture	20.661	n/a	2	6	15	n/a	115	101	3	n/a	n/a	n/a	n/a	236.093	AM01ANS.jpg
206.457	0.514	Blank	Blank	20.148	n/a	2	6	15	n/a	115	n/a	3	n/a	n/a	n/a	n/a	236.59	n/a
206.987	0.497	happy	Picture	19.634	n/a	2	6	16	n/a	116	104	3	n/a	n/a	n/a	n/a	237.12	BM05ANS.jpg
207.485	0.514	Blank	Blank	19.12	n/a	2	6	16	n/a	116	n/a	3	n/a	n/a	n/a	n/a	237.618	n/a
208.015	0.497	happy	Picture	18.606	n/a	2	6	17	n/a	117	107	3	n/a	n/a	n/a	n/a	238.148	BM08ANS.jpg
208.513	0.514	Blank	Blank	18.092	n/a	2	6	17	n/a	117	n/a	3	n/a	n/a	n/a	n/a	238.646	n/a
209.043	0.497	happy	Picture	17.578	n/a	2	6	18	n/a	118	98	3	n/a	n/a	n/a	n/a	239.176	BF29ANS.jpg
209.54	0.514	Blank	Blank	17.064	n/a	2	6	18	n/a	118	n/a	3	n/a	n/a	n/a	n/a	239.673	n/a
210.071	0.497	happy	Picture	16.55	n/a	2	6	19	n/a	119	99	3	n/a	n/a	n/a	n/a	240.204	AF31ANS.jpg
210.568	0.514	Blank	Blank	16.036	n/a	2	6	19	n/a	119	n/a	3	n/a	n/a	n/a	n/a	240.701	n/a
211.099	0.497	happy	Picture	15.522	n/a	2	6	20	n/a	120	108	3	n/a	n/a	n/a	n/a	241.232	AM09ANS.jpg
211.596	0.514	Blank	Blank	15.008	n/a	2	6	20	n/a	120	n/a	3	n/a	n/a	n/a	n/a	241.729	n/a
212.127	10.014	ITI	Fixation+	4.978	n/a	2	n/a	n/a	n/a	n/a	n/a	n/a	n/a	n/a	n/a	n/a	242.26	n/a
227.118	n/a	ConfirmRating	Rate	n/a	4.973	2	n/a	n/a	0	n/a	n/a	n/a	2	Happy	80	53	257.251	n/a
234.386	n/a	ConfirmRating	Rate	n/a	7.245	2	n/a	n/a	1	n/a	n/a	n/a	3	Happy	21	48	264.519	n/a
234.409	15.004	Rest	Picture	n/a	n/a	n/a	n/a	n/a	n/a	n/a	n/a	n/a	0	n/a	0	0	264.542	n/a
249.429	10.014	ITI	Fixation+	96.904	n/a	3	n/a	n/a	n/a	n/a	n/a	n/a	n/a	n/a	n/a	n/a	279.562	n/a
259.459	0.497	angry	Picture	96.39	n/a	3	7	1	n/a	1	46	2	n/a	n/a	n/a	n/a	289.592	AF09HAS.jpg
259.956	0.514	Blank	Blank	95.877	n/a	3	7	1	n/a	1	n/a	2	n/a	n/a	n/a	n/a	290.089	n/a
260.487	0.497	angry	Picture	95.362	n/a	3	7	2	n/a	2	69	2	n/a	n/a	n/a	n/a	290.62	AM10HAS.jpg
260.984	0.514	Blank	Blank	94.849	n/a	3	7	2	n/a	2	n/a	2	n/a	n/a	n/a	n/a	291.117	n/a
261.515	0.497	angry	Picture	94.335	n/a	3	7	3	n/a	3	71	2	n/a	n/a	n/a	n/a	291.648	BM12HAS.jpg
262.012	0.514	Blank	Blank	93.821	n/a	3	7	3	n/a	3	n/a	2	n/a	n/a	n/a	n/a	292.145	n/a
262.543	0.497	angry	Picture	93.307	n/a	3	7	4	n/a	4	51	2	n/a	n/a	n/a	n/a	292.676	AF20HAS.jpg
263.04	0.514	Blank	Blank	92.793	n/a	3	7	4	n/a	4	n/a	2	n/a	n/a	n/a	n/a	293.173	n/a
263.571	0.497	angry	Picture	92.279	n/a	3	7	5	n/a	5	67	2	n/a	n/a	n/a	n/a	293.704	BM08HAS.jpg
264.068	0.514	Blank	Blank	91.765	n/a	3	7	5	n/a	5	n/a	2	n/a	n/a	n/a	n/a	294.201	n/a
264.598	0.497	angry	Picture	91.251	n/a	3	7	6	n/a	6	60	2	n/a	n/a	n/a	n/a	294.731	AF32HAS.jpg
265.096	0.514	Blank	Blank	90.737	n/a	3	7	6	n/a	6	n/a	2	n/a	n/a	n/a	n/a	295.229	n/a
265.626	0.497	angry	Picture	90.223	n/a	3	7	7	n/a	7	42	2	n/a	n/a	n/a	n/a	295.759	AF03HAS.jpg
266.124	0.514	Blank	Blank	89.709	n/a	3	7	7	n/a	7	n/a	2	n/a	n/a	n/a	n/a	296.257	n/a
266.654	0.497	angry	Picture	89.195	n/a	3	7	8	n/a	8	55	2	n/a	n/a	n/a	n/a	296.787	AF25HAS.jpg
267.151	0.514	Blank	Blank	88.681	n/a	3	7	8	n/a	8	n/a	2	n/a	n/a	n/a	n/a	297.285	n/a
267.682	0.497	angry	Picture	88.167	n/a	3	7	9	n/a	9	72	2	n/a	n/a	n/a	n/a	297.815	AM14HAS.jpg
268.179	0.514	Blank	Blank	87.653	n/a	3	7	9	n/a	9	n/a	2	n/a	n/a	n/a	n/a	298.313	n/a
268.71	0.497	angry	Picture	87.139	n/a	3	7	10	n/a	10	63	2	n/a	n/a	n/a	n/a	298.843	AM04HAS.jpg
269.207	0.514	Blank	Blank	86.625	n/a	3	7	10	n/a	10	n/a	2	n/a	n/a	n/a	n/a	299.34	n/a
269.738	0.497	angry	Picture	86.112	n/a	3	7	11	n/a	11	58	2	n/a	n/a	n/a	n/a	299.871	BF29HAS.jpg
270.235	0.514	Blank	Blank	85.598	n/a	3	7	11	n/a	11	n/a	2	n/a	n/a	n/a	n/a	300.368	n/a
270.766	0.497	angry	Picture	85.084	n/a	3	7	12	n/a	12	48	2	n/a	n/a	n/a	n/a	300.899	AF14HAS.jpg
271.263	0.514	Blank	Blank	84.57	n/a	3	7	12	n/a	12	n/a	2	n/a	n/a	n/a	n/a	301.396	n/a
271.793	0.497	angry	Picture	84.056	n/a	3	7	13	n/a	13	66	2	n/a	n/a	n/a	n/a	301.927	BM07HAS.jpg
272.291	0.514	Blank	Blank	83.542	n/a	3	7	13	n/a	13	n/a	2	n/a	n/a	n/a	n/a	302.424	n/a
272.821	0.497	angry	Picture	83.028	n/a	3	7	14	n/a	14	70	2	n/a	n/a	n/a	n/a	302.955	BM11HAS.jpg
273.319	0.514	Blank	Blank	82.514	n/a	3	7	14	n/a	14	n/a	2	n/a	n/a	n/a	n/a	303.452	n/a
273.849	0.497	angry	Picture	82.0	n/a	3	7	15	n/a	15	43	2	n/a	n/a	n/a	n/a	303.983	BF04HAS.jpg
274.347	0.514	Blank	Blank	81.486	n/a	3	7	15	n/a	15	n/a	2	n/a	n/a	n/a	n/a	304.48	n/a
274.877	0.497	angry	Picture	80.972	n/a	3	7	16	n/a	16	49	2	n/a	n/a	n/a	n/a	305.01	AF17HAS.jpg
275.375	0.514	Blank	Blank	80.458	n/a	3	7	16	n/a	16	n/a	2	n/a	n/a	n/a	n/a	305.508	n/a
275.905	0.497	angry	Picture	79.944	n/a	3	7	17	n/a	17	75	2	n/a	n/a	n/a	n/a	306.038	AM23HAS.jpg
276.402	0.514	Blank	Blank	79.43	n/a	3	7	17	n/a	17	n/a	2	n/a	n/a	n/a	n/a	306.536	n/a
276.933	0.497	angry	Picture	78.916	n/a	3	7	18	n/a	18	80	2	n/a	n/a	n/a	n/a	307.066	BM35HAS.jpg
277.43	0.514	Blank	Blank	78.403	n/a	3	7	18	n/a	18	n/a	2	n/a	n/a	n/a	n/a	307.563	n/a
277.961	0.497	angry	Picture	77.888	n/a	3	7	19	n/a	19	76	2	n/a	n/a	n/a	n/a	308.094	BM24HAS.jpg
278.458	0.514	Blank	Blank	77.375	n/a	3	7	19	n/a	19	n/a	2	n/a	n/a	n/a	n/a	308.591	n/a
278.989	0.497	angry	Picture	76.861	n/a	3	7	20	n/a	20	74	2	n/a	n/a	n/a	n/a	309.122	AM22HAS.jpg
279.486	0.514	Blank	Blank	76.347	n/a	3	7	20	n/a	20	n/a	2	n/a	n/a	n/a	n/a	309.619	n/a
280.017	10.014	ITI	Fixation+	66.317	n/a	3	n/a	n/a	n/a	n/a	n/a	n/a	n/a	n/a	n/a	n/a	310.15	n/a
290.047	0.497	neutral	Picture	65.803	n/a	3	8	1	n/a	21	33	1	n/a	n/a	n/a	n/a	320.18	AM21NES.jpg
290.544	0.514	Blank	Blank	65.289	n/a	3	8	1	n/a	21	n/a	1	n/a	n/a	n/a	n/a	320.677	n/a
291.075	0.497	neutral	Picture	64.775	n/a	3	8	2	n/a	22	39	1	n/a	n/a	n/a	n/a	321.208	AM28NES.jpg
291.572	0.514	Blank	Blank	64.261	n/a	3	8	2	n/a	22	n/a	1	n/a	n/a	n/a	n/a	321.705	n/a
292.103	0.497	neutral	Picture	63.747	n/a	3	8	3	n/a	23	25	1	n/a	n/a	n/a	n/a	322.236	BM06NES.jpg
292.6	0.514	Blank	Blank	63.233	n/a	3	8	3	n/a	23	n/a	1	n/a	n/a	n/a	n/a	322.733	n/a
293.13	0.497	neutral	Picture	62.719	n/a	3	8	4	n/a	24	5	1	n/a	n/a	n/a	n/a	323.264	BF07NES.jpg
293.628	0.514	Blank	Blank	62.205	n/a	3	8	4	n/a	24	n/a	1	n/a	n/a	n/a	n/a	323.761	n/a
294.158	0.497	neutral	Picture	61.691	n/a	3	8	5	n/a	25	10	1	n/a	n/a	n/a	n/a	324.291	AF18NES.jpg
294.656	0.514	Blank	Blank	61.177	n/a	3	8	5	n/a	25	n/a	1	n/a	n/a	n/a	n/a	324.789	n/a
295.186	0.497	neutral	Picture	60.663	n/a	3	8	6	n/a	26	34	1	n/a	n/a	n/a	n/a	325.319	AM22NES.jpg
295.684	0.514	Blank	Blank	60.149	n/a	3	8	6	n/a	26	n/a	1	n/a	n/a	n/a	n/a	325.817	n/a
296.214	0.497	neutral	Picture	59.635	n/a	3	8	7	n/a	27	36	1	n/a	n/a	n/a	n/a	326.347	BM24NES.jpg
296.711	0.514	Blank	Blank	59.121	n/a	3	8	7	n/a	27	n/a	1	n/a	n/a	n/a	n/a	326.845	n/a
297.242	0.497	neutral	Picture	58.607	n/a	3	8	8	n/a	28	14	1	n/a	n/a	n/a	n/a	327.375	AF23NES.jpg
297.739	0.514	Blank	Blank	58.094	n/a	3	8	8	n/a	28	n/a	1	n/a	n/a	n/a	n/a	327.873	n/a
298.27	0.497	neutral	Picture	57.58	n/a	3	8	9	n/a	29	9	1	n/a	n/a	n/a	n/a	328.403	AF17NES.jpg
298.767	0.514	Blank	Blank	57.066	n/a	3	8	9	n/a	29	n/a	1	n/a	n/a	n/a	n/a	328.9	n/a
299.298	0.497	neutral	Picture	56.552	n/a	3	8	10	n/a	30	19	1	n/a	n/a	n/a	n/a	329.431	AF31NES.jpg
299.795	0.514	Blank	Blank	56.038	n/a	3	8	10	n/a	30	n/a	1	n/a	n/a	n/a	n/a	329.928	n/a
300.326	0.497	neutral	Picture	55.524	n/a	3	8	11	n/a	31	15	1	n/a	n/a	n/a	n/a	330.459	AF25NES.jpg
300.823	0.514	Blank	Blank	55.01	n/a	3	8	11	n/a	31	n/a	1	n/a	n/a	n/a	n/a	330.956	n/a
301.353	0.497	neutral	Picture	54.496	n/a	3	8	12	n/a	32	22	1	n/a	n/a	n/a	n/a	331.487	BM03NES.jpg
301.851	0.514	Blank	Blank	53.982	n/a	3	8	12	n/a	32	n/a	1	n/a	n/a	n/a	n/a	331.984	n/a
302.381	0.497	neutral	Picture	53.468	n/a	3	8	13	n/a	33	11	1	n/a	n/a	n/a	n/a	332.514	AF20NES.jpg
302.879	0.514	Blank	Blank	52.954	n/a	3	8	13	n/a	33	n/a	1	n/a	n/a	n/a	n/a	333.012	n/a
303.409	0.497	neutral	Picture	52.44	n/a	3	8	14	n/a	34	4	1	n/a	n/a	n/a	n/a	333.542	AF05NES.jpg
303.906	0.514	Blank	Blank	51.926	n/a	3	8	14	n/a	34	n/a	1	n/a	n/a	n/a	n/a	334.04	n/a
304.437	0.497	neutral	Picture	51.412	n/a	3	8	15	n/a	35	17	1	n/a	n/a	n/a	n/a	334.57	BF28NES.jpg
304.934	0.514	Blank	Blank	50.898	n/a	3	8	15	n/a	35	n/a	1	n/a	n/a	n/a	n/a	335.068	n/a
305.465	0.497	neutral	Picture	50.384	n/a	3	8	16	n/a	36	13	1	n/a	n/a	n/a	n/a	335.598	BF22NES.jpg
305.962	0.514	Blank	Blank	49.87	n/a	3	8	16	n/a	36	n/a	1	n/a	n/a	n/a	n/a	336.096	n/a
306.493	0.497	neutral	Picture	49.356	n/a	3	8	17	n/a	37	12	1	n/a	n/a	n/a	n/a	336.626	AF21NES.jpg
306.99	0.514	Blank	Blank	48.843	n/a	3	8	17	n/a	37	n/a	1	n/a	n/a	n/a	n/a	337.123	n/a
307.521	0.497	neutral	Picture	48.329	n/a	3	8	18	n/a	38	24	1	n/a	n/a	n/a	n/a	337.654	BM05NES.jpg
308.018	0.514	Blank	Blank	47.815	n/a	3	8	18	n/a	38	n/a	1	n/a	n/a	n/a	n/a	338.151	n/a
308.549	0.497	neutral	Picture	47.301	n/a	3	8	19	n/a	39	29	1	n/a	n/a	n/a	n/a	338.682	AM10NES.jpg
309.046	0.514	Blank	Blank	46.787	n/a	3	8	19	n/a	39	n/a	1	n/a	n/a	n/a	n/a	339.179	n/a
309.577	0.497	neutral	Picture	46.273	n/a	3	8	20	n/a	40	23	1	n/a	n/a	n/a	n/a	339.71	AM04NES.jpg
310.074	0.514	Blank	Blank	45.759	n/a	3	8	20	n/a	40	n/a	1	n/a	n/a	n/a	n/a	340.207	n/a
310.604	10.014	ITI	Fixation+	35.729	n/a	3	n/a	n/a	n/a	n/a	n/a	n/a	n/a	n/a	n/a	n/a	340.738	n/a
320.635	0.497	angry	Picture	35.215	n/a	3	9	1	n/a	41	62	2	n/a	n/a	n/a	n/a	350.768	BM03HAS.jpg
321.132	0.514	Blank	Blank	34.701	n/a	3	9	1	n/a	41	n/a	2	n/a	n/a	n/a	n/a	351.265	n/a
321.662	0.497	angry	Picture	34.187	n/a	3	9	2	n/a	42	52	2	n/a	n/a	n/a	n/a	351.796	AF21HAS.jpg
322.16	0.514	Blank	Blank	33.673	n/a	3	9	2	n/a	42	n/a	2	n/a	n/a	n/a	n/a	352.293	n/a
322.69	0.497	angry	Picture	33.159	n/a	3	9	3	n/a	43	44	2	n/a	n/a	n/a	n/a	352.824	AF05HAS.jpg
323.188	0.514	Blank	Blank	32.645	n/a	3	9	3	n/a	43	n/a	2	n/a	n/a	n/a	n/a	353.321	n/a
323.718	0.497	angry	Picture	32.131	n/a	3	9	4	n/a	44	53	2	n/a	n/a	n/a	n/a	353.851	BF22HAS.jpg
324.216	0.514	Blank	Blank	31.617	n/a	3	9	4	n/a	44	n/a	2	n/a	n/a	n/a	n/a	354.349	n/a
324.746	0.497	angry	Picture	31.103	n/a	3	9	5	n/a	45	54	2	n/a	n/a	n/a	n/a	354.879	AF23HAS.jpg
325.243	0.514	Blank	Blank	30.589	n/a	3	9	5	n/a	45	n/a	2	n/a	n/a	n/a	n/a	355.377	n/a
325.774	0.497	angry	Picture	30.075	n/a	3	9	6	n/a	46	68	2	n/a	n/a	n/a	n/a	355.907	AM09HAS.jpg
326.271	0.514	Blank	Blank	29.562	n/a	3	9	6	n/a	46	n/a	2	n/a	n/a	n/a	n/a	356.404	n/a
326.802	0.497	angry	Picture	29.047	n/a	3	9	7	n/a	47	64	2	n/a	n/a	n/a	n/a	356.935	BM05HAS.jpg
327.299	0.514	Blank	Blank	28.534	n/a	3	9	7	n/a	47	n/a	2	n/a	n/a	n/a	n/a	357.432	n/a
327.83	0.497	angry	Picture	28.02	n/a	3	9	8	n/a	48	59	2	n/a	n/a	n/a	n/a	357.963	AF31HAS.jpg
328.327	0.514	Blank	Blank	27.506	n/a	3	9	8	n/a	48	n/a	2	n/a	n/a	n/a	n/a	358.46	n/a
328.858	0.497	angry	Picture	26.992	n/a	3	9	9	n/a	49	41	2	n/a	n/a	n/a	n/a	358.991	AF01HAS.jpg
329.355	0.514	Blank	Blank	26.478	n/a	3	9	9	n/a	49	n/a	2	n/a	n/a	n/a	n/a	359.488	n/a
329.885	0.497	angry	Picture	25.964	n/a	3	9	10	n/a	50	73	2	n/a	n/a	n/a	n/a	360.019	AM21HAS.jpg
330.383	0.514	Blank	Blank	25.45	n/a	3	9	10	n/a	50	n/a	2	n/a	n/a	n/a	n/a	360.516	n/a
330.913	0.497	angry	Picture	24.936	n/a	3	9	11	n/a	51	65	2	n/a	n/a	n/a	n/a	361.046	BM06HAS.jpg
331.411	0.514	Blank	Blank	24.422	n/a	3	9	11	n/a	51	n/a	2	n/a	n/a	n/a	n/a	361.544	n/a
331.941	0.497	angry	Picture	23.908	n/a	3	9	12	n/a	52	56	2	n/a	n/a	n/a	n/a	362.074	AF26HAS.jpg
332.439	0.514	Blank	Blank	23.394	n/a	3	9	12	n/a	52	n/a	2	n/a	n/a	n/a	n/a	362.572	n/a
332.969	0.497	angry	Picture	22.88	n/a	3	9	13	n/a	53	45	2	n/a	n/a	n/a	n/a	363.102	BF07HAS.jpg
333.466	0.514	Blank	Blank	22.366	n/a	3	9	13	n/a	53	n/a	2	n/a	n/a	n/a	n/a	363.6	n/a
333.997	0.497	angry	Picture	21.852	n/a	3	9	14	n/a	54	78	2	n/a	n/a	n/a	n/a	364.13	BM26HAS.jpg
334.494	0.514	Blank	Blank	21.338	n/a	3	9	14	n/a	54	n/a	2	n/a	n/a	n/a	n/a	364.627	n/a
335.025	0.497	angry	Picture	20.824	n/a	3	9	15	n/a	55	50	2	n/a	n/a	n/a	n/a	365.158	AF18HAS.jpg
335.522	0.514	Blank	Blank	20.311	n/a	3	9	15	n/a	55	n/a	2	n/a	n/a	n/a	n/a	365.655	n/a
336.053	0.497	angry	Picture	19.797	n/a	3	9	16	n/a	56	47	2	n/a	n/a	n/a	n/a	366.186	BF11HAS.jpg
336.55	0.514	Blank	Blank	19.283	n/a	3	9	16	n/a	56	n/a	2	n/a	n/a	n/a	n/a	366.683	n/a
337.081	0.497	angry	Picture	18.769	n/a	3	9	17	n/a	57	77	2	n/a	n/a	n/a	n/a	367.214	BM25HAS.jpg
337.578	0.514	Blank	Blank	18.255	n/a	3	9	17	n/a	57	n/a	2	n/a	n/a	n/a	n/a	367.711	n/a
338.108	0.497	angry	Picture	17.741	n/a	3	9	18	n/a	58	57	2	n/a	n/a	n/a	n/a	368.242	BF28HAS.jpg
338.606	0.514	Blank	Blank	17.227	n/a	3	9	18	n/a	58	n/a	2	n/a	n/a	n/a	n/a	368.739	n/a
339.136	0.497	angry	Picture	16.713	n/a	3	9	19	n/a	59	61	2	n/a	n/a	n/a	n/a	369.27	AM01HAS.jpg
339.634	0.514	Blank	Blank	16.199	n/a	3	9	19	n/a	59	n/a	2	n/a	n/a	n/a	n/a	369.767	n/a
340.164	0.497	angry	Picture	15.685	n/a	3	9	20	n/a	60	79	2	n/a	n/a	n/a	n/a	370.298	BM28HAS.jpg
340.662	0.514	Blank	Blank	15.171	n/a	3	9	20	n/a	60	n/a	2	n/a	n/a	n/a	n/a	370.795	n/a
341.192	10.014	ITI	Fixation+	5.141	n/a	3	n/a	n/a	n/a	n/a	n/a	n/a	n/a	n/a	n/a	n/a	371.325	n/a
356.347	n/a	ConfirmRating	Rate	n/a	5.139	3	n/a	n/a	0	n/a	n/a	n/a	2	Angry	36	49	386.48	n/a
361.231	n/a	ConfirmRating	Rate	n/a	4.858	3	n/a	n/a	1	n/a	n/a	n/a	3	Angry	50	50	391.364	n/a
361.252	10.014	ITI	Fixation+	95.559	n/a	4	n/a	n/a	n/a	n/a	n/a	n/a	n/a	n/a	n/a	n/a	391.386	n/a
371.283	0.497	happy	Picture	95.045	n/a	4	10	1	n/a	61	119	3	n/a	n/a	n/a	n/a	401.416	BM28ANS.jpg
371.78	0.514	Blank	Blank	94.531	n/a	4	10	1	n/a	61	n/a	3	n/a	n/a	n/a	n/a	401.913	n/a
372.31	0.497	happy	Picture	94.017	n/a	4	10	2	n/a	62	100	3	n/a	n/a	n/a	n/a	402.444	AF32ANS.jpg
372.808	0.514	Blank	Blank	93.503	n/a	4	10	2	n/a	62	n/a	3	n/a	n/a	n/a	n/a	402.941	n/a
373.338	0.497	happy	Picture	92.989	n/a	4	10	3	n/a	63	118	3	n/a	n/a	n/a	n/a	403.471	BM26ANS.jpg
373.836	0.514	Blank	Blank	92.475	n/a	4	10	3	n/a	63	n/a	3	n/a	n/a	n/a	n/a	403.969	n/a
374.366	0.497	happy	Picture	91.961	n/a	4	10	4	n/a	64	89	3	n/a	n/a	n/a	n/a	404.499	AF17ANS.jpg
374.864	0.514	Blank	Blank	91.447	n/a	4	10	4	n/a	64	n/a	3	n/a	n/a	n/a	n/a	404.997	n/a
375.394	0.497	happy	Picture	90.933	n/a	4	10	5	n/a	65	116	3	n/a	n/a	n/a	n/a	405.527	BM24ANS.jpg
375.891	0.514	Blank	Blank	90.419	n/a	4	10	5	n/a	65	n/a	3	n/a	n/a	n/a	n/a	406.025	n/a
376.422	0.497	happy	Picture	89.905	n/a	4	10	6	n/a	66	105	3	n/a	n/a	n/a	n/a	406.555	BM06ANS.jpg
376.919	0.514	Blank	Blank	89.391	n/a	4	10	6	n/a	66	n/a	3	n/a	n/a	n/a	n/a	407.053	n/a
377.45	0.497	happy	Picture	88.877	n/a	4	10	7	n/a	67	106	3	n/a	n/a	n/a	n/a	407.583	AM07ANS.jpg
377.947	0.514	Blank	Blank	88.363	n/a	4	10	7	n/a	67	n/a	3	n/a	n/a	n/a	n/a	408.08	n/a
378.478	0.497	happy	Picture	87.85	n/a	4	10	8	n/a	68	94	3	n/a	n/a	n/a	n/a	408.611	AF23ANS.jpg
378.975	0.514	Blank	Blank	87.336	n/a	4	10	8	n/a	68	n/a	3	n/a	n/a	n/a	n/a	409.108	n/a
379.506	0.497	happy	Picture	86.822	n/a	4	10	9	n/a	69	117	3	n/a	n/a	n/a	n/a	409.639	BM25ANS.jpg
380.003	0.514	Blank	Blank	86.308	n/a	4	10	9	n/a	69	n/a	3	n/a	n/a	n/a	n/a	410.136	n/a
380.534	0.497	happy	Picture	85.794	n/a	4	10	10	n/a	70	90	3	n/a	n/a	n/a	n/a	410.667	AF18ANS.jpg
381.031	0.514	Blank	Blank	85.28	n/a	4	10	10	n/a	70	n/a	3	n/a	n/a	n/a	n/a	411.164	n/a
381.561	0.497	happy	Picture	84.766	n/a	4	10	11	n/a	71	83	3	n/a	n/a	n/a	n/a	411.695	BF04ANS.jpg
382.059	0.514	Blank	Blank	84.252	n/a	4	10	11	n/a	71	n/a	3	n/a	n/a	n/a	n/a	412.192	n/a
382.589	0.497	happy	Picture	83.738	n/a	4	10	12	n/a	72	112	3	n/a	n/a	n/a	n/a	412.723	AM14ANS.jpg
383.087	0.514	Blank	Blank	83.224	n/a	4	10	12	n/a	72	n/a	3	n/a	n/a	n/a	n/a	413.22	n/a
383.617	0.497	happy	Picture	82.71	n/a	4	10	13	n/a	73	102	3	n/a	n/a	n/a	n/a	413.75	BM03ANS.jpg
384.115	0.514	Blank	Blank	82.196	n/a	4	10	13	n/a	73	n/a	3	n/a	n/a	n/a	n/a	414.248	n/a
384.645	0.497	happy	Picture	81.682	n/a	4	10	14	n/a	74	95	3	n/a	n/a	n/a	n/a	414.778	AF25ANS.jpg
385.142	0.514	Blank	Blank	81.168	n/a	4	10	14	n/a	74	n/a	3	n/a	n/a	n/a	n/a	415.276	n/a
385.673	0.497	happy	Picture	80.654	n/a	4	10	15	n/a	75	113	3	n/a	n/a	n/a	n/a	415.806	AM21ANS.jpg
386.17	0.514	Blank	Blank	80.141	n/a	4	10	15	n/a	75	n/a	3	n/a	n/a	n/a	n/a	416.303	n/a
386.701	0.497	happy	Picture	79.626	n/a	4	10	16	n/a	76	88	3	n/a	n/a	n/a	n/a	416.834	AF14ANS.jpg
387.198	0.514	Blank	Blank	79.113	n/a	4	10	16	n/a	76	n/a	3	n/a	n/a	n/a	n/a	417.331	n/a
387.729	0.497	happy	Picture	78.599	n/a	4	10	17	n/a	77	93	3	n/a	n/a	n/a	n/a	417.862	BF22ANS.jpg
388.226	0.514	Blank	Blank	78.085	n/a	4	10	17	n/a	77	n/a	3	n/a	n/a	n/a	n/a	418.359	n/a
388.757	0.497	happy	Picture	77.571	n/a	4	10	18	n/a	78	86	3	n/a	n/a	n/a	n/a	418.89	AF09ANS.jpg
389.254	0.514	Blank	Blank	77.057	n/a	4	10	18	n/a	78	n/a	3	n/a	n/a	n/a	n/a	419.387	n/a
389.784	0.497	happy	Picture	76.543	n/a	4	10	19	n/a	79	92	3	n/a	n/a	n/a	n/a	419.918	AF21ANS.jpg
390.282	0.514	Blank	Blank	76.029	n/a	4	10	19	n/a	79	n/a	3	n/a	n/a	n/a	n/a	420.415	n/a
390.812	0.497	happy	Picture	75.515	n/a	4	10	20	n/a	80	84	3	n/a	n/a	n/a	n/a	420.945	AF05ANS.jpg
391.31	0.514	Blank	Blank	75.001	n/a	4	10	20	n/a	80	n/a	3	n/a	n/a	n/a	n/a	421.443	n/a
391.84	10.014	ITI	Fixation+	64.971	n/a	4	n/a	n/a	n/a	n/a	n/a	n/a	n/a	n/a	n/a	n/a	421.973	n/a
401.87	0.497	neutral	Picture	64.457	n/a	4	11	1	n/a	81	4	1	n/a	n/a	n/a	n/a	432.003	AF05NES.jpg
402.368	0.514	Blank	Blank	63.943	n/a	4	11	1	n/a	81	n/a	1	n/a	n/a	n/a	n/a	432.501	n/a
402.898	0.497	neutral	Picture	63.429	n/a	4	11	2	n/a	82	14	1	n/a	n/a	n/a	n/a	433.031	AF23NES.jpg
403.396	0.514	Blank	Blank	62.915	n/a	4	11	2	n/a	82	n/a	1	n/a	n/a	n/a	n/a	433.529	n/a
403.926	0.497	neutral	Picture	62.401	n/a	4	11	3	n/a	83	19	1	n/a	n/a	n/a	n/a	434.059	AF31NES.jpg
404.423	0.514	Blank	Blank	61.887	n/a	4	11	3	n/a	83	n/a	1	n/a	n/a	n/a	n/a	434.557	n/a
404.954	0.497	neutral	Picture	61.373	n/a	4	11	4	n/a	84	8	1	n/a	n/a	n/a	n/a	435.087	AF14NES.jpg
405.451	0.514	Blank	Blank	60.859	n/a	4	11	4	n/a	84	n/a	1	n/a	n/a	n/a	n/a	435.584	n/a
405.982	0.497	neutral	Picture	60.346	n/a	4	11	5	n/a	85	25	1	n/a	n/a	n/a	n/a	436.115	BM06NES.jpg
406.479	0.514	Blank	Blank	59.832	n/a	4	11	5	n/a	85	n/a	1	n/a	n/a	n/a	n/a	436.612	n/a
407.01	0.497	neutral	Picture	59.318	n/a	4	11	6	n/a	86	9	1	n/a	n/a	n/a	n/a	437.143	AF17NES.jpg
407.507	0.514	Blank	Blank	58.804	n/a	4	11	6	n/a	86	n/a	1	n/a	n/a	n/a	n/a	437.64	n/a
408.038	0.497	neutral	Picture	58.29	n/a	4	11	7	n/a	87	2	1	n/a	n/a	n/a	n/a	438.171	AF03NES.jpg
408.535	0.514	Blank	Blank	57.776	n/a	4	11	7	n/a	87	n/a	1	n/a	n/a	n/a	n/a	438.668	n/a
409.065	0.497	neutral	Picture	57.262	n/a	4	11	8	n/a	88	17	1	n/a	n/a	n/a	n/a	439.199	BF28NES.jpg
409.563	0.514	Blank	Blank	56.748	n/a	4	11	8	n/a	88	n/a	1	n/a	n/a	n/a	n/a	439.696	n/a
410.093	0.497	neutral	Picture	56.234	n/a	4	11	9	n/a	89	6	1	n/a	n/a	n/a	n/a	440.227	AF09NES.jpg
410.591	0.514	Blank	Blank	55.72	n/a	4	11	9	n/a	89	n/a	1	n/a	n/a	n/a	n/a	440.724	n/a
411.121	0.497	neutral	Picture	55.206	n/a	4	11	10	n/a	90	12	1	n/a	n/a	n/a	n/a	441.255	AF21NES.jpg
411.619	0.514	Blank	Blank	54.692	n/a	4	11	10	n/a	90	n/a	1	n/a	n/a	n/a	n/a	441.752	n/a
412.149	0.497	neutral	Picture	54.178	n/a	4	11	11	n/a	91	24	1	n/a	n/a	n/a	n/a	442.282	BM05NES.jpg
412.647	0.514	Blank	Blank	53.664	n/a	4	11	11	n/a	91	n/a	1	n/a	n/a	n/a	n/a	442.78	n/a
413.177	0.497	neutral	Picture	53.15	n/a	4	11	12	n/a	92	34	1	n/a	n/a	n/a	n/a	443.31	AM22NES.jpg
413.674	0.514	Blank	Blank	52.636	n/a	4	11	12	n/a	92	n/a	1	n/a	n/a	n/a	n/a	443.808	n/a
414.205	0.497	neutral	Picture	52.122	n/a	4	11	13	n/a	93	23	1	n/a	n/a	n/a	n/a	444.338	AM04NES.jpg
414.702	0.514	Blank	Blank	51.608	n/a	4	11	13	n/a	93	n/a	1	n/a	n/a	n/a	n/a	444.836	n/a
415.233	0.497	neutral	Picture	51.094	n/a	4	11	14	n/a	94	15	1	n/a	n/a	n/a	n/a	445.366	AF25NES.jpg
415.73	0.514	Blank	Blank	50.581	n/a	4	11	14	n/a	94	n/a	1	n/a	n/a	n/a	n/a	445.863	n/a
416.261	0.497	neutral	Picture	50.067	n/a	4	11	15	n/a	95	37	1	n/a	n/a	n/a	n/a	446.394	BM25NES.jpg
416.758	0.514	Blank	Blank	49.553	n/a	4	11	15	n/a	95	n/a	1	n/a	n/a	n/a	n/a	446.891	n/a
417.289	0.497	neutral	Picture	49.039	n/a	4	11	16	n/a	96	32	1	n/a	n/a	n/a	n/a	447.422	AM14NES.jpg
417.786	0.514	Blank	Blank	48.525	n/a	4	11	16	n/a	96	n/a	1	n/a	n/a	n/a	n/a	447.919	n/a
418.317	0.497	neutral	Picture	48.011	n/a	4	11	17	n/a	97	3	1	n/a	n/a	n/a	n/a	448.45	BF04NES.jpg
418.814	0.514	Blank	Blank	47.497	n/a	4	11	17	n/a	97	n/a	1	n/a	n/a	n/a	n/a	448.947	n/a
419.344	0.497	neutral	Picture	46.983	n/a	4	11	18	n/a	98	16	1	n/a	n/a	n/a	n/a	449.478	AF26NES.jpg
419.842	0.514	Blank	Blank	46.469	n/a	4	11	18	n/a	98	n/a	1	n/a	n/a	n/a	n/a	449.975	n/a
420.372	0.497	neutral	Picture	45.955	n/a	4	11	19	n/a	99	27	1	n/a	n/a	n/a	n/a	450.505	BM08NES.jpg
420.87	0.514	Blank	Blank	45.441	n/a	4	11	19	n/a	99	n/a	1	n/a	n/a	n/a	n/a	451.003	n/a
421.4	0.497	neutral	Picture	44.927	n/a	4	11	20	n/a	100	28	1	n/a	n/a	n/a	n/a	451.533	AM09NES.jpg
421.898	0.514	Blank	Blank	44.413	n/a	4	11	20	n/a	100	n/a	1	n/a	n/a	n/a	n/a	452.031	n/a
422.428	10.014	ITI	Fixation+	34.383	n/a	4	n/a	n/a	n/a	n/a	n/a	n/a	n/a	n/a	n/a	n/a	452.561	n/a
432.458	0.497	happy	Picture	33.869	n/a	4	12	1	n/a	101	81	3	n/a	n/a	n/a	n/a	462.591	AF01ANS.jpg
432.956	0.514	Blank	Blank	33.355	n/a	4	12	1	n/a	101	n/a	3	n/a	n/a	n/a	n/a	463.089	n/a
433.486	0.497	happy	Picture	32.841	n/a	4	12	2	n/a	102	120	3	n/a	n/a	n/a	n/a	463.619	AM35ANS.jpg
433.983	0.514	Blank	Blank	32.327	n/a	4	12	2	n/a	102	n/a	3	n/a	n/a	n/a	n/a	464.117	n/a
434.514	0.497	happy	Picture	31.813	n/a	4	12	3	n/a	103	114	3	n/a	n/a	n/a	n/a	464.647	AM22ANS.jpg
435.011	0.514	Blank	Blank	31.299	n/a	4	12	3	n/a	103	n/a	3	n/a	n/a	n/a	n/a	465.144	n/a
435.542	0.497	happy	Picture	30.786	n/a	4	12	4	n/a	104	109	3	n/a	n/a	n/a	n/a	465.675	AM10ANS.jpg
436.039	0.514	Blank	Blank	30.272	n/a	4	12	4	n/a	104	n/a	3	n/a	n/a	n/a	n/a	466.172	n/a
436.57	0.497	happy	Picture	29.758	n/a	4	12	5	n/a	105	96	3	n/a	n/a	n/a	n/a	466.703	AF26ANS.jpg
437.067	0.514	Blank	Blank	29.244	n/a	4	12	5	n/a	105	n/a	3	n/a	n/a	n/a	n/a	467.2	n/a
437.598	0.497	happy	Picture	28.73	n/a	4	12	6	n/a	106	82	3	n/a	n/a	n/a	n/a	467.731	AF03ANS.jpg
438.095	0.514	Blank	Blank	28.216	n/a	4	12	6	n/a	106	n/a	3	n/a	n/a	n/a	n/a	468.228	n/a
438.625	0.497	happy	Picture	27.702	n/a	4	12	7	n/a	107	97	3	n/a	n/a	n/a	n/a	468.759	BF28ANS.jpg
439.123	0.514	Blank	Blank	27.188	n/a	4	12	7	n/a	107	n/a	3	n/a	n/a	n/a	n/a	469.256	n/a
439.653	0.497	happy	Picture	26.674	n/a	4	12	8	n/a	108	115	3	n/a	n/a	n/a	n/a	469.786	AM23ANS.jpg
440.151	0.514	Blank	Blank	26.16	n/a	4	12	8	n/a	108	n/a	3	n/a	n/a	n/a	n/a	470.284	n/a
440.681	0.497	happy	Picture	25.646	n/a	4	12	9	n/a	109	91	3	n/a	n/a	n/a	n/a	470.814	AF20ANS.jpg
441.178	0.514	Blank	Blank	25.132	n/a	4	12	9	n/a	109	n/a	3	n/a	n/a	n/a	n/a	471.312	n/a
441.709	0.497	happy	Picture	24.618	n/a	4	12	10	n/a	110	87	3	n/a	n/a	n/a	n/a	471.842	BF11ANS.jpg
442.206	0.514	Blank	Blank	24.104	n/a	4	12	10	n/a	110	n/a	3	n/a	n/a	n/a	n/a	472.34	n/a
442.737	0.497	happy	Picture	23.59	n/a	4	12	11	n/a	111	85	3	n/a	n/a	n/a	n/a	472.87	BF07ANS.jpg
443.234	0.514	Blank	Blank	23.077	n/a	4	12	11	n/a	111	n/a	3	n/a	n/a	n/a	n/a	473.368	n/a
443.765	0.497	happy	Picture	22.562	n/a	4	12	12	n/a	112	110	3	n/a	n/a	n/a	n/a	473.898	AM11ANS.jpg
444.262	0.514	Blank	Blank	22.049	n/a	4	12	12	n/a	112	n/a	3	n/a	n/a	n/a	n/a	474.395	n/a
444.793	0.497	happy	Picture	21.535	n/a	4	12	13	n/a	113	111	3	n/a	n/a	n/a	n/a	474.926	BM12ANS.jpg
445.29	0.514	Blank	Blank	21.021	n/a	4	12	13	n/a	113	n/a	3	n/a	n/a	n/a	n/a	475.423	n/a
445.821	0.497	happy	Picture	20.507	n/a	4	12	14	n/a	114	103	3	n/a	n/a	n/a	n/a	475.954	AM04ANS.jpg
446.318	0.514	Blank	Blank	19.993	n/a	4	12	14	n/a	114	n/a	3	n/a	n/a	n/a	n/a	476.451	n/a
446.849	0.497	happy	Picture	19.479	n/a	4	12	15	n/a	115	101	3	n/a	n/a	n/a	n/a	476.982	AM01ANS.jpg
447.346	0.514	Blank	Blank	18.965	n/a	4	12	15	n/a	115	n/a	3	n/a	n/a	n/a	n/a	477.479	n/a
447.876	0.497	happy	Picture	18.451	n/a	4	12	16	n/a	116	104	3	n/a	n/a	n/a	n/a	478.01	BM05ANS.jpg
448.374	0.514	Blank	Blank	17.937	n/a	4	12	16	n/a	116	n/a	3	n/a	n/a	n/a	n/a	478.507	n/a
448.904	0.497	happy	Picture	17.423	n/a	4	12	17	n/a	117	107	3	n/a	n/a	n/a	n/a	479.037	BM08ANS.jpg
449.402	0.514	Blank	Blank	16.909	n/a	4	12	17	n/a	117	n/a	3	n/a	n/a	n/a	n/a	479.535	n/a
449.932	0.497	happy	Picture	16.395	n/a	4	12	18	n/a	118	98	3	n/a	n/a	n/a	n/a	480.065	BF29ANS.jpg
450.43	0.514	Blank	Blank	15.881	n/a	4	12	18	n/a	118	n/a	3	n/a	n/a	n/a	n/a	480.563	n/a
450.96	0.497	happy	Picture	15.367	n/a	4	12	19	n/a	119	99	3	n/a	n/a	n/a	n/a	481.093	AF31ANS.jpg
451.457	0.514	Blank	Blank	14.853	n/a	4	12	19	n/a	119	n/a	3	n/a	n/a	n/a	n/a	481.591	n/a
451.988	0.497	happy	Picture	14.339	n/a	4	12	20	n/a	120	108	3	n/a	n/a	n/a	n/a	482.121	AM09ANS.jpg
452.485	0.514	Blank	Blank	13.825	n/a	4	12	20	n/a	120	n/a	3	n/a	n/a	n/a	n/a	482.618	n/a
453.016	10.014	ITI	Fixation+	3.795	n/a	4	n/a	n/a	n/a	n/a	n/a	n/a	n/a	n/a	n/a	n/a	483.149	n/a
466.825	n/a	ConfirmRating	Rate	n/a	3.78	4	n/a	n/a	0	n/a	n/a	n/a	2	Happy	81	54	496.958	n/a
471.723	n/a	ConfirmRating	Rate	n/a	4.891	4	n/a	n/a	1	n/a	n/a	n/a	3	Happy	25	47	501.856	n/a
