onset	duration	trial_type	trial_number	event_type	cue_to_participant	stimulus_type	time_until_response	rated_success_of_regulation	onset_uncorrected
0.011	10.014	Instruction	-1	Picture	Instruction	n/a	n/a	n/a	27.963
10.041	5.007	ITI	0	Picture	Fixation+	1	15.864	n/a	37.993
15.064	2.006	Cue	0	Picture	Maintain	1	13.842	n/a	43.017
17.07	4.99	Pic	0	Picture	IAPS_01	1	8.851	n/a	45.023
22.06	2.006	Blank	0	Picture	BLANK	1	6.845	n/a	50.013
30.912	n/a	ConfirmRating	0	Response	n/a	1	n/a	6	58.864
30.93	6.002	ITI	1	Picture	Fixation+	2	12.065	n/a	58.883
36.948	2.006	Cue	1	Picture	Enhance	2	10.042	n/a	64.901
38.954	4.99	Pic	1	Picture	IAPS_26	2	5.052	n/a	66.907
43.944	2.006	Blank	1	Picture	BLANK	2	3.046	n/a	71.897
48.996	n/a	ConfirmRating	1	Response	n/a	2	n/a	5	76.949
49.017	4.012	ITI	2	Picture	Fixation+	3	11.407	n/a	76.97
53.046	2.006	Cue	2	Picture	Suppress	3	9.384	n/a	80.999
55.052	4.99	Pic	2	Picture	IAPS_36	3	4.394	n/a	83.005
60.042	2.006	Blank	2	Picture	BLANK	3	2.388	n/a	87.995
64.436	n/a	ConfirmRating	2	Response	n/a	3	n/a	6	92.389
64.469	5.007	ITI	3	Picture	Fixation+	4	12.559	n/a	92.421
69.492	2.006	Cue	3	Picture	Maintain	4	10.537	n/a	97.445
71.498	4.99	Pic	3	Picture	IAPS_46	4	5.546	n/a	99.451
76.489	2.006	Blank	3	Picture	BLANK	4	3.54	n/a	104.441
82.035	n/a	ConfirmRating	3	Response	n/a	4	n/a	6	109.988
82.059	5.007	ITI	4	Picture	Fixation+	4	11.01	n/a	110.012
87.082	2.006	Cue	4	Picture	Maintain	4	8.987	n/a	115.035
89.088	4.99	Pic	4	Picture	IAPS_49	4	3.997	n/a	117.041
94.079	2.006	Blank	4	Picture	BLANK	4	1.991	n/a	122.031
98.076	n/a	ConfirmRating	4	Response	n/a	4	n/a	5	126.028
98.107	6.002	ITI	5	Picture	Fixation+	2	10.57	n/a	126.06
104.125	2.006	Cue	5	Picture	Enhance	2	8.547	n/a	132.078
106.132	4.99	Pic	5	Picture	IAPS_27	2	3.557	n/a	134.084
111.122	2.006	Blank	5	Picture	BLANK	2	1.551	n/a	139.074
114.678	n/a	ConfirmRating	5	Response	n/a	2	n/a	6	142.631
114.703	4.012	ITI	6	Picture	Fixation+	1	11.817	n/a	142.655
118.731	2.006	Cue	6	Picture	Maintain	1	9.794	n/a	146.684
120.737	4.99	Pic	6	Picture	IAPS_02	1	4.804	n/a	148.69
125.728	2.006	Blank	6	Picture	BLANK	1	2.798	n/a	153.68
130.531	n/a	ConfirmRating	6	Response	n/a	1	n/a	5	158.484
130.552	6.002	ITI	7	Picture	Fixation+	3	10.286	n/a	158.505
136.57	2.006	Cue	7	Picture	Suppress	3	8.264	n/a	164.523
138.576	4.99	Pic	7	Picture	IAPS_37	3	3.274	n/a	166.529
143.566	2.006	Blank	7	Picture	BLANK	3	1.268	n/a	171.519
146.84	n/a	ConfirmRating	7	Response	n/a	3	n/a	6	174.793
146.866	5.007	ITI	8	Picture	Fixation+	4	12.27	n/a	174.818
151.889	2.006	Cue	8	Picture	Maintain	4	10.247	n/a	179.842
153.895	4.99	Pic	8	Picture	IAPS_52	4	5.257	n/a	181.848
158.885	2.006	Blank	8	Picture	BLANK	4	3.251	n/a	186.838
164.142	n/a	ConfirmRating	8	Response	n/a	4	n/a	6	192.095
164.174	6.002	ITI	9	Picture	Fixation+	1	11.041	n/a	192.126
170.192	2.006	Cue	9	Picture	Maintain	1	9.019	n/a	198.145
172.198	4.99	Pic	9	Picture	IAPS_03	1	4.028	n/a	200.151
177.188	2.006	Blank	9	Picture	BLANK	1	2.022	n/a	205.141
181.217	n/a	ConfirmRating	9	Response	n/a	1	n/a	3	209.169
181.234	5.007	ITI	10	Picture	Fixation+	2	11.327	n/a	209.186
186.257	2.006	Cue	10	Picture	Enhance	2	9.304	n/a	214.209
188.263	4.99	Pic	10	Picture	IAPS_28	2	4.314	n/a	216.215
193.253	2.006	Blank	10	Picture	BLANK	2	2.308	n/a	221.206
197.567	n/a	ConfirmRating	10	Response	n/a	2	n/a	6	225.52
197.597	4.012	ITI	11	Picture	Fixation+	3	12.307	n/a	225.549
201.625	2.006	Cue	11	Picture	Suppress	3	10.285	n/a	229.578
203.632	4.99	Pic	11	Picture	IAPS_38	3	5.294	n/a	231.584
208.622	2.006	Blank	11	Picture	BLANK	3	3.288	n/a	236.574
213.916	n/a	ConfirmRating	11	Response	n/a	3	n/a	5	241.869
213.944	6.002	ITI	12	Picture	Fixation+	2	12.428	n/a	241.896
219.962	2.006	Cue	12	Picture	Enhance	2	10.405	n/a	247.914
221.968	4.99	Pic	12	Picture	IAPS_29	2	5.415	n/a	249.92
226.958	2.006	Blank	12	Picture	BLANK	2	3.409	n/a	254.91
232.373	n/a	ConfirmRating	12	Response	n/a	2	n/a	0	260.325
232.396	5.007	ITI	13	Picture	Fixation+	1	10.381	n/a	260.348
237.419	2.006	Cue	13	Picture	Maintain	1	8.359	n/a	265.372
239.425	4.99	Pic	13	Picture	IAPS_04	1	3.368	n/a	267.378
244.415	2.006	Blank	13	Picture	BLANK	1	1.362	n/a	272.368
247.784	n/a	ConfirmRating	13	Response	n/a	1	n/a	6	275.736
247.814	4.012	ITI	14	Picture	Fixation+	4	10.208	n/a	275.767
251.843	2.006	Cue	14	Picture	Maintain	4	8.186	n/a	279.795
253.849	4.99	Pic	14	Picture	IAPS_55	4	3.196	n/a	281.801
258.839	2.006	Blank	14	Picture	BLANK	4	1.19	n/a	286.791
262.034	n/a	ConfirmRating	14	Response	n/a	4	n/a	6	289.987
262.055	5.007	ITI	15	Picture	Fixation+	3	10.059	n/a	290.008
267.079	2.006	Cue	15	Picture	Suppress	3	8.037	n/a	295.031
269.085	4.99	Pic	15	Picture	IAPS_39	3	3.046	n/a	297.037
274.075	2.006	Blank	15	Picture	BLANK	3	1.04	n/a	302.027
277.121	n/a	ConfirmRating	15	Response	n/a	3	n/a	5	305.074
277.142	6.002	ITI	16	Picture	Fixation+	2	10.673	n/a	305.094
283.16	2.006	Cue	16	Picture	Enhance	2	8.65	n/a	311.113
285.166	4.99	Pic	16	Picture	IAPS_30	2	3.66	n/a	313.119
290.156	2.006	Blank	16	Picture	BLANK	2	1.654	n/a	318.109
293.816	n/a	ConfirmRating	16	Response	n/a	2	n/a	6	321.769
293.837	6.002	ITI	17	Picture	Fixation+	1	12.643	n/a	321.789
299.855	2.006	Cue	17	Picture	Maintain	1	10.621	n/a	327.808
301.861	4.99	Pic	17	Picture	IAPS_05	1	5.631	n/a	329.813
306.851	2.006	Blank	17	Picture	BLANK	1	3.625	n/a	334.804
312.482	n/a	ConfirmRating	17	Response	n/a	1	n/a	5	340.434
312.505	4.012	ITI	18	Picture	Fixation+	3	10.937	n/a	340.457
316.533	2.006	Cue	18	Picture	Suppress	3	8.914	n/a	344.486
318.539	4.99	Pic	18	Picture	IAPS_40	3	3.924	n/a	346.492
323.529	2.006	Blank	18	Picture	BLANK	3	1.918	n/a	351.482
327.453	n/a	ConfirmRating	18	Response	n/a	3	n/a	3	355.406
327.475	5.007	ITI	19	Picture	Fixation+	4	11.634	n/a	355.428
332.498	2.006	Cue	19	Picture	Maintain	4	9.612	n/a	360.451
334.505	4.99	Pic	19	Picture	IAPS_58	4	4.621	n/a	362.457
339.495	2.006	Blank	19	Picture	BLANK	4	2.615	n/a	367.447
344.116	n/a	ConfirmRating	19	Response	n/a	4	n/a	6	372.069
344.137	6.002	ITI	20	Picture	Fixation+	4	10.503	n/a	372.089
350.155	2.006	Cue	20	Picture	Maintain	4	8.48	n/a	378.108
352.161	4.99	Pic	20	Picture	IAPS_47	4	3.49	n/a	380.114
357.151	2.006	Blank	20	Picture	BLANK	4	1.484	n/a	385.104
360.641	n/a	ConfirmRating	20	Response	n/a	4	n/a	8	388.594
360.666	5.007	ITI	21	Picture	Fixation+	3	11.269	n/a	388.618
365.689	2.006	Cue	21	Picture	Suppress	3	9.247	n/a	393.642
367.695	4.99	Pic	21	Picture	IAPS_41	3	4.256	n/a	395.648
372.686	2.006	Blank	21	Picture	BLANK	3	2.25	n/a	400.638
376.942	n/a	ConfirmRating	21	Response	n/a	3	n/a	6	404.894
376.963	4.012	ITI	22	Picture	Fixation+	1	10.865	n/a	404.916
380.991	2.006	Cue	22	Picture	Maintain	1	8.842	n/a	408.944
382.998	4.99	Pic	22	Picture	IAPS_06	1	3.852	n/a	410.95
387.988	2.006	Blank	22	Picture	BLANK	1	1.846	n/a	415.94
391.84	n/a	ConfirmRating	22	Response	n/a	1	n/a	7	419.792
391.867	4.012	ITI	23	Picture	Fixation+	2	10.554	n/a	419.82
395.896	2.006	Cue	23	Picture	Enhance	2	8.532	n/a	423.849
397.902	4.99	Pic	23	Picture	IAPS_16	2	3.541	n/a	425.854
402.892	2.006	Blank	23	Picture	BLANK	2	1.535	n/a	430.845
406.433	n/a	ConfirmRating	23	Response	n/a	2	n/a	8	434.386
406.457	5.007	ITI	24	Picture	Fixation+	1	10.649	n/a	434.409
411.48	2.006	Cue	24	Picture	Maintain	1	8.626	n/a	439.433
413.486	4.99	Pic	24	Picture	IAPS_07	1	3.636	n/a	441.439
418.476	2.006	Blank	24	Picture	BLANK	1	1.63	n/a	446.429
422.112	n/a	ConfirmRating	24	Response	n/a	1	n/a	7	450.065
422.14	4.012	ITI	25	Picture	Fixation+	2	10.173	n/a	450.093
426.169	2.006	Cue	25	Picture	Enhance	2	8.15	n/a	454.121
428.175	4.99	Pic	25	Picture	IAPS_17	2	3.16	n/a	456.127
433.165	2.006	Blank	25	Picture	BLANK	2	1.154	n/a	461.118
436.325	n/a	ConfirmRating	25	Response	n/a	2	n/a	6	464.277
436.348	6.002	ITI	26	Picture	Fixation+	4	10.911	n/a	464.301
442.366	2.006	Cue	26	Picture	Maintain	4	8.888	n/a	470.319
444.372	4.99	Pic	26	Picture	IAPS_50	4	3.898	n/a	472.325
449.363	2.006	Blank	26	Picture	BLANK	4	1.892	n/a	477.315
453.261	n/a	ConfirmRating	26	Response	n/a	4	n/a	7	481.213
453.292	5.007	ITI	27	Picture	Fixation+	3	11.152	n/a	481.244
458.315	2.006	Cue	27	Picture	Suppress	3	9.129	n/a	486.268
460.321	4.99	Pic	27	Picture	IAPS_42	3	4.139	n/a	488.274
465.311	2.006	Blank	27	Picture	BLANK	3	2.133	n/a	493.264
469.45	n/a	ConfirmRating	27	Response	n/a	3	n/a	3	497.403
469.473	5.007	ITI	28	Picture	Fixation+	2	9.787	n/a	497.425
474.496	2.006	Cue	28	Picture	Enhance	2	7.764	n/a	502.449
476.502	4.99	Pic	28	Picture	IAPS_18	2	2.774	n/a	504.455
481.492	2.006	Blank	28	Picture	BLANK	2	0.768	n/a	509.445
484.266	n/a	ConfirmRating	28	Response	n/a	2	n/a	5	512.219
484.294	4.012	ITI	29	Picture	Fixation+	3	10.51	n/a	512.247
488.323	2.006	Cue	29	Picture	Suppress	3	8.487	n/a	516.275
490.329	4.99	Pic	29	Picture	IAPS_43	3	3.497	n/a	518.281
495.319	2.006	Blank	29	Picture	BLANK	3	1.491	n/a	523.272
498.816	n/a	ConfirmRating	29	Response	n/a	3	n/a	0	526.769
498.834	15.004	Rest	29	Picture	Rest	n/a	-15.021	n/a	526.786
513.854	5.007	ITI	30	Picture	Fixation+	4	10.672	n/a	541.807
518.878	2.006	Cue	30	Picture	Maintain	4	8.649	n/a	546.83
520.884	4.99	Pic	30	Picture	IAPS_53	4	3.659	n/a	548.836
525.874	2.006	Blank	30	Picture	BLANK	4	1.653	n/a	553.826
529.533	n/a	ConfirmRating	30	Response	n/a	4	n/a	8	557.485
529.554	6.002	ITI	31	Picture	Fixation+	1	11.096	n/a	557.507
535.572	2.006	Cue	31	Picture	Maintain	1	9.073	n/a	563.525
537.578	4.99	Pic	31	Picture	IAPS_08	1	4.083	n/a	565.531
542.569	2.006	Blank	31	Picture	BLANK	1	2.077	n/a	570.521
546.651	n/a	ConfirmRating	31	Response	n/a	1	n/a	7	574.604
546.68	4.012	ITI	32	Picture	Fixation+	3	12.717	n/a	574.633
550.709	2.006	Cue	32	Picture	Suppress	3	10.694	n/a	578.661
552.715	4.99	Pic	32	Picture	IAPS_44	3	5.704	n/a	580.668
557.705	2.006	Blank	32	Picture	BLANK	3	3.698	n/a	585.658
563.409	n/a	ConfirmRating	32	Response	n/a	3	n/a	0	591.362
563.441	5.007	ITI	33	Picture	Fixation+	1	10.899	n/a	591.394
568.465	2.006	Cue	33	Picture	Maintain	1	8.876	n/a	596.417
570.471	4.99	Pic	33	Picture	IAPS_09	1	3.886	n/a	598.423
575.461	2.006	Blank	33	Picture	BLANK	1	1.88	n/a	603.414
579.347	n/a	ConfirmRating	33	Response	n/a	1	n/a	7	607.299
579.374	4.012	ITI	34	Picture	Fixation+	2	11.44	n/a	607.326
583.402	2.006	Cue	34	Picture	Enhance	2	9.417	n/a	611.355
585.408	4.99	Pic	34	Picture	IAPS_19	2	4.427	n/a	613.361
590.399	2.006	Blank	34	Picture	BLANK	2	2.421	n/a	618.351
594.826	n/a	ConfirmRating	34	Response	n/a	2	n/a	5	622.778
594.858	6.002	ITI	35	Picture	Fixation+	4	9.916	n/a	622.811
600.876	2.006	Cue	35	Picture	Maintain	4	7.893	n/a	628.829
602.882	4.99	Pic	35	Picture	IAPS_56	4	2.903	n/a	630.835
607.873	2.006	Blank	35	Picture	BLANK	4	0.897	n/a	635.825
610.775	n/a	ConfirmRating	35	Response	n/a	4	n/a	0	638.728
610.807	5.007	ITI	36	Picture	Fixation+	3	13.101	n/a	638.76
615.83	2.006	Cue	36	Picture	Suppress	3	11.079	n/a	643.783
617.836	4.99	Pic	36	Picture	IAPS_45	3	6.089	n/a	645.789
622.827	2.006	Blank	36	Picture	BLANK	3	4.082	n/a	650.779
628.915	n/a	ConfirmRating	36	Response	n/a	3	n/a	6	656.868
628.944	6.002	ITI	37	Picture	Fixation+	4	10.836	n/a	656.897
634.962	2.006	Cue	37	Picture	Maintain	4	8.814	n/a	662.915
636.968	4.99	Pic	37	Picture	IAPS_59	4	3.823	n/a	664.921
641.959	2.006	Blank	37	Picture	BLANK	4	1.817	n/a	669.911
645.782	n/a	ConfirmRating	37	Response	n/a	4	n/a	7	673.735
645.805	5.007	ITI	38	Picture	Fixation+	2	9.881	n/a	673.758
650.828	2.006	Cue	38	Picture	Enhance	2	7.858	n/a	678.781
652.834	4.99	Pic	38	Picture	IAPS_20	2	2.868	n/a	680.787
657.825	2.006	Blank	38	Picture	BLANK	2	0.862	n/a	685.777
660.693	0.017	ConfirmRating	38	Response	n/a	2	-0.017	5	688.645
660.709	4.012	ITI	39	Picture	Fixation+	1	11.415	n/a	688.662
664.738	2.006	Cue	39	Picture	Maintain	1	9.393	n/a	692.691
666.744	4.99	Pic	39	Picture	IAPS_10	1	4.402	n/a	694.697
671.734	2.006	Blank	39	Picture	BLANK	1	2.396	n/a	699.687
676.136	n/a	ConfirmRating	39	Response	n/a	1	n/a	7	704.089
676.161	6.002	ITI	40	Picture	Fixation+	4	10.505	n/a	704.113
682.179	2.006	Cue	40	Picture	Maintain	4	8.482	n/a	710.131
684.185	4.99	Pic	40	Picture	IAPS_48	4	3.492	n/a	712.137
689.175	2.006	Blank	40	Picture	BLANK	4	1.486	n/a	717.128
692.667	n/a	ConfirmRating	40	Response	n/a	4	n/a	7	720.62
692.69	5.007	ITI	41	Picture	Fixation+	3	10.972	n/a	720.642
697.713	2.006	Cue	41	Picture	Suppress	3	8.95	n/a	725.666
699.719	4.99	Pic	41	Picture	IAPS_31	3	3.959	n/a	727.672
704.709	2.006	Blank	41	Picture	BLANK	3	1.953	n/a	732.662
708.669	n/a	ConfirmRating	41	Response	n/a	3	n/a	2	736.621
708.688	6.002	ITI	42	Picture	Fixation+	2	11.67	n/a	736.641
714.706	2.006	Cue	42	Picture	Enhance	2	9.647	n/a	742.659
716.712	4.99	Pic	42	Picture	IAPS_21	2	4.657	n/a	744.665
721.703	2.006	Blank	42	Picture	BLANK	2	2.651	n/a	749.655
726.36	n/a	ConfirmRating	42	Response	n/a	2	n/a	7	754.312
726.378	4.012	ITI	43	Picture	Fixation+	1	10.227	n/a	754.331
730.407	2.006	Cue	43	Picture	Maintain	1	8.204	n/a	758.359
732.413	4.99	Pic	43	Picture	IAPS_11	1	3.214	n/a	760.365
737.403	2.006	Blank	43	Picture	BLANK	1	1.208	n/a	765.355
740.617	n/a	ConfirmRating	43	Response	n/a	1	n/a	7	768.569
740.636	5.007	ITI	44	Picture	Fixation+	2	13.482	n/a	768.588
745.659	2.006	Cue	44	Picture	Enhance	2	11.459	n/a	773.612
747.665	4.99	Pic	44	Picture	IAPS_22	2	6.469	n/a	775.618
752.655	2.006	Blank	44	Picture	BLANK	2	4.463	n/a	780.608
759.124	n/a	ConfirmRating	44	Response	n/a	2	n/a	6	787.077
759.154	5.007	ITI	45	Picture	Fixation+	4	10.714	n/a	787.107
764.178	2.006	Cue	45	Picture	Maintain	4	8.691	n/a	792.13
766.184	4.99	Pic	45	Picture	IAPS_51	4	3.701	n/a	794.136
771.174	2.006	Blank	45	Picture	BLANK	4	1.695	n/a	799.126
774.875	n/a	ConfirmRating	45	Response	n/a	4	n/a	7	802.828
774.904	4.012	ITI	46	Picture	Fixation+	3	10.417	n/a	802.857
778.933	2.006	Cue	46	Picture	Suppress	3	8.394	n/a	806.885
780.939	4.99	Pic	46	Picture	IAPS_32	3	3.404	n/a	808.891
785.929	2.006	Blank	46	Picture	BLANK	3	1.398	n/a	813.882
789.333	n/a	ConfirmRating	46	Response	n/a	3	n/a	7	817.285
789.361	5.007	ITI	47	Picture	Fixation+	1	10.345	n/a	817.313
794.384	2.006	Cue	47	Picture	Maintain	1	8.322	n/a	822.337
796.39	4.99	Pic	47	Picture	IAPS_12	1	3.332	n/a	824.343
801.38	2.006	Blank	47	Picture	BLANK	1	1.326	n/a	829.333
804.713	n/a	ConfirmRating	47	Response	n/a	1	n/a	7	832.665
804.729	4.012	ITI	48	Picture	Fixation+	3	13.054	n/a	832.682
808.758	2.006	Cue	48	Picture	Suppress	3	11.031	n/a	836.711
810.764	4.99	Pic	48	Picture	IAPS_33	3	6.041	n/a	838.717
815.754	2.006	Blank	48	Picture	BLANK	3	4.035	n/a	843.707
821.795	n/a	ConfirmRating	48	Response	n/a	3	n/a	3	849.748
821.822	5.007	ITI	49	Picture	Fixation+	4	10.563	n/a	849.775
826.846	2.006	Cue	49	Picture	Maintain	4	8.541	n/a	854.798
828.851	4.99	Pic	49	Picture	IAPS_54	4	3.55	n/a	856.804
833.842	2.006	Blank	49	Picture	BLANK	4	1.544	n/a	861.794
837.392	n/a	ConfirmRating	49	Response	n/a	4	n/a	7	865.345
837.423	5.007	ITI	50	Picture	Fixation+	1	10.853	n/a	865.375
842.446	2.006	Cue	50	Picture	Maintain	1	8.831	n/a	870.399
844.452	4.99	Pic	50	Picture	IAPS_13	1	3.84	n/a	872.405
849.442	2.006	Blank	50	Picture	BLANK	1	1.835	n/a	877.395
853.283	n/a	ConfirmRating	50	Response	n/a	1	n/a	7	881.236
853.305	4.012	ITI	51	Picture	Fixation+	2	12.402	n/a	881.258
857.334	2.006	Cue	51	Picture	Enhance	2	10.38	n/a	885.287
859.34	4.99	Pic	51	Picture	IAPS_23	2	5.39	n/a	887.293
864.33	2.006	Blank	51	Picture	BLANK	2	3.384	n/a	892.283
869.72	n/a	ConfirmRating	51	Response	n/a	2	n/a	5	897.672
869.751	5.007	ITI	52	Picture	Fixation+	1	11.243	n/a	897.704
874.775	2.006	Cue	52	Picture	Maintain	1	9.221	n/a	902.727
876.781	4.99	Pic	52	Picture	IAPS_14	1	4.23	n/a	904.733
881.771	2.006	Blank	52	Picture	BLANK	1	2.224	n/a	909.724
886.001	n/a	ConfirmRating	52	Response	n/a	1	n/a	7	913.954
886.032	5.007	ITI	53	Picture	Fixation+	4	10.833	n/a	913.984
891.055	2.006	Cue	53	Picture	Maintain	4	8.81	n/a	919.008
893.061	4.99	Pic	53	Picture	IAPS_57	4	3.82	n/a	921.014
898.051	2.006	Blank	53	Picture	BLANK	4	1.814	n/a	926.004
901.871	n/a	ConfirmRating	53	Response	n/a	4	n/a	7	929.824
901.898	6.002	ITI	54	Picture	Fixation+	3	11.355	n/a	929.85
907.916	2.006	Cue	54	Picture	Suppress	3	9.332	n/a	935.868
909.922	4.99	Pic	54	Picture	IAPS_34	3	4.342	n/a	937.875
914.912	2.006	Blank	54	Picture	BLANK	3	2.336	n/a	942.865
919.254	n/a	ConfirmRating	54	Response	n/a	3	n/a	3	947.207
919.272	5.007	ITI	55	Picture	Fixation+	2	12.975	n/a	947.225
924.296	2.006	Cue	55	Picture	Enhance	2	10.952	n/a	952.248
926.302	4.99	Pic	55	Picture	IAPS_24	2	5.962	n/a	954.254
931.292	2.006	Blank	55	Picture	BLANK	2	3.956	n/a	959.245
937.254	n/a	ConfirmRating	55	Response	n/a	2	n/a	5	965.206
937.277	5.007	ITI	56	Picture	Fixation+	1	11.478	n/a	965.23
942.3	2.006	Cue	56	Picture	Maintain	1	9.455	n/a	970.253
944.306	4.99	Pic	56	Picture	IAPS_15	1	4.465	n/a	972.259
949.297	2.006	Blank	56	Picture	BLANK	1	2.459	n/a	977.249
953.761	n/a	ConfirmRating	56	Response	n/a	1	n/a	6	981.714
953.789	6.002	ITI	57	Picture	Fixation+	3	9.949	n/a	981.742
959.808	2.006	Cue	57	Picture	Suppress	3	7.927	n/a	987.76
961.814	4.99	Pic	57	Picture	IAPS_35	3	2.936	n/a	989.766
966.804	2.006	Blank	57	Picture	BLANK	3	0.93	n/a	994.756
969.74	n/a	ConfirmRating	57	Response	n/a	3	n/a	6	997.693
969.771	4.012	ITI	58	Picture	Fixation+	4	10.907	n/a	997.724
973.8	2.006	Cue	58	Picture	Maintain	4	8.884	n/a	1001.753
975.806	4.99	Pic	58	Picture	IAPS_60	4	3.894	n/a	1003.759
980.796	2.006	Blank	58	Picture	BLANK	4	1.888	n/a	1008.749
984.69	n/a	ConfirmRating	58	Response	n/a	4	n/a	7	1012.643
984.709	6.002	ITI	59	Picture	Fixation+	2	9.713	n/a	1012.662
990.727	2.006	Cue	59	Picture	Enhance	2	7.691	n/a	1018.68
992.733	4.99	Pic	59	Picture	IAPS_25	2	2.701	n/a	1020.686
997.723	2.006	Blank	59	Picture	BLANK	2	0.695	n/a	1025.676
1000.424	n/a	ConfirmRating	59	Response	n/a	2	n/a	0	1028.376
