onset	duration	trial_type	event_type	trial_number	condition	picture_number	time_until_response	response_time	unpleasantness_rating	onset_uncorrected
0.007	4.625	ITI	Fixation+	0	No_Pain	n/a	8.511	n/a	n/a	30.251
4.649	3.498	Pic2	Picture	0	No_Pain	24	4.996	n/a	n/a	34.893
8.147	2.006	Blank	Blank	0	No_Pain	n/a	2.99	n/a	n/a	38.391
13.143	n/a	ConfirmRating	Rate	0	No_Pain	24	n/a	2.474	0	43.387
13.17	4.559	ITI	Fixation+	1	No_Pain	n/a	8.639	n/a	n/a	43.414
17.746	3.498	Pic2	Picture	1	No_Pain	25	5.125	n/a	n/a	47.99
21.244	2.006	Blank	Blank	1	No_Pain	n/a	3.119	n/a	n/a	51.488
26.369	n/a	ConfirmRating	Rate	1	No_Pain	25	n/a	2.602	0	56.613
26.4	4.808	ITI	Fixation+	2	Pain	n/a	9.487	n/a	n/a	56.644
31.224	3.498	Pic2	Picture	2	Pain	19	5.972	n/a	n/a	61.469
34.723	2.006	Blank	Blank	2	Pain	n/a	3.966	n/a	n/a	64.967
40.694	n/a	ConfirmRating	Rate	2	Pain	19	n/a	3.449	8	70.939
40.724	5.504	ITI	Fixation+	3	No_Pain	n/a	7.68	n/a	n/a	70.968
46.245	3.498	Pic2	Picture	3	No_Pain	37	4.165	n/a	n/a	76.489
49.743	2.006	Blank	Blank	3	No_Pain	n/a	2.159	n/a	n/a	79.987
53.908	n/a	ConfirmRating	Rate	3	No_Pain	37	n/a	1.643	0	84.153
53.937	4.791	ITI	Fixation+	4	Pain	n/a	8.369	n/a	n/a	84.182
58.745	3.498	Pic2	Picture	4	Pain	2	4.855	n/a	n/a	88.989
62.243	2.006	Blank	Blank	4	Pain	n/a	2.849	n/a	n/a	92.488
67.098	n/a	ConfirmRating	Rate	4	Pain	2	n/a	2.332	8	97.342
67.117	4.675	ITI	Fixation+	5	No_Pain	n/a	8.0	n/a	n/a	97.362
71.809	3.498	Pic2	Picture	5	No_Pain	26	4.486	n/a	n/a	102.053
75.307	2.006	Blank	Blank	5	No_Pain	n/a	2.479	n/a	n/a	105.552
79.793	n/a	ConfirmRating	Rate	5	No_Pain	26	n/a	1.963	0	110.037
79.817	4.078	ITI	Fixation+	6	Pain	n/a	8.571	n/a	n/a	110.061
83.912	3.498	Pic2	Picture	6	Pain	12	5.056	n/a	n/a	114.156
87.41	2.006	Blank	Blank	6	Pain	n/a	3.05	n/a	n/a	117.654
92.466	n/a	ConfirmRating	Rate	6	Pain	12	n/a	2.533	12	122.71
92.483	5.67	ITI	Fixation+	7	Pain	n/a	8.959	n/a	n/a	122.727
98.169	3.498	Pic2	Picture	7	Pain	3	5.444	n/a	n/a	128.414
101.668	2.006	Blank	Blank	7	Pain	n/a	3.438	n/a	n/a	131.912
107.111	n/a	ConfirmRating	Rate	7	Pain	3	n/a	2.921	18	137.356
107.139	4.476	ITI	Fixation+	8	No_Pain	n/a	7.032	n/a	n/a	137.383
111.631	3.498	Pic2	Picture	8	No_Pain	30	3.518	n/a	n/a	141.876
115.129	2.006	Blank	Blank	8	No_Pain	n/a	1.512	n/a	n/a	145.374
118.647	n/a	ConfirmRating	Rate	8	No_Pain	30	n/a	0.995	0	148.892
118.677	4.974	ITI	Fixation+	9	Pain	n/a	8.078	n/a	n/a	148.922
123.668	3.498	Pic2	Picture	9	Pain	4	4.563	n/a	n/a	153.912
127.166	2.006	Blank	Blank	9	Pain	n/a	2.557	n/a	n/a	157.41
131.729	n/a	ConfirmRating	Rate	9	Pain	4	n/a	2.041	17	161.973
131.758	5.769	ITI	Fixation+	10	No_Pain	n/a	7.54	n/a	n/a	162.002
137.544	3.498	Pic2	Picture	10	No_Pain	28	4.025	n/a	n/a	167.788
141.042	2.006	Blank	Blank	10	No_Pain	n/a	2.019	n/a	n/a	171.286
145.067	n/a	ConfirmRating	Rate	10	No_Pain	28	n/a	1.502	0	175.311
145.087	4.41	ITI	Fixation+	11	Pain	n/a	8.018	n/a	n/a	175.332
149.514	3.498	Pic2	Picture	11	Pain	13	4.504	n/a	n/a	179.758
153.012	2.006	Blank	Blank	11	Pain	n/a	2.498	n/a	n/a	183.256
157.516	n/a	ConfirmRating	Rate	11	Pain	13	n/a	1.982	13	187.76
157.538	4.708	ITI	Fixation+	12	No_Pain	n/a	7.728	n/a	n/a	187.782
162.263	3.498	Pic2	Picture	12	No_Pain	32	4.213	n/a	n/a	192.507
165.761	2.006	Blank	Blank	12	No_Pain	n/a	2.207	n/a	n/a	196.005
169.974	n/a	ConfirmRating	Rate	12	No_Pain	32	n/a	1.69	0	200.219
170.005	5.769	ITI	Fixation+	13	Pain	n/a	7.304	n/a	n/a	200.25
175.791	3.498	Pic2	Picture	13	Pain	5	3.789	n/a	n/a	206.036
179.289	2.006	Blank	Blank	13	Pain	n/a	1.783	n/a	n/a	209.534
183.078	n/a	ConfirmRating	Rate	13	Pain	5	n/a	1.266	19	213.323
183.102	4.443	ITI	Fixation+	14	No_Pain	n/a	8.08	n/a	n/a	213.347
187.562	3.498	Pic2	Picture	14	No_Pain	21	4.565	n/a	n/a	217.806
191.06	2.006	Blank	Blank	14	No_Pain	n/a	2.559	n/a	n/a	221.304
195.625	n/a	ConfirmRating	Rate	14	No_Pain	21	n/a	2.042	0	225.869
195.653	4.344	ITI	Fixation+	15	No_Pain	n/a	8.255	n/a	n/a	225.897
200.013	3.498	Pic2	Picture	15	No_Pain	38	4.74	n/a	n/a	230.257
203.511	2.006	Blank	Blank	15	No_Pain	n/a	2.734	n/a	n/a	233.755
208.251	n/a	ConfirmRating	Rate	15	No_Pain	38	n/a	2.218	0	238.495
208.269	4.758	ITI	Fixation+	16	Pain	n/a	7.969	n/a	n/a	238.513
213.044	3.498	Pic2	Picture	16	Pain	16	4.454	n/a	n/a	243.288
216.542	2.006	Blank	Blank	16	Pain	n/a	2.448	n/a	n/a	246.786
220.996	n/a	ConfirmRating	Rate	16	Pain	16	n/a	1.932	20	251.24
221.018	4.543	ITI	Fixation+	17	No_Pain	n/a	8.467	n/a	n/a	251.262
225.577	3.498	Pic2	Picture	17	No_Pain	22	4.952	n/a	n/a	255.821
229.075	2.006	Blank	Blank	17	No_Pain	n/a	2.946	n/a	n/a	259.32
234.028	n/a	ConfirmRating	Rate	17	No_Pain	22	n/a	2.429	0	264.272
234.049	4.261	ITI	Fixation+	18	Pain	n/a	10.453	n/a	n/a	264.293
238.326	3.498	Pic2	Picture	18	Pain	8	6.938	n/a	n/a	268.571
241.824	2.006	Blank	Blank	18	Pain	n/a	4.932	n/a	n/a	272.069
248.762	n/a	ConfirmRating	Rate	18	Pain	8	n/a	4.415	15	279.007
248.787	4.708	ITI	Fixation+	19	Pain	n/a	8.029	n/a	n/a	279.032
253.512	3.498	Pic2	Picture	19	Pain	1	4.515	n/a	n/a	283.757
257.011	2.006	Blank	Blank	19	Pain	n/a	2.509	n/a	n/a	287.255
261.525	n/a	ConfirmRating	Rate	19	Pain	1	n/a	1.992	21	291.769
261.553	15.004	Rest	n/a	19	n/a	n/a	-15.032	n/a	n/a	291.797
276.573	4.46	ITI	Fixation+	20	No_Pain	n/a	7.034	n/a	n/a	306.818
281.05	3.498	Pic2	Picture	20	No_Pain	23	3.519	n/a	n/a	311.294
284.548	2.006	Blank	Blank	20	No_Pain	n/a	1.513	n/a	n/a	314.792
288.067	n/a	ConfirmRating	Rate	20	No_Pain	23	n/a	0.997	0	318.311
288.096	5.355	ITI	Fixation+	21	Pain	n/a	9.758	n/a	n/a	318.34
293.467	3.498	Pic2	Picture	21	Pain	10	6.243	n/a	n/a	323.712
296.965	2.006	Blank	Blank	21	Pain	n/a	4.237	n/a	n/a	327.21
303.209	n/a	ConfirmRating	Rate	21	Pain	10	n/a	3.72	10	333.453
303.232	5.222	ITI	Fixation+	22	No_Pain	n/a	7.15	n/a	n/a	333.476
308.471	3.498	Pic2	Picture	22	No_Pain	36	3.635	n/a	n/a	338.715
311.969	2.006	Blank	Blank	22	No_Pain	n/a	1.629	n/a	n/a	342.214
315.604	n/a	ConfirmRating	Rate	22	No_Pain	36	n/a	1.112	0	345.849
315.633	4.012	ITI	Fixation+	23	Pain	n/a	8.249	n/a	n/a	345.877
319.662	3.498	Pic2	Picture	23	Pain	11	4.734	n/a	n/a	349.906
323.16	2.006	Blank	Blank	23	Pain	n/a	2.728	n/a	n/a	353.404
327.894	n/a	ConfirmRating	Rate	23	Pain	11	n/a	2.212	8	358.139
327.918	5.322	ITI	Fixation+	24	Pain	n/a	7.567	n/a	n/a	358.162
333.256	3.498	Pic2	Picture	24	Pain	17	4.053	n/a	n/a	363.501
336.754	2.006	Blank	Blank	24	Pain	n/a	2.047	n/a	n/a	366.999
340.807	n/a	ConfirmRating	Rate	24	Pain	17	n/a	1.53	13	371.051
340.833	4.062	ITI	Fixation+	25	No_Pain	n/a	8.022	n/a	n/a	371.077
344.911	3.498	Pic2	Picture	25	No_Pain	31	4.508	n/a	n/a	375.156
348.409	2.006	Blank	Blank	25	No_Pain	n/a	2.502	n/a	n/a	378.654
352.917	n/a	ConfirmRating	Rate	25	No_Pain	31	n/a	1.985	0	383.161
352.935	5.968	ITI	Fixation+	26	Pain	n/a	8.435	n/a	n/a	383.18
358.92	3.498	Pic2	Picture	26	Pain	18	4.92	n/a	n/a	389.164
362.418	2.006	Blank	Blank	26	Pain	n/a	2.914	n/a	n/a	392.663
367.339	n/a	ConfirmRating	Rate	26	Pain	18	n/a	2.397	17	397.583
367.359	5.571	ITI	Fixation+	27	No_Pain	n/a	7.098	n/a	n/a	397.603
372.946	3.498	Pic2	Picture	27	No_Pain	33	3.584	n/a	n/a	403.19
376.444	2.006	Blank	Blank	27	No_Pain	n/a	1.577	n/a	n/a	406.688
380.027	n/a	ConfirmRating	Rate	27	No_Pain	33	n/a	1.061	0	410.272
380.058	4.443	ITI	Fixation+	28	No_Pain	n/a	6.888	n/a	n/a	410.302
384.518	3.498	Pic2	Picture	28	No_Pain	40	3.373	n/a	n/a	414.762
388.016	2.006	Blank	Blank	28	No_Pain	n/a	1.367	n/a	n/a	418.26
391.389	n/a	ConfirmRating	Rate	28	No_Pain	40	n/a	0.851	0	421.634
391.415	4.824	ITI	Fixation+	29	Pain	n/a	7.071	n/a	n/a	421.659
396.256	3.498	Pic2	Picture	29	Pain	20	3.556	n/a	n/a	426.5
399.754	2.006	Blank	Blank	29	Pain	n/a	1.551	n/a	n/a	429.998
403.31	n/a	ConfirmRating	Rate	29	Pain	20	n/a	1.034	15	433.555
403.335	4.725	ITI	Fixation+	30	No_Pain	n/a	7.127	n/a	n/a	433.579
408.076	3.498	Pic2	Picture	30	No_Pain	27	3.613	n/a	n/a	438.32
411.574	2.006	Blank	Blank	30	No_Pain	n/a	1.607	n/a	n/a	441.819
415.187	n/a	ConfirmRating	Rate	30	No_Pain	27	n/a	1.09	0	445.431
415.205	4.659	ITI	Fixation+	31	Pain	n/a	9.152	n/a	n/a	445.449
419.88	3.498	Pic2	Picture	31	Pain	14	5.637	n/a	n/a	450.125
423.378	2.006	Blank	Blank	31	Pain	n/a	3.631	n/a	n/a	453.623
429.016	n/a	ConfirmRating	Rate	31	Pain	14	n/a	3.115	7	459.26
429.048	5.04	ITI	Fixation+	32	Pain	n/a	7.629	n/a	n/a	459.293
434.105	3.498	Pic2	Picture	32	Pain	9	4.115	n/a	n/a	464.349
437.603	2.006	Blank	Blank	32	Pain	n/a	2.109	n/a	n/a	467.847
441.718	n/a	ConfirmRating	Rate	32	Pain	9	n/a	1.592	13	471.962
441.748	4.659	ITI	Fixation+	33	No_Pain	n/a	8.132	n/a	n/a	471.992
446.423	3.498	Pic2	Picture	33	No_Pain	39	4.617	n/a	n/a	476.667
449.921	2.006	Blank	Blank	33	No_Pain	n/a	2.611	n/a	n/a	480.165
454.538	n/a	ConfirmRating	Rate	33	No_Pain	39	n/a	2.095	0	484.783
454.563	5.62	ITI	Fixation+	34	No_Pain	n/a	7.223	n/a	n/a	484.807
460.2	3.498	Pic2	Picture	34	No_Pain	29	3.708	n/a	n/a	490.444
463.698	2.006	Blank	Blank	34	No_Pain	n/a	1.702	n/a	n/a	493.942
467.406	n/a	ConfirmRating	Rate	34	No_Pain	29	n/a	1.186	0	497.651
467.428	5.819	ITI	Fixation+	35	Pain	n/a	8.996	n/a	n/a	497.673
473.264	3.498	Pic2	Picture	35	Pain	6	5.481	n/a	n/a	503.508
476.762	2.006	Blank	Blank	35	Pain	n/a	3.475	n/a	n/a	507.006
482.243	n/a	ConfirmRating	Rate	35	Pain	6	n/a	2.959	14	512.487
482.266	5.123	ITI	Fixation+	36	No_Pain	n/a	6.908	n/a	n/a	512.51
487.406	3.498	Pic2	Picture	36	No_Pain	35	3.393	n/a	n/a	517.65
490.904	2.006	Blank	Blank	36	No_Pain	n/a	1.387	n/a	n/a	521.148
494.297	n/a	ConfirmRating	Rate	36	No_Pain	35	n/a	0.871	0	524.541
494.319	5.653	ITI	Fixation+	37	No_Pain	n/a	7.786	n/a	n/a	524.563
499.989	3.498	Pic2	Picture	37	No_Pain	34	4.272	n/a	n/a	530.233
503.487	2.006	Blank	Blank	37	No_Pain	n/a	2.266	n/a	n/a	533.731
507.759	n/a	ConfirmRating	Rate	37	No_Pain	34	n/a	1.749	0	538.003
507.781	4.311	ITI	Fixation+	38	Pain	n/a	8.888	n/a	n/a	538.025
512.108	3.498	Pic2	Picture	38	Pain	15	5.373	n/a	n/a	542.352
515.606	2.006	Blank	Blank	38	Pain	n/a	3.367	n/a	n/a	545.85
520.979	n/a	ConfirmRating	Rate	38	Pain	15	n/a	2.85	11	551.224
521.011	5.04	ITI	Fixation+	39	Pain	n/a	7.345	n/a	n/a	551.255
526.067	3.498	Pic2	Picture	39	Pain	7	3.83	n/a	n/a	556.312
529.565	2.006	Blank	Blank	39	Pain	n/a	1.824	n/a	n/a	559.81
533.395	n/a	ConfirmRating	Rate	39	Pain	7	n/a	1.307	9	563.639
