onset	duration	trial_type	event_type	time_until_response	response_time	trial_number	block_num_within_trial	image_seq_num_within_block	question_seq_num_within_block	image_seq_num	picture_number	condition	question_type	block_type	rating	rating_computed	onset_uncorrected	KDEV_imagefile
0.005	10.014	ITI	Fixation+	95.595	n/a	1	n/a	n/a	n/a	n/a	n/a	n/a	n/a	n/a	n/a	n/a	30.334	n/a
10.035	0.497	happy	Picture	95.081	n/a	1	1	1	n/a	1	46	2	n/a	n/a	n/a	n/a	40.364	AF09HAS.jpg
10.532	0.514	Blank	Blank	94.567	n/a	1	1	1	n/a	1	n/a	2	n/a	n/a	n/a	n/a	40.861	n/a
11.063	0.497	happy	Picture	94.053	n/a	1	1	2	n/a	2	69	2	n/a	n/a	n/a	n/a	41.392	AM10HAS.jpg
11.56	0.514	Blank	Blank	93.539	n/a	1	1	2	n/a	2	n/a	2	n/a	n/a	n/a	n/a	41.889	n/a
12.091	0.497	happy	Picture	93.025	n/a	1	1	3	n/a	3	71	2	n/a	n/a	n/a	n/a	42.419	BM12HAS.jpg
12.588	0.514	Blank	Blank	92.511	n/a	1	1	3	n/a	3	n/a	2	n/a	n/a	n/a	n/a	42.917	n/a
13.119	0.497	happy	Picture	91.997	n/a	1	1	4	n/a	4	51	2	n/a	n/a	n/a	n/a	43.447	AF20HAS.jpg
13.616	0.514	Blank	Blank	91.483	n/a	1	1	4	n/a	4	n/a	2	n/a	n/a	n/a	n/a	43.945	n/a
14.146	0.497	happy	Picture	90.969	n/a	1	1	5	n/a	5	67	2	n/a	n/a	n/a	n/a	44.475	BM08HAS.jpg
14.644	0.514	Blank	Blank	90.455	n/a	1	1	5	n/a	5	n/a	2	n/a	n/a	n/a	n/a	44.972	n/a
15.174	0.497	happy	Picture	89.941	n/a	1	1	6	n/a	6	60	2	n/a	n/a	n/a	n/a	45.503	AF32HAS.jpg
15.672	0.514	Blank	Blank	89.427	n/a	1	1	6	n/a	6	n/a	2	n/a	n/a	n/a	n/a	46.0	n/a
16.202	0.497	happy	Picture	88.913	n/a	1	1	7	n/a	7	42	2	n/a	n/a	n/a	n/a	46.531	AF03HAS.jpg
16.699	0.514	Blank	Blank	88.4	n/a	1	1	7	n/a	7	n/a	2	n/a	n/a	n/a	n/a	47.028	n/a
17.23	0.497	happy	Picture	87.886	n/a	1	1	8	n/a	8	55	2	n/a	n/a	n/a	n/a	47.559	AF25HAS.jpg
17.727	0.514	Blank	Blank	87.372	n/a	1	1	8	n/a	8	n/a	2	n/a	n/a	n/a	n/a	48.056	n/a
18.258	0.497	happy	Picture	86.858	n/a	1	1	9	n/a	9	72	2	n/a	n/a	n/a	n/a	48.587	AM14HAS.jpg
18.755	0.514	Blank	Blank	86.344	n/a	1	1	9	n/a	9	n/a	2	n/a	n/a	n/a	n/a	49.084	n/a
19.286	0.497	happy	Picture	85.83	n/a	1	1	10	n/a	10	63	2	n/a	n/a	n/a	n/a	49.614	AM04HAS.jpg
19.783	0.514	Blank	Blank	85.316	n/a	1	1	10	n/a	10	n/a	2	n/a	n/a	n/a	n/a	50.112	n/a
20.314	0.497	happy	Picture	84.802	n/a	1	1	11	n/a	11	58	2	n/a	n/a	n/a	n/a	50.642	BF29HAS.jpg
20.811	0.514	Blank	Blank	84.288	n/a	1	1	11	n/a	11	n/a	2	n/a	n/a	n/a	n/a	51.14	n/a
21.341	0.497	happy	Picture	83.774	n/a	1	1	12	n/a	12	48	2	n/a	n/a	n/a	n/a	51.67	AF14HAS.jpg
21.839	0.514	Blank	Blank	83.26	n/a	1	1	12	n/a	12	n/a	2	n/a	n/a	n/a	n/a	52.168	n/a
22.369	0.497	happy	Picture	82.746	n/a	1	1	13	n/a	13	66	2	n/a	n/a	n/a	n/a	52.698	BM07HAS.jpg
22.867	0.514	Blank	Blank	82.232	n/a	1	1	13	n/a	13	n/a	2	n/a	n/a	n/a	n/a	53.196	n/a
23.397	0.497	happy	Picture	81.718	n/a	1	1	14	n/a	14	70	2	n/a	n/a	n/a	n/a	53.726	BM11HAS.jpg
23.895	0.514	Blank	Blank	81.204	n/a	1	1	14	n/a	14	n/a	2	n/a	n/a	n/a	n/a	54.223	n/a
24.425	0.497	happy	Picture	80.691	n/a	1	1	15	n/a	15	43	2	n/a	n/a	n/a	n/a	54.754	BF04HAS.jpg
24.922	0.514	Blank	Blank	80.177	n/a	1	1	15	n/a	15	n/a	2	n/a	n/a	n/a	n/a	55.251	n/a
25.453	0.497	happy	Picture	79.663	n/a	1	1	16	n/a	16	49	2	n/a	n/a	n/a	n/a	55.782	AF17HAS.jpg
25.95	0.514	Blank	Blank	79.149	n/a	1	1	16	n/a	16	n/a	2	n/a	n/a	n/a	n/a	56.279	n/a
26.481	0.497	happy	Picture	78.635	n/a	1	1	17	n/a	17	75	2	n/a	n/a	n/a	n/a	56.81	AM23HAS.jpg
26.978	0.514	Blank	Blank	78.121	n/a	1	1	17	n/a	17	n/a	2	n/a	n/a	n/a	n/a	57.307	n/a
27.509	0.497	happy	Picture	77.607	n/a	1	1	18	n/a	18	80	2	n/a	n/a	n/a	n/a	57.837	BM35HAS.jpg
28.006	0.514	Blank	Blank	77.093	n/a	1	1	18	n/a	18	n/a	2	n/a	n/a	n/a	n/a	58.335	n/a
28.537	0.497	happy	Picture	76.579	n/a	1	1	19	n/a	19	76	2	n/a	n/a	n/a	n/a	58.865	BM24HAS.jpg
29.034	0.514	Blank	Blank	76.065	n/a	1	1	19	n/a	19	n/a	2	n/a	n/a	n/a	n/a	59.363	n/a
29.564	0.497	happy	Picture	75.551	n/a	1	1	20	n/a	20	74	2	n/a	n/a	n/a	n/a	59.893	AM22HAS.jpg
30.062	0.514	Blank	Blank	75.037	n/a	1	1	20	n/a	20	n/a	2	n/a	n/a	n/a	n/a	60.391	n/a
30.592	10.014	ITI	Fixation+	65.007	n/a	1	n/a	n/a	n/a	n/a	n/a	n/a	n/a	n/a	n/a	n/a	60.921	n/a
40.623	0.497	neutral	Picture	64.493	n/a	1	2	1	n/a	21	33	1	n/a	n/a	n/a	n/a	70.951	AM21NES.jpg
41.12	0.514	Blank	Blank	63.979	n/a	1	2	1	n/a	21	n/a	1	n/a	n/a	n/a	n/a	71.448	n/a
41.65	0.497	neutral	Picture	63.465	n/a	1	2	2	n/a	22	39	1	n/a	n/a	n/a	n/a	71.979	AM28NES.jpg
42.148	0.514	Blank	Blank	62.951	n/a	1	2	2	n/a	22	n/a	1	n/a	n/a	n/a	n/a	72.476	n/a
42.678	0.497	neutral	Picture	62.437	n/a	1	2	3	n/a	23	25	1	n/a	n/a	n/a	n/a	73.007	BM06NES.jpg
43.176	0.514	Blank	Blank	61.923	n/a	1	2	3	n/a	23	n/a	1	n/a	n/a	n/a	n/a	73.504	n/a
43.706	0.497	neutral	Picture	61.409	n/a	1	2	4	n/a	24	5	1	n/a	n/a	n/a	n/a	74.035	BF07NES.jpg
44.204	0.514	Blank	Blank	60.896	n/a	1	2	4	n/a	24	n/a	1	n/a	n/a	n/a	n/a	74.532	n/a
44.734	0.497	neutral	Picture	60.382	n/a	1	2	5	n/a	25	10	1	n/a	n/a	n/a	n/a	75.063	AF18NES.jpg
45.231	0.514	Blank	Blank	59.868	n/a	1	2	5	n/a	25	n/a	1	n/a	n/a	n/a	n/a	75.56	n/a
45.762	0.497	neutral	Picture	59.354	n/a	1	2	6	n/a	26	34	1	n/a	n/a	n/a	n/a	76.091	AM22NES.jpg
46.259	0.514	Blank	Blank	58.84	n/a	1	2	6	n/a	26	n/a	1	n/a	n/a	n/a	n/a	76.588	n/a
46.79	0.497	neutral	Picture	58.326	n/a	1	2	7	n/a	27	36	1	n/a	n/a	n/a	n/a	77.118	BM24NES.jpg
47.287	0.514	Blank	Blank	57.812	n/a	1	2	7	n/a	27	n/a	1	n/a	n/a	n/a	n/a	77.616	n/a
47.818	0.497	neutral	Picture	57.298	n/a	1	2	8	n/a	28	14	1	n/a	n/a	n/a	n/a	78.146	AF23NES.jpg
48.315	0.514	Blank	Blank	56.784	n/a	1	2	8	n/a	28	n/a	1	n/a	n/a	n/a	n/a	78.644	n/a
48.846	0.497	neutral	Picture	56.27	n/a	1	2	9	n/a	29	9	1	n/a	n/a	n/a	n/a	79.174	AF17NES.jpg
49.343	0.514	Blank	Blank	55.756	n/a	1	2	9	n/a	29	n/a	1	n/a	n/a	n/a	n/a	79.671	n/a
49.873	0.497	neutral	Picture	55.242	n/a	1	2	10	n/a	30	19	1	n/a	n/a	n/a	n/a	80.202	AF31NES.jpg
50.371	0.514	Blank	Blank	54.728	n/a	1	2	10	n/a	30	n/a	1	n/a	n/a	n/a	n/a	80.699	n/a
50.901	0.497	neutral	Picture	54.214	n/a	1	2	11	n/a	31	15	1	n/a	n/a	n/a	n/a	81.23	AF25NES.jpg
51.399	0.514	Blank	Blank	53.7	n/a	1	2	11	n/a	31	n/a	1	n/a	n/a	n/a	n/a	81.727	n/a
51.929	0.497	neutral	Picture	53.186	n/a	1	2	12	n/a	32	22	1	n/a	n/a	n/a	n/a	82.258	BM03NES.jpg
52.427	0.514	Blank	Blank	52.673	n/a	1	2	12	n/a	32	n/a	1	n/a	n/a	n/a	n/a	82.755	n/a
52.957	0.497	neutral	Picture	52.159	n/a	1	2	13	n/a	33	11	1	n/a	n/a	n/a	n/a	83.286	AF20NES.jpg
53.454	0.514	Blank	Blank	51.645	n/a	1	2	13	n/a	33	n/a	1	n/a	n/a	n/a	n/a	83.783	n/a
53.985	0.497	neutral	Picture	51.131	n/a	1	2	14	n/a	34	4	1	n/a	n/a	n/a	n/a	84.314	AF05NES.jpg
54.482	0.514	Blank	Blank	50.617	n/a	1	2	14	n/a	34	n/a	1	n/a	n/a	n/a	n/a	84.811	n/a
55.013	0.497	neutral	Picture	50.103	n/a	1	2	15	n/a	35	17	1	n/a	n/a	n/a	n/a	85.341	BF28NES.jpg
55.51	0.514	Blank	Blank	49.589	n/a	1	2	15	n/a	35	n/a	1	n/a	n/a	n/a	n/a	85.839	n/a
56.041	0.497	neutral	Picture	49.075	n/a	1	2	16	n/a	36	13	1	n/a	n/a	n/a	n/a	86.369	BF22NES.jpg
56.538	0.514	Blank	Blank	48.561	n/a	1	2	16	n/a	36	n/a	1	n/a	n/a	n/a	n/a	86.867	n/a
57.069	0.497	neutral	Picture	48.047	n/a	1	2	17	n/a	37	12	1	n/a	n/a	n/a	n/a	87.397	AF21NES.jpg
57.566	0.514	Blank	Blank	47.533	n/a	1	2	17	n/a	37	n/a	1	n/a	n/a	n/a	n/a	87.894	n/a
58.096	0.497	neutral	Picture	47.019	n/a	1	2	18	n/a	38	24	1	n/a	n/a	n/a	n/a	88.425	BM05NES.jpg
58.594	0.514	Blank	Blank	46.505	n/a	1	2	18	n/a	38	n/a	1	n/a	n/a	n/a	n/a	88.922	n/a
59.124	0.497	neutral	Picture	45.991	n/a	1	2	19	n/a	39	29	1	n/a	n/a	n/a	n/a	89.453	AM10NES.jpg
59.622	0.514	Blank	Blank	45.477	n/a	1	2	19	n/a	39	n/a	1	n/a	n/a	n/a	n/a	89.95	n/a
60.152	0.497	neutral	Picture	44.963	n/a	1	2	20	n/a	40	23	1	n/a	n/a	n/a	n/a	90.481	AM04NES.jpg
60.65	0.514	Blank	Blank	44.45	n/a	1	2	20	n/a	40	n/a	1	n/a	n/a	n/a	n/a	90.978	n/a
61.18	10.014	ITI	Fixation+	34.419	n/a	1	n/a	n/a	n/a	n/a	n/a	n/a	n/a	n/a	n/a	n/a	91.509	n/a
71.21	0.497	happy	Picture	33.906	n/a	1	3	1	n/a	41	62	2	n/a	n/a	n/a	n/a	101.539	BM03HAS.jpg
71.707	0.514	Blank	Blank	33.392	n/a	1	3	1	n/a	41	n/a	2	n/a	n/a	n/a	n/a	102.036	n/a
72.238	0.497	happy	Picture	32.878	n/a	1	3	2	n/a	42	52	2	n/a	n/a	n/a	n/a	102.567	AF21HAS.jpg
72.735	0.514	Blank	Blank	32.364	n/a	1	3	2	n/a	42	n/a	2	n/a	n/a	n/a	n/a	103.064	n/a
73.266	0.497	happy	Picture	31.85	n/a	1	3	3	n/a	43	44	2	n/a	n/a	n/a	n/a	103.594	AF05HAS.jpg
73.763	0.514	Blank	Blank	31.336	n/a	1	3	3	n/a	43	n/a	2	n/a	n/a	n/a	n/a	104.092	n/a
74.294	0.497	happy	Picture	30.822	n/a	1	3	4	n/a	44	53	2	n/a	n/a	n/a	n/a	104.622	BF22HAS.jpg
74.791	0.514	Blank	Blank	30.308	n/a	1	3	4	n/a	44	n/a	2	n/a	n/a	n/a	n/a	105.12	n/a
75.322	0.497	happy	Picture	29.794	n/a	1	3	5	n/a	45	54	2	n/a	n/a	n/a	n/a	105.65	AF23HAS.jpg
75.819	0.514	Blank	Blank	29.28	n/a	1	3	5	n/a	45	n/a	2	n/a	n/a	n/a	n/a	106.148	n/a
76.349	0.497	happy	Picture	28.766	n/a	1	3	6	n/a	46	68	2	n/a	n/a	n/a	n/a	106.678	AM09HAS.jpg
76.847	0.514	Blank	Blank	28.252	n/a	1	3	6	n/a	46	n/a	2	n/a	n/a	n/a	n/a	107.175	n/a
77.377	0.497	happy	Picture	27.738	n/a	1	3	7	n/a	47	64	2	n/a	n/a	n/a	n/a	107.706	BM05HAS.jpg
77.875	0.514	Blank	Blank	27.224	n/a	1	3	7	n/a	47	n/a	2	n/a	n/a	n/a	n/a	108.203	n/a
78.405	0.497	happy	Picture	26.71	n/a	1	3	8	n/a	48	59	2	n/a	n/a	n/a	n/a	108.734	AF31HAS.jpg
78.903	0.514	Blank	Blank	26.197	n/a	1	3	8	n/a	48	n/a	2	n/a	n/a	n/a	n/a	109.231	n/a
79.433	0.497	happy	Picture	25.683	n/a	1	3	9	n/a	49	41	2	n/a	n/a	n/a	n/a	109.762	AF01HAS.jpg
79.93	0.514	Blank	Blank	25.169	n/a	1	3	9	n/a	49	n/a	2	n/a	n/a	n/a	n/a	110.259	n/a
80.461	0.497	happy	Picture	24.655	n/a	1	3	10	n/a	50	73	2	n/a	n/a	n/a	n/a	110.79	AM21HAS.jpg
80.958	0.514	Blank	Blank	24.141	n/a	1	3	10	n/a	50	n/a	2	n/a	n/a	n/a	n/a	111.287	n/a
81.489	0.497	happy	Picture	23.627	n/a	1	3	11	n/a	51	65	2	n/a	n/a	n/a	n/a	111.817	BM06HAS.jpg
81.986	0.514	Blank	Blank	23.113	n/a	1	3	11	n/a	51	n/a	2	n/a	n/a	n/a	n/a	112.315	n/a
82.517	0.497	happy	Picture	22.599	n/a	1	3	12	n/a	52	56	2	n/a	n/a	n/a	n/a	112.845	AF26HAS.jpg
83.014	0.514	Blank	Blank	22.085	n/a	1	3	12	n/a	52	n/a	2	n/a	n/a	n/a	n/a	113.343	n/a
83.545	0.497	happy	Picture	21.571	n/a	1	3	13	n/a	53	45	2	n/a	n/a	n/a	n/a	113.873	BF07HAS.jpg
84.042	0.514	Blank	Blank	21.057	n/a	1	3	13	n/a	53	n/a	2	n/a	n/a	n/a	n/a	114.371	n/a
84.572	0.497	happy	Picture	20.543	n/a	1	3	14	n/a	54	78	2	n/a	n/a	n/a	n/a	114.901	BM26HAS.jpg
85.07	0.514	Blank	Blank	20.029	n/a	1	3	14	n/a	54	n/a	2	n/a	n/a	n/a	n/a	115.398	n/a
85.6	0.497	happy	Picture	19.515	n/a	1	3	15	n/a	55	50	2	n/a	n/a	n/a	n/a	115.929	AF18HAS.jpg
86.098	0.514	Blank	Blank	19.001	n/a	1	3	15	n/a	55	n/a	2	n/a	n/a	n/a	n/a	116.426	n/a
86.628	0.497	happy	Picture	18.487	n/a	1	3	16	n/a	56	47	2	n/a	n/a	n/a	n/a	116.957	BF11HAS.jpg
87.126	0.514	Blank	Blank	17.974	n/a	1	3	16	n/a	56	n/a	2	n/a	n/a	n/a	n/a	117.454	n/a
87.656	0.497	happy	Picture	17.46	n/a	1	3	17	n/a	57	77	2	n/a	n/a	n/a	n/a	117.985	BM25HAS.jpg
88.153	0.514	Blank	Blank	16.946	n/a	1	3	17	n/a	57	n/a	2	n/a	n/a	n/a	n/a	118.482	n/a
88.684	0.497	happy	Picture	16.432	n/a	1	3	18	n/a	58	57	2	n/a	n/a	n/a	n/a	119.013	BF28HAS.jpg
89.181	0.514	Blank	Blank	15.918	n/a	1	3	18	n/a	58	n/a	2	n/a	n/a	n/a	n/a	119.51	n/a
89.712	0.497	happy	Picture	15.404	n/a	1	3	19	n/a	59	61	2	n/a	n/a	n/a	n/a	120.04	AM01HAS.jpg
90.209	0.514	Blank	Blank	14.89	n/a	1	3	19	n/a	59	n/a	2	n/a	n/a	n/a	n/a	120.538	n/a
90.74	0.497	happy	Picture	14.376	n/a	1	3	20	n/a	60	79	2	n/a	n/a	n/a	n/a	121.068	BM28HAS.jpg
91.237	0.514	Blank	Blank	13.862	n/a	1	3	20	n/a	60	n/a	2	n/a	n/a	n/a	n/a	121.566	n/a
91.768	10.013	ITI	Fixation+	3.832	n/a	1	n/a	n/a	n/a	n/a	n/a	n/a	n/a	n/a	n/a	n/a	122.096	n/a
105.613	n/a	ConfirmRating	Rate	n/a	3.814	1	n/a	n/a	0	n/a	n/a	n/a	2	Happy	71	52	135.942	n/a
107.862	n/a	ConfirmRating	Rate	n/a	2.222	1	n/a	n/a	1	n/a	n/a	n/a	3	Happy	18	48	138.191	n/a
107.882	10.014	ITI	Fixation+	96.675	n/a	2	n/a	n/a	n/a	n/a	n/a	n/a	n/a	n/a	n/a	n/a	138.211	n/a
117.912	0.497	angry	Picture	96.161	n/a	2	4	1	n/a	61	119	3	n/a	n/a	n/a	n/a	148.241	BM28ANS.jpg
118.409	0.514	Blank	Blank	95.647	n/a	2	4	1	n/a	61	n/a	3	n/a	n/a	n/a	n/a	148.738	n/a
118.94	0.497	angry	Picture	95.133	n/a	2	4	2	n/a	62	100	3	n/a	n/a	n/a	n/a	149.269	AF32ANS.jpg
119.437	0.513	Blank	Blank	94.62	n/a	2	4	2	n/a	62	n/a	3	n/a	n/a	n/a	n/a	149.766	n/a
119.968	0.497	angry	Picture	94.105	n/a	2	4	3	n/a	63	118	3	n/a	n/a	n/a	n/a	150.297	BM26ANS.jpg
120.465	0.514	Blank	Blank	93.591	n/a	2	4	3	n/a	63	n/a	3	n/a	n/a	n/a	n/a	150.794	n/a
120.996	0.497	angry	Picture	93.078	n/a	2	4	4	n/a	64	89	3	n/a	n/a	n/a	n/a	151.324	AF17ANS.jpg
121.493	0.514	Blank	Blank	92.564	n/a	2	4	4	n/a	64	n/a	3	n/a	n/a	n/a	n/a	151.822	n/a
122.024	0.497	angry	Picture	92.05	n/a	2	4	5	n/a	65	116	3	n/a	n/a	n/a	n/a	152.352	BM24ANS.jpg
122.521	0.514	Blank	Blank	91.536	n/a	2	4	5	n/a	65	n/a	3	n/a	n/a	n/a	n/a	152.85	n/a
123.051	0.497	angry	Picture	91.022	n/a	2	4	6	n/a	66	105	3	n/a	n/a	n/a	n/a	153.38	BM06ANS.jpg
123.549	0.514	Blank	Blank	90.508	n/a	2	4	6	n/a	66	n/a	3	n/a	n/a	n/a	n/a	153.877	n/a
124.079	0.497	angry	Picture	89.994	n/a	2	4	7	n/a	67	106	3	n/a	n/a	n/a	n/a	154.408	AM07ANS.jpg
124.577	0.514	Blank	Blank	89.48	n/a	2	4	7	n/a	67	n/a	3	n/a	n/a	n/a	n/a	154.905	n/a
125.107	0.497	angry	Picture	88.966	n/a	2	4	8	n/a	68	94	3	n/a	n/a	n/a	n/a	155.436	AF23ANS.jpg
125.605	0.514	Blank	Blank	88.452	n/a	2	4	8	n/a	68	n/a	3	n/a	n/a	n/a	n/a	155.933	n/a
126.135	0.497	angry	Picture	87.938	n/a	2	4	9	n/a	69	117	3	n/a	n/a	n/a	n/a	156.464	BM25ANS.jpg
126.632	0.514	Blank	Blank	87.424	n/a	2	4	9	n/a	69	n/a	3	n/a	n/a	n/a	n/a	156.961	n/a
127.163	0.497	angry	Picture	86.91	n/a	2	4	10	n/a	70	90	3	n/a	n/a	n/a	n/a	157.492	AF18ANS.jpg
127.66	0.514	Blank	Blank	86.396	n/a	2	4	10	n/a	70	n/a	3	n/a	n/a	n/a	n/a	157.989	n/a
128.191	0.497	angry	Picture	85.882	n/a	2	4	11	n/a	71	83	3	n/a	n/a	n/a	n/a	158.519	BF04ANS.jpg
128.688	0.514	Blank	Blank	85.368	n/a	2	4	11	n/a	71	n/a	3	n/a	n/a	n/a	n/a	159.017	n/a
129.219	0.497	angry	Picture	84.855	n/a	2	4	12	n/a	72	112	3	n/a	n/a	n/a	n/a	159.547	AM14ANS.jpg
129.716	0.514	Blank	Blank	84.34	n/a	2	4	12	n/a	72	n/a	3	n/a	n/a	n/a	n/a	160.045	n/a
130.247	0.497	angry	Picture	83.827	n/a	2	4	13	n/a	73	102	3	n/a	n/a	n/a	n/a	160.575	BM03ANS.jpg
130.744	0.514	Blank	Blank	83.313	n/a	2	4	13	n/a	73	n/a	3	n/a	n/a	n/a	n/a	161.073	n/a
131.274	0.497	angry	Picture	82.799	n/a	2	4	14	n/a	74	95	3	n/a	n/a	n/a	n/a	161.603	AF25ANS.jpg
131.772	0.514	Blank	Blank	82.285	n/a	2	4	14	n/a	74	n/a	3	n/a	n/a	n/a	n/a	162.101	n/a
132.302	0.497	angry	Picture	81.771	n/a	2	4	15	n/a	75	113	3	n/a	n/a	n/a	n/a	162.631	AM21ANS.jpg
132.8	0.514	Blank	Blank	81.257	n/a	2	4	15	n/a	75	n/a	3	n/a	n/a	n/a	n/a	163.128	n/a
133.33	0.497	angry	Picture	80.743	n/a	2	4	16	n/a	76	88	3	n/a	n/a	n/a	n/a	163.659	AF14ANS.jpg
133.828	0.514	Blank	Blank	80.229	n/a	2	4	16	n/a	76	n/a	3	n/a	n/a	n/a	n/a	164.156	n/a
134.358	0.497	angry	Picture	79.715	n/a	2	4	17	n/a	77	93	3	n/a	n/a	n/a	n/a	164.687	BF22ANS.jpg
134.855	0.514	Blank	Blank	79.201	n/a	2	4	17	n/a	77	n/a	3	n/a	n/a	n/a	n/a	165.184	n/a
135.386	0.497	angry	Picture	78.687	n/a	2	4	18	n/a	78	86	3	n/a	n/a	n/a	n/a	165.715	AF09ANS.jpg
135.883	0.514	Blank	Blank	78.173	n/a	2	4	18	n/a	78	n/a	3	n/a	n/a	n/a	n/a	166.212	n/a
136.414	0.497	angry	Picture	77.659	n/a	2	4	19	n/a	79	92	3	n/a	n/a	n/a	n/a	166.743	AF21ANS.jpg
136.911	0.514	Blank	Blank	77.145	n/a	2	4	19	n/a	79	n/a	3	n/a	n/a	n/a	n/a	167.24	n/a
137.442	0.497	angry	Picture	76.632	n/a	2	4	20	n/a	80	84	3	n/a	n/a	n/a	n/a	167.77	AF05ANS.jpg
137.939	0.514	Blank	Blank	76.118	n/a	2	4	20	n/a	80	n/a	3	n/a	n/a	n/a	n/a	168.268	n/a
138.47	10.013	ITI	Fixation+	66.088	n/a	2	n/a	n/a	n/a	n/a	n/a	n/a	n/a	n/a	n/a	n/a	168.798	n/a
148.5	0.497	neutral	Picture	65.573	n/a	2	5	1	n/a	81	4	1	n/a	n/a	n/a	n/a	178.828	AF05NES.jpg
148.997	0.514	Blank	Blank	65.06	n/a	2	5	1	n/a	81	n/a	1	n/a	n/a	n/a	n/a	179.326	n/a
149.528	0.497	neutral	Picture	64.546	n/a	2	5	2	n/a	82	14	1	n/a	n/a	n/a	n/a	179.856	AF23NES.jpg
150.025	0.514	Blank	Blank	64.032	n/a	2	5	2	n/a	82	n/a	1	n/a	n/a	n/a	n/a	180.354	n/a
150.555	0.497	neutral	Picture	63.518	n/a	2	5	3	n/a	83	19	1	n/a	n/a	n/a	n/a	180.884	AF31NES.jpg
151.053	0.514	Blank	Blank	63.004	n/a	2	5	3	n/a	83	n/a	1	n/a	n/a	n/a	n/a	181.381	n/a
151.583	0.497	neutral	Picture	62.49	n/a	2	5	4	n/a	84	8	1	n/a	n/a	n/a	n/a	181.912	AF14NES.jpg
152.081	0.514	Blank	Blank	61.976	n/a	2	5	4	n/a	84	n/a	1	n/a	n/a	n/a	n/a	182.409	n/a
152.611	0.497	neutral	Picture	61.462	n/a	2	5	5	n/a	85	25	1	n/a	n/a	n/a	n/a	182.94	BM06NES.jpg
153.108	0.514	Blank	Blank	60.948	n/a	2	5	5	n/a	85	n/a	1	n/a	n/a	n/a	n/a	183.437	n/a
153.639	0.497	neutral	Picture	60.434	n/a	2	5	6	n/a	86	9	1	n/a	n/a	n/a	n/a	183.968	AF17NES.jpg
154.136	0.514	Blank	Blank	59.92	n/a	2	5	6	n/a	86	n/a	1	n/a	n/a	n/a	n/a	184.465	n/a
154.667	0.497	neutral	Picture	59.406	n/a	2	5	7	n/a	87	2	1	n/a	n/a	n/a	n/a	184.996	AF03NES.jpg
155.164	0.514	Blank	Blank	58.892	n/a	2	5	7	n/a	87	n/a	1	n/a	n/a	n/a	n/a	185.493	n/a
155.695	0.497	neutral	Picture	58.378	n/a	2	5	8	n/a	88	17	1	n/a	n/a	n/a	n/a	186.024	BF28NES.jpg
156.192	0.514	Blank	Blank	57.864	n/a	2	5	8	n/a	88	n/a	1	n/a	n/a	n/a	n/a	186.521	n/a
156.723	0.497	neutral	Picture	57.351	n/a	2	5	9	n/a	89	6	1	n/a	n/a	n/a	n/a	187.051	AF09NES.jpg
157.22	0.514	Blank	Blank	56.837	n/a	2	5	9	n/a	89	n/a	1	n/a	n/a	n/a	n/a	187.549	n/a
157.75	0.497	neutral	Picture	56.323	n/a	2	5	10	n/a	90	12	1	n/a	n/a	n/a	n/a	188.079	AF21NES.jpg
158.248	0.514	Blank	Blank	55.809	n/a	2	5	10	n/a	90	n/a	1	n/a	n/a	n/a	n/a	188.577	n/a
158.778	0.497	neutral	Picture	55.295	n/a	2	5	11	n/a	91	24	1	n/a	n/a	n/a	n/a	189.107	BM05NES.jpg
159.276	0.514	Blank	Blank	54.781	n/a	2	5	11	n/a	91	n/a	1	n/a	n/a	n/a	n/a	189.604	n/a
159.806	0.497	neutral	Picture	54.267	n/a	2	5	12	n/a	92	34	1	n/a	n/a	n/a	n/a	190.135	AM22NES.jpg
160.304	0.514	Blank	Blank	53.753	n/a	2	5	12	n/a	92	n/a	1	n/a	n/a	n/a	n/a	190.632	n/a
160.834	0.497	neutral	Picture	53.239	n/a	2	5	13	n/a	93	23	1	n/a	n/a	n/a	n/a	191.163	AM04NES.jpg
161.332	0.514	Blank	Blank	52.725	n/a	2	5	13	n/a	93	n/a	1	n/a	n/a	n/a	n/a	191.66	n/a
161.862	0.497	neutral	Picture	52.211	n/a	2	5	14	n/a	94	15	1	n/a	n/a	n/a	n/a	192.191	AF25NES.jpg
162.359	0.514	Blank	Blank	51.697	n/a	2	5	14	n/a	94	n/a	1	n/a	n/a	n/a	n/a	192.688	n/a
162.89	0.497	neutral	Picture	51.183	n/a	2	5	15	n/a	95	37	1	n/a	n/a	n/a	n/a	193.219	BM25NES.jpg
163.387	0.514	Blank	Blank	50.669	n/a	2	5	15	n/a	95	n/a	1	n/a	n/a	n/a	n/a	193.716	n/a
163.918	0.497	neutral	Picture	50.155	n/a	2	5	16	n/a	96	32	1	n/a	n/a	n/a	n/a	194.246	AM14NES.jpg
164.415	0.514	Blank	Blank	49.642	n/a	2	5	16	n/a	96	n/a	1	n/a	n/a	n/a	n/a	194.744	n/a
164.946	0.497	neutral	Picture	49.127	n/a	2	5	17	n/a	97	3	1	n/a	n/a	n/a	n/a	195.274	BF04NES.jpg
165.443	0.514	Blank	Blank	48.614	n/a	2	5	17	n/a	97	n/a	1	n/a	n/a	n/a	n/a	195.772	n/a
165.974	0.497	neutral	Picture	48.1	n/a	2	5	18	n/a	98	16	1	n/a	n/a	n/a	n/a	196.302	AF26NES.jpg
166.471	0.514	Blank	Blank	47.586	n/a	2	5	18	n/a	98	n/a	1	n/a	n/a	n/a	n/a	196.8	n/a
167.001	0.497	neutral	Picture	47.072	n/a	2	5	19	n/a	99	27	1	n/a	n/a	n/a	n/a	197.33	BM08NES.jpg
167.499	0.514	Blank	Blank	46.558	n/a	2	5	19	n/a	99	n/a	1	n/a	n/a	n/a	n/a	197.827	n/a
168.029	0.497	neutral	Picture	46.044	n/a	2	5	20	n/a	100	28	1	n/a	n/a	n/a	n/a	198.358	AM09NES.jpg
168.527	0.514	Blank	Blank	45.53	n/a	2	5	20	n/a	100	n/a	1	n/a	n/a	n/a	n/a	198.855	n/a
169.057	10.014	ITI	Fixation+	35.5	n/a	2	n/a	n/a	n/a	n/a	n/a	n/a	n/a	n/a	n/a	n/a	199.386	n/a
179.087	0.497	angry	Picture	34.986	n/a	2	6	1	n/a	101	81	3	n/a	n/a	n/a	n/a	209.416	AF01ANS.jpg
179.584	0.514	Blank	Blank	34.472	n/a	2	6	1	n/a	101	n/a	3	n/a	n/a	n/a	n/a	209.913	n/a
180.115	0.497	angry	Picture	33.958	n/a	2	6	2	n/a	102	120	3	n/a	n/a	n/a	n/a	210.444	AM35ANS.jpg
180.612	0.514	Blank	Blank	33.444	n/a	2	6	2	n/a	102	n/a	3	n/a	n/a	n/a	n/a	210.941	n/a
181.143	0.497	angry	Picture	32.93	n/a	2	6	3	n/a	103	114	3	n/a	n/a	n/a	n/a	211.472	AM22ANS.jpg
181.64	0.514	Blank	Blank	32.416	n/a	2	6	3	n/a	103	n/a	3	n/a	n/a	n/a	n/a	211.969	n/a
182.171	0.497	angry	Picture	31.902	n/a	2	6	4	n/a	104	109	3	n/a	n/a	n/a	n/a	212.5	AM10ANS.jpg
182.668	0.514	Blank	Blank	31.388	n/a	2	6	4	n/a	104	n/a	3	n/a	n/a	n/a	n/a	212.997	n/a
183.199	0.497	angry	Picture	30.874	n/a	2	6	5	n/a	105	96	3	n/a	n/a	n/a	n/a	213.527	AF26ANS.jpg
183.696	0.514	Blank	Blank	30.361	n/a	2	6	5	n/a	105	n/a	3	n/a	n/a	n/a	n/a	214.025	n/a
184.227	0.497	angry	Picture	29.847	n/a	2	6	6	n/a	106	82	3	n/a	n/a	n/a	n/a	214.555	AF03ANS.jpg
184.724	0.514	Blank	Blank	29.333	n/a	2	6	6	n/a	106	n/a	3	n/a	n/a	n/a	n/a	215.053	n/a
185.254	0.497	angry	Picture	28.819	n/a	2	6	7	n/a	107	97	3	n/a	n/a	n/a	n/a	215.583	BF28ANS.jpg
185.752	0.514	Blank	Blank	28.305	n/a	2	6	7	n/a	107	n/a	3	n/a	n/a	n/a	n/a	216.081	n/a
186.282	0.497	angry	Picture	27.791	n/a	2	6	8	n/a	108	115	3	n/a	n/a	n/a	n/a	216.611	AM23ANS.jpg
186.78	0.514	Blank	Blank	27.277	n/a	2	6	8	n/a	108	n/a	3	n/a	n/a	n/a	n/a	217.108	n/a
187.31	0.497	angry	Picture	26.763	n/a	2	6	9	n/a	109	91	3	n/a	n/a	n/a	n/a	217.639	AF20ANS.jpg
187.808	0.514	Blank	Blank	26.249	n/a	2	6	9	n/a	109	n/a	3	n/a	n/a	n/a	n/a	218.136	n/a
188.338	0.497	angry	Picture	25.735	n/a	2	6	10	n/a	110	87	3	n/a	n/a	n/a	n/a	218.667	BF11ANS.jpg
188.835	0.514	Blank	Blank	25.221	n/a	2	6	10	n/a	110	n/a	3	n/a	n/a	n/a	n/a	219.164	n/a
189.366	0.497	angry	Picture	24.707	n/a	2	6	11	n/a	111	85	3	n/a	n/a	n/a	n/a	219.695	BF07ANS.jpg
189.863	0.514	Blank	Blank	24.193	n/a	2	6	11	n/a	111	n/a	3	n/a	n/a	n/a	n/a	220.192	n/a
190.394	0.497	angry	Picture	23.679	n/a	2	6	12	n/a	112	110	3	n/a	n/a	n/a	n/a	220.722	AM11ANS.jpg
190.891	0.514	Blank	Blank	23.165	n/a	2	6	12	n/a	112	n/a	3	n/a	n/a	n/a	n/a	221.22	n/a
191.422	0.497	angry	Picture	22.651	n/a	2	6	13	n/a	113	111	3	n/a	n/a	n/a	n/a	221.75	BM12ANS.jpg
191.919	0.514	Blank	Blank	22.137	n/a	2	6	13	n/a	113	n/a	3	n/a	n/a	n/a	n/a	222.248	n/a
192.45	0.497	angry	Picture	21.624	n/a	2	6	14	n/a	114	103	3	n/a	n/a	n/a	n/a	222.778	AM04ANS.jpg
192.947	0.514	Blank	Blank	21.11	n/a	2	6	14	n/a	114	n/a	3	n/a	n/a	n/a	n/a	223.276	n/a
193.477	0.497	angry	Picture	20.596	n/a	2	6	15	n/a	115	101	3	n/a	n/a	n/a	n/a	223.806	AM01ANS.jpg
193.975	0.514	Blank	Blank	20.082	n/a	2	6	15	n/a	115	n/a	3	n/a	n/a	n/a	n/a	224.304	n/a
194.505	0.497	angry	Picture	19.568	n/a	2	6	16	n/a	116	104	3	n/a	n/a	n/a	n/a	224.834	BM05ANS.jpg
195.003	0.514	Blank	Blank	19.054	n/a	2	6	16	n/a	116	n/a	3	n/a	n/a	n/a	n/a	225.331	n/a
195.533	0.497	angry	Picture	18.54	n/a	2	6	17	n/a	117	107	3	n/a	n/a	n/a	n/a	225.862	BM08ANS.jpg
196.031	0.514	Blank	Blank	18.026	n/a	2	6	17	n/a	117	n/a	3	n/a	n/a	n/a	n/a	226.359	n/a
196.561	0.497	angry	Picture	17.512	n/a	2	6	18	n/a	118	98	3	n/a	n/a	n/a	n/a	226.89	BF29ANS.jpg
197.058	0.514	Blank	Blank	16.998	n/a	2	6	18	n/a	118	n/a	3	n/a	n/a	n/a	n/a	227.387	n/a
197.589	0.497	angry	Picture	16.484	n/a	2	6	19	n/a	119	99	3	n/a	n/a	n/a	n/a	227.918	AF31ANS.jpg
198.086	0.514	Blank	Blank	15.97	n/a	2	6	19	n/a	119	n/a	3	n/a	n/a	n/a	n/a	228.415	n/a
198.617	0.497	angry	Picture	15.456	n/a	2	6	20	n/a	120	108	3	n/a	n/a	n/a	n/a	228.946	AM09ANS.jpg
199.114	0.514	Blank	Blank	14.942	n/a	2	6	20	n/a	120	n/a	3	n/a	n/a	n/a	n/a	229.443	n/a
199.645	10.014	ITI	Fixation+	4.912	n/a	2	n/a	n/a	n/a	n/a	n/a	n/a	n/a	n/a	n/a	n/a	229.973	n/a
214.571	n/a	ConfirmRating	Rate	n/a	4.907	2	n/a	n/a	0	n/a	n/a	n/a	2	Angry	86	53	244.899	n/a
217.399	n/a	ConfirmRating	Rate	n/a	2.802	2	n/a	n/a	1	n/a	n/a	n/a	3	Angry	9	47	247.728	n/a
217.417	15.004	Rest	Picture	n/a	n/a	n/a	n/a	n/a	n/a	n/a	n/a	n/a	0	n/a	0	0	247.746	n/a
232.437	10.014	ITI	Fixation+	105.205	n/a	3	n/a	n/a	n/a	n/a	n/a	n/a	n/a	n/a	n/a	n/a	262.766	n/a
242.467	0.497	happy	Picture	104.691	n/a	3	7	1	n/a	1	46	2	n/a	n/a	n/a	n/a	272.796	AF09HAS.jpg
242.965	0.514	Blank	Blank	104.177	n/a	3	7	1	n/a	1	n/a	2	n/a	n/a	n/a	n/a	273.293	n/a
243.495	0.497	happy	Picture	103.663	n/a	3	7	2	n/a	2	69	2	n/a	n/a	n/a	n/a	273.824	AM10HAS.jpg
243.992	0.514	Blank	Blank	103.149	n/a	3	7	2	n/a	2	n/a	2	n/a	n/a	n/a	n/a	274.321	n/a
244.523	0.497	happy	Picture	102.635	n/a	3	7	3	n/a	3	71	2	n/a	n/a	n/a	n/a	274.852	BM12HAS.jpg
245.02	0.514	Blank	Blank	102.121	n/a	3	7	3	n/a	3	n/a	2	n/a	n/a	n/a	n/a	275.349	n/a
245.551	0.497	happy	Picture	101.607	n/a	3	7	4	n/a	4	51	2	n/a	n/a	n/a	n/a	275.88	AF20HAS.jpg
246.048	0.514	Blank	Blank	101.093	n/a	3	7	4	n/a	4	n/a	2	n/a	n/a	n/a	n/a	276.377	n/a
246.579	0.497	happy	Picture	100.579	n/a	3	7	5	n/a	5	67	2	n/a	n/a	n/a	n/a	276.908	BM08HAS.jpg
247.076	0.514	Blank	Blank	100.065	n/a	3	7	5	n/a	5	n/a	2	n/a	n/a	n/a	n/a	277.405	n/a
247.607	0.497	happy	Picture	99.551	n/a	3	7	6	n/a	6	60	2	n/a	n/a	n/a	n/a	277.935	AF32HAS.jpg
248.104	0.514	Blank	Blank	99.037	n/a	3	7	6	n/a	6	n/a	2	n/a	n/a	n/a	n/a	278.433	n/a
248.634	0.497	happy	Picture	98.524	n/a	3	7	7	n/a	7	42	2	n/a	n/a	n/a	n/a	278.963	AF03HAS.jpg
249.132	0.514	Blank	Blank	98.01	n/a	3	7	7	n/a	7	n/a	2	n/a	n/a	n/a	n/a	279.461	n/a
249.662	0.497	happy	Picture	97.496	n/a	3	7	8	n/a	8	55	2	n/a	n/a	n/a	n/a	279.991	AF25HAS.jpg
250.16	0.514	Blank	Blank	96.982	n/a	3	7	8	n/a	8	n/a	2	n/a	n/a	n/a	n/a	280.488	n/a
250.69	0.497	happy	Picture	96.468	n/a	3	7	9	n/a	9	72	2	n/a	n/a	n/a	n/a	281.019	AM14HAS.jpg
251.188	0.514	Blank	Blank	95.954	n/a	3	7	9	n/a	9	n/a	2	n/a	n/a	n/a	n/a	281.516	n/a
251.718	0.497	happy	Picture	95.44	n/a	3	7	10	n/a	10	63	2	n/a	n/a	n/a	n/a	282.047	AM04HAS.jpg
252.215	0.514	Blank	Blank	94.926	n/a	3	7	10	n/a	10	n/a	2	n/a	n/a	n/a	n/a	282.544	n/a
252.746	0.497	happy	Picture	94.412	n/a	3	7	11	n/a	11	58	2	n/a	n/a	n/a	n/a	283.075	BF29HAS.jpg
253.243	0.514	Blank	Blank	93.898	n/a	3	7	11	n/a	11	n/a	2	n/a	n/a	n/a	n/a	283.572	n/a
253.774	0.497	happy	Picture	93.384	n/a	3	7	12	n/a	12	48	2	n/a	n/a	n/a	n/a	284.103	AF14HAS.jpg
254.271	0.514	Blank	Blank	92.87	n/a	3	7	12	n/a	12	n/a	2	n/a	n/a	n/a	n/a	284.6	n/a
254.802	0.497	happy	Picture	92.356	n/a	3	7	13	n/a	13	66	2	n/a	n/a	n/a	n/a	285.13	BM07HAS.jpg
255.299	0.514	Blank	Blank	91.842	n/a	3	7	13	n/a	13	n/a	2	n/a	n/a	n/a	n/a	285.628	n/a
255.83	0.497	happy	Picture	91.328	n/a	3	7	14	n/a	14	70	2	n/a	n/a	n/a	n/a	286.158	BM11HAS.jpg
256.327	0.514	Blank	Blank	90.814	n/a	3	7	14	n/a	14	n/a	2	n/a	n/a	n/a	n/a	286.656	n/a
256.857	0.497	happy	Picture	90.301	n/a	3	7	15	n/a	15	43	2	n/a	n/a	n/a	n/a	287.186	BF04HAS.jpg
257.355	0.514	Blank	Blank	89.787	n/a	3	7	15	n/a	15	n/a	2	n/a	n/a	n/a	n/a	287.684	n/a
257.885	0.497	happy	Picture	89.273	n/a	3	7	16	n/a	16	49	2	n/a	n/a	n/a	n/a	288.214	AF17HAS.jpg
258.383	0.514	Blank	Blank	88.759	n/a	3	7	16	n/a	16	n/a	2	n/a	n/a	n/a	n/a	288.712	n/a
258.913	0.497	happy	Picture	88.245	n/a	3	7	17	n/a	17	75	2	n/a	n/a	n/a	n/a	289.242	AM23HAS.jpg
259.411	0.514	Blank	Blank	87.731	n/a	3	7	17	n/a	17	n/a	2	n/a	n/a	n/a	n/a	289.739	n/a
259.941	0.497	happy	Picture	87.217	n/a	3	7	18	n/a	18	80	2	n/a	n/a	n/a	n/a	290.27	BM35HAS.jpg
260.438	0.514	Blank	Blank	86.703	n/a	3	7	18	n/a	18	n/a	2	n/a	n/a	n/a	n/a	290.767	n/a
260.969	0.497	happy	Picture	86.189	n/a	3	7	19	n/a	19	76	2	n/a	n/a	n/a	n/a	291.298	BM24HAS.jpg
261.466	0.514	Blank	Blank	85.675	n/a	3	7	19	n/a	19	n/a	2	n/a	n/a	n/a	n/a	291.795	n/a
261.997	0.497	happy	Picture	85.161	n/a	3	7	20	n/a	20	74	2	n/a	n/a	n/a	n/a	292.326	AM22HAS.jpg
262.494	0.514	Blank	Blank	84.647	n/a	3	7	20	n/a	20	n/a	2	n/a	n/a	n/a	n/a	292.823	n/a
263.025	10.014	ITI	Fixation+	74.617	n/a	3	n/a	n/a	n/a	n/a	n/a	n/a	n/a	n/a	n/a	n/a	293.353	n/a
273.055	0.497	neutral	Picture	74.103	n/a	3	8	1	n/a	21	33	1	n/a	n/a	n/a	n/a	303.384	AM21NES.jpg
273.552	0.514	Blank	Blank	73.589	n/a	3	8	1	n/a	21	n/a	1	n/a	n/a	n/a	n/a	303.881	n/a
274.083	0.497	neutral	Picture	73.075	n/a	3	8	2	n/a	22	39	1	n/a	n/a	n/a	n/a	304.411	AM28NES.jpg
274.58	0.514	Blank	Blank	72.562	n/a	3	8	2	n/a	22	n/a	1	n/a	n/a	n/a	n/a	304.909	n/a
275.111	0.497	neutral	Picture	72.047	n/a	3	8	3	n/a	23	25	1	n/a	n/a	n/a	n/a	305.439	BM06NES.jpg
275.608	0.514	Blank	Blank	71.534	n/a	3	8	3	n/a	23	n/a	1	n/a	n/a	n/a	n/a	305.937	n/a
276.138	0.497	neutral	Picture	71.02	n/a	3	8	4	n/a	24	5	1	n/a	n/a	n/a	n/a	306.467	BF07NES.jpg
276.636	0.514	Blank	Blank	70.506	n/a	3	8	4	n/a	24	n/a	1	n/a	n/a	n/a	n/a	306.964	n/a
277.166	0.497	neutral	Picture	69.992	n/a	3	8	5	n/a	25	10	1	n/a	n/a	n/a	n/a	307.495	AF18NES.jpg
277.664	0.514	Blank	Blank	69.478	n/a	3	8	5	n/a	25	n/a	1	n/a	n/a	n/a	n/a	307.992	n/a
278.194	0.497	neutral	Picture	68.964	n/a	3	8	6	n/a	26	34	1	n/a	n/a	n/a	n/a	308.523	AM22NES.jpg
278.692	0.514	Blank	Blank	68.45	n/a	3	8	6	n/a	26	n/a	1	n/a	n/a	n/a	n/a	309.02	n/a
279.222	0.497	neutral	Picture	67.936	n/a	3	8	7	n/a	27	36	1	n/a	n/a	n/a	n/a	309.551	BM24NES.jpg
279.719	0.514	Blank	Blank	67.422	n/a	3	8	7	n/a	27	n/a	1	n/a	n/a	n/a	n/a	310.048	n/a
280.25	0.497	neutral	Picture	66.908	n/a	3	8	8	n/a	28	14	1	n/a	n/a	n/a	n/a	310.579	AF23NES.jpg
280.747	0.514	Blank	Blank	66.394	n/a	3	8	8	n/a	28	n/a	1	n/a	n/a	n/a	n/a	311.076	n/a
281.278	0.497	neutral	Picture	65.88	n/a	3	8	9	n/a	29	9	1	n/a	n/a	n/a	n/a	311.607	AF17NES.jpg
281.775	0.514	Blank	Blank	65.366	n/a	3	8	9	n/a	29	n/a	1	n/a	n/a	n/a	n/a	312.104	n/a
282.306	0.497	neutral	Picture	64.852	n/a	3	8	10	n/a	30	19	1	n/a	n/a	n/a	n/a	312.634	AF31NES.jpg
282.803	0.514	Blank	Blank	64.339	n/a	3	8	10	n/a	30	n/a	1	n/a	n/a	n/a	n/a	313.132	n/a
283.334	0.497	neutral	Picture	63.824	n/a	3	8	11	n/a	31	15	1	n/a	n/a	n/a	n/a	313.662	AF25NES.jpg
283.831	0.514	Blank	Blank	63.311	n/a	3	8	11	n/a	31	n/a	1	n/a	n/a	n/a	n/a	314.16	n/a
284.361	0.497	neutral	Picture	62.797	n/a	3	8	12	n/a	32	22	1	n/a	n/a	n/a	n/a	314.69	BM03NES.jpg
284.859	0.514	Blank	Blank	62.283	n/a	3	8	12	n/a	32	n/a	1	n/a	n/a	n/a	n/a	315.188	n/a
285.389	0.497	neutral	Picture	61.769	n/a	3	8	13	n/a	33	11	1	n/a	n/a	n/a	n/a	315.718	AF20NES.jpg
285.887	0.514	Blank	Blank	61.255	n/a	3	8	13	n/a	33	n/a	1	n/a	n/a	n/a	n/a	316.215	n/a
286.417	0.497	neutral	Picture	60.741	n/a	3	8	14	n/a	34	4	1	n/a	n/a	n/a	n/a	316.746	AF05NES.jpg
286.915	0.514	Blank	Blank	60.227	n/a	3	8	14	n/a	34	n/a	1	n/a	n/a	n/a	n/a	317.243	n/a
287.445	0.497	neutral	Picture	59.713	n/a	3	8	15	n/a	35	17	1	n/a	n/a	n/a	n/a	317.774	BF28NES.jpg
287.942	0.514	Blank	Blank	59.199	n/a	3	8	15	n/a	35	n/a	1	n/a	n/a	n/a	n/a	318.271	n/a
288.473	0.497	neutral	Picture	58.685	n/a	3	8	16	n/a	36	13	1	n/a	n/a	n/a	n/a	318.802	BF22NES.jpg
288.97	0.514	Blank	Blank	58.171	n/a	3	8	16	n/a	36	n/a	1	n/a	n/a	n/a	n/a	319.299	n/a
289.501	0.497	neutral	Picture	57.657	n/a	3	8	17	n/a	37	12	1	n/a	n/a	n/a	n/a	319.83	AF21NES.jpg
289.998	0.514	Blank	Blank	57.143	n/a	3	8	17	n/a	37	n/a	1	n/a	n/a	n/a	n/a	320.327	n/a
290.529	0.497	neutral	Picture	56.629	n/a	3	8	18	n/a	38	24	1	n/a	n/a	n/a	n/a	320.857	BM05NES.jpg
291.026	0.514	Blank	Blank	56.115	n/a	3	8	18	n/a	38	n/a	1	n/a	n/a	n/a	n/a	321.355	n/a
291.557	0.497	neutral	Picture	55.601	n/a	3	8	19	n/a	39	29	1	n/a	n/a	n/a	n/a	321.885	AM10NES.jpg
292.054	0.514	Blank	Blank	55.088	n/a	3	8	19	n/a	39	n/a	1	n/a	n/a	n/a	n/a	322.383	n/a
292.584	0.497	neutral	Picture	54.574	n/a	3	8	20	n/a	40	23	1	n/a	n/a	n/a	n/a	322.913	AM04NES.jpg
293.082	0.514	Blank	Blank	54.06	n/a	3	8	20	n/a	40	n/a	1	n/a	n/a	n/a	n/a	323.411	n/a
293.612	10.014	ITI	Fixation+	44.03	n/a	3	n/a	n/a	n/a	n/a	n/a	n/a	n/a	n/a	n/a	n/a	323.941	n/a
303.642	0.497	happy	Picture	43.516	n/a	3	9	1	n/a	41	62	2	n/a	n/a	n/a	n/a	333.971	BM03HAS.jpg
304.14	0.514	Blank	Blank	43.002	n/a	3	9	1	n/a	41	n/a	2	n/a	n/a	n/a	n/a	334.469	n/a
304.67	0.497	happy	Picture	42.488	n/a	3	9	2	n/a	42	52	2	n/a	n/a	n/a	n/a	334.999	AF21HAS.jpg
305.168	0.514	Blank	Blank	41.974	n/a	3	9	2	n/a	42	n/a	2	n/a	n/a	n/a	n/a	335.496	n/a
305.698	0.497	happy	Picture	41.46	n/a	3	9	3	n/a	43	44	2	n/a	n/a	n/a	n/a	336.027	AF05HAS.jpg
306.195	0.514	Blank	Blank	40.946	n/a	3	9	3	n/a	43	n/a	2	n/a	n/a	n/a	n/a	336.524	n/a
306.726	0.497	happy	Picture	40.432	n/a	3	9	4	n/a	44	53	2	n/a	n/a	n/a	n/a	337.055	BF22HAS.jpg
307.223	0.514	Blank	Blank	39.918	n/a	3	9	4	n/a	44	n/a	2	n/a	n/a	n/a	n/a	337.552	n/a
307.754	0.497	happy	Picture	39.404	n/a	3	9	5	n/a	45	54	2	n/a	n/a	n/a	n/a	338.083	AF23HAS.jpg
308.251	0.514	Blank	Blank	38.89	n/a	3	9	5	n/a	45	n/a	2	n/a	n/a	n/a	n/a	338.58	n/a
308.782	0.497	happy	Picture	38.376	n/a	3	9	6	n/a	46	68	2	n/a	n/a	n/a	n/a	339.111	AM09HAS.jpg
309.279	0.514	Blank	Blank	37.862	n/a	3	9	6	n/a	46	n/a	2	n/a	n/a	n/a	n/a	339.608	n/a
309.81	0.497	happy	Picture	37.349	n/a	3	9	7	n/a	47	64	2	n/a	n/a	n/a	n/a	340.138	BM05HAS.jpg
310.307	0.514	Blank	Blank	36.834	n/a	3	9	7	n/a	47	n/a	2	n/a	n/a	n/a	n/a	340.636	n/a
310.838	0.497	happy	Picture	36.321	n/a	3	9	8	n/a	48	59	2	n/a	n/a	n/a	n/a	341.166	AF31HAS.jpg
311.335	0.514	Blank	Blank	35.807	n/a	3	9	8	n/a	48	n/a	2	n/a	n/a	n/a	n/a	341.664	n/a
311.865	0.497	happy	Picture	35.293	n/a	3	9	9	n/a	49	41	2	n/a	n/a	n/a	n/a	342.194	AF01HAS.jpg
312.363	0.514	Blank	Blank	34.779	n/a	3	9	9	n/a	49	n/a	2	n/a	n/a	n/a	n/a	342.692	n/a
312.893	0.497	happy	Picture	34.265	n/a	3	9	10	n/a	50	73	2	n/a	n/a	n/a	n/a	343.222	AM21HAS.jpg
313.391	0.514	Blank	Blank	33.751	n/a	3	9	10	n/a	50	n/a	2	n/a	n/a	n/a	n/a	343.719	n/a
313.921	0.497	happy	Picture	33.237	n/a	3	9	11	n/a	51	65	2	n/a	n/a	n/a	n/a	344.25	BM06HAS.jpg
314.418	0.514	Blank	Blank	32.723	n/a	3	9	11	n/a	51	n/a	2	n/a	n/a	n/a	n/a	344.747	n/a
314.949	0.497	happy	Picture	32.209	n/a	3	9	12	n/a	52	56	2	n/a	n/a	n/a	n/a	345.278	AF26HAS.jpg
315.446	0.514	Blank	Blank	31.695	n/a	3	9	12	n/a	52	n/a	2	n/a	n/a	n/a	n/a	345.775	n/a
315.977	0.497	happy	Picture	31.181	n/a	3	9	13	n/a	53	45	2	n/a	n/a	n/a	n/a	346.306	BF07HAS.jpg
316.474	0.514	Blank	Blank	30.667	n/a	3	9	13	n/a	53	n/a	2	n/a	n/a	n/a	n/a	346.803	n/a
317.005	0.497	happy	Picture	30.153	n/a	3	9	14	n/a	54	78	2	n/a	n/a	n/a	n/a	347.334	BM26HAS.jpg
317.502	0.514	Blank	Blank	29.639	n/a	3	9	14	n/a	54	n/a	2	n/a	n/a	n/a	n/a	347.831	n/a
318.033	0.497	happy	Picture	29.125	n/a	3	9	15	n/a	55	50	2	n/a	n/a	n/a	n/a	348.361	AF18HAS.jpg
318.53	0.514	Blank	Blank	28.611	n/a	3	9	15	n/a	55	n/a	2	n/a	n/a	n/a	n/a	348.859	n/a
319.061	0.497	happy	Picture	28.098	n/a	3	9	16	n/a	56	47	2	n/a	n/a	n/a	n/a	349.389	BF11HAS.jpg
319.558	0.514	Blank	Blank	27.584	n/a	3	9	16	n/a	56	n/a	2	n/a	n/a	n/a	n/a	349.887	n/a
320.088	0.497	happy	Picture	27.07	n/a	3	9	17	n/a	57	77	2	n/a	n/a	n/a	n/a	350.417	BM25HAS.jpg
320.586	0.514	Blank	Blank	26.556	n/a	3	9	17	n/a	57	n/a	2	n/a	n/a	n/a	n/a	350.914	n/a
321.116	0.497	happy	Picture	26.042	n/a	3	9	18	n/a	58	57	2	n/a	n/a	n/a	n/a	351.445	BF28HAS.jpg
321.614	0.514	Blank	Blank	25.528	n/a	3	9	18	n/a	58	n/a	2	n/a	n/a	n/a	n/a	351.942	n/a
322.144	0.497	happy	Picture	25.014	n/a	3	9	19	n/a	59	61	2	n/a	n/a	n/a	n/a	352.473	AM01HAS.jpg
322.641	0.514	Blank	Blank	24.5	n/a	3	9	19	n/a	59	n/a	2	n/a	n/a	n/a	n/a	352.97	n/a
323.172	0.497	happy	Picture	23.986	n/a	3	9	20	n/a	60	79	2	n/a	n/a	n/a	n/a	353.501	BM28HAS.jpg
323.669	0.514	Blank	Blank	23.472	n/a	3	9	20	n/a	60	n/a	2	n/a	n/a	n/a	n/a	353.998	n/a
324.2	10.014	ITI	Fixation+	13.442	n/a	3	n/a	n/a	n/a	n/a	n/a	n/a	n/a	n/a	n/a	n/a	354.529	n/a
347.655	n/a	ConfirmRating	Rate	n/a	13.429	3	n/a	n/a	0	n/a	n/a	n/a	2	Happy	69	53	377.984	n/a
349.746	n/a	ConfirmRating	Rate	n/a	2.072	3	n/a	n/a	1	n/a	n/a	n/a	3	Happy	21	46	380.075	n/a
349.764	10.014	ITI	Fixation+	94.487	n/a	4	n/a	n/a	n/a	n/a	n/a	n/a	n/a	n/a	n/a	n/a	380.093	n/a
359.794	0.497	angry	Picture	93.974	n/a	4	10	1	n/a	61	119	3	n/a	n/a	n/a	n/a	390.123	BM28ANS.jpg
360.292	0.514	Blank	Blank	93.46	n/a	4	10	1	n/a	61	n/a	3	n/a	n/a	n/a	n/a	390.62	n/a
360.822	0.497	angry	Picture	92.946	n/a	4	10	2	n/a	62	100	3	n/a	n/a	n/a	n/a	391.151	AF32ANS.jpg
361.319	0.514	Blank	Blank	92.432	n/a	4	10	2	n/a	62	n/a	3	n/a	n/a	n/a	n/a	391.648	n/a
361.85	0.497	angry	Picture	91.918	n/a	4	10	3	n/a	63	118	3	n/a	n/a	n/a	n/a	392.179	BM26ANS.jpg
362.347	0.514	Blank	Blank	91.404	n/a	4	10	3	n/a	63	n/a	3	n/a	n/a	n/a	n/a	392.676	n/a
362.878	0.497	angry	Picture	90.89	n/a	4	10	4	n/a	64	89	3	n/a	n/a	n/a	n/a	393.207	AF17ANS.jpg
363.375	0.514	Blank	Blank	90.376	n/a	4	10	4	n/a	64	n/a	3	n/a	n/a	n/a	n/a	393.704	n/a
363.906	0.497	angry	Picture	89.862	n/a	4	10	5	n/a	65	116	3	n/a	n/a	n/a	n/a	394.235	BM24ANS.jpg
364.403	0.514	Blank	Blank	89.348	n/a	4	10	5	n/a	65	n/a	3	n/a	n/a	n/a	n/a	394.732	n/a
364.934	0.497	angry	Picture	88.834	n/a	4	10	6	n/a	66	105	3	n/a	n/a	n/a	n/a	395.262	BM06ANS.jpg
365.431	0.514	Blank	Blank	88.32	n/a	4	10	6	n/a	66	n/a	3	n/a	n/a	n/a	n/a	395.76	n/a
365.962	0.497	angry	Picture	87.806	n/a	4	10	7	n/a	67	106	3	n/a	n/a	n/a	n/a	396.29	AM07ANS.jpg
366.459	0.514	Blank	Blank	87.292	n/a	4	10	7	n/a	67	n/a	3	n/a	n/a	n/a	n/a	396.788	n/a
366.989	0.497	angry	Picture	86.778	n/a	4	10	8	n/a	68	94	3	n/a	n/a	n/a	n/a	397.318	AF23ANS.jpg
367.487	0.514	Blank	Blank	86.264	n/a	4	10	8	n/a	68	n/a	3	n/a	n/a	n/a	n/a	397.815	n/a
368.017	0.497	angry	Picture	85.75	n/a	4	10	9	n/a	69	117	3	n/a	n/a	n/a	n/a	398.346	BM25ANS.jpg
368.515	0.514	Blank	Blank	85.237	n/a	4	10	9	n/a	69	n/a	3	n/a	n/a	n/a	n/a	398.843	n/a
369.045	0.497	angry	Picture	84.723	n/a	4	10	10	n/a	70	90	3	n/a	n/a	n/a	n/a	399.374	AF18ANS.jpg
369.542	0.514	Blank	Blank	84.209	n/a	4	10	10	n/a	70	n/a	3	n/a	n/a	n/a	n/a	399.871	n/a
370.073	0.497	angry	Picture	83.695	n/a	4	10	11	n/a	71	83	3	n/a	n/a	n/a	n/a	400.402	BF04ANS.jpg
370.57	0.514	Blank	Blank	83.181	n/a	4	10	11	n/a	71	n/a	3	n/a	n/a	n/a	n/a	400.899	n/a
371.101	0.497	angry	Picture	82.667	n/a	4	10	12	n/a	72	112	3	n/a	n/a	n/a	n/a	401.43	AM14ANS.jpg
371.598	0.514	Blank	Blank	82.153	n/a	4	10	12	n/a	72	n/a	3	n/a	n/a	n/a	n/a	401.927	n/a
372.129	0.497	angry	Picture	81.639	n/a	4	10	13	n/a	73	102	3	n/a	n/a	n/a	n/a	402.457	BM03ANS.jpg
372.626	0.514	Blank	Blank	81.125	n/a	4	10	13	n/a	73	n/a	3	n/a	n/a	n/a	n/a	402.955	n/a
373.157	0.497	angry	Picture	80.611	n/a	4	10	14	n/a	74	95	3	n/a	n/a	n/a	n/a	403.485	AF25ANS.jpg
373.654	0.514	Blank	Blank	80.097	n/a	4	10	14	n/a	74	n/a	3	n/a	n/a	n/a	n/a	403.983	n/a
374.184	0.497	angry	Picture	79.583	n/a	4	10	15	n/a	75	113	3	n/a	n/a	n/a	n/a	404.513	AM21ANS.jpg
374.682	0.514	Blank	Blank	79.069	n/a	4	10	15	n/a	75	n/a	3	n/a	n/a	n/a	n/a	405.011	n/a
375.212	0.497	angry	Picture	78.555	n/a	4	10	16	n/a	76	88	3	n/a	n/a	n/a	n/a	405.541	AF14ANS.jpg
375.71	0.514	Blank	Blank	78.041	n/a	4	10	16	n/a	76	n/a	3	n/a	n/a	n/a	n/a	406.038	n/a
376.24	0.497	angry	Picture	77.527	n/a	4	10	17	n/a	77	93	3	n/a	n/a	n/a	n/a	406.569	BF22ANS.jpg
376.738	0.514	Blank	Blank	77.014	n/a	4	10	17	n/a	77	n/a	3	n/a	n/a	n/a	n/a	407.066	n/a
377.268	0.497	angry	Picture	76.5	n/a	4	10	18	n/a	78	86	3	n/a	n/a	n/a	n/a	407.597	AF09ANS.jpg
377.765	0.514	Blank	Blank	75.986	n/a	4	10	18	n/a	78	n/a	3	n/a	n/a	n/a	n/a	408.094	n/a
378.296	0.497	angry	Picture	75.472	n/a	4	10	19	n/a	79	92	3	n/a	n/a	n/a	n/a	408.625	AF21ANS.jpg
378.793	0.514	Blank	Blank	74.958	n/a	4	10	19	n/a	79	n/a	3	n/a	n/a	n/a	n/a	409.122	n/a
379.324	0.497	angry	Picture	74.444	n/a	4	10	20	n/a	80	84	3	n/a	n/a	n/a	n/a	409.653	AF05ANS.jpg
379.821	0.514	Blank	Blank	73.93	n/a	4	10	20	n/a	80	n/a	3	n/a	n/a	n/a	n/a	410.15	n/a
380.352	10.013	ITI	Fixation+	63.9	n/a	4	n/a	n/a	n/a	n/a	n/a	n/a	n/a	n/a	n/a	n/a	410.68	n/a
390.382	0.497	neutral	Picture	63.386	n/a	4	11	1	n/a	81	4	1	n/a	n/a	n/a	n/a	420.711	AF05NES.jpg
390.879	0.514	Blank	Blank	62.872	n/a	4	11	1	n/a	81	n/a	1	n/a	n/a	n/a	n/a	421.208	n/a
391.41	0.497	neutral	Picture	62.358	n/a	4	11	2	n/a	82	14	1	n/a	n/a	n/a	n/a	421.738	AF23NES.jpg
391.907	0.514	Blank	Blank	61.844	n/a	4	11	2	n/a	82	n/a	1	n/a	n/a	n/a	n/a	422.236	n/a
392.438	0.497	neutral	Picture	61.33	n/a	4	11	3	n/a	83	19	1	n/a	n/a	n/a	n/a	422.766	AF31NES.jpg
392.935	0.514	Blank	Blank	60.816	n/a	4	11	3	n/a	83	n/a	1	n/a	n/a	n/a	n/a	423.264	n/a
393.465	0.497	neutral	Picture	60.302	n/a	4	11	4	n/a	84	8	1	n/a	n/a	n/a	n/a	423.794	AF14NES.jpg
393.963	0.514	Blank	Blank	59.788	n/a	4	11	4	n/a	84	n/a	1	n/a	n/a	n/a	n/a	424.291	n/a
394.493	0.497	neutral	Picture	59.274	n/a	4	11	5	n/a	85	25	1	n/a	n/a	n/a	n/a	424.822	BM06NES.jpg
394.991	0.514	Blank	Blank	58.761	n/a	4	11	5	n/a	85	n/a	1	n/a	n/a	n/a	n/a	425.319	n/a
395.521	0.497	neutral	Picture	58.246	n/a	4	11	6	n/a	86	9	1	n/a	n/a	n/a	n/a	425.85	AF17NES.jpg
396.019	0.514	Blank	Blank	57.733	n/a	4	11	6	n/a	86	n/a	1	n/a	n/a	n/a	n/a	426.347	n/a
396.549	0.497	neutral	Picture	57.219	n/a	4	11	7	n/a	87	2	1	n/a	n/a	n/a	n/a	426.878	AF03NES.jpg
397.046	0.514	Blank	Blank	56.705	n/a	4	11	7	n/a	87	n/a	1	n/a	n/a	n/a	n/a	427.375	n/a
397.577	0.497	neutral	Picture	56.191	n/a	4	11	8	n/a	88	17	1	n/a	n/a	n/a	n/a	427.906	BF28NES.jpg
398.074	0.514	Blank	Blank	55.677	n/a	4	11	8	n/a	88	n/a	1	n/a	n/a	n/a	n/a	428.403	n/a
398.605	0.497	neutral	Picture	55.163	n/a	4	11	9	n/a	89	6	1	n/a	n/a	n/a	n/a	428.933	AF09NES.jpg
399.102	0.514	Blank	Blank	54.649	n/a	4	11	9	n/a	89	n/a	1	n/a	n/a	n/a	n/a	429.431	n/a
399.633	0.497	neutral	Picture	54.135	n/a	4	11	10	n/a	90	12	1	n/a	n/a	n/a	n/a	429.961	AF21NES.jpg
400.13	0.514	Blank	Blank	53.621	n/a	4	11	10	n/a	90	n/a	1	n/a	n/a	n/a	n/a	430.459	n/a
400.661	0.497	neutral	Picture	53.107	n/a	4	11	11	n/a	91	24	1	n/a	n/a	n/a	n/a	430.989	BM05NES.jpg
401.158	0.514	Blank	Blank	52.593	n/a	4	11	11	n/a	91	n/a	1	n/a	n/a	n/a	n/a	431.487	n/a
401.688	0.497	neutral	Picture	52.079	n/a	4	11	12	n/a	92	34	1	n/a	n/a	n/a	n/a	432.017	AM22NES.jpg
402.186	0.514	Blank	Blank	51.565	n/a	4	11	12	n/a	92	n/a	1	n/a	n/a	n/a	n/a	432.514	n/a
402.716	0.497	neutral	Picture	51.051	n/a	4	11	13	n/a	93	23	1	n/a	n/a	n/a	n/a	433.045	AM04NES.jpg
403.214	0.514	Blank	Blank	50.538	n/a	4	11	13	n/a	93	n/a	1	n/a	n/a	n/a	n/a	433.542	n/a
403.744	0.497	neutral	Picture	50.023	n/a	4	11	14	n/a	94	15	1	n/a	n/a	n/a	n/a	434.073	AF25NES.jpg
404.242	0.514	Blank	Blank	49.51	n/a	4	11	14	n/a	94	n/a	1	n/a	n/a	n/a	n/a	434.57	n/a
404.772	0.497	neutral	Picture	48.996	n/a	4	11	15	n/a	95	37	1	n/a	n/a	n/a	n/a	435.101	BM25NES.jpg
405.269	0.514	Blank	Blank	48.482	n/a	4	11	15	n/a	95	n/a	1	n/a	n/a	n/a	n/a	435.598	n/a
405.8	0.497	neutral	Picture	47.968	n/a	4	11	16	n/a	96	32	1	n/a	n/a	n/a	n/a	436.129	AM14NES.jpg
406.297	0.514	Blank	Blank	47.454	n/a	4	11	16	n/a	96	n/a	1	n/a	n/a	n/a	n/a	436.626	n/a
406.828	0.497	neutral	Picture	46.94	n/a	4	11	17	n/a	97	3	1	n/a	n/a	n/a	n/a	437.156	BF04NES.jpg
407.325	0.514	Blank	Blank	46.426	n/a	4	11	17	n/a	97	n/a	1	n/a	n/a	n/a	n/a	437.654	n/a
407.856	0.497	neutral	Picture	45.912	n/a	4	11	18	n/a	98	16	1	n/a	n/a	n/a	n/a	438.184	AF26NES.jpg
408.353	0.514	Blank	Blank	45.398	n/a	4	11	18	n/a	98	n/a	1	n/a	n/a	n/a	n/a	438.682	n/a
408.884	0.497	neutral	Picture	44.884	n/a	4	11	19	n/a	99	27	1	n/a	n/a	n/a	n/a	439.212	BM08NES.jpg
409.381	0.514	Blank	Blank	44.37	n/a	4	11	19	n/a	99	n/a	1	n/a	n/a	n/a	n/a	439.71	n/a
409.911	0.497	neutral	Picture	43.856	n/a	4	11	20	n/a	100	28	1	n/a	n/a	n/a	n/a	440.24	AM09NES.jpg
410.409	0.514	Blank	Blank	43.342	n/a	4	11	20	n/a	100	n/a	1	n/a	n/a	n/a	n/a	440.738	n/a
410.939	10.014	ITI	Fixation+	33.312	n/a	4	n/a	n/a	n/a	n/a	n/a	n/a	n/a	n/a	n/a	n/a	441.268	n/a
420.969	0.497	angry	Picture	32.798	n/a	4	12	1	n/a	101	81	3	n/a	n/a	n/a	n/a	451.298	AF01ANS.jpg
421.467	0.514	Blank	Blank	32.284	n/a	4	12	1	n/a	101	n/a	3	n/a	n/a	n/a	n/a	451.796	n/a
421.997	0.497	angry	Picture	31.77	n/a	4	12	2	n/a	102	120	3	n/a	n/a	n/a	n/a	452.326	AM35ANS.jpg
422.495	0.514	Blank	Blank	31.256	n/a	4	12	2	n/a	102	n/a	3	n/a	n/a	n/a	n/a	452.823	n/a
423.025	0.497	angry	Picture	30.743	n/a	4	12	3	n/a	103	114	3	n/a	n/a	n/a	n/a	453.354	AM22ANS.jpg
423.522	0.514	Blank	Blank	30.229	n/a	4	12	3	n/a	103	n/a	3	n/a	n/a	n/a	n/a	453.851	n/a
424.053	0.497	angry	Picture	29.715	n/a	4	12	4	n/a	104	109	3	n/a	n/a	n/a	n/a	454.382	AM10ANS.jpg
424.55	0.514	Blank	Blank	29.201	n/a	4	12	4	n/a	104	n/a	3	n/a	n/a	n/a	n/a	454.879	n/a
425.081	0.497	angry	Picture	28.687	n/a	4	12	5	n/a	105	96	3	n/a	n/a	n/a	n/a	455.41	AF26ANS.jpg
425.578	0.514	Blank	Blank	28.173	n/a	4	12	5	n/a	105	n/a	3	n/a	n/a	n/a	n/a	455.907	n/a
426.109	0.497	angry	Picture	27.659	n/a	4	12	6	n/a	106	82	3	n/a	n/a	n/a	n/a	456.438	AF03ANS.jpg
426.606	0.514	Blank	Blank	27.145	n/a	4	12	6	n/a	106	n/a	3	n/a	n/a	n/a	n/a	456.935	n/a
427.137	0.497	angry	Picture	26.631	n/a	4	12	7	n/a	107	97	3	n/a	n/a	n/a	n/a	457.465	BF28ANS.jpg
427.634	0.514	Blank	Blank	26.117	n/a	4	12	7	n/a	107	n/a	3	n/a	n/a	n/a	n/a	457.963	n/a
428.164	0.497	angry	Picture	25.603	n/a	4	12	8	n/a	108	115	3	n/a	n/a	n/a	n/a	458.493	AM23ANS.jpg
428.662	0.514	Blank	Blank	25.089	n/a	4	12	8	n/a	108	n/a	3	n/a	n/a	n/a	n/a	458.991	n/a
429.192	0.497	angry	Picture	24.575	n/a	4	12	9	n/a	109	91	3	n/a	n/a	n/a	n/a	459.521	AF20ANS.jpg
429.69	0.514	Blank	Blank	24.061	n/a	4	12	9	n/a	109	n/a	3	n/a	n/a	n/a	n/a	460.019	n/a
430.22	0.497	angry	Picture	23.548	n/a	4	12	10	n/a	110	87	3	n/a	n/a	n/a	n/a	460.549	BF11ANS.jpg
430.718	0.514	Blank	Blank	23.034	n/a	4	12	10	n/a	110	n/a	3	n/a	n/a	n/a	n/a	461.046	n/a
431.248	0.497	angry	Picture	22.52	n/a	4	12	11	n/a	111	85	3	n/a	n/a	n/a	n/a	461.577	BF07ANS.jpg
431.745	0.514	Blank	Blank	22.006	n/a	4	12	11	n/a	111	n/a	3	n/a	n/a	n/a	n/a	462.074	n/a
432.276	0.497	angry	Picture	21.492	n/a	4	12	12	n/a	112	110	3	n/a	n/a	n/a	n/a	462.605	AM11ANS.jpg
432.773	0.514	Blank	Blank	20.978	n/a	4	12	12	n/a	112	n/a	3	n/a	n/a	n/a	n/a	463.102	n/a
433.304	0.497	angry	Picture	20.464	n/a	4	12	13	n/a	113	111	3	n/a	n/a	n/a	n/a	463.633	BM12ANS.jpg
433.801	0.514	Blank	Blank	19.95	n/a	4	12	13	n/a	113	n/a	3	n/a	n/a	n/a	n/a	464.13	n/a
434.332	0.497	angry	Picture	19.436	n/a	4	12	14	n/a	114	103	3	n/a	n/a	n/a	n/a	464.661	AM04ANS.jpg
434.829	0.514	Blank	Blank	18.922	n/a	4	12	14	n/a	114	n/a	3	n/a	n/a	n/a	n/a	465.158	n/a
435.36	0.497	angry	Picture	18.408	n/a	4	12	15	n/a	115	101	3	n/a	n/a	n/a	n/a	465.688	AM01ANS.jpg
435.857	0.514	Blank	Blank	17.894	n/a	4	12	15	n/a	115	n/a	3	n/a	n/a	n/a	n/a	466.186	n/a
436.387	0.497	angry	Picture	17.38	n/a	4	12	16	n/a	116	104	3	n/a	n/a	n/a	n/a	466.716	BM05ANS.jpg
436.885	0.514	Blank	Blank	16.866	n/a	4	12	16	n/a	116	n/a	3	n/a	n/a	n/a	n/a	467.214	n/a
437.415	0.497	angry	Picture	16.352	n/a	4	12	17	n/a	117	107	3	n/a	n/a	n/a	n/a	467.744	BM08ANS.jpg
437.913	0.514	Blank	Blank	15.838	n/a	4	12	17	n/a	117	n/a	3	n/a	n/a	n/a	n/a	468.241	n/a
438.443	0.497	angry	Picture	15.325	n/a	4	12	18	n/a	118	98	3	n/a	n/a	n/a	n/a	468.772	BF29ANS.jpg
438.941	0.514	Blank	Blank	14.81	n/a	4	12	18	n/a	118	n/a	3	n/a	n/a	n/a	n/a	469.269	n/a
439.471	0.497	angry	Picture	14.297	n/a	4	12	19	n/a	119	99	3	n/a	n/a	n/a	n/a	469.8	AF31ANS.jpg
439.968	0.514	Blank	Blank	13.783	n/a	4	12	19	n/a	119	n/a	3	n/a	n/a	n/a	n/a	470.297	n/a
440.499	0.497	angry	Picture	13.269	n/a	4	12	20	n/a	120	108	3	n/a	n/a	n/a	n/a	470.828	AM09ANS.jpg
440.996	0.514	Blank	Blank	12.755	n/a	4	12	20	n/a	120	n/a	3	n/a	n/a	n/a	n/a	471.325	n/a
441.527	10.014	ITI	Fixation+	2.725	n/a	4	n/a	n/a	n/a	n/a	n/a	n/a	n/a	n/a	n/a	n/a	471.856	n/a
454.265	n/a	ConfirmRating	Rate	n/a	2.719	4	n/a	n/a	0	n/a	n/a	n/a	2	Angry	74	52	484.594	n/a
457.152	n/a	ConfirmRating	Rate	n/a	2.868	4	n/a	n/a	1	n/a	n/a	n/a	3	Angry	2	47	487.481	n/a
