onset	duration	trial_type	event_type	time_until_response	response_time	trial_number	block_num_within_trial	image_seq_num_within_block	question_seq_num_within_block	image_seq_num	picture_number	condition	question_type	block_type	rating	rating_computed	onset_uncorrected	KDEV_imagefile
0.018	10.014	ITI	Fixation+	96.456	n/a	1	n/a	n/a	n/a	n/a	n/a	n/a	n/a	n/a	n/a	n/a	40.994	n/a
10.048	0.497	angry	Picture	95.942	n/a	1	1	1	n/a	1	46	2	n/a	n/a	n/a	n/a	51.024	AF09HAS.jpg
10.545	0.514	Blank	Blank	95.428	n/a	1	1	1	n/a	1	n/a	2	n/a	n/a	n/a	n/a	51.522	n/a
11.076	0.497	angry	Picture	94.914	n/a	1	1	2	n/a	2	69	2	n/a	n/a	n/a	n/a	52.052	AM10HAS.jpg
11.573	0.514	Blank	Blank	94.4	n/a	1	1	2	n/a	2	n/a	2	n/a	n/a	n/a	n/a	52.55	n/a
12.104	0.497	angry	Picture	93.886	n/a	1	1	3	n/a	3	71	2	n/a	n/a	n/a	n/a	53.08	BM12HAS.jpg
12.601	0.514	Blank	Blank	93.372	n/a	1	1	3	n/a	3	n/a	2	n/a	n/a	n/a	n/a	53.577	n/a
13.132	0.497	angry	Picture	92.858	n/a	1	1	4	n/a	4	51	2	n/a	n/a	n/a	n/a	54.108	AF20HAS.jpg
13.629	0.514	Blank	Blank	92.344	n/a	1	1	4	n/a	4	n/a	2	n/a	n/a	n/a	n/a	54.605	n/a
14.16	0.497	angry	Picture	91.83	n/a	1	1	5	n/a	5	67	2	n/a	n/a	n/a	n/a	55.136	BM08HAS.jpg
14.657	0.514	Blank	Blank	91.316	n/a	1	1	5	n/a	5	n/a	2	n/a	n/a	n/a	n/a	55.633	n/a
15.187	0.497	angry	Picture	90.802	n/a	1	1	6	n/a	6	60	2	n/a	n/a	n/a	n/a	56.164	AF32HAS.jpg
15.685	0.514	Blank	Blank	90.288	n/a	1	1	6	n/a	6	n/a	2	n/a	n/a	n/a	n/a	56.661	n/a
16.215	0.497	angry	Picture	89.774	n/a	1	1	7	n/a	7	42	2	n/a	n/a	n/a	n/a	57.192	AF03HAS.jpg
16.713	0.514	Blank	Blank	89.261	n/a	1	1	7	n/a	7	n/a	2	n/a	n/a	n/a	n/a	57.689	n/a
17.243	0.497	angry	Picture	88.746	n/a	1	1	8	n/a	8	55	2	n/a	n/a	n/a	n/a	58.219	AF25HAS.jpg
17.741	0.514	Blank	Blank	88.233	n/a	1	1	8	n/a	8	n/a	2	n/a	n/a	n/a	n/a	58.717	n/a
18.271	0.497	angry	Picture	87.719	n/a	1	1	9	n/a	9	72	2	n/a	n/a	n/a	n/a	59.247	AM14HAS.jpg
18.768	0.514	Blank	Blank	87.205	n/a	1	1	9	n/a	9	n/a	2	n/a	n/a	n/a	n/a	59.745	n/a
19.299	0.497	angry	Picture	86.691	n/a	1	1	10	n/a	10	63	2	n/a	n/a	n/a	n/a	60.275	AM04HAS.jpg
19.796	0.514	Blank	Blank	86.177	n/a	1	1	10	n/a	10	n/a	2	n/a	n/a	n/a	n/a	60.773	n/a
20.327	0.497	angry	Picture	85.663	n/a	1	1	11	n/a	11	58	2	n/a	n/a	n/a	n/a	61.303	BF29HAS.jpg
20.824	0.514	Blank	Blank	85.149	n/a	1	1	11	n/a	11	n/a	2	n/a	n/a	n/a	n/a	61.8	n/a
21.355	0.497	angry	Picture	84.635	n/a	1	1	12	n/a	12	48	2	n/a	n/a	n/a	n/a	62.331	AF14HAS.jpg
21.852	0.514	Blank	Blank	84.121	n/a	1	1	12	n/a	12	n/a	2	n/a	n/a	n/a	n/a	62.828	n/a
22.383	0.497	angry	Picture	83.607	n/a	1	1	13	n/a	13	66	2	n/a	n/a	n/a	n/a	63.359	BM07HAS.jpg
22.88	0.514	Blank	Blank	83.093	n/a	1	1	13	n/a	13	n/a	2	n/a	n/a	n/a	n/a	63.856	n/a
23.41	0.497	angry	Picture	82.579	n/a	1	1	14	n/a	14	70	2	n/a	n/a	n/a	n/a	64.387	BM11HAS.jpg
23.908	0.514	Blank	Blank	82.065	n/a	1	1	14	n/a	14	n/a	2	n/a	n/a	n/a	n/a	64.884	n/a
24.438	0.497	angry	Picture	81.551	n/a	1	1	15	n/a	15	43	2	n/a	n/a	n/a	n/a	65.415	BF04HAS.jpg
24.936	0.514	Blank	Blank	81.037	n/a	1	1	15	n/a	15	n/a	2	n/a	n/a	n/a	n/a	65.912	n/a
25.466	0.497	angry	Picture	80.523	n/a	1	1	16	n/a	16	49	2	n/a	n/a	n/a	n/a	66.443	AF17HAS.jpg
25.964	0.514	Blank	Blank	80.01	n/a	1	1	16	n/a	16	n/a	2	n/a	n/a	n/a	n/a	66.94	n/a
26.494	0.497	angry	Picture	79.495	n/a	1	1	17	n/a	17	75	2	n/a	n/a	n/a	n/a	67.471	AM23HAS.jpg
26.992	0.514	Blank	Blank	78.982	n/a	1	1	17	n/a	17	n/a	2	n/a	n/a	n/a	n/a	67.968	n/a
27.522	0.497	angry	Picture	78.468	n/a	1	1	18	n/a	18	80	2	n/a	n/a	n/a	n/a	68.498	BM35HAS.jpg
28.019	0.514	Blank	Blank	77.954	n/a	1	1	18	n/a	18	n/a	2	n/a	n/a	n/a	n/a	68.996	n/a
28.55	0.497	angry	Picture	77.44	n/a	1	1	19	n/a	19	76	2	n/a	n/a	n/a	n/a	69.526	BM24HAS.jpg
29.047	0.514	Blank	Blank	76.926	n/a	1	1	19	n/a	19	n/a	2	n/a	n/a	n/a	n/a	70.024	n/a
29.578	0.497	angry	Picture	76.412	n/a	1	1	20	n/a	20	74	2	n/a	n/a	n/a	n/a	70.554	AM22HAS.jpg
30.075	0.514	Blank	Blank	75.898	n/a	1	1	20	n/a	20	n/a	2	n/a	n/a	n/a	n/a	71.052	n/a
30.606	10.014	ITI	Fixation+	65.868	n/a	1	n/a	n/a	n/a	n/a	n/a	n/a	n/a	n/a	n/a	n/a	71.582	n/a
40.636	0.497	neutral	Picture	65.354	n/a	1	2	1	n/a	21	33	1	n/a	n/a	n/a	n/a	81.612	AM21NES.jpg
41.133	0.514	Blank	Blank	64.84	n/a	1	2	1	n/a	21	n/a	1	n/a	n/a	n/a	n/a	82.11	n/a
41.664	0.497	neutral	Picture	64.326	n/a	1	2	2	n/a	22	39	1	n/a	n/a	n/a	n/a	82.64	AM28NES.jpg
42.161	0.514	Blank	Blank	63.812	n/a	1	2	2	n/a	22	n/a	1	n/a	n/a	n/a	n/a	83.138	n/a
42.692	0.497	neutral	Picture	63.298	n/a	1	2	3	n/a	23	25	1	n/a	n/a	n/a	n/a	83.668	BM06NES.jpg
43.189	0.514	Blank	Blank	62.784	n/a	1	2	3	n/a	23	n/a	1	n/a	n/a	n/a	n/a	84.165	n/a
43.72	0.497	neutral	Picture	62.27	n/a	1	2	4	n/a	24	5	1	n/a	n/a	n/a	n/a	84.696	BF07NES.jpg
44.217	0.514	Blank	Blank	61.756	n/a	1	2	4	n/a	24	n/a	1	n/a	n/a	n/a	n/a	85.193	n/a
44.747	0.497	neutral	Picture	61.242	n/a	1	2	5	n/a	25	10	1	n/a	n/a	n/a	n/a	85.724	AF18NES.jpg
45.245	0.514	Blank	Blank	60.728	n/a	1	2	5	n/a	25	n/a	1	n/a	n/a	n/a	n/a	86.221	n/a
45.775	0.497	neutral	Picture	60.214	n/a	1	2	6	n/a	26	34	1	n/a	n/a	n/a	n/a	86.752	AM22NES.jpg
46.273	0.514	Blank	Blank	59.7	n/a	1	2	6	n/a	26	n/a	1	n/a	n/a	n/a	n/a	87.249	n/a
46.803	0.497	neutral	Picture	59.186	n/a	1	2	7	n/a	27	36	1	n/a	n/a	n/a	n/a	87.78	BM24NES.jpg
47.301	0.514	Blank	Blank	58.672	n/a	1	2	7	n/a	27	n/a	1	n/a	n/a	n/a	n/a	88.277	n/a
47.831	0.497	neutral	Picture	58.159	n/a	1	2	8	n/a	28	14	1	n/a	n/a	n/a	n/a	88.807	AF23NES.jpg
48.328	0.514	Blank	Blank	57.645	n/a	1	2	8	n/a	28	n/a	1	n/a	n/a	n/a	n/a	89.305	n/a
48.859	0.497	neutral	Picture	57.131	n/a	1	2	9	n/a	29	9	1	n/a	n/a	n/a	n/a	89.835	AF17NES.jpg
49.356	0.514	Blank	Blank	56.617	n/a	1	2	9	n/a	29	n/a	1	n/a	n/a	n/a	n/a	90.333	n/a
49.887	0.497	neutral	Picture	56.103	n/a	1	2	10	n/a	30	19	1	n/a	n/a	n/a	n/a	90.863	AF31NES.jpg
50.384	0.514	Blank	Blank	55.589	n/a	1	2	10	n/a	30	n/a	1	n/a	n/a	n/a	n/a	91.361	n/a
50.915	0.497	neutral	Picture	55.075	n/a	1	2	11	n/a	31	15	1	n/a	n/a	n/a	n/a	91.891	AF25NES.jpg
51.412	0.514	Blank	Blank	54.561	n/a	1	2	11	n/a	31	n/a	1	n/a	n/a	n/a	n/a	92.388	n/a
51.943	0.497	neutral	Picture	54.047	n/a	1	2	12	n/a	32	22	1	n/a	n/a	n/a	n/a	92.919	BM03NES.jpg
52.44	0.514	Blank	Blank	53.533	n/a	1	2	12	n/a	32	n/a	1	n/a	n/a	n/a	n/a	93.416	n/a
52.971	0.497	neutral	Picture	53.019	n/a	1	2	13	n/a	33	11	1	n/a	n/a	n/a	n/a	93.947	AF20NES.jpg
53.468	0.514	Blank	Blank	52.505	n/a	1	2	13	n/a	33	n/a	1	n/a	n/a	n/a	n/a	94.444	n/a
53.998	0.497	neutral	Picture	51.991	n/a	1	2	14	n/a	34	4	1	n/a	n/a	n/a	n/a	94.975	AF05NES.jpg
54.496	0.514	Blank	Blank	51.477	n/a	1	2	14	n/a	34	n/a	1	n/a	n/a	n/a	n/a	95.472	n/a
55.026	0.497	neutral	Picture	50.963	n/a	1	2	15	n/a	35	17	1	n/a	n/a	n/a	n/a	96.003	BF28NES.jpg
55.524	0.514	Blank	Blank	50.45	n/a	1	2	15	n/a	35	n/a	1	n/a	n/a	n/a	n/a	96.5	n/a
56.054	0.497	neutral	Picture	49.935	n/a	1	2	16	n/a	36	13	1	n/a	n/a	n/a	n/a	97.031	BF22NES.jpg
56.552	0.514	Blank	Blank	49.422	n/a	1	2	16	n/a	36	n/a	1	n/a	n/a	n/a	n/a	97.528	n/a
57.082	0.497	neutral	Picture	48.908	n/a	1	2	17	n/a	37	12	1	n/a	n/a	n/a	n/a	98.058	AF21NES.jpg
57.58	0.514	Blank	Blank	48.394	n/a	1	2	17	n/a	37	n/a	1	n/a	n/a	n/a	n/a	98.556	n/a
58.11	0.497	neutral	Picture	47.88	n/a	1	2	18	n/a	38	24	1	n/a	n/a	n/a	n/a	99.086	BM05NES.jpg
58.607	0.514	Blank	Blank	47.366	n/a	1	2	18	n/a	38	n/a	1	n/a	n/a	n/a	n/a	99.584	n/a
59.138	0.497	neutral	Picture	46.852	n/a	1	2	19	n/a	39	29	1	n/a	n/a	n/a	n/a	100.114	AM10NES.jpg
59.635	0.514	Blank	Blank	46.338	n/a	1	2	19	n/a	39	n/a	1	n/a	n/a	n/a	n/a	100.612	n/a
60.166	0.497	neutral	Picture	45.824	n/a	1	2	20	n/a	40	23	1	n/a	n/a	n/a	n/a	101.142	AM04NES.jpg
60.663	0.514	Blank	Blank	45.31	n/a	1	2	20	n/a	40	n/a	1	n/a	n/a	n/a	n/a	101.639	n/a
61.194	10.014	ITI	Fixation+	35.28	n/a	1	n/a	n/a	n/a	n/a	n/a	n/a	n/a	n/a	n/a	n/a	102.17	n/a
71.224	0.497	angry	Picture	34.766	n/a	1	3	1	n/a	41	62	2	n/a	n/a	n/a	n/a	112.2	BM03HAS.jpg
71.721	0.514	Blank	Blank	34.252	n/a	1	3	1	n/a	41	n/a	2	n/a	n/a	n/a	n/a	112.698	n/a
72.252	0.497	angry	Picture	33.738	n/a	1	3	2	n/a	42	52	2	n/a	n/a	n/a	n/a	113.228	AF21HAS.jpg
72.749	0.514	Blank	Blank	33.224	n/a	1	3	2	n/a	42	n/a	2	n/a	n/a	n/a	n/a	113.725	n/a
73.28	0.497	angry	Picture	32.71	n/a	1	3	3	n/a	43	44	2	n/a	n/a	n/a	n/a	114.256	AF05HAS.jpg
73.777	0.514	Blank	Blank	32.196	n/a	1	3	3	n/a	43	n/a	2	n/a	n/a	n/a	n/a	114.753	n/a
74.308	0.497	angry	Picture	31.682	n/a	1	3	4	n/a	44	53	2	n/a	n/a	n/a	n/a	115.284	BF22HAS.jpg
74.805	0.514	Blank	Blank	31.168	n/a	1	3	4	n/a	44	n/a	2	n/a	n/a	n/a	n/a	115.781	n/a
75.335	0.497	angry	Picture	30.654	n/a	1	3	5	n/a	45	54	2	n/a	n/a	n/a	n/a	116.312	AF23HAS.jpg
75.833	0.514	Blank	Blank	30.14	n/a	1	3	5	n/a	45	n/a	2	n/a	n/a	n/a	n/a	116.809	n/a
76.363	0.497	angry	Picture	29.626	n/a	1	3	6	n/a	46	68	2	n/a	n/a	n/a	n/a	117.34	AM09HAS.jpg
76.861	0.514	Blank	Blank	29.112	n/a	1	3	6	n/a	46	n/a	2	n/a	n/a	n/a	n/a	117.837	n/a
77.391	0.497	angry	Picture	28.599	n/a	1	3	7	n/a	47	64	2	n/a	n/a	n/a	n/a	118.368	BM05HAS.jpg
77.889	0.514	Blank	Blank	28.085	n/a	1	3	7	n/a	47	n/a	2	n/a	n/a	n/a	n/a	118.865	n/a
78.419	0.497	angry	Picture	27.571	n/a	1	3	8	n/a	48	59	2	n/a	n/a	n/a	n/a	119.395	AF31HAS.jpg
78.916	0.514	Blank	Blank	27.057	n/a	1	3	8	n/a	48	n/a	2	n/a	n/a	n/a	n/a	119.893	n/a
79.447	0.497	angry	Picture	26.543	n/a	1	3	9	n/a	49	41	2	n/a	n/a	n/a	n/a	120.423	AF01HAS.jpg
79.944	0.514	Blank	Blank	26.029	n/a	1	3	9	n/a	49	n/a	2	n/a	n/a	n/a	n/a	120.921	n/a
80.475	0.497	angry	Picture	25.515	n/a	1	3	10	n/a	50	73	2	n/a	n/a	n/a	n/a	121.451	AM21HAS.jpg
80.972	0.514	Blank	Blank	25.001	n/a	1	3	10	n/a	50	n/a	2	n/a	n/a	n/a	n/a	121.948	n/a
81.503	0.497	angry	Picture	24.487	n/a	1	3	11	n/a	51	65	2	n/a	n/a	n/a	n/a	122.479	BM06HAS.jpg
82.0	0.514	Blank	Blank	23.973	n/a	1	3	11	n/a	51	n/a	2	n/a	n/a	n/a	n/a	122.976	n/a
82.531	0.497	angry	Picture	23.459	n/a	1	3	12	n/a	52	56	2	n/a	n/a	n/a	n/a	123.507	AF26HAS.jpg
83.028	0.514	Blank	Blank	22.945	n/a	1	3	12	n/a	52	n/a	2	n/a	n/a	n/a	n/a	124.004	n/a
83.559	0.497	angry	Picture	22.431	n/a	1	3	13	n/a	53	45	2	n/a	n/a	n/a	n/a	124.535	BF07HAS.jpg
84.056	0.514	Blank	Blank	21.917	n/a	1	3	13	n/a	53	n/a	2	n/a	n/a	n/a	n/a	125.032	n/a
84.586	0.497	angry	Picture	21.403	n/a	1	3	14	n/a	54	78	2	n/a	n/a	n/a	n/a	125.563	BM26HAS.jpg
85.084	0.514	Blank	Blank	20.889	n/a	1	3	14	n/a	54	n/a	2	n/a	n/a	n/a	n/a	126.06	n/a
85.614	0.497	angry	Picture	20.375	n/a	1	3	15	n/a	55	50	2	n/a	n/a	n/a	n/a	126.591	AF18HAS.jpg
86.112	0.514	Blank	Blank	19.862	n/a	1	3	15	n/a	55	n/a	2	n/a	n/a	n/a	n/a	127.088	n/a
86.642	0.497	angry	Picture	19.348	n/a	1	3	16	n/a	56	47	2	n/a	n/a	n/a	n/a	127.618	BF11HAS.jpg
87.139	0.514	Blank	Blank	18.834	n/a	1	3	16	n/a	56	n/a	2	n/a	n/a	n/a	n/a	128.116	n/a
87.67	0.497	angry	Picture	18.32	n/a	1	3	17	n/a	57	77	2	n/a	n/a	n/a	n/a	128.646	BM25HAS.jpg
88.167	0.514	Blank	Blank	17.806	n/a	1	3	17	n/a	57	n/a	2	n/a	n/a	n/a	n/a	129.144	n/a
88.698	0.497	angry	Picture	17.292	n/a	1	3	18	n/a	58	57	2	n/a	n/a	n/a	n/a	129.674	BF28HAS.jpg
89.195	0.514	Blank	Blank	16.778	n/a	1	3	18	n/a	58	n/a	2	n/a	n/a	n/a	n/a	130.172	n/a
89.726	0.497	angry	Picture	16.264	n/a	1	3	19	n/a	59	61	2	n/a	n/a	n/a	n/a	130.702	AM01HAS.jpg
90.223	0.514	Blank	Blank	15.75	n/a	1	3	19	n/a	59	n/a	2	n/a	n/a	n/a	n/a	131.2	n/a
90.753	0.498	angry	Picture	15.236	n/a	1	3	20	n/a	60	79	2	n/a	n/a	n/a	n/a	131.729	BM28HAS.jpg
91.251	0.514	Blank	Blank	14.722	n/a	1	3	20	n/a	60	n/a	2	n/a	n/a	n/a	n/a	132.227	n/a
91.782	10.014	ITI	Fixation+	4.692	n/a	1	n/a	n/a	n/a	n/a	n/a	n/a	n/a	n/a	n/a	n/a	132.758	n/a
106.487	n/a	ConfirmRating	Rate	n/a	4.675	1	n/a	n/a	0	n/a	n/a	n/a	2	Angry	72	52	147.463	n/a
113.114	n/a	ConfirmRating	Rate	n/a	6.598	1	n/a	n/a	1	n/a	n/a	n/a	3	Angry	0	47	154.09	n/a
113.135	10.014	ITI	Fixation+	94.811	n/a	2	n/a	n/a	n/a	n/a	n/a	n/a	n/a	n/a	n/a	n/a	154.111	n/a
123.165	0.497	happy	Picture	94.297	n/a	2	4	1	n/a	61	119	3	n/a	n/a	n/a	n/a	164.142	BM28ANS.jpg
123.663	0.514	Blank	Blank	93.783	n/a	2	4	1	n/a	61	n/a	3	n/a	n/a	n/a	n/a	164.639	n/a
124.193	0.497	happy	Picture	93.269	n/a	2	4	2	n/a	62	100	3	n/a	n/a	n/a	n/a	165.169	AF32ANS.jpg
124.691	0.514	Blank	Blank	92.755	n/a	2	4	2	n/a	62	n/a	3	n/a	n/a	n/a	n/a	165.667	n/a
125.221	0.497	happy	Picture	92.241	n/a	2	4	3	n/a	63	118	3	n/a	n/a	n/a	n/a	166.197	BM26ANS.jpg
125.718	0.514	Blank	Blank	91.727	n/a	2	4	3	n/a	63	n/a	3	n/a	n/a	n/a	n/a	166.695	n/a
126.249	0.497	happy	Picture	91.213	n/a	2	4	4	n/a	64	89	3	n/a	n/a	n/a	n/a	167.225	AF17ANS.jpg
126.746	0.514	Blank	Blank	90.7	n/a	2	4	4	n/a	64	n/a	3	n/a	n/a	n/a	n/a	167.723	n/a
127.277	0.497	happy	Picture	90.186	n/a	2	4	5	n/a	65	116	3	n/a	n/a	n/a	n/a	168.253	BM24ANS.jpg
127.774	0.514	Blank	Blank	89.672	n/a	2	4	5	n/a	65	n/a	3	n/a	n/a	n/a	n/a	168.75	n/a
128.305	0.497	happy	Picture	89.158	n/a	2	4	6	n/a	66	105	3	n/a	n/a	n/a	n/a	169.281	BM06ANS.jpg
128.802	0.514	Blank	Blank	88.644	n/a	2	4	6	n/a	66	n/a	3	n/a	n/a	n/a	n/a	169.778	n/a
129.333	0.497	happy	Picture	88.13	n/a	2	4	7	n/a	67	106	3	n/a	n/a	n/a	n/a	170.309	AM07ANS.jpg
129.83	0.514	Blank	Blank	87.616	n/a	2	4	7	n/a	67	n/a	3	n/a	n/a	n/a	n/a	170.806	n/a
130.361	0.497	happy	Picture	87.102	n/a	2	4	8	n/a	68	94	3	n/a	n/a	n/a	n/a	171.337	AF23ANS.jpg
130.858	0.514	Blank	Blank	86.588	n/a	2	4	8	n/a	68	n/a	3	n/a	n/a	n/a	n/a	171.834	n/a
131.388	0.497	happy	Picture	86.074	n/a	2	4	9	n/a	69	117	3	n/a	n/a	n/a	n/a	172.365	BM25ANS.jpg
131.886	0.514	Blank	Blank	85.56	n/a	2	4	9	n/a	69	n/a	3	n/a	n/a	n/a	n/a	172.862	n/a
132.416	0.497	happy	Picture	85.046	n/a	2	4	10	n/a	70	90	3	n/a	n/a	n/a	n/a	173.393	AF18ANS.jpg
132.914	0.514	Blank	Blank	84.532	n/a	2	4	10	n/a	70	n/a	3	n/a	n/a	n/a	n/a	173.89	n/a
133.444	0.497	happy	Picture	84.018	n/a	2	4	11	n/a	71	83	3	n/a	n/a	n/a	n/a	174.421	BF04ANS.jpg
133.942	0.514	Blank	Blank	83.504	n/a	2	4	11	n/a	71	n/a	3	n/a	n/a	n/a	n/a	174.918	n/a
134.472	0.497	happy	Picture	82.99	n/a	2	4	12	n/a	72	112	3	n/a	n/a	n/a	n/a	175.448	AM14ANS.jpg
134.969	0.514	Blank	Blank	82.476	n/a	2	4	12	n/a	72	n/a	3	n/a	n/a	n/a	n/a	175.946	n/a
135.5	0.497	happy	Picture	81.963	n/a	2	4	13	n/a	73	102	3	n/a	n/a	n/a	n/a	176.476	BM03ANS.jpg
135.997	0.514	Blank	Blank	81.449	n/a	2	4	13	n/a	73	n/a	3	n/a	n/a	n/a	n/a	176.974	n/a
136.528	0.497	happy	Picture	80.935	n/a	2	4	14	n/a	74	95	3	n/a	n/a	n/a	n/a	177.504	AF25ANS.jpg
137.025	0.514	Blank	Blank	80.421	n/a	2	4	14	n/a	74	n/a	3	n/a	n/a	n/a	n/a	178.001	n/a
137.556	0.497	happy	Picture	79.907	n/a	2	4	15	n/a	75	113	3	n/a	n/a	n/a	n/a	178.532	AM21ANS.jpg
138.053	0.514	Blank	Blank	79.393	n/a	2	4	15	n/a	75	n/a	3	n/a	n/a	n/a	n/a	179.029	n/a
138.584	0.497	happy	Picture	78.879	n/a	2	4	16	n/a	76	88	3	n/a	n/a	n/a	n/a	179.56	AF14ANS.jpg
139.081	0.514	Blank	Blank	78.365	n/a	2	4	16	n/a	76	n/a	3	n/a	n/a	n/a	n/a	180.057	n/a
139.611	0.497	happy	Picture	77.851	n/a	2	4	17	n/a	77	93	3	n/a	n/a	n/a	n/a	180.588	BF22ANS.jpg
140.109	0.514	Blank	Blank	77.337	n/a	2	4	17	n/a	77	n/a	3	n/a	n/a	n/a	n/a	181.085	n/a
140.639	0.497	happy	Picture	76.823	n/a	2	4	18	n/a	78	86	3	n/a	n/a	n/a	n/a	181.616	AF09ANS.jpg
141.137	0.514	Blank	Blank	76.309	n/a	2	4	18	n/a	78	n/a	3	n/a	n/a	n/a	n/a	182.113	n/a
141.667	0.497	happy	Picture	75.795	n/a	2	4	19	n/a	79	92	3	n/a	n/a	n/a	n/a	182.644	AF21ANS.jpg
142.165	0.514	Blank	Blank	75.281	n/a	2	4	19	n/a	79	n/a	3	n/a	n/a	n/a	n/a	183.141	n/a
142.695	0.497	happy	Picture	74.767	n/a	2	4	20	n/a	80	84	3	n/a	n/a	n/a	n/a	183.672	AF05ANS.jpg
143.193	0.514	Blank	Blank	74.253	n/a	2	4	20	n/a	80	n/a	3	n/a	n/a	n/a	n/a	184.169	n/a
143.723	10.014	ITI	Fixation+	64.223	n/a	2	n/a	n/a	n/a	n/a	n/a	n/a	n/a	n/a	n/a	n/a	184.699	n/a
153.753	0.497	neutral	Picture	63.709	n/a	2	5	1	n/a	81	4	1	n/a	n/a	n/a	n/a	194.73	AF05NES.jpg
154.251	0.514	Blank	Blank	63.195	n/a	2	5	1	n/a	81	n/a	1	n/a	n/a	n/a	n/a	195.227	n/a
154.781	0.497	neutral	Picture	62.681	n/a	2	5	2	n/a	82	14	1	n/a	n/a	n/a	n/a	195.757	AF23NES.jpg
155.278	0.514	Blank	Blank	62.167	n/a	2	5	2	n/a	82	n/a	1	n/a	n/a	n/a	n/a	196.255	n/a
155.809	0.497	neutral	Picture	61.653	n/a	2	5	3	n/a	83	19	1	n/a	n/a	n/a	n/a	196.785	AF31NES.jpg
156.306	0.514	Blank	Blank	61.14	n/a	2	5	3	n/a	83	n/a	1	n/a	n/a	n/a	n/a	197.283	n/a
156.837	0.497	neutral	Picture	60.626	n/a	2	5	4	n/a	84	8	1	n/a	n/a	n/a	n/a	197.813	AF14NES.jpg
157.334	0.514	Blank	Blank	60.112	n/a	2	5	4	n/a	84	n/a	1	n/a	n/a	n/a	n/a	198.311	n/a
157.865	0.497	neutral	Picture	59.598	n/a	2	5	5	n/a	85	25	1	n/a	n/a	n/a	n/a	198.841	BM06NES.jpg
158.362	0.514	Blank	Blank	59.084	n/a	2	5	5	n/a	85	n/a	1	n/a	n/a	n/a	n/a	199.339	n/a
158.893	0.497	neutral	Picture	58.57	n/a	2	5	6	n/a	86	9	1	n/a	n/a	n/a	n/a	199.869	AF17NES.jpg
159.39	0.514	Blank	Blank	58.056	n/a	2	5	6	n/a	86	n/a	1	n/a	n/a	n/a	n/a	200.366	n/a
159.921	0.497	neutral	Picture	57.542	n/a	2	5	7	n/a	87	2	1	n/a	n/a	n/a	n/a	200.897	AF03NES.jpg
160.418	0.514	Blank	Blank	57.028	n/a	2	5	7	n/a	87	n/a	1	n/a	n/a	n/a	n/a	201.394	n/a
160.948	0.497	neutral	Picture	56.514	n/a	2	5	8	n/a	88	17	1	n/a	n/a	n/a	n/a	201.925	BF28NES.jpg
161.446	0.514	Blank	Blank	56.0	n/a	2	5	8	n/a	88	n/a	1	n/a	n/a	n/a	n/a	202.422	n/a
161.976	0.497	neutral	Picture	55.486	n/a	2	5	9	n/a	89	6	1	n/a	n/a	n/a	n/a	202.953	AF09NES.jpg
162.474	0.514	Blank	Blank	54.972	n/a	2	5	9	n/a	89	n/a	1	n/a	n/a	n/a	n/a	203.45	n/a
163.004	0.497	neutral	Picture	54.458	n/a	2	5	10	n/a	90	12	1	n/a	n/a	n/a	n/a	203.981	AF21NES.jpg
163.502	0.514	Blank	Blank	53.944	n/a	2	5	10	n/a	90	n/a	1	n/a	n/a	n/a	n/a	204.478	n/a
164.032	0.497	neutral	Picture	53.43	n/a	2	5	11	n/a	91	24	1	n/a	n/a	n/a	n/a	205.008	BM05NES.jpg
164.529	0.514	Blank	Blank	52.916	n/a	2	5	11	n/a	91	n/a	1	n/a	n/a	n/a	n/a	205.506	n/a
165.06	0.497	neutral	Picture	52.402	n/a	2	5	12	n/a	92	34	1	n/a	n/a	n/a	n/a	206.036	AM22NES.jpg
165.557	0.514	Blank	Blank	51.889	n/a	2	5	12	n/a	92	n/a	1	n/a	n/a	n/a	n/a	206.534	n/a
166.088	0.497	neutral	Picture	51.375	n/a	2	5	13	n/a	93	23	1	n/a	n/a	n/a	n/a	207.064	AM04NES.jpg
166.585	0.514	Blank	Blank	50.861	n/a	2	5	13	n/a	93	n/a	1	n/a	n/a	n/a	n/a	207.562	n/a
167.116	0.497	neutral	Picture	50.347	n/a	2	5	14	n/a	94	15	1	n/a	n/a	n/a	n/a	208.092	AF25NES.jpg
167.613	0.514	Blank	Blank	49.833	n/a	2	5	14	n/a	94	n/a	1	n/a	n/a	n/a	n/a	208.589	n/a
168.144	0.497	neutral	Picture	49.319	n/a	2	5	15	n/a	95	37	1	n/a	n/a	n/a	n/a	209.12	BM25NES.jpg
168.641	0.514	Blank	Blank	48.805	n/a	2	5	15	n/a	95	n/a	1	n/a	n/a	n/a	n/a	209.617	n/a
169.172	0.497	neutral	Picture	48.291	n/a	2	5	16	n/a	96	32	1	n/a	n/a	n/a	n/a	210.148	AM14NES.jpg
169.669	0.514	Blank	Blank	47.777	n/a	2	5	16	n/a	96	n/a	1	n/a	n/a	n/a	n/a	210.645	n/a
170.2	0.497	neutral	Picture	47.263	n/a	2	5	17	n/a	97	3	1	n/a	n/a	n/a	n/a	211.176	BF04NES.jpg
170.697	0.514	Blank	Blank	46.749	n/a	2	5	17	n/a	97	n/a	1	n/a	n/a	n/a	n/a	211.673	n/a
171.227	0.497	neutral	Picture	46.235	n/a	2	5	18	n/a	98	16	1	n/a	n/a	n/a	n/a	212.204	AF26NES.jpg
171.725	0.514	Blank	Blank	45.721	n/a	2	5	18	n/a	98	n/a	1	n/a	n/a	n/a	n/a	212.701	n/a
172.255	0.497	neutral	Picture	45.207	n/a	2	5	19	n/a	99	27	1	n/a	n/a	n/a	n/a	213.232	BM08NES.jpg
172.753	0.514	Blank	Blank	44.693	n/a	2	5	19	n/a	99	n/a	1	n/a	n/a	n/a	n/a	213.729	n/a
173.283	0.497	neutral	Picture	44.179	n/a	2	5	20	n/a	100	28	1	n/a	n/a	n/a	n/a	214.259	AM09NES.jpg
173.78	0.514	Blank	Blank	43.665	n/a	2	5	20	n/a	100	n/a	1	n/a	n/a	n/a	n/a	214.757	n/a
174.311	10.014	ITI	Fixation+	33.635	n/a	2	n/a	n/a	n/a	n/a	n/a	n/a	n/a	n/a	n/a	n/a	215.287	n/a
184.341	0.497	happy	Picture	33.121	n/a	2	6	1	n/a	101	81	3	n/a	n/a	n/a	n/a	225.317	AF01ANS.jpg
184.839	0.514	Blank	Blank	32.607	n/a	2	6	1	n/a	101	n/a	3	n/a	n/a	n/a	n/a	225.815	n/a
185.369	0.497	happy	Picture	32.093	n/a	2	6	2	n/a	102	120	3	n/a	n/a	n/a	n/a	226.345	AM35ANS.jpg
185.867	0.514	Blank	Blank	31.579	n/a	2	6	2	n/a	102	n/a	3	n/a	n/a	n/a	n/a	226.843	n/a
186.397	0.497	happy	Picture	31.066	n/a	2	6	3	n/a	103	114	3	n/a	n/a	n/a	n/a	227.373	AM22ANS.jpg
186.894	0.514	Blank	Blank	30.552	n/a	2	6	3	n/a	103	n/a	3	n/a	n/a	n/a	n/a	227.871	n/a
187.425	0.497	happy	Picture	30.038	n/a	2	6	4	n/a	104	109	3	n/a	n/a	n/a	n/a	228.401	AM10ANS.jpg
187.922	0.514	Blank	Blank	29.524	n/a	2	6	4	n/a	104	n/a	3	n/a	n/a	n/a	n/a	228.899	n/a
188.453	0.497	happy	Picture	29.01	n/a	2	6	5	n/a	105	96	3	n/a	n/a	n/a	n/a	229.429	AF26ANS.jpg
188.95	0.514	Blank	Blank	28.496	n/a	2	6	5	n/a	105	n/a	3	n/a	n/a	n/a	n/a	229.926	n/a
189.481	0.497	happy	Picture	27.982	n/a	2	6	6	n/a	106	82	3	n/a	n/a	n/a	n/a	230.457	AF03ANS.jpg
189.978	0.514	Blank	Blank	27.468	n/a	2	6	6	n/a	106	n/a	3	n/a	n/a	n/a	n/a	230.954	n/a
190.508	0.497	happy	Picture	26.954	n/a	2	6	7	n/a	107	97	3	n/a	n/a	n/a	n/a	231.485	BF28ANS.jpg
191.006	0.514	Blank	Blank	26.44	n/a	2	6	7	n/a	107	n/a	3	n/a	n/a	n/a	n/a	231.982	n/a
191.536	0.497	happy	Picture	25.926	n/a	2	6	8	n/a	108	115	3	n/a	n/a	n/a	n/a	232.513	AM23ANS.jpg
192.034	0.514	Blank	Blank	25.412	n/a	2	6	8	n/a	108	n/a	3	n/a	n/a	n/a	n/a	233.01	n/a
192.564	0.497	happy	Picture	24.898	n/a	2	6	9	n/a	109	91	3	n/a	n/a	n/a	n/a	233.541	AF20ANS.jpg
193.062	0.514	Blank	Blank	24.384	n/a	2	6	9	n/a	109	n/a	3	n/a	n/a	n/a	n/a	234.038	n/a
193.592	0.497	happy	Picture	23.87	n/a	2	6	10	n/a	110	87	3	n/a	n/a	n/a	n/a	234.569	BF11ANS.jpg
194.089	0.514	Blank	Blank	23.356	n/a	2	6	10	n/a	110	n/a	3	n/a	n/a	n/a	n/a	235.066	n/a
194.62	0.497	happy	Picture	22.843	n/a	2	6	11	n/a	111	85	3	n/a	n/a	n/a	n/a	235.596	BF07ANS.jpg
195.117	0.514	Blank	Blank	22.328	n/a	2	6	11	n/a	111	n/a	3	n/a	n/a	n/a	n/a	236.094	n/a
195.648	0.497	happy	Picture	21.815	n/a	2	6	12	n/a	112	110	3	n/a	n/a	n/a	n/a	236.624	AM11ANS.jpg
196.145	0.514	Blank	Blank	21.301	n/a	2	6	12	n/a	112	n/a	3	n/a	n/a	n/a	n/a	237.122	n/a
196.676	0.497	happy	Picture	20.787	n/a	2	6	13	n/a	113	111	3	n/a	n/a	n/a	n/a	237.652	BM12ANS.jpg
197.173	0.514	Blank	Blank	20.273	n/a	2	6	13	n/a	113	n/a	3	n/a	n/a	n/a	n/a	238.149	n/a
197.704	0.497	happy	Picture	19.759	n/a	2	6	14	n/a	114	103	3	n/a	n/a	n/a	n/a	238.68	AM04ANS.jpg
198.201	0.514	Blank	Blank	19.245	n/a	2	6	14	n/a	114	n/a	3	n/a	n/a	n/a	n/a	239.177	n/a
198.732	0.497	happy	Picture	18.731	n/a	2	6	15	n/a	115	101	3	n/a	n/a	n/a	n/a	239.708	AM01ANS.jpg
199.229	0.514	Blank	Blank	18.217	n/a	2	6	15	n/a	115	n/a	3	n/a	n/a	n/a	n/a	240.205	n/a
199.76	0.497	happy	Picture	17.703	n/a	2	6	16	n/a	116	104	3	n/a	n/a	n/a	n/a	240.736	BM05ANS.jpg
200.257	0.514	Blank	Blank	17.189	n/a	2	6	16	n/a	116	n/a	3	n/a	n/a	n/a	n/a	241.233	n/a
200.787	0.497	happy	Picture	16.675	n/a	2	6	17	n/a	117	107	3	n/a	n/a	n/a	n/a	241.764	BM08ANS.jpg
201.285	0.514	Blank	Blank	16.161	n/a	2	6	17	n/a	117	n/a	3	n/a	n/a	n/a	n/a	242.261	n/a
201.815	0.497	happy	Picture	15.647	n/a	2	6	18	n/a	118	98	3	n/a	n/a	n/a	n/a	242.792	BF29ANS.jpg
202.313	0.514	Blank	Blank	15.133	n/a	2	6	18	n/a	118	n/a	3	n/a	n/a	n/a	n/a	243.289	n/a
202.843	0.497	happy	Picture	14.619	n/a	2	6	19	n/a	119	99	3	n/a	n/a	n/a	n/a	243.82	AF31ANS.jpg
203.34	0.514	Blank	Blank	14.105	n/a	2	6	19	n/a	119	n/a	3	n/a	n/a	n/a	n/a	244.317	n/a
203.871	0.497	happy	Picture	13.591	n/a	2	6	20	n/a	120	108	3	n/a	n/a	n/a	n/a	244.847	AM09ANS.jpg
204.368	0.514	Blank	Blank	13.077	n/a	2	6	20	n/a	120	n/a	3	n/a	n/a	n/a	n/a	245.345	n/a
204.899	10.014	ITI	Fixation+	3.047	n/a	2	n/a	n/a	n/a	n/a	n/a	n/a	n/a	n/a	n/a	n/a	245.875	n/a
217.96	n/a	ConfirmRating	Rate	n/a	3.034	2	n/a	n/a	0	n/a	n/a	n/a	2	Happy	90	52	258.936	n/a
221.331	n/a	ConfirmRating	Rate	n/a	3.365	2	n/a	n/a	1	n/a	n/a	n/a	3	Happy	0	49	262.307	n/a
221.362	15.004	Rest	Picture	n/a	n/a	n/a	n/a	n/a	n/a	n/a	n/a	n/a	0	n/a	0	0	262.338	n/a
236.382	10.014	ITI	Fixation+	95.214	n/a	3	n/a	n/a	n/a	n/a	n/a	n/a	n/a	n/a	n/a	n/a	277.358	n/a
246.412	0.497	angry	Picture	94.7	n/a	3	7	1	n/a	1	46	2	n/a	n/a	n/a	n/a	287.389	AF09HAS.jpg
246.91	0.514	Blank	Blank	94.186	n/a	3	7	1	n/a	1	n/a	2	n/a	n/a	n/a	n/a	287.886	n/a
247.44	0.497	angry	Picture	93.672	n/a	3	7	2	n/a	2	69	2	n/a	n/a	n/a	n/a	288.416	AM10HAS.jpg
247.938	0.514	Blank	Blank	93.158	n/a	3	7	2	n/a	2	n/a	2	n/a	n/a	n/a	n/a	288.914	n/a
248.468	0.497	angry	Picture	92.644	n/a	3	7	3	n/a	3	71	2	n/a	n/a	n/a	n/a	289.444	BM12HAS.jpg
248.965	0.514	Blank	Blank	92.13	n/a	3	7	3	n/a	3	n/a	2	n/a	n/a	n/a	n/a	289.942	n/a
249.496	0.497	angry	Picture	91.616	n/a	3	7	4	n/a	4	51	2	n/a	n/a	n/a	n/a	290.472	AF20HAS.jpg
249.993	0.514	Blank	Blank	91.102	n/a	3	7	4	n/a	4	n/a	2	n/a	n/a	n/a	n/a	290.97	n/a
250.524	0.497	angry	Picture	90.588	n/a	3	7	5	n/a	5	67	2	n/a	n/a	n/a	n/a	291.5	BM08HAS.jpg
251.021	0.514	Blank	Blank	90.074	n/a	3	7	5	n/a	5	n/a	2	n/a	n/a	n/a	n/a	291.998	n/a
251.552	0.497	angry	Picture	89.561	n/a	3	7	6	n/a	6	60	2	n/a	n/a	n/a	n/a	292.528	AF32HAS.jpg
252.049	0.514	Blank	Blank	89.047	n/a	3	7	6	n/a	6	n/a	2	n/a	n/a	n/a	n/a	293.025	n/a
252.58	0.497	angry	Picture	88.533	n/a	3	7	7	n/a	7	42	2	n/a	n/a	n/a	n/a	293.556	AF03HAS.jpg
253.077	0.514	Blank	Blank	88.019	n/a	3	7	7	n/a	7	n/a	2	n/a	n/a	n/a	n/a	294.053	n/a
253.607	0.497	angry	Picture	87.505	n/a	3	7	8	n/a	8	55	2	n/a	n/a	n/a	n/a	294.584	AF25HAS.jpg
254.105	0.514	Blank	Blank	86.991	n/a	3	7	8	n/a	8	n/a	2	n/a	n/a	n/a	n/a	295.081	n/a
254.635	0.497	angry	Picture	86.477	n/a	3	7	9	n/a	9	72	2	n/a	n/a	n/a	n/a	295.612	AM14HAS.jpg
255.133	0.514	Blank	Blank	85.963	n/a	3	7	9	n/a	9	n/a	2	n/a	n/a	n/a	n/a	296.109	n/a
255.663	0.497	angry	Picture	85.449	n/a	3	7	10	n/a	10	63	2	n/a	n/a	n/a	n/a	296.64	AM04HAS.jpg
256.161	0.514	Blank	Blank	84.935	n/a	3	7	10	n/a	10	n/a	2	n/a	n/a	n/a	n/a	297.137	n/a
256.691	0.497	angry	Picture	84.421	n/a	3	7	11	n/a	11	58	2	n/a	n/a	n/a	n/a	297.668	BF29HAS.jpg
257.189	0.514	Blank	Blank	83.907	n/a	3	7	11	n/a	11	n/a	2	n/a	n/a	n/a	n/a	298.165	n/a
257.719	0.497	angry	Picture	83.393	n/a	3	7	12	n/a	12	48	2	n/a	n/a	n/a	n/a	298.695	AF14HAS.jpg
258.216	0.514	Blank	Blank	82.879	n/a	3	7	12	n/a	12	n/a	2	n/a	n/a	n/a	n/a	299.193	n/a
258.747	0.497	angry	Picture	82.365	n/a	3	7	13	n/a	13	66	2	n/a	n/a	n/a	n/a	299.723	BM07HAS.jpg
259.244	0.514	Blank	Blank	81.851	n/a	3	7	13	n/a	13	n/a	2	n/a	n/a	n/a	n/a	300.221	n/a
259.775	0.497	angry	Picture	81.337	n/a	3	7	14	n/a	14	70	2	n/a	n/a	n/a	n/a	300.751	BM11HAS.jpg
260.272	0.514	Blank	Blank	80.823	n/a	3	7	14	n/a	14	n/a	2	n/a	n/a	n/a	n/a	301.248	n/a
260.803	0.497	angry	Picture	80.309	n/a	3	7	15	n/a	15	43	2	n/a	n/a	n/a	n/a	301.779	BF04HAS.jpg
261.3	0.514	Blank	Blank	79.795	n/a	3	7	15	n/a	15	n/a	2	n/a	n/a	n/a	n/a	302.276	n/a
261.831	0.497	angry	Picture	79.282	n/a	3	7	16	n/a	16	49	2	n/a	n/a	n/a	n/a	302.807	AF17HAS.jpg
262.328	0.514	Blank	Blank	78.768	n/a	3	7	16	n/a	16	n/a	2	n/a	n/a	n/a	n/a	303.304	n/a
262.858	0.497	angry	Picture	78.254	n/a	3	7	17	n/a	17	75	2	n/a	n/a	n/a	n/a	303.835	AM23HAS.jpg
263.356	0.514	Blank	Blank	77.74	n/a	3	7	17	n/a	17	n/a	2	n/a	n/a	n/a	n/a	304.332	n/a
263.886	0.497	angry	Picture	77.226	n/a	3	7	18	n/a	18	80	2	n/a	n/a	n/a	n/a	304.863	BM35HAS.jpg
264.384	0.514	Blank	Blank	76.712	n/a	3	7	18	n/a	18	n/a	2	n/a	n/a	n/a	n/a	305.36	n/a
264.914	0.497	angry	Picture	76.198	n/a	3	7	19	n/a	19	76	2	n/a	n/a	n/a	n/a	305.891	BM24HAS.jpg
265.412	0.514	Blank	Blank	75.684	n/a	3	7	19	n/a	19	n/a	2	n/a	n/a	n/a	n/a	306.388	n/a
265.942	0.497	angry	Picture	75.17	n/a	3	7	20	n/a	20	74	2	n/a	n/a	n/a	n/a	306.918	AM22HAS.jpg
266.44	0.514	Blank	Blank	74.656	n/a	3	7	20	n/a	20	n/a	2	n/a	n/a	n/a	n/a	307.416	n/a
266.97	10.014	ITI	Fixation+	64.626	n/a	3	n/a	n/a	n/a	n/a	n/a	n/a	n/a	n/a	n/a	n/a	307.946	n/a
277.0	0.497	neutral	Picture	64.112	n/a	3	8	1	n/a	21	33	1	n/a	n/a	n/a	n/a	317.977	AM21NES.jpg
277.498	0.514	Blank	Blank	63.598	n/a	3	8	1	n/a	21	n/a	1	n/a	n/a	n/a	n/a	318.474	n/a
278.028	0.497	neutral	Picture	63.084	n/a	3	8	2	n/a	22	39	1	n/a	n/a	n/a	n/a	319.005	AM28NES.jpg
278.526	0.514	Blank	Blank	62.57	n/a	3	8	2	n/a	22	n/a	1	n/a	n/a	n/a	n/a	319.502	n/a
279.056	0.497	neutral	Picture	62.056	n/a	3	8	3	n/a	23	25	1	n/a	n/a	n/a	n/a	320.032	BM06NES.jpg
279.553	0.514	Blank	Blank	61.542	n/a	3	8	3	n/a	23	n/a	1	n/a	n/a	n/a	n/a	320.53	n/a
280.084	0.497	neutral	Picture	61.028	n/a	3	8	4	n/a	24	5	1	n/a	n/a	n/a	n/a	321.06	BF07NES.jpg
280.581	0.514	Blank	Blank	60.514	n/a	3	8	4	n/a	24	n/a	1	n/a	n/a	n/a	n/a	321.558	n/a
281.112	0.497	neutral	Picture	60.0	n/a	3	8	5	n/a	25	10	1	n/a	n/a	n/a	n/a	322.088	AF18NES.jpg
281.609	0.514	Blank	Blank	59.486	n/a	3	8	5	n/a	25	n/a	1	n/a	n/a	n/a	n/a	322.586	n/a
282.14	0.497	neutral	Picture	58.972	n/a	3	8	6	n/a	26	34	1	n/a	n/a	n/a	n/a	323.116	AM22NES.jpg
282.637	0.514	Blank	Blank	58.459	n/a	3	8	6	n/a	26	n/a	1	n/a	n/a	n/a	n/a	323.613	n/a
283.168	0.497	neutral	Picture	57.945	n/a	3	8	7	n/a	27	36	1	n/a	n/a	n/a	n/a	324.144	BM24NES.jpg
283.665	0.514	Blank	Blank	57.431	n/a	3	8	7	n/a	27	n/a	1	n/a	n/a	n/a	n/a	324.641	n/a
284.196	0.497	neutral	Picture	56.917	n/a	3	8	8	n/a	28	14	1	n/a	n/a	n/a	n/a	325.172	AF23NES.jpg
284.693	0.514	Blank	Blank	56.403	n/a	3	8	8	n/a	28	n/a	1	n/a	n/a	n/a	n/a	325.669	n/a
285.223	0.497	neutral	Picture	55.889	n/a	3	8	9	n/a	29	9	1	n/a	n/a	n/a	n/a	326.2	AF17NES.jpg
285.721	0.514	Blank	Blank	55.375	n/a	3	8	9	n/a	29	n/a	1	n/a	n/a	n/a	n/a	326.697	n/a
286.251	0.497	neutral	Picture	54.861	n/a	3	8	10	n/a	30	19	1	n/a	n/a	n/a	n/a	327.228	AF31NES.jpg
286.749	0.514	Blank	Blank	54.347	n/a	3	8	10	n/a	30	n/a	1	n/a	n/a	n/a	n/a	327.725	n/a
287.279	0.497	neutral	Picture	53.833	n/a	3	8	11	n/a	31	15	1	n/a	n/a	n/a	n/a	328.255	AF25NES.jpg
287.776	0.514	Blank	Blank	53.319	n/a	3	8	11	n/a	31	n/a	1	n/a	n/a	n/a	n/a	328.753	n/a
288.307	0.497	neutral	Picture	52.805	n/a	3	8	12	n/a	32	22	1	n/a	n/a	n/a	n/a	329.283	BM03NES.jpg
288.804	0.514	Blank	Blank	52.291	n/a	3	8	12	n/a	32	n/a	1	n/a	n/a	n/a	n/a	329.781	n/a
289.335	0.497	neutral	Picture	51.777	n/a	3	8	13	n/a	33	11	1	n/a	n/a	n/a	n/a	330.311	AF20NES.jpg
289.832	0.514	Blank	Blank	51.263	n/a	3	8	13	n/a	33	n/a	1	n/a	n/a	n/a	n/a	330.809	n/a
290.363	0.497	neutral	Picture	50.75	n/a	3	8	14	n/a	34	4	1	n/a	n/a	n/a	n/a	331.339	AF05NES.jpg
290.86	0.514	Blank	Blank	50.235	n/a	3	8	14	n/a	34	n/a	1	n/a	n/a	n/a	n/a	331.836	n/a
291.391	0.497	neutral	Picture	49.721	n/a	3	8	15	n/a	35	17	1	n/a	n/a	n/a	n/a	332.367	BF28NES.jpg
291.888	0.514	Blank	Blank	49.208	n/a	3	8	15	n/a	35	n/a	1	n/a	n/a	n/a	n/a	332.864	n/a
292.419	0.497	neutral	Picture	48.694	n/a	3	8	16	n/a	36	13	1	n/a	n/a	n/a	n/a	333.395	BF22NES.jpg
292.916	0.514	Blank	Blank	48.18	n/a	3	8	16	n/a	36	n/a	1	n/a	n/a	n/a	n/a	333.892	n/a
293.447	0.497	neutral	Picture	47.666	n/a	3	8	17	n/a	37	12	1	n/a	n/a	n/a	n/a	334.423	AF21NES.jpg
293.944	0.514	Blank	Blank	47.152	n/a	3	8	17	n/a	37	n/a	1	n/a	n/a	n/a	n/a	334.92	n/a
294.474	0.497	neutral	Picture	46.638	n/a	3	8	18	n/a	38	24	1	n/a	n/a	n/a	n/a	335.451	BM05NES.jpg
294.972	0.514	Blank	Blank	46.124	n/a	3	8	18	n/a	38	n/a	1	n/a	n/a	n/a	n/a	335.948	n/a
295.502	0.497	neutral	Picture	45.61	n/a	3	8	19	n/a	39	29	1	n/a	n/a	n/a	n/a	336.478	AM10NES.jpg
296.0	0.514	Blank	Blank	45.096	n/a	3	8	19	n/a	39	n/a	1	n/a	n/a	n/a	n/a	336.976	n/a
296.53	0.497	neutral	Picture	44.582	n/a	3	8	20	n/a	40	23	1	n/a	n/a	n/a	n/a	337.506	AM04NES.jpg
297.028	0.514	Blank	Blank	44.068	n/a	3	8	20	n/a	40	n/a	1	n/a	n/a	n/a	n/a	338.004	n/a
297.558	10.014	ITI	Fixation+	34.038	n/a	3	n/a	n/a	n/a	n/a	n/a	n/a	n/a	n/a	n/a	n/a	338.534	n/a
307.588	0.497	angry	Picture	33.524	n/a	3	9	1	n/a	41	62	2	n/a	n/a	n/a	n/a	348.565	BM03HAS.jpg
308.086	0.514	Blank	Blank	33.01	n/a	3	9	1	n/a	41	n/a	2	n/a	n/a	n/a	n/a	349.062	n/a
308.616	0.497	angry	Picture	32.496	n/a	3	9	2	n/a	42	52	2	n/a	n/a	n/a	n/a	349.592	AF21HAS.jpg
309.114	0.514	Blank	Blank	31.982	n/a	3	9	2	n/a	42	n/a	2	n/a	n/a	n/a	n/a	350.09	n/a
309.644	0.497	angry	Picture	31.468	n/a	3	9	3	n/a	43	44	2	n/a	n/a	n/a	n/a	350.62	AF05HAS.jpg
310.141	0.514	Blank	Blank	30.954	n/a	3	9	3	n/a	43	n/a	2	n/a	n/a	n/a	n/a	351.118	n/a
310.672	0.497	angry	Picture	30.44	n/a	3	9	4	n/a	44	53	2	n/a	n/a	n/a	n/a	351.648	BF22HAS.jpg
311.169	0.514	Blank	Blank	29.926	n/a	3	9	4	n/a	44	n/a	2	n/a	n/a	n/a	n/a	352.146	n/a
311.7	0.497	angry	Picture	29.412	n/a	3	9	5	n/a	45	54	2	n/a	n/a	n/a	n/a	352.676	AF23HAS.jpg
312.197	0.514	Blank	Blank	28.898	n/a	3	9	5	n/a	45	n/a	2	n/a	n/a	n/a	n/a	353.173	n/a
312.728	0.497	angry	Picture	28.385	n/a	3	9	6	n/a	46	68	2	n/a	n/a	n/a	n/a	353.704	AM09HAS.jpg
313.225	0.514	Blank	Blank	27.871	n/a	3	9	6	n/a	46	n/a	2	n/a	n/a	n/a	n/a	354.201	n/a
313.756	0.497	angry	Picture	27.357	n/a	3	9	7	n/a	47	64	2	n/a	n/a	n/a	n/a	354.732	BM05HAS.jpg
314.253	0.514	Blank	Blank	26.843	n/a	3	9	7	n/a	47	n/a	2	n/a	n/a	n/a	n/a	355.229	n/a
314.783	0.497	angry	Picture	26.329	n/a	3	9	8	n/a	48	59	2	n/a	n/a	n/a	n/a	355.76	AF31HAS.jpg
315.281	0.514	Blank	Blank	25.815	n/a	3	9	8	n/a	48	n/a	2	n/a	n/a	n/a	n/a	356.257	n/a
315.811	0.497	angry	Picture	25.301	n/a	3	9	9	n/a	49	41	2	n/a	n/a	n/a	n/a	356.788	AF01HAS.jpg
316.309	0.514	Blank	Blank	24.787	n/a	3	9	9	n/a	49	n/a	2	n/a	n/a	n/a	n/a	357.285	n/a
316.839	0.497	angry	Picture	24.273	n/a	3	9	10	n/a	50	73	2	n/a	n/a	n/a	n/a	357.815	AM21HAS.jpg
317.337	0.514	Blank	Blank	23.759	n/a	3	9	10	n/a	50	n/a	2	n/a	n/a	n/a	n/a	358.313	n/a
317.867	0.497	angry	Picture	23.245	n/a	3	9	11	n/a	51	65	2	n/a	n/a	n/a	n/a	358.843	BM06HAS.jpg
318.364	0.514	Blank	Blank	22.731	n/a	3	9	11	n/a	51	n/a	2	n/a	n/a	n/a	n/a	359.341	n/a
318.895	0.497	angry	Picture	22.217	n/a	3	9	12	n/a	52	56	2	n/a	n/a	n/a	n/a	359.871	AF26HAS.jpg
319.392	0.514	Blank	Blank	21.703	n/a	3	9	12	n/a	52	n/a	2	n/a	n/a	n/a	n/a	360.369	n/a
319.923	0.497	angry	Picture	21.189	n/a	3	9	13	n/a	53	45	2	n/a	n/a	n/a	n/a	360.899	BF07HAS.jpg
320.42	0.514	Blank	Blank	20.675	n/a	3	9	13	n/a	53	n/a	2	n/a	n/a	n/a	n/a	361.397	n/a
320.951	0.497	angry	Picture	20.161	n/a	3	9	14	n/a	54	78	2	n/a	n/a	n/a	n/a	361.927	BM26HAS.jpg
321.448	0.514	Blank	Blank	19.648	n/a	3	9	14	n/a	54	n/a	2	n/a	n/a	n/a	n/a	362.424	n/a
321.979	0.497	angry	Picture	19.134	n/a	3	9	15	n/a	55	50	2	n/a	n/a	n/a	n/a	362.955	AF18HAS.jpg
322.476	0.514	Blank	Blank	18.62	n/a	3	9	15	n/a	55	n/a	2	n/a	n/a	n/a	n/a	363.452	n/a
323.007	0.497	angry	Picture	18.106	n/a	3	9	16	n/a	56	47	2	n/a	n/a	n/a	n/a	363.983	BF11HAS.jpg
323.504	0.514	Blank	Blank	17.592	n/a	3	9	16	n/a	56	n/a	2	n/a	n/a	n/a	n/a	364.48	n/a
324.034	0.497	angry	Picture	17.078	n/a	3	9	17	n/a	57	77	2	n/a	n/a	n/a	n/a	365.011	BM25HAS.jpg
324.532	0.514	Blank	Blank	16.564	n/a	3	9	17	n/a	57	n/a	2	n/a	n/a	n/a	n/a	365.508	n/a
325.062	0.497	angry	Picture	16.05	n/a	3	9	18	n/a	58	57	2	n/a	n/a	n/a	n/a	366.039	BF28HAS.jpg
325.56	0.514	Blank	Blank	15.536	n/a	3	9	18	n/a	58	n/a	2	n/a	n/a	n/a	n/a	366.536	n/a
326.09	0.497	angry	Picture	15.022	n/a	3	9	19	n/a	59	61	2	n/a	n/a	n/a	n/a	367.067	AM01HAS.jpg
326.588	0.514	Blank	Blank	14.508	n/a	3	9	19	n/a	59	n/a	2	n/a	n/a	n/a	n/a	367.564	n/a
327.118	0.497	angry	Picture	13.994	n/a	3	9	20	n/a	60	79	2	n/a	n/a	n/a	n/a	368.094	BM28HAS.jpg
327.615	0.514	Blank	Blank	13.48	n/a	3	9	20	n/a	60	n/a	2	n/a	n/a	n/a	n/a	368.592	n/a
328.146	10.014	ITI	Fixation+	3.45	n/a	3	n/a	n/a	n/a	n/a	n/a	n/a	n/a	n/a	n/a	n/a	369.122	n/a
341.61	n/a	ConfirmRating	Rate	n/a	3.448	3	n/a	n/a	0	n/a	n/a	n/a	2	Angry	73	52	382.586	n/a
344.179	n/a	ConfirmRating	Rate	n/a	2.553	3	n/a	n/a	1	n/a	n/a	n/a	3	Angry	0	49	385.155	n/a
344.211	10.014	ITI	Fixation+	93.954	n/a	4	n/a	n/a	n/a	n/a	n/a	n/a	n/a	n/a	n/a	n/a	385.187	n/a
354.241	0.497	happy	Picture	93.44	n/a	4	10	1	n/a	61	119	3	n/a	n/a	n/a	n/a	395.217	BM28ANS.jpg
354.738	0.514	Blank	Blank	92.926	n/a	4	10	1	n/a	61	n/a	3	n/a	n/a	n/a	n/a	395.715	n/a
355.269	0.497	happy	Picture	92.412	n/a	4	10	2	n/a	62	100	3	n/a	n/a	n/a	n/a	396.245	AF32ANS.jpg
355.766	0.514	Blank	Blank	91.898	n/a	4	10	2	n/a	62	n/a	3	n/a	n/a	n/a	n/a	396.743	n/a
356.297	0.497	happy	Picture	91.384	n/a	4	10	3	n/a	63	118	3	n/a	n/a	n/a	n/a	397.273	BM26ANS.jpg
356.794	0.514	Blank	Blank	90.87	n/a	4	10	3	n/a	63	n/a	3	n/a	n/a	n/a	n/a	397.771	n/a
357.325	0.497	happy	Picture	90.357	n/a	4	10	4	n/a	64	89	3	n/a	n/a	n/a	n/a	398.301	AF17ANS.jpg
357.822	0.514	Blank	Blank	89.843	n/a	4	10	4	n/a	64	n/a	3	n/a	n/a	n/a	n/a	398.798	n/a
358.353	0.497	happy	Picture	89.329	n/a	4	10	5	n/a	65	116	3	n/a	n/a	n/a	n/a	399.329	BM24ANS.jpg
358.85	0.514	Blank	Blank	88.815	n/a	4	10	5	n/a	65	n/a	3	n/a	n/a	n/a	n/a	399.826	n/a
359.38	0.497	happy	Picture	88.301	n/a	4	10	6	n/a	66	105	3	n/a	n/a	n/a	n/a	400.357	BM06ANS.jpg
359.878	0.514	Blank	Blank	87.787	n/a	4	10	6	n/a	66	n/a	3	n/a	n/a	n/a	n/a	400.854	n/a
360.408	0.497	happy	Picture	87.273	n/a	4	10	7	n/a	67	106	3	n/a	n/a	n/a	n/a	401.385	AM07ANS.jpg
360.906	0.514	Blank	Blank	86.759	n/a	4	10	7	n/a	67	n/a	3	n/a	n/a	n/a	n/a	401.882	n/a
361.436	0.497	happy	Picture	86.245	n/a	4	10	8	n/a	68	94	3	n/a	n/a	n/a	n/a	402.413	AF23ANS.jpg
361.934	0.514	Blank	Blank	85.731	n/a	4	10	8	n/a	68	n/a	3	n/a	n/a	n/a	n/a	402.91	n/a
362.464	0.497	happy	Picture	85.217	n/a	4	10	9	n/a	69	117	3	n/a	n/a	n/a	n/a	403.44	BM25ANS.jpg
362.962	0.514	Blank	Blank	84.703	n/a	4	10	9	n/a	69	n/a	3	n/a	n/a	n/a	n/a	403.938	n/a
363.492	0.497	happy	Picture	84.189	n/a	4	10	10	n/a	70	90	3	n/a	n/a	n/a	n/a	404.468	AF18ANS.jpg
363.989	0.514	Blank	Blank	83.675	n/a	4	10	10	n/a	70	n/a	3	n/a	n/a	n/a	n/a	404.966	n/a
364.52	0.497	happy	Picture	83.161	n/a	4	10	11	n/a	71	83	3	n/a	n/a	n/a	n/a	405.496	BF04ANS.jpg
365.017	0.514	Blank	Blank	82.647	n/a	4	10	11	n/a	71	n/a	3	n/a	n/a	n/a	n/a	405.994	n/a
365.548	0.497	happy	Picture	82.134	n/a	4	10	12	n/a	72	112	3	n/a	n/a	n/a	n/a	406.524	AM14ANS.jpg
366.045	0.514	Blank	Blank	81.619	n/a	4	10	12	n/a	72	n/a	3	n/a	n/a	n/a	n/a	407.021	n/a
366.576	0.497	happy	Picture	81.106	n/a	4	10	13	n/a	73	102	3	n/a	n/a	n/a	n/a	407.552	BM03ANS.jpg
367.073	0.514	Blank	Blank	80.592	n/a	4	10	13	n/a	73	n/a	3	n/a	n/a	n/a	n/a	408.049	n/a
367.603	0.497	happy	Picture	80.078	n/a	4	10	14	n/a	74	95	3	n/a	n/a	n/a	n/a	408.58	AF25ANS.jpg
368.101	0.514	Blank	Blank	79.564	n/a	4	10	14	n/a	74	n/a	3	n/a	n/a	n/a	n/a	409.077	n/a
368.631	0.497	happy	Picture	79.05	n/a	4	10	15	n/a	75	113	3	n/a	n/a	n/a	n/a	409.608	AM21ANS.jpg
369.129	0.514	Blank	Blank	78.536	n/a	4	10	15	n/a	75	n/a	3	n/a	n/a	n/a	n/a	410.105	n/a
369.659	0.497	happy	Picture	78.022	n/a	4	10	16	n/a	76	88	3	n/a	n/a	n/a	n/a	410.636	AF14ANS.jpg
370.157	0.514	Blank	Blank	77.508	n/a	4	10	16	n/a	76	n/a	3	n/a	n/a	n/a	n/a	411.133	n/a
370.687	0.497	happy	Picture	76.994	n/a	4	10	17	n/a	77	93	3	n/a	n/a	n/a	n/a	411.663	BF22ANS.jpg
371.185	0.514	Blank	Blank	76.48	n/a	4	10	17	n/a	77	n/a	3	n/a	n/a	n/a	n/a	412.161	n/a
371.715	0.497	happy	Picture	75.966	n/a	4	10	18	n/a	78	86	3	n/a	n/a	n/a	n/a	412.691	AF09ANS.jpg
372.213	0.514	Blank	Blank	75.452	n/a	4	10	18	n/a	78	n/a	3	n/a	n/a	n/a	n/a	413.189	n/a
372.743	0.497	happy	Picture	74.938	n/a	4	10	19	n/a	79	92	3	n/a	n/a	n/a	n/a	413.719	AF21ANS.jpg
373.24	0.514	Blank	Blank	74.424	n/a	4	10	19	n/a	79	n/a	3	n/a	n/a	n/a	n/a	414.217	n/a
373.771	0.497	happy	Picture	73.91	n/a	4	10	20	n/a	80	84	3	n/a	n/a	n/a	n/a	414.747	AF05ANS.jpg
374.268	0.514	Blank	Blank	73.396	n/a	4	10	20	n/a	80	n/a	3	n/a	n/a	n/a	n/a	415.245	n/a
374.799	10.014	ITI	Fixation+	63.366	n/a	4	n/a	n/a	n/a	n/a	n/a	n/a	n/a	n/a	n/a	n/a	415.775	n/a
384.829	0.497	neutral	Picture	62.852	n/a	4	11	1	n/a	81	4	1	n/a	n/a	n/a	n/a	425.805	AF05NES.jpg
385.326	0.514	Blank	Blank	62.338	n/a	4	11	1	n/a	81	n/a	1	n/a	n/a	n/a	n/a	426.303	n/a
385.857	0.497	neutral	Picture	61.824	n/a	4	11	2	n/a	82	14	1	n/a	n/a	n/a	n/a	426.833	AF23NES.jpg
386.354	0.514	Blank	Blank	61.311	n/a	4	11	2	n/a	82	n/a	1	n/a	n/a	n/a	n/a	427.33	n/a
386.885	0.497	neutral	Picture	60.796	n/a	4	11	3	n/a	83	19	1	n/a	n/a	n/a	n/a	427.861	AF31NES.jpg
387.382	0.514	Blank	Blank	60.283	n/a	4	11	3	n/a	83	n/a	1	n/a	n/a	n/a	n/a	428.358	n/a
387.913	0.497	neutral	Picture	59.769	n/a	4	11	4	n/a	84	8	1	n/a	n/a	n/a	n/a	428.889	AF14NES.jpg
388.41	0.514	Blank	Blank	59.255	n/a	4	11	4	n/a	84	n/a	1	n/a	n/a	n/a	n/a	429.386	n/a
388.941	0.497	neutral	Picture	58.741	n/a	4	11	5	n/a	85	25	1	n/a	n/a	n/a	n/a	429.917	BM06NES.jpg
389.438	0.514	Blank	Blank	58.227	n/a	4	11	5	n/a	85	n/a	1	n/a	n/a	n/a	n/a	430.414	n/a
389.968	0.497	neutral	Picture	57.713	n/a	4	11	6	n/a	86	9	1	n/a	n/a	n/a	n/a	430.945	AF17NES.jpg
390.466	0.514	Blank	Blank	57.199	n/a	4	11	6	n/a	86	n/a	1	n/a	n/a	n/a	n/a	431.442	n/a
390.996	0.497	neutral	Picture	56.685	n/a	4	11	7	n/a	87	2	1	n/a	n/a	n/a	n/a	431.973	AF03NES.jpg
391.494	0.514	Blank	Blank	56.171	n/a	4	11	7	n/a	87	n/a	1	n/a	n/a	n/a	n/a	432.47	n/a
392.024	0.497	neutral	Picture	55.657	n/a	4	11	8	n/a	88	17	1	n/a	n/a	n/a	n/a	433.0	BF28NES.jpg
392.522	0.514	Blank	Blank	55.143	n/a	4	11	8	n/a	88	n/a	1	n/a	n/a	n/a	n/a	433.498	n/a
393.052	0.497	neutral	Picture	54.629	n/a	4	11	9	n/a	89	6	1	n/a	n/a	n/a	n/a	434.028	AF09NES.jpg
393.549	0.514	Blank	Blank	54.115	n/a	4	11	9	n/a	89	n/a	1	n/a	n/a	n/a	n/a	434.526	n/a
394.08	0.497	neutral	Picture	53.601	n/a	4	11	10	n/a	90	12	1	n/a	n/a	n/a	n/a	435.056	AF21NES.jpg
394.577	0.514	Blank	Blank	53.087	n/a	4	11	10	n/a	90	n/a	1	n/a	n/a	n/a	n/a	435.554	n/a
395.108	0.497	neutral	Picture	52.573	n/a	4	11	11	n/a	91	24	1	n/a	n/a	n/a	n/a	436.084	BM05NES.jpg
395.605	0.514	Blank	Blank	52.06	n/a	4	11	11	n/a	91	n/a	1	n/a	n/a	n/a	n/a	436.582	n/a
396.136	0.497	neutral	Picture	51.545	n/a	4	11	12	n/a	92	34	1	n/a	n/a	n/a	n/a	437.112	AM22NES.jpg
396.633	0.514	Blank	Blank	51.032	n/a	4	11	12	n/a	92	n/a	1	n/a	n/a	n/a	n/a	437.609	n/a
397.164	0.497	neutral	Picture	50.518	n/a	4	11	13	n/a	93	23	1	n/a	n/a	n/a	n/a	438.14	AM04NES.jpg
397.661	0.514	Blank	Blank	50.004	n/a	4	11	13	n/a	93	n/a	1	n/a	n/a	n/a	n/a	438.637	n/a
398.192	0.497	neutral	Picture	49.49	n/a	4	11	14	n/a	94	15	1	n/a	n/a	n/a	n/a	439.168	AF25NES.jpg
398.689	0.514	Blank	Blank	48.976	n/a	4	11	14	n/a	94	n/a	1	n/a	n/a	n/a	n/a	439.665	n/a
399.219	0.497	neutral	Picture	48.462	n/a	4	11	15	n/a	95	37	1	n/a	n/a	n/a	n/a	440.196	BM25NES.jpg
399.717	0.514	Blank	Blank	47.948	n/a	4	11	15	n/a	95	n/a	1	n/a	n/a	n/a	n/a	440.693	n/a
400.247	0.497	neutral	Picture	47.434	n/a	4	11	16	n/a	96	32	1	n/a	n/a	n/a	n/a	441.224	AM14NES.jpg
400.745	0.514	Blank	Blank	46.92	n/a	4	11	16	n/a	96	n/a	1	n/a	n/a	n/a	n/a	441.721	n/a
401.275	0.497	neutral	Picture	46.406	n/a	4	11	17	n/a	97	3	1	n/a	n/a	n/a	n/a	442.251	BF04NES.jpg
401.773	0.514	Blank	Blank	45.892	n/a	4	11	17	n/a	97	n/a	1	n/a	n/a	n/a	n/a	442.749	n/a
402.303	0.497	neutral	Picture	45.378	n/a	4	11	18	n/a	98	16	1	n/a	n/a	n/a	n/a	443.279	AF26NES.jpg
402.8	0.514	Blank	Blank	44.864	n/a	4	11	18	n/a	98	n/a	1	n/a	n/a	n/a	n/a	443.777	n/a
403.331	0.497	neutral	Picture	44.35	n/a	4	11	19	n/a	99	27	1	n/a	n/a	n/a	n/a	444.307	BM08NES.jpg
403.828	0.514	Blank	Blank	43.836	n/a	4	11	19	n/a	99	n/a	1	n/a	n/a	n/a	n/a	444.805	n/a
404.359	0.497	neutral	Picture	43.322	n/a	4	11	20	n/a	100	28	1	n/a	n/a	n/a	n/a	445.335	AM09NES.jpg
404.856	0.514	Blank	Blank	42.809	n/a	4	11	20	n/a	100	n/a	1	n/a	n/a	n/a	n/a	445.832	n/a
405.387	10.014	ITI	Fixation+	32.778	n/a	4	n/a	n/a	n/a	n/a	n/a	n/a	n/a	n/a	n/a	n/a	446.363	n/a
415.417	0.497	happy	Picture	32.264	n/a	4	12	1	n/a	101	81	3	n/a	n/a	n/a	n/a	456.393	AF01ANS.jpg
415.914	0.514	Blank	Blank	31.75	n/a	4	12	1	n/a	101	n/a	3	n/a	n/a	n/a	n/a	456.89	n/a
416.445	0.497	happy	Picture	31.236	n/a	4	12	2	n/a	102	120	3	n/a	n/a	n/a	n/a	457.421	AM35ANS.jpg
416.942	0.514	Blank	Blank	30.722	n/a	4	12	2	n/a	102	n/a	3	n/a	n/a	n/a	n/a	457.918	n/a
417.473	0.497	happy	Picture	30.209	n/a	4	12	3	n/a	103	114	3	n/a	n/a	n/a	n/a	458.449	AM22ANS.jpg
417.97	0.514	Blank	Blank	29.695	n/a	4	12	3	n/a	103	n/a	3	n/a	n/a	n/a	n/a	458.946	n/a
418.501	0.497	happy	Picture	29.181	n/a	4	12	4	n/a	104	109	3	n/a	n/a	n/a	n/a	459.477	AM10ANS.jpg
418.998	0.514	Blank	Blank	28.667	n/a	4	12	4	n/a	104	n/a	3	n/a	n/a	n/a	n/a	459.974	n/a
419.528	0.497	happy	Picture	28.153	n/a	4	12	5	n/a	105	96	3	n/a	n/a	n/a	n/a	460.505	AF26ANS.jpg
420.026	0.514	Blank	Blank	27.639	n/a	4	12	5	n/a	105	n/a	3	n/a	n/a	n/a	n/a	461.002	n/a
420.556	0.497	happy	Picture	27.125	n/a	4	12	6	n/a	106	82	3	n/a	n/a	n/a	n/a	461.533	AF03ANS.jpg
421.054	0.514	Blank	Blank	26.611	n/a	4	12	6	n/a	106	n/a	3	n/a	n/a	n/a	n/a	462.03	n/a
421.584	0.497	happy	Picture	26.097	n/a	4	12	7	n/a	107	97	3	n/a	n/a	n/a	n/a	462.56	BF28ANS.jpg
422.082	0.514	Blank	Blank	25.583	n/a	4	12	7	n/a	107	n/a	3	n/a	n/a	n/a	n/a	463.058	n/a
422.612	0.497	happy	Picture	25.069	n/a	4	12	8	n/a	108	115	3	n/a	n/a	n/a	n/a	463.588	AM23ANS.jpg
423.11	0.514	Blank	Blank	24.555	n/a	4	12	8	n/a	108	n/a	3	n/a	n/a	n/a	n/a	464.086	n/a
423.64	0.497	happy	Picture	24.041	n/a	4	12	9	n/a	109	91	3	n/a	n/a	n/a	n/a	464.616	AF20ANS.jpg
424.137	0.514	Blank	Blank	23.527	n/a	4	12	9	n/a	109	n/a	3	n/a	n/a	n/a	n/a	465.114	n/a
424.668	0.497	happy	Picture	23.013	n/a	4	12	10	n/a	110	87	3	n/a	n/a	n/a	n/a	465.644	BF11ANS.jpg
425.165	0.514	Blank	Blank	22.499	n/a	4	12	10	n/a	110	n/a	3	n/a	n/a	n/a	n/a	466.142	n/a
425.696	0.497	happy	Picture	21.986	n/a	4	12	11	n/a	111	85	3	n/a	n/a	n/a	n/a	466.672	BF07ANS.jpg
426.193	0.514	Blank	Blank	21.471	n/a	4	12	11	n/a	111	n/a	3	n/a	n/a	n/a	n/a	467.169	n/a
426.724	0.497	happy	Picture	20.958	n/a	4	12	12	n/a	112	110	3	n/a	n/a	n/a	n/a	467.7	AM11ANS.jpg
427.221	0.514	Blank	Blank	20.444	n/a	4	12	12	n/a	112	n/a	3	n/a	n/a	n/a	n/a	468.197	n/a
427.752	0.497	happy	Picture	19.93	n/a	4	12	13	n/a	113	111	3	n/a	n/a	n/a	n/a	468.728	BM12ANS.jpg
428.249	0.514	Blank	Blank	19.416	n/a	4	12	13	n/a	113	n/a	3	n/a	n/a	n/a	n/a	469.225	n/a
428.779	0.497	happy	Picture	18.902	n/a	4	12	14	n/a	114	103	3	n/a	n/a	n/a	n/a	469.756	AM04ANS.jpg
429.277	0.514	Blank	Blank	18.388	n/a	4	12	14	n/a	114	n/a	3	n/a	n/a	n/a	n/a	470.253	n/a
429.807	0.497	happy	Picture	17.874	n/a	4	12	15	n/a	115	101	3	n/a	n/a	n/a	n/a	470.784	AM01ANS.jpg
430.305	0.514	Blank	Blank	17.36	n/a	4	12	15	n/a	115	n/a	3	n/a	n/a	n/a	n/a	471.281	n/a
430.835	0.497	happy	Picture	16.846	n/a	4	12	16	n/a	116	104	3	n/a	n/a	n/a	n/a	471.812	BM05ANS.jpg
431.333	0.514	Blank	Blank	16.332	n/a	4	12	16	n/a	116	n/a	3	n/a	n/a	n/a	n/a	472.309	n/a
431.863	0.497	happy	Picture	15.818	n/a	4	12	17	n/a	117	107	3	n/a	n/a	n/a	n/a	472.839	BM08ANS.jpg
432.36	0.514	Blank	Blank	15.304	n/a	4	12	17	n/a	117	n/a	3	n/a	n/a	n/a	n/a	473.337	n/a
432.891	0.497	happy	Picture	14.79	n/a	4	12	18	n/a	118	98	3	n/a	n/a	n/a	n/a	473.867	BF29ANS.jpg
433.388	0.514	Blank	Blank	14.276	n/a	4	12	18	n/a	118	n/a	3	n/a	n/a	n/a	n/a	474.365	n/a
433.919	0.497	happy	Picture	13.762	n/a	4	12	19	n/a	119	99	3	n/a	n/a	n/a	n/a	474.895	AF31ANS.jpg
434.416	0.514	Blank	Blank	13.248	n/a	4	12	19	n/a	119	n/a	3	n/a	n/a	n/a	n/a	475.392	n/a
434.947	0.497	happy	Picture	12.734	n/a	4	12	20	n/a	120	108	3	n/a	n/a	n/a	n/a	475.923	AM09ANS.jpg
435.444	0.514	Blank	Blank	12.221	n/a	4	12	20	n/a	120	n/a	3	n/a	n/a	n/a	n/a	476.42	n/a
435.975	10.014	ITI	Fixation+	2.19	n/a	4	n/a	n/a	n/a	n/a	n/a	n/a	n/a	n/a	n/a	n/a	476.951	n/a
448.179	n/a	ConfirmRating	Rate	n/a	2.188	4	n/a	n/a	0	n/a	n/a	n/a	2	Happy	67	51	489.155	n/a
451.028	n/a	ConfirmRating	Rate	n/a	2.818	4	n/a	n/a	1	n/a	n/a	n/a	3	Happy	0	49	492.004	n/a
