onset	duration	trial_type	event_type	time_until_response	response_time	trial_number	block_num_within_trial	image_seq_num_within_block	question_seq_num_within_block	image_seq_num	picture_number	condition	question_type	block_type	rating	rating_computed	onset_uncorrected	KDEV_imagefile
0.003	10.014	ITI	Fixation+	107.137	n/a	1	n/a	n/a	n/a	n/a	n/a	n/a	n/a	n/a	n/a	n/a	27.316	n/a
10.033	0.497	angry	Picture	106.623	n/a	1	1	1	n/a	1	108	3	n/a	n/a	n/a	n/a	37.347	AM09ANS.jpg
10.53	0.514	Blank	Blank	106.109	n/a	1	1	1	n/a	1	n/a	3	n/a	n/a	n/a	n/a	37.844	n/a
11.061	0.497	angry	Picture	105.596	n/a	1	1	2	n/a	2	99	3	n/a	n/a	n/a	n/a	38.374	AF31ANS.jpg
11.558	0.514	Blank	Blank	105.082	n/a	1	1	2	n/a	2	n/a	3	n/a	n/a	n/a	n/a	38.872	n/a
12.089	0.497	angry	Picture	104.568	n/a	1	1	3	n/a	3	98	3	n/a	n/a	n/a	n/a	39.402	BF29ANS.jpg
12.586	0.514	Blank	Blank	104.054	n/a	1	1	3	n/a	3	n/a	3	n/a	n/a	n/a	n/a	39.9	n/a
13.116	0.497	angry	Picture	103.54	n/a	1	1	4	n/a	4	107	3	n/a	n/a	n/a	n/a	40.43	BM08ANS.jpg
13.614	0.514	Blank	Blank	103.026	n/a	1	1	4	n/a	4	n/a	3	n/a	n/a	n/a	n/a	40.928	n/a
14.144	0.497	angry	Picture	102.512	n/a	1	1	5	n/a	5	104	3	n/a	n/a	n/a	n/a	41.458	BM05ANS.jpg
14.642	0.514	Blank	Blank	101.998	n/a	1	1	5	n/a	5	n/a	3	n/a	n/a	n/a	n/a	41.956	n/a
15.172	0.497	angry	Picture	101.484	n/a	1	1	6	n/a	6	101	3	n/a	n/a	n/a	n/a	42.486	AM01ANS.jpg
15.67	0.514	Blank	Blank	100.97	n/a	1	1	6	n/a	6	n/a	3	n/a	n/a	n/a	n/a	42.983	n/a
16.2	0.497	angry	Picture	100.456	n/a	1	1	7	n/a	7	103	3	n/a	n/a	n/a	n/a	43.514	AM04ANS.jpg
16.698	0.514	Blank	Blank	99.942	n/a	1	1	7	n/a	7	n/a	3	n/a	n/a	n/a	n/a	44.011	n/a
17.228	0.497	angry	Picture	99.428	n/a	1	1	8	n/a	8	111	3	n/a	n/a	n/a	n/a	44.542	BM12ANS.jpg
17.725	0.514	Blank	Blank	98.914	n/a	1	1	8	n/a	8	n/a	3	n/a	n/a	n/a	n/a	45.039	n/a
18.256	0.497	angry	Picture	98.4	n/a	1	1	9	n/a	9	110	3	n/a	n/a	n/a	n/a	45.57	AM11ANS.jpg
18.753	0.514	Blank	Blank	97.886	n/a	1	1	9	n/a	9	n/a	3	n/a	n/a	n/a	n/a	46.067	n/a
19.284	0.497	angry	Picture	97.372	n/a	1	1	10	n/a	10	85	3	n/a	n/a	n/a	n/a	46.597	BF07ANS.jpg
19.781	0.514	Blank	Blank	96.858	n/a	1	1	10	n/a	10	n/a	3	n/a	n/a	n/a	n/a	47.095	n/a
20.312	0.497	angry	Picture	96.344	n/a	1	1	11	n/a	11	87	3	n/a	n/a	n/a	n/a	47.625	BF11ANS.jpg
20.809	0.514	Blank	Blank	95.831	n/a	1	1	11	n/a	11	n/a	3	n/a	n/a	n/a	n/a	48.123	n/a
21.34	0.497	angry	Picture	95.317	n/a	1	1	12	n/a	12	91	3	n/a	n/a	n/a	n/a	48.653	AF20ANS.jpg
21.837	0.514	Blank	Blank	94.803	n/a	1	1	12	n/a	12	n/a	3	n/a	n/a	n/a	n/a	49.151	n/a
22.367	0.497	angry	Picture	94.289	n/a	1	1	13	n/a	13	115	3	n/a	n/a	n/a	n/a	49.681	AM23ANS.jpg
22.865	0.514	Blank	Blank	93.775	n/a	1	1	13	n/a	13	n/a	3	n/a	n/a	n/a	n/a	50.178	n/a
23.395	0.497	angry	Picture	93.261	n/a	1	1	14	n/a	14	97	3	n/a	n/a	n/a	n/a	50.709	BF28ANS.jpg
23.893	0.514	Blank	Blank	92.747	n/a	1	1	14	n/a	14	n/a	3	n/a	n/a	n/a	n/a	51.206	n/a
24.423	0.497	angry	Picture	92.233	n/a	1	1	15	n/a	15	82	3	n/a	n/a	n/a	n/a	51.737	AF03ANS.jpg
24.921	0.514	Blank	Blank	91.719	n/a	1	1	15	n/a	15	n/a	3	n/a	n/a	n/a	n/a	52.234	n/a
25.451	0.497	angry	Picture	91.205	n/a	1	1	16	n/a	16	96	3	n/a	n/a	n/a	n/a	52.765	AF26ANS.jpg
25.948	0.514	Blank	Blank	90.691	n/a	1	1	16	n/a	16	n/a	3	n/a	n/a	n/a	n/a	53.262	n/a
26.479	0.497	angry	Picture	90.177	n/a	1	1	17	n/a	17	109	3	n/a	n/a	n/a	n/a	53.793	AM10ANS.jpg
26.976	0.514	Blank	Blank	89.663	n/a	1	1	17	n/a	17	n/a	3	n/a	n/a	n/a	n/a	54.29	n/a
27.507	0.497	angry	Picture	89.149	n/a	1	1	18	n/a	18	114	3	n/a	n/a	n/a	n/a	54.821	AM22ANS.jpg
28.004	0.514	Blank	Blank	88.635	n/a	1	1	18	n/a	18	n/a	3	n/a	n/a	n/a	n/a	55.318	n/a
28.535	0.497	angry	Picture	88.121	n/a	1	1	19	n/a	19	120	3	n/a	n/a	n/a	n/a	55.849	AM35ANS.jpg
29.032	0.514	Blank	Blank	87.608	n/a	1	1	19	n/a	19	n/a	3	n/a	n/a	n/a	n/a	56.346	n/a
29.563	0.497	angry	Picture	87.094	n/a	1	1	20	n/a	20	81	3	n/a	n/a	n/a	n/a	56.876	AF01ANS.jpg
30.06	0.514	Blank	Blank	86.58	n/a	1	1	20	n/a	20	n/a	3	n/a	n/a	n/a	n/a	57.374	n/a
30.591	10.014	ITI	Fixation+	76.549	n/a	1	n/a	n/a	n/a	n/a	n/a	n/a	n/a	n/a	n/a	n/a	57.904	n/a
40.621	0.497	neutral	Picture	76.036	n/a	1	2	1	n/a	21	28	1	n/a	n/a	n/a	n/a	67.934	AM09NES.jpg
41.118	0.514	Blank	Blank	75.522	n/a	1	2	1	n/a	21	n/a	1	n/a	n/a	n/a	n/a	68.432	n/a
41.648	0.497	neutral	Picture	75.008	n/a	1	2	2	n/a	22	27	1	n/a	n/a	n/a	n/a	68.962	BM08NES.jpg
42.146	0.514	Blank	Blank	74.494	n/a	1	2	2	n/a	22	n/a	1	n/a	n/a	n/a	n/a	69.46	n/a
42.676	0.497	neutral	Picture	73.98	n/a	1	2	3	n/a	23	16	1	n/a	n/a	n/a	n/a	69.99	AF26NES.jpg
43.174	0.514	Blank	Blank	73.466	n/a	1	2	3	n/a	23	n/a	1	n/a	n/a	n/a	n/a	70.487	n/a
43.704	0.497	neutral	Picture	72.952	n/a	1	2	4	n/a	24	3	1	n/a	n/a	n/a	n/a	71.018	BF04NES.jpg
44.202	0.514	Blank	Blank	72.438	n/a	1	2	4	n/a	24	n/a	1	n/a	n/a	n/a	n/a	71.515	n/a
44.732	0.497	neutral	Picture	71.924	n/a	1	2	5	n/a	25	32	1	n/a	n/a	n/a	n/a	72.046	AM14NES.jpg
45.23	0.514	Blank	Blank	71.41	n/a	1	2	5	n/a	25	n/a	1	n/a	n/a	n/a	n/a	72.543	n/a
45.76	0.497	neutral	Picture	70.896	n/a	1	2	6	n/a	26	37	1	n/a	n/a	n/a	n/a	73.074	BM25NES.jpg
46.257	0.514	Blank	Blank	70.382	n/a	1	2	6	n/a	26	n/a	1	n/a	n/a	n/a	n/a	73.571	n/a
46.788	0.497	neutral	Picture	69.868	n/a	1	2	7	n/a	27	15	1	n/a	n/a	n/a	n/a	74.102	AF25NES.jpg
47.285	0.514	Blank	Blank	69.354	n/a	1	2	7	n/a	27	n/a	1	n/a	n/a	n/a	n/a	74.599	n/a
47.816	0.497	neutral	Picture	68.84	n/a	1	2	8	n/a	28	23	1	n/a	n/a	n/a	n/a	75.129	AM04NES.jpg
48.313	0.514	Blank	Blank	68.326	n/a	1	2	8	n/a	28	n/a	1	n/a	n/a	n/a	n/a	75.627	n/a
48.844	0.497	neutral	Picture	67.813	n/a	1	2	9	n/a	29	34	1	n/a	n/a	n/a	n/a	76.157	AM22NES.jpg
49.341	0.514	Blank	Blank	67.299	n/a	1	2	9	n/a	29	n/a	1	n/a	n/a	n/a	n/a	76.655	n/a
49.872	0.497	neutral	Picture	66.785	n/a	1	2	10	n/a	30	24	1	n/a	n/a	n/a	n/a	77.185	BM05NES.jpg
50.369	0.514	Blank	Blank	66.271	n/a	1	2	10	n/a	30	n/a	1	n/a	n/a	n/a	n/a	77.683	n/a
50.9	0.497	neutral	Picture	65.757	n/a	1	2	11	n/a	31	12	1	n/a	n/a	n/a	n/a	78.213	AF21NES.jpg
51.397	0.514	Blank	Blank	65.243	n/a	1	2	11	n/a	31	n/a	1	n/a	n/a	n/a	n/a	78.71	n/a
51.927	0.497	neutral	Picture	64.729	n/a	1	2	12	n/a	32	6	1	n/a	n/a	n/a	n/a	79.241	AF09NES.jpg
52.425	0.514	Blank	Blank	64.215	n/a	1	2	12	n/a	32	n/a	1	n/a	n/a	n/a	n/a	79.738	n/a
52.955	0.497	neutral	Picture	63.701	n/a	1	2	13	n/a	33	17	1	n/a	n/a	n/a	n/a	80.269	BF28NES.jpg
53.453	0.514	Blank	Blank	63.187	n/a	1	2	13	n/a	33	n/a	1	n/a	n/a	n/a	n/a	80.766	n/a
53.983	0.497	neutral	Picture	62.673	n/a	1	2	14	n/a	34	2	1	n/a	n/a	n/a	n/a	81.297	AF03NES.jpg
54.481	0.514	Blank	Blank	62.159	n/a	1	2	14	n/a	34	n/a	1	n/a	n/a	n/a	n/a	81.794	n/a
55.011	0.497	neutral	Picture	61.645	n/a	1	2	15	n/a	35	9	1	n/a	n/a	n/a	n/a	82.325	AF17NES.jpg
55.508	0.514	Blank	Blank	61.131	n/a	1	2	15	n/a	35	n/a	1	n/a	n/a	n/a	n/a	82.822	n/a
56.039	0.497	neutral	Picture	60.617	n/a	1	2	16	n/a	36	25	1	n/a	n/a	n/a	n/a	83.353	BM06NES.jpg
56.536	0.514	Blank	Blank	60.103	n/a	1	2	16	n/a	36	n/a	1	n/a	n/a	n/a	n/a	83.85	n/a
57.067	0.497	neutral	Picture	59.589	n/a	1	2	17	n/a	37	8	1	n/a	n/a	n/a	n/a	84.38	AF14NES.jpg
57.564	0.514	Blank	Blank	59.075	n/a	1	2	17	n/a	37	n/a	1	n/a	n/a	n/a	n/a	84.878	n/a
58.095	0.497	neutral	Picture	58.562	n/a	1	2	18	n/a	38	19	1	n/a	n/a	n/a	n/a	85.408	AF31NES.jpg
58.592	0.514	Blank	Blank	58.048	n/a	1	2	18	n/a	38	n/a	1	n/a	n/a	n/a	n/a	85.906	n/a
59.123	0.497	neutral	Picture	57.534	n/a	1	2	19	n/a	39	14	1	n/a	n/a	n/a	n/a	86.436	AF23NES.jpg
59.62	0.514	Blank	Blank	57.02	n/a	1	2	19	n/a	39	n/a	1	n/a	n/a	n/a	n/a	86.934	n/a
60.15	0.497	neutral	Picture	56.506	n/a	1	2	20	n/a	40	4	1	n/a	n/a	n/a	n/a	87.464	AF05NES.jpg
60.648	0.514	Blank	Blank	55.992	n/a	1	2	20	n/a	40	n/a	1	n/a	n/a	n/a	n/a	87.962	n/a
61.178	10.014	ITI	Fixation+	45.962	n/a	1	n/a	n/a	n/a	n/a	n/a	n/a	n/a	n/a	n/a	n/a	88.492	n/a
71.208	0.497	angry	Picture	45.448	n/a	1	3	1	n/a	41	84	3	n/a	n/a	n/a	n/a	98.522	AF05ANS.jpg
71.706	0.514	Blank	Blank	44.934	n/a	1	3	1	n/a	41	n/a	3	n/a	n/a	n/a	n/a	99.019	n/a
72.236	0.497	angry	Picture	44.42	n/a	1	3	2	n/a	42	92	3	n/a	n/a	n/a	n/a	99.55	AF21ANS.jpg
72.734	0.514	Blank	Blank	43.906	n/a	1	3	2	n/a	42	n/a	3	n/a	n/a	n/a	n/a	100.047	n/a
73.264	0.497	angry	Picture	43.392	n/a	1	3	3	n/a	43	86	3	n/a	n/a	n/a	n/a	100.578	AF09ANS.jpg
73.762	0.514	Blank	Blank	42.878	n/a	1	3	3	n/a	43	n/a	3	n/a	n/a	n/a	n/a	101.075	n/a
74.292	0.497	angry	Picture	42.364	n/a	1	3	4	n/a	44	93	3	n/a	n/a	n/a	n/a	101.606	BF22ANS.jpg
74.79	0.514	Blank	Blank	41.85	n/a	1	3	4	n/a	44	n/a	3	n/a	n/a	n/a	n/a	102.103	n/a
75.32	0.497	angry	Picture	41.336	n/a	1	3	5	n/a	45	88	3	n/a	n/a	n/a	n/a	102.634	AF14ANS.jpg
75.817	0.514	Blank	Blank	40.822	n/a	1	3	5	n/a	45	n/a	3	n/a	n/a	n/a	n/a	103.131	n/a
76.348	0.497	angry	Picture	40.308	n/a	1	3	6	n/a	46	113	3	n/a	n/a	n/a	n/a	103.662	AM21ANS.jpg
76.845	0.514	Blank	Blank	39.794	n/a	1	3	6	n/a	46	n/a	3	n/a	n/a	n/a	n/a	104.159	n/a
77.376	0.497	angry	Picture	39.28	n/a	1	3	7	n/a	47	95	3	n/a	n/a	n/a	n/a	104.689	AF25ANS.jpg
77.873	0.514	Blank	Blank	38.767	n/a	1	3	7	n/a	47	n/a	3	n/a	n/a	n/a	n/a	105.187	n/a
78.404	0.497	angry	Picture	38.253	n/a	1	3	8	n/a	48	102	3	n/a	n/a	n/a	n/a	105.717	BM03ANS.jpg
78.901	0.514	Blank	Blank	37.739	n/a	1	3	8	n/a	48	n/a	3	n/a	n/a	n/a	n/a	106.215	n/a
79.431	0.497	angry	Picture	37.225	n/a	1	3	9	n/a	49	112	3	n/a	n/a	n/a	n/a	106.745	AM14ANS.jpg
79.929	0.514	Blank	Blank	36.711	n/a	1	3	9	n/a	49	n/a	3	n/a	n/a	n/a	n/a	107.243	n/a
80.459	0.497	angry	Picture	36.197	n/a	1	3	10	n/a	50	83	3	n/a	n/a	n/a	n/a	107.773	BF04ANS.jpg
80.957	0.514	Blank	Blank	35.683	n/a	1	3	10	n/a	50	n/a	3	n/a	n/a	n/a	n/a	108.27	n/a
81.487	0.497	angry	Picture	35.169	n/a	1	3	11	n/a	51	90	3	n/a	n/a	n/a	n/a	108.801	AF18ANS.jpg
81.985	0.514	Blank	Blank	34.655	n/a	1	3	11	n/a	51	n/a	3	n/a	n/a	n/a	n/a	109.298	n/a
82.515	0.497	angry	Picture	34.141	n/a	1	3	12	n/a	52	117	3	n/a	n/a	n/a	n/a	109.829	BM25ANS.jpg
83.013	0.514	Blank	Blank	33.627	n/a	1	3	12	n/a	52	n/a	3	n/a	n/a	n/a	n/a	110.326	n/a
83.543	0.497	angry	Picture	33.113	n/a	1	3	13	n/a	53	94	3	n/a	n/a	n/a	n/a	110.857	AF23ANS.jpg
84.04	0.514	Blank	Blank	32.599	n/a	1	3	13	n/a	53	n/a	3	n/a	n/a	n/a	n/a	111.354	n/a
84.571	0.497	angry	Picture	32.085	n/a	1	3	14	n/a	54	106	3	n/a	n/a	n/a	n/a	111.885	AM07ANS.jpg
85.068	0.514	Blank	Blank	31.571	n/a	1	3	14	n/a	54	n/a	3	n/a	n/a	n/a	n/a	112.382	n/a
85.599	0.497	angry	Picture	31.057	n/a	1	3	15	n/a	55	105	3	n/a	n/a	n/a	n/a	112.912	BM06ANS.jpg
86.096	0.514	Blank	Blank	30.543	n/a	1	3	15	n/a	55	n/a	3	n/a	n/a	n/a	n/a	113.41	n/a
86.627	0.497	angry	Picture	30.029	n/a	1	3	16	n/a	56	116	3	n/a	n/a	n/a	n/a	113.94	BM24ANS.jpg
87.124	0.514	Blank	Blank	29.516	n/a	1	3	16	n/a	56	n/a	3	n/a	n/a	n/a	n/a	114.438	n/a
87.655	0.497	angry	Picture	29.002	n/a	1	3	17	n/a	57	89	3	n/a	n/a	n/a	n/a	114.968	AF17ANS.jpg
88.152	0.514	Blank	Blank	28.488	n/a	1	3	17	n/a	57	n/a	3	n/a	n/a	n/a	n/a	115.466	n/a
88.683	0.497	angry	Picture	27.974	n/a	1	3	18	n/a	58	118	3	n/a	n/a	n/a	n/a	115.996	BM26ANS.jpg
89.18	0.514	Blank	Blank	27.46	n/a	1	3	18	n/a	58	n/a	3	n/a	n/a	n/a	n/a	116.493	n/a
89.71	0.497	angry	Picture	26.946	n/a	1	3	19	n/a	59	100	3	n/a	n/a	n/a	n/a	117.024	AF32ANS.jpg
90.208	0.514	Blank	Blank	26.432	n/a	1	3	19	n/a	59	n/a	3	n/a	n/a	n/a	n/a	117.521	n/a
90.738	0.497	angry	Picture	25.918	n/a	1	3	20	n/a	60	119	3	n/a	n/a	n/a	n/a	118.052	BM28ANS.jpg
91.236	0.514	Blank	Blank	25.404	n/a	1	3	20	n/a	60	n/a	3	n/a	n/a	n/a	n/a	118.549	n/a
91.766	10.014	ITI	Fixation+	15.374	n/a	1	n/a	n/a	n/a	n/a	n/a	n/a	n/a	n/a	n/a	n/a	119.08	n/a
117.154	n/a	ConfirmRating	Rate	n/a	15.335	1	n/a	n/a	0	n/a	n/a	n/a	2	Angry	30	49	144.467	n/a
122.854	n/a	ConfirmRating	Rate	n/a	5.686	1	n/a	n/a	1	n/a	n/a	n/a	3	Angry	40	49	150.168	n/a
122.884	10.014	ITI	Fixation+	99.201	n/a	2	n/a	n/a	n/a	n/a	n/a	n/a	n/a	n/a	n/a	n/a	150.198	n/a
132.915	0.497	happy	Picture	98.688	n/a	2	4	1	n/a	61	79	2	n/a	n/a	n/a	n/a	160.228	BM28HAS.jpg
133.412	0.514	Blank	Blank	98.174	n/a	2	4	1	n/a	61	n/a	2	n/a	n/a	n/a	n/a	160.726	n/a
133.942	0.497	happy	Picture	97.66	n/a	2	4	2	n/a	62	61	2	n/a	n/a	n/a	n/a	161.256	AM01HAS.jpg
134.44	0.514	Blank	Blank	97.146	n/a	2	4	2	n/a	62	n/a	2	n/a	n/a	n/a	n/a	161.754	n/a
134.97	0.497	happy	Picture	96.632	n/a	2	4	3	n/a	63	57	2	n/a	n/a	n/a	n/a	162.284	BF28HAS.jpg
135.468	0.514	Blank	Blank	96.118	n/a	2	4	3	n/a	63	n/a	2	n/a	n/a	n/a	n/a	162.781	n/a
135.998	0.497	happy	Picture	95.604	n/a	2	4	4	n/a	64	77	2	n/a	n/a	n/a	n/a	163.312	BM25HAS.jpg
136.496	0.514	Blank	Blank	95.09	n/a	2	4	4	n/a	64	n/a	2	n/a	n/a	n/a	n/a	163.809	n/a
137.026	0.497	happy	Picture	94.576	n/a	2	4	5	n/a	65	47	2	n/a	n/a	n/a	n/a	164.34	BF11HAS.jpg
137.523	0.514	Blank	Blank	94.062	n/a	2	4	5	n/a	65	n/a	2	n/a	n/a	n/a	n/a	164.837	n/a
138.054	0.497	happy	Picture	93.548	n/a	2	4	6	n/a	66	50	2	n/a	n/a	n/a	n/a	165.368	AF18HAS.jpg
138.551	0.514	Blank	Blank	93.034	n/a	2	4	6	n/a	66	n/a	2	n/a	n/a	n/a	n/a	165.865	n/a
139.082	0.497	happy	Picture	92.52	n/a	2	4	7	n/a	67	78	2	n/a	n/a	n/a	n/a	166.395	BM26HAS.jpg
139.579	0.514	Blank	Blank	92.006	n/a	2	4	7	n/a	67	n/a	2	n/a	n/a	n/a	n/a	166.893	n/a
140.11	0.497	happy	Picture	91.492	n/a	2	4	8	n/a	68	45	2	n/a	n/a	n/a	n/a	167.423	BF07HAS.jpg
140.607	0.514	Blank	Blank	90.978	n/a	2	4	8	n/a	68	n/a	2	n/a	n/a	n/a	n/a	167.921	n/a
141.138	0.497	happy	Picture	90.465	n/a	2	4	9	n/a	69	56	2	n/a	n/a	n/a	n/a	168.451	AF26HAS.jpg
141.635	0.514	Blank	Blank	89.951	n/a	2	4	9	n/a	69	n/a	2	n/a	n/a	n/a	n/a	168.949	n/a
142.165	0.497	happy	Picture	89.437	n/a	2	4	10	n/a	70	65	2	n/a	n/a	n/a	n/a	169.479	BM06HAS.jpg
142.663	0.514	Blank	Blank	88.923	n/a	2	4	10	n/a	70	n/a	2	n/a	n/a	n/a	n/a	169.977	n/a
143.193	0.497	happy	Picture	88.409	n/a	2	4	11	n/a	71	73	2	n/a	n/a	n/a	n/a	170.507	AM21HAS.jpg
143.691	0.514	Blank	Blank	87.895	n/a	2	4	11	n/a	71	n/a	2	n/a	n/a	n/a	n/a	171.004	n/a
144.221	0.497	happy	Picture	87.381	n/a	2	4	12	n/a	72	41	2	n/a	n/a	n/a	n/a	171.535	AF01HAS.jpg
144.719	0.514	Blank	Blank	86.867	n/a	2	4	12	n/a	72	n/a	2	n/a	n/a	n/a	n/a	172.032	n/a
145.249	0.497	happy	Picture	86.353	n/a	2	4	13	n/a	73	59	2	n/a	n/a	n/a	n/a	172.563	AF31HAS.jpg
145.746	0.514	Blank	Blank	85.839	n/a	2	4	13	n/a	73	n/a	2	n/a	n/a	n/a	n/a	173.06	n/a
146.277	0.497	happy	Picture	85.325	n/a	2	4	14	n/a	74	64	2	n/a	n/a	n/a	n/a	173.591	BM05HAS.jpg
146.774	0.514	Blank	Blank	84.811	n/a	2	4	14	n/a	74	n/a	2	n/a	n/a	n/a	n/a	174.088	n/a
147.305	0.497	happy	Picture	84.297	n/a	2	4	15	n/a	75	68	2	n/a	n/a	n/a	n/a	174.619	AM09HAS.jpg
147.802	0.514	Blank	Blank	83.783	n/a	2	4	15	n/a	75	n/a	2	n/a	n/a	n/a	n/a	175.116	n/a
148.333	0.497	happy	Picture	83.269	n/a	2	4	16	n/a	76	54	2	n/a	n/a	n/a	n/a	175.647	AF23HAS.jpg
148.83	0.514	Blank	Blank	82.755	n/a	2	4	16	n/a	76	n/a	2	n/a	n/a	n/a	n/a	176.144	n/a
149.361	0.497	happy	Picture	82.242	n/a	2	4	17	n/a	77	53	2	n/a	n/a	n/a	n/a	176.674	BF22HAS.jpg
149.858	0.514	Blank	Blank	81.728	n/a	2	4	17	n/a	77	n/a	2	n/a	n/a	n/a	n/a	177.172	n/a
150.388	0.497	happy	Picture	81.214	n/a	2	4	18	n/a	78	44	2	n/a	n/a	n/a	n/a	177.702	AF05HAS.jpg
150.886	0.514	Blank	Blank	80.7	n/a	2	4	18	n/a	78	n/a	2	n/a	n/a	n/a	n/a	178.2	n/a
151.416	0.497	happy	Picture	80.186	n/a	2	4	19	n/a	79	52	2	n/a	n/a	n/a	n/a	178.73	AF21HAS.jpg
151.914	0.514	Blank	Blank	79.672	n/a	2	4	19	n/a	79	n/a	2	n/a	n/a	n/a	n/a	179.227	n/a
152.444	0.497	happy	Picture	79.158	n/a	2	4	20	n/a	80	62	2	n/a	n/a	n/a	n/a	179.758	BM03HAS.jpg
152.942	0.514	Blank	Blank	78.644	n/a	2	4	20	n/a	80	n/a	2	n/a	n/a	n/a	n/a	180.255	n/a
153.472	10.014	ITI	Fixation+	68.614	n/a	2	n/a	n/a	n/a	n/a	n/a	n/a	n/a	n/a	n/a	n/a	180.786	n/a
163.502	0.497	neutral	Picture	68.1	n/a	2	5	1	n/a	81	23	1	n/a	n/a	n/a	n/a	190.816	AM04NES.jpg
164.0	0.514	Blank	Blank	67.586	n/a	2	5	1	n/a	81	n/a	1	n/a	n/a	n/a	n/a	191.313	n/a
164.53	0.497	neutral	Picture	67.072	n/a	2	5	2	n/a	82	29	1	n/a	n/a	n/a	n/a	191.844	AM10NES.jpg
165.028	0.514	Blank	Blank	66.558	n/a	2	5	2	n/a	82	n/a	1	n/a	n/a	n/a	n/a	192.341	n/a
165.558	0.497	neutral	Picture	66.044	n/a	2	5	3	n/a	83	24	1	n/a	n/a	n/a	n/a	192.872	BM05NES.jpg
166.055	0.514	Blank	Blank	65.53	n/a	2	5	3	n/a	83	n/a	1	n/a	n/a	n/a	n/a	193.369	n/a
166.586	0.497	neutral	Picture	65.016	n/a	2	5	4	n/a	84	12	1	n/a	n/a	n/a	n/a	193.9	AF21NES.jpg
167.083	0.514	Blank	Blank	64.502	n/a	2	5	4	n/a	84	n/a	1	n/a	n/a	n/a	n/a	194.397	n/a
167.614	0.497	neutral	Picture	63.988	n/a	2	5	5	n/a	85	13	1	n/a	n/a	n/a	n/a	194.928	BF22NES.jpg
168.111	0.514	Blank	Blank	63.474	n/a	2	5	5	n/a	85	n/a	1	n/a	n/a	n/a	n/a	195.425	n/a
168.642	0.497	neutral	Picture	62.96	n/a	2	5	6	n/a	86	17	1	n/a	n/a	n/a	n/a	195.955	BF28NES.jpg
169.139	0.514	Blank	Blank	62.446	n/a	2	5	6	n/a	86	n/a	1	n/a	n/a	n/a	n/a	196.453	n/a
169.67	0.497	neutral	Picture	61.933	n/a	2	5	7	n/a	87	4	1	n/a	n/a	n/a	n/a	196.983	AF05NES.jpg
170.167	0.514	Blank	Blank	61.419	n/a	2	5	7	n/a	87	n/a	1	n/a	n/a	n/a	n/a	197.481	n/a
170.697	0.497	neutral	Picture	60.905	n/a	2	5	8	n/a	88	11	1	n/a	n/a	n/a	n/a	198.011	AF20NES.jpg
171.195	0.514	Blank	Blank	60.391	n/a	2	5	8	n/a	88	n/a	1	n/a	n/a	n/a	n/a	198.509	n/a
171.725	0.497	neutral	Picture	59.877	n/a	2	5	9	n/a	89	22	1	n/a	n/a	n/a	n/a	199.039	BM03NES.jpg
172.223	0.514	Blank	Blank	59.363	n/a	2	5	9	n/a	89	n/a	1	n/a	n/a	n/a	n/a	199.536	n/a
172.753	0.497	neutral	Picture	58.849	n/a	2	5	10	n/a	90	15	1	n/a	n/a	n/a	n/a	200.067	AF25NES.jpg
173.251	0.514	Blank	Blank	58.335	n/a	2	5	10	n/a	90	n/a	1	n/a	n/a	n/a	n/a	200.564	n/a
173.781	0.497	neutral	Picture	57.821	n/a	2	5	11	n/a	91	19	1	n/a	n/a	n/a	n/a	201.095	AF31NES.jpg
174.278	0.514	Blank	Blank	57.307	n/a	2	5	11	n/a	91	n/a	1	n/a	n/a	n/a	n/a	201.592	n/a
174.809	0.497	neutral	Picture	56.793	n/a	2	5	12	n/a	92	9	1	n/a	n/a	n/a	n/a	202.123	AF17NES.jpg
175.306	0.514	Blank	Blank	56.279	n/a	2	5	12	n/a	92	n/a	1	n/a	n/a	n/a	n/a	202.62	n/a
175.837	0.497	neutral	Picture	55.765	n/a	2	5	13	n/a	93	14	1	n/a	n/a	n/a	n/a	203.151	AF23NES.jpg
176.334	0.514	Blank	Blank	55.251	n/a	2	5	13	n/a	93	n/a	1	n/a	n/a	n/a	n/a	203.648	n/a
176.865	0.497	neutral	Picture	54.737	n/a	2	5	14	n/a	94	36	1	n/a	n/a	n/a	n/a	204.179	BM24NES.jpg
177.362	0.514	Blank	Blank	54.223	n/a	2	5	14	n/a	94	n/a	1	n/a	n/a	n/a	n/a	204.676	n/a
177.893	0.497	neutral	Picture	53.709	n/a	2	5	15	n/a	95	34	1	n/a	n/a	n/a	n/a	205.206	AM22NES.jpg
178.39	0.514	Blank	Blank	53.196	n/a	2	5	15	n/a	95	n/a	1	n/a	n/a	n/a	n/a	205.704	n/a
178.921	0.497	neutral	Picture	52.682	n/a	2	5	16	n/a	96	10	1	n/a	n/a	n/a	n/a	206.234	AF18NES.jpg
179.418	0.514	Blank	Blank	52.168	n/a	2	5	16	n/a	96	n/a	1	n/a	n/a	n/a	n/a	206.732	n/a
179.948	0.497	neutral	Picture	51.654	n/a	2	5	17	n/a	97	5	1	n/a	n/a	n/a	n/a	207.262	BF07NES.jpg
180.446	0.514	Blank	Blank	51.14	n/a	2	5	17	n/a	97	n/a	1	n/a	n/a	n/a	n/a	207.76	n/a
180.976	0.497	neutral	Picture	50.626	n/a	2	5	18	n/a	98	25	1	n/a	n/a	n/a	n/a	208.29	BM06NES.jpg
181.474	0.514	Blank	Blank	50.112	n/a	2	5	18	n/a	98	n/a	1	n/a	n/a	n/a	n/a	208.787	n/a
182.004	0.497	neutral	Picture	49.598	n/a	2	5	19	n/a	99	39	1	n/a	n/a	n/a	n/a	209.318	AM28NES.jpg
182.502	0.514	Blank	Blank	49.084	n/a	2	5	19	n/a	99	n/a	1	n/a	n/a	n/a	n/a	209.815	n/a
183.032	0.497	neutral	Picture	48.57	n/a	2	5	20	n/a	100	33	1	n/a	n/a	n/a	n/a	210.346	AM21NES.jpg
183.529	0.514	Blank	Blank	48.056	n/a	2	5	20	n/a	100	n/a	1	n/a	n/a	n/a	n/a	210.843	n/a
184.06	10.014	ITI	Fixation+	38.026	n/a	2	n/a	n/a	n/a	n/a	n/a	n/a	n/a	n/a	n/a	n/a	211.374	n/a
194.09	0.497	happy	Picture	37.512	n/a	2	6	1	n/a	101	74	2	n/a	n/a	n/a	n/a	221.404	AM22HAS.jpg
194.587	0.514	Blank	Blank	36.998	n/a	2	6	1	n/a	101	n/a	2	n/a	n/a	n/a	n/a	221.901	n/a
195.118	0.497	happy	Picture	36.484	n/a	2	6	2	n/a	102	76	2	n/a	n/a	n/a	n/a	222.432	BM24HAS.jpg
195.615	0.514	Blank	Blank	35.97	n/a	2	6	2	n/a	102	n/a	2	n/a	n/a	n/a	n/a	222.929	n/a
196.146	0.497	happy	Picture	35.456	n/a	2	6	3	n/a	103	80	2	n/a	n/a	n/a	n/a	223.46	BM35HAS.jpg
196.643	0.514	Blank	Blank	34.942	n/a	2	6	3	n/a	103	n/a	2	n/a	n/a	n/a	n/a	223.957	n/a
197.174	0.497	happy	Picture	34.428	n/a	2	6	4	n/a	104	75	2	n/a	n/a	n/a	n/a	224.488	AM23HAS.jpg
197.671	0.514	Blank	Blank	33.914	n/a	2	6	4	n/a	104	n/a	2	n/a	n/a	n/a	n/a	224.985	n/a
198.202	0.497	happy	Picture	33.401	n/a	2	6	5	n/a	105	49	2	n/a	n/a	n/a	n/a	225.515	AF17HAS.jpg
198.699	0.514	Blank	Blank	32.887	n/a	2	6	5	n/a	105	n/a	2	n/a	n/a	n/a	n/a	226.013	n/a
199.23	0.497	happy	Picture	32.373	n/a	2	6	6	n/a	106	43	2	n/a	n/a	n/a	n/a	226.543	BF04HAS.jpg
199.727	0.514	Blank	Blank	31.859	n/a	2	6	6	n/a	106	n/a	2	n/a	n/a	n/a	n/a	227.041	n/a
200.257	0.497	happy	Picture	31.345	n/a	2	6	7	n/a	107	70	2	n/a	n/a	n/a	n/a	227.571	BM11HAS.jpg
200.755	0.514	Blank	Blank	30.831	n/a	2	6	7	n/a	107	n/a	2	n/a	n/a	n/a	n/a	228.069	n/a
201.285	0.497	happy	Picture	30.317	n/a	2	6	8	n/a	108	66	2	n/a	n/a	n/a	n/a	228.599	BM07HAS.jpg
201.783	0.514	Blank	Blank	29.803	n/a	2	6	8	n/a	108	n/a	2	n/a	n/a	n/a	n/a	229.096	n/a
202.313	0.497	happy	Picture	29.289	n/a	2	6	9	n/a	109	48	2	n/a	n/a	n/a	n/a	229.627	AF14HAS.jpg
202.81	0.514	Blank	Blank	28.775	n/a	2	6	9	n/a	109	n/a	2	n/a	n/a	n/a	n/a	230.124	n/a
203.341	0.497	happy	Picture	28.261	n/a	2	6	10	n/a	110	58	2	n/a	n/a	n/a	n/a	230.655	BF29HAS.jpg
203.838	0.514	Blank	Blank	27.747	n/a	2	6	10	n/a	110	n/a	2	n/a	n/a	n/a	n/a	231.152	n/a
204.369	0.497	happy	Picture	27.233	n/a	2	6	11	n/a	111	63	2	n/a	n/a	n/a	n/a	231.683	AM04HAS.jpg
204.866	0.514	Blank	Blank	26.719	n/a	2	6	11	n/a	111	n/a	2	n/a	n/a	n/a	n/a	232.18	n/a
205.397	0.497	happy	Picture	26.205	n/a	2	6	12	n/a	112	72	2	n/a	n/a	n/a	n/a	232.71	AM14HAS.jpg
205.894	0.514	Blank	Blank	25.691	n/a	2	6	12	n/a	112	n/a	2	n/a	n/a	n/a	n/a	233.208	n/a
206.425	0.497	happy	Picture	25.177	n/a	2	6	13	n/a	113	55	2	n/a	n/a	n/a	n/a	233.738	AF25HAS.jpg
206.922	0.514	Blank	Blank	24.663	n/a	2	6	13	n/a	113	n/a	2	n/a	n/a	n/a	n/a	234.236	n/a
207.453	0.497	happy	Picture	24.15	n/a	2	6	14	n/a	114	42	2	n/a	n/a	n/a	n/a	234.766	AF03HAS.jpg
207.95	0.514	Blank	Blank	23.636	n/a	2	6	14	n/a	114	n/a	2	n/a	n/a	n/a	n/a	235.264	n/a
208.48	0.497	happy	Picture	23.122	n/a	2	6	15	n/a	115	60	2	n/a	n/a	n/a	n/a	235.794	AF32HAS.jpg
208.978	0.514	Blank	Blank	22.608	n/a	2	6	15	n/a	115	n/a	2	n/a	n/a	n/a	n/a	236.292	n/a
209.508	0.497	happy	Picture	22.094	n/a	2	6	16	n/a	116	67	2	n/a	n/a	n/a	n/a	236.822	BM08HAS.jpg
210.006	0.514	Blank	Blank	21.58	n/a	2	6	16	n/a	116	n/a	2	n/a	n/a	n/a	n/a	237.319	n/a
210.536	0.497	happy	Picture	21.066	n/a	2	6	17	n/a	117	51	2	n/a	n/a	n/a	n/a	237.85	AF20HAS.jpg
211.034	0.514	Blank	Blank	20.552	n/a	2	6	17	n/a	117	n/a	2	n/a	n/a	n/a	n/a	238.347	n/a
211.564	0.497	happy	Picture	20.038	n/a	2	6	18	n/a	118	71	2	n/a	n/a	n/a	n/a	238.878	BM12HAS.jpg
212.061	0.514	Blank	Blank	19.524	n/a	2	6	18	n/a	118	n/a	2	n/a	n/a	n/a	n/a	239.375	n/a
212.592	0.497	happy	Picture	19.01	n/a	2	6	19	n/a	119	69	2	n/a	n/a	n/a	n/a	239.906	AM10HAS.jpg
213.089	0.514	Blank	Blank	18.496	n/a	2	6	19	n/a	119	n/a	2	n/a	n/a	n/a	n/a	240.403	n/a
213.62	0.497	happy	Picture	17.982	n/a	2	6	20	n/a	120	46	2	n/a	n/a	n/a	n/a	240.934	AF09HAS.jpg
214.117	0.514	Blank	Blank	17.468	n/a	2	6	20	n/a	120	n/a	2	n/a	n/a	n/a	n/a	241.431	n/a
214.648	10.014	ITI	Fixation+	7.438	n/a	2	n/a	n/a	n/a	n/a	n/a	n/a	n/a	n/a	n/a	n/a	241.962	n/a
232.1	n/a	ConfirmRating	Rate	n/a	7.427	2	n/a	n/a	0	n/a	n/a	n/a	2	Happy	66	51	259.413	n/a
236.036	n/a	ConfirmRating	Rate	n/a	3.929	2	n/a	n/a	1	n/a	n/a	n/a	3	Happy	65	51	263.35	n/a
236.067	15.004	Rest	Picture	n/a	n/a	n/a	n/a	n/a	n/a	n/a	n/a	n/a	0	n/a	0	0	263.381	n/a
251.088	10.014	ITI	Fixation+	102.509	n/a	3	n/a	n/a	n/a	n/a	n/a	n/a	n/a	n/a	n/a	n/a	278.402	n/a
261.118	0.497	angry	Picture	101.995	n/a	3	7	1	n/a	1	108	3	n/a	n/a	n/a	n/a	288.432	AM09ANS.jpg
261.615	0.514	Blank	Blank	101.481	n/a	3	7	1	n/a	1	n/a	3	n/a	n/a	n/a	n/a	288.929	n/a
262.146	0.497	angry	Picture	100.967	n/a	3	7	2	n/a	2	99	3	n/a	n/a	n/a	n/a	289.46	AF31ANS.jpg
262.643	0.514	Blank	Blank	100.453	n/a	3	7	2	n/a	2	n/a	3	n/a	n/a	n/a	n/a	289.957	n/a
263.174	0.497	angry	Picture	99.939	n/a	3	7	3	n/a	3	98	3	n/a	n/a	n/a	n/a	290.488	BF29ANS.jpg
263.671	0.514	Blank	Blank	99.425	n/a	3	7	3	n/a	3	n/a	3	n/a	n/a	n/a	n/a	290.985	n/a
264.202	0.497	angry	Picture	98.911	n/a	3	7	4	n/a	4	107	3	n/a	n/a	n/a	n/a	291.515	BM08ANS.jpg
264.699	0.514	Blank	Blank	98.397	n/a	3	7	4	n/a	4	n/a	3	n/a	n/a	n/a	n/a	292.013	n/a
265.23	0.497	angry	Picture	97.883	n/a	3	7	5	n/a	5	104	3	n/a	n/a	n/a	n/a	292.543	BM05ANS.jpg
265.727	0.514	Blank	Blank	97.369	n/a	3	7	5	n/a	5	n/a	3	n/a	n/a	n/a	n/a	293.041	n/a
266.257	0.497	angry	Picture	96.855	n/a	3	7	6	n/a	6	101	3	n/a	n/a	n/a	n/a	293.571	AM01ANS.jpg
266.755	0.514	Blank	Blank	96.341	n/a	3	7	6	n/a	6	n/a	3	n/a	n/a	n/a	n/a	294.068	n/a
267.285	0.497	angry	Picture	95.827	n/a	3	7	7	n/a	7	103	3	n/a	n/a	n/a	n/a	294.599	AM04ANS.jpg
267.783	0.514	Blank	Blank	95.313	n/a	3	7	7	n/a	7	n/a	3	n/a	n/a	n/a	n/a	295.096	n/a
268.313	0.497	angry	Picture	94.8	n/a	3	7	8	n/a	8	111	3	n/a	n/a	n/a	n/a	295.627	BM12ANS.jpg
268.81	0.514	Blank	Blank	94.286	n/a	3	7	8	n/a	8	n/a	3	n/a	n/a	n/a	n/a	296.124	n/a
269.341	0.497	angry	Picture	93.772	n/a	3	7	9	n/a	9	110	3	n/a	n/a	n/a	n/a	296.655	AM11ANS.jpg
269.838	0.514	Blank	Blank	93.258	n/a	3	7	9	n/a	9	n/a	3	n/a	n/a	n/a	n/a	297.152	n/a
270.369	0.497	angry	Picture	92.744	n/a	3	7	10	n/a	10	85	3	n/a	n/a	n/a	n/a	297.683	BF07ANS.jpg
270.866	0.514	Blank	Blank	92.23	n/a	3	7	10	n/a	10	n/a	3	n/a	n/a	n/a	n/a	298.18	n/a
271.397	0.497	angry	Picture	91.716	n/a	3	7	11	n/a	11	87	3	n/a	n/a	n/a	n/a	298.711	BF11ANS.jpg
271.894	0.514	Blank	Blank	91.202	n/a	3	7	11	n/a	11	n/a	3	n/a	n/a	n/a	n/a	299.208	n/a
272.425	0.497	angry	Picture	90.688	n/a	3	7	12	n/a	12	91	3	n/a	n/a	n/a	n/a	299.738	AF20ANS.jpg
272.922	0.514	Blank	Blank	90.174	n/a	3	7	12	n/a	12	n/a	3	n/a	n/a	n/a	n/a	300.236	n/a
273.453	0.497	angry	Picture	89.66	n/a	3	7	13	n/a	13	115	3	n/a	n/a	n/a	n/a	300.766	AM23ANS.jpg
273.95	0.514	Blank	Blank	89.146	n/a	3	7	13	n/a	13	n/a	3	n/a	n/a	n/a	n/a	301.264	n/a
274.481	0.497	angry	Picture	88.632	n/a	3	7	14	n/a	14	97	3	n/a	n/a	n/a	n/a	301.794	BF28ANS.jpg
274.978	0.514	Blank	Blank	88.118	n/a	3	7	14	n/a	14	n/a	3	n/a	n/a	n/a	n/a	302.291	n/a
275.508	0.497	angry	Picture	87.604	n/a	3	7	15	n/a	15	82	3	n/a	n/a	n/a	n/a	302.822	AF03ANS.jpg
276.006	0.514	Blank	Blank	87.09	n/a	3	7	15	n/a	15	n/a	3	n/a	n/a	n/a	n/a	303.319	n/a
276.536	0.497	angry	Picture	86.576	n/a	3	7	16	n/a	16	96	3	n/a	n/a	n/a	n/a	303.85	AF26ANS.jpg
277.034	0.514	Blank	Blank	86.063	n/a	3	7	16	n/a	16	n/a	3	n/a	n/a	n/a	n/a	304.347	n/a
277.564	0.497	angry	Picture	85.548	n/a	3	7	17	n/a	17	109	3	n/a	n/a	n/a	n/a	304.878	AM10ANS.jpg
278.062	0.514	Blank	Blank	85.035	n/a	3	7	17	n/a	17	n/a	3	n/a	n/a	n/a	n/a	305.375	n/a
278.592	0.497	angry	Picture	84.521	n/a	3	7	18	n/a	18	114	3	n/a	n/a	n/a	n/a	305.906	AM22ANS.jpg
279.089	0.514	Blank	Blank	84.007	n/a	3	7	18	n/a	18	n/a	3	n/a	n/a	n/a	n/a	306.403	n/a
279.62	0.497	angry	Picture	83.493	n/a	3	7	19	n/a	19	120	3	n/a	n/a	n/a	n/a	306.934	AM35ANS.jpg
280.117	0.514	Blank	Blank	82.979	n/a	3	7	19	n/a	19	n/a	3	n/a	n/a	n/a	n/a	307.431	n/a
280.648	0.497	angry	Picture	82.465	n/a	3	7	20	n/a	20	81	3	n/a	n/a	n/a	n/a	307.962	AF01ANS.jpg
281.145	0.514	Blank	Blank	81.951	n/a	3	7	20	n/a	20	n/a	3	n/a	n/a	n/a	n/a	308.459	n/a
281.676	10.014	ITI	Fixation+	71.921	n/a	3	n/a	n/a	n/a	n/a	n/a	n/a	n/a	n/a	n/a	n/a	308.989	n/a
291.706	0.497	neutral	Picture	71.407	n/a	3	8	1	n/a	21	28	1	n/a	n/a	n/a	n/a	319.019	AM09NES.jpg
292.203	0.514	Blank	Blank	70.893	n/a	3	8	1	n/a	21	n/a	1	n/a	n/a	n/a	n/a	319.517	n/a
292.734	0.497	neutral	Picture	70.379	n/a	3	8	2	n/a	22	27	1	n/a	n/a	n/a	n/a	320.047	BM08NES.jpg
293.231	0.514	Blank	Blank	69.865	n/a	3	8	2	n/a	22	n/a	1	n/a	n/a	n/a	n/a	320.545	n/a
293.762	0.497	neutral	Picture	69.351	n/a	3	8	3	n/a	23	16	1	n/a	n/a	n/a	n/a	321.075	AF26NES.jpg
294.259	0.514	Blank	Blank	68.837	n/a	3	8	3	n/a	23	n/a	1	n/a	n/a	n/a	n/a	321.573	n/a
294.789	0.497	neutral	Picture	68.323	n/a	3	8	4	n/a	24	3	1	n/a	n/a	n/a	n/a	322.103	BF04NES.jpg
295.287	0.514	Blank	Blank	67.809	n/a	3	8	4	n/a	24	n/a	1	n/a	n/a	n/a	n/a	322.601	n/a
295.817	0.497	neutral	Picture	67.295	n/a	3	8	5	n/a	25	32	1	n/a	n/a	n/a	n/a	323.131	AM14NES.jpg
296.315	0.514	Blank	Blank	66.781	n/a	3	8	5	n/a	25	n/a	1	n/a	n/a	n/a	n/a	323.628	n/a
296.845	0.497	neutral	Picture	66.267	n/a	3	8	6	n/a	26	37	1	n/a	n/a	n/a	n/a	324.159	BM25NES.jpg
297.343	0.514	Blank	Blank	65.754	n/a	3	8	6	n/a	26	n/a	1	n/a	n/a	n/a	n/a	324.656	n/a
297.873	0.497	neutral	Picture	65.24	n/a	3	8	7	n/a	27	15	1	n/a	n/a	n/a	n/a	325.187	AF25NES.jpg
298.37	0.514	Blank	Blank	64.726	n/a	3	8	7	n/a	27	n/a	1	n/a	n/a	n/a	n/a	325.684	n/a
298.901	0.497	neutral	Picture	64.212	n/a	3	8	8	n/a	28	23	1	n/a	n/a	n/a	n/a	326.215	AM04NES.jpg
299.398	0.514	Blank	Blank	63.698	n/a	3	8	8	n/a	28	n/a	1	n/a	n/a	n/a	n/a	326.712	n/a
299.929	0.497	neutral	Picture	63.184	n/a	3	8	9	n/a	29	34	1	n/a	n/a	n/a	n/a	327.243	AM22NES.jpg
300.426	0.514	Blank	Blank	62.67	n/a	3	8	9	n/a	29	n/a	1	n/a	n/a	n/a	n/a	327.74	n/a
300.957	0.497	neutral	Picture	62.156	n/a	3	8	10	n/a	30	24	1	n/a	n/a	n/a	n/a	328.27	BM05NES.jpg
301.454	0.514	Blank	Blank	61.642	n/a	3	8	10	n/a	30	n/a	1	n/a	n/a	n/a	n/a	328.768	n/a
301.985	0.497	neutral	Picture	61.128	n/a	3	8	11	n/a	31	12	1	n/a	n/a	n/a	n/a	329.298	AF21NES.jpg
302.482	0.514	Blank	Blank	60.614	n/a	3	8	11	n/a	31	n/a	1	n/a	n/a	n/a	n/a	329.796	n/a
303.012	0.497	neutral	Picture	60.1	n/a	3	8	12	n/a	32	6	1	n/a	n/a	n/a	n/a	330.326	AF09NES.jpg
303.51	0.514	Blank	Blank	59.586	n/a	3	8	12	n/a	32	n/a	1	n/a	n/a	n/a	n/a	330.824	n/a
304.04	0.497	neutral	Picture	59.072	n/a	3	8	13	n/a	33	17	1	n/a	n/a	n/a	n/a	331.354	BF28NES.jpg
304.538	0.514	Blank	Blank	58.558	n/a	3	8	13	n/a	33	n/a	1	n/a	n/a	n/a	n/a	331.851	n/a
305.068	0.497	neutral	Picture	58.044	n/a	3	8	14	n/a	34	2	1	n/a	n/a	n/a	n/a	332.382	AF03NES.jpg
305.566	0.514	Blank	Blank	57.53	n/a	3	8	14	n/a	34	n/a	1	n/a	n/a	n/a	n/a	332.879	n/a
306.096	0.497	neutral	Picture	57.016	n/a	3	8	15	n/a	35	9	1	n/a	n/a	n/a	n/a	333.41	AF17NES.jpg
306.594	0.514	Blank	Blank	56.503	n/a	3	8	15	n/a	35	n/a	1	n/a	n/a	n/a	n/a	333.907	n/a
307.124	0.497	neutral	Picture	55.989	n/a	3	8	16	n/a	36	25	1	n/a	n/a	n/a	n/a	334.438	BM06NES.jpg
307.621	0.514	Blank	Blank	55.475	n/a	3	8	16	n/a	36	n/a	1	n/a	n/a	n/a	n/a	334.935	n/a
308.152	0.497	neutral	Picture	54.961	n/a	3	8	17	n/a	37	8	1	n/a	n/a	n/a	n/a	335.466	AF14NES.jpg
308.649	0.514	Blank	Blank	54.447	n/a	3	8	17	n/a	37	n/a	1	n/a	n/a	n/a	n/a	335.963	n/a
309.18	0.497	neutral	Picture	53.933	n/a	3	8	18	n/a	38	19	1	n/a	n/a	n/a	n/a	336.493	AF31NES.jpg
309.677	0.514	Blank	Blank	53.419	n/a	3	8	18	n/a	38	n/a	1	n/a	n/a	n/a	n/a	336.991	n/a
310.208	0.497	neutral	Picture	52.905	n/a	3	8	19	n/a	39	14	1	n/a	n/a	n/a	n/a	337.521	AF23NES.jpg
310.705	0.514	Blank	Blank	52.391	n/a	3	8	19	n/a	39	n/a	1	n/a	n/a	n/a	n/a	338.019	n/a
311.236	0.497	neutral	Picture	51.877	n/a	3	8	20	n/a	40	4	1	n/a	n/a	n/a	n/a	338.549	AF05NES.jpg
311.733	0.514	Blank	Blank	51.363	n/a	3	8	20	n/a	40	n/a	1	n/a	n/a	n/a	n/a	339.047	n/a
312.263	10.014	ITI	Fixation+	41.333	n/a	3	n/a	n/a	n/a	n/a	n/a	n/a	n/a	n/a	n/a	n/a	339.577	n/a
322.294	0.497	angry	Picture	40.819	n/a	3	9	1	n/a	41	84	3	n/a	n/a	n/a	n/a	349.607	AF05ANS.jpg
322.791	0.514	Blank	Blank	40.305	n/a	3	9	1	n/a	41	n/a	3	n/a	n/a	n/a	n/a	350.105	n/a
323.322	0.497	angry	Picture	39.791	n/a	3	9	2	n/a	42	92	3	n/a	n/a	n/a	n/a	350.635	AF21ANS.jpg
323.819	0.514	Blank	Blank	39.277	n/a	3	9	2	n/a	42	n/a	3	n/a	n/a	n/a	n/a	351.132	n/a
324.349	0.497	angry	Picture	38.763	n/a	3	9	3	n/a	43	86	3	n/a	n/a	n/a	n/a	351.663	AF09ANS.jpg
324.847	0.514	Blank	Blank	38.249	n/a	3	9	3	n/a	43	n/a	3	n/a	n/a	n/a	n/a	352.16	n/a
325.377	0.497	angry	Picture	37.735	n/a	3	9	4	n/a	44	93	3	n/a	n/a	n/a	n/a	352.691	BF22ANS.jpg
325.875	0.514	Blank	Blank	37.221	n/a	3	9	4	n/a	44	n/a	3	n/a	n/a	n/a	n/a	353.188	n/a
326.405	0.497	angry	Picture	36.707	n/a	3	9	5	n/a	45	88	3	n/a	n/a	n/a	n/a	353.719	AF14ANS.jpg
326.903	0.514	Blank	Blank	36.194	n/a	3	9	5	n/a	45	n/a	3	n/a	n/a	n/a	n/a	354.216	n/a
327.433	0.497	angry	Picture	35.68	n/a	3	9	6	n/a	46	113	3	n/a	n/a	n/a	n/a	354.747	AM21ANS.jpg
327.93	0.514	Blank	Blank	35.166	n/a	3	9	6	n/a	46	n/a	3	n/a	n/a	n/a	n/a	355.244	n/a
328.461	0.497	angry	Picture	34.652	n/a	3	9	7	n/a	47	95	3	n/a	n/a	n/a	n/a	355.775	AF25ANS.jpg
328.958	0.514	Blank	Blank	34.138	n/a	3	9	7	n/a	47	n/a	3	n/a	n/a	n/a	n/a	356.272	n/a
329.489	0.497	angry	Picture	33.624	n/a	3	9	8	n/a	48	102	3	n/a	n/a	n/a	n/a	356.803	BM03ANS.jpg
329.986	0.514	Blank	Blank	33.11	n/a	3	9	8	n/a	48	n/a	3	n/a	n/a	n/a	n/a	357.3	n/a
330.517	0.497	angry	Picture	32.596	n/a	3	9	9	n/a	49	112	3	n/a	n/a	n/a	n/a	357.83	AM14ANS.jpg
331.014	0.514	Blank	Blank	32.082	n/a	3	9	9	n/a	49	n/a	3	n/a	n/a	n/a	n/a	358.328	n/a
331.545	0.497	angry	Picture	31.568	n/a	3	9	10	n/a	50	83	3	n/a	n/a	n/a	n/a	358.858	BF04ANS.jpg
332.042	0.514	Blank	Blank	31.054	n/a	3	9	10	n/a	50	n/a	3	n/a	n/a	n/a	n/a	359.356	n/a
332.572	0.497	angry	Picture	30.54	n/a	3	9	11	n/a	51	90	3	n/a	n/a	n/a	n/a	359.886	AF18ANS.jpg
333.07	0.514	Blank	Blank	30.026	n/a	3	9	11	n/a	51	n/a	3	n/a	n/a	n/a	n/a	360.384	n/a
333.6	0.497	angry	Picture	29.512	n/a	3	9	12	n/a	52	117	3	n/a	n/a	n/a	n/a	360.914	BM25ANS.jpg
334.098	0.514	Blank	Blank	28.998	n/a	3	9	12	n/a	52	n/a	3	n/a	n/a	n/a	n/a	361.411	n/a
334.628	0.497	angry	Picture	28.485	n/a	3	9	13	n/a	53	94	3	n/a	n/a	n/a	n/a	361.942	AF23ANS.jpg
335.126	0.514	Blank	Blank	27.97	n/a	3	9	13	n/a	53	n/a	3	n/a	n/a	n/a	n/a	362.439	n/a
335.656	0.497	angry	Picture	27.457	n/a	3	9	14	n/a	54	106	3	n/a	n/a	n/a	n/a	362.97	AM07ANS.jpg
336.153	0.514	Blank	Blank	26.943	n/a	3	9	14	n/a	54	n/a	3	n/a	n/a	n/a	n/a	363.467	n/a
336.684	0.497	angry	Picture	26.429	n/a	3	9	15	n/a	55	105	3	n/a	n/a	n/a	n/a	363.998	BM06ANS.jpg
337.181	0.514	Blank	Blank	25.915	n/a	3	9	15	n/a	55	n/a	3	n/a	n/a	n/a	n/a	364.495	n/a
337.712	0.497	angry	Picture	25.401	n/a	3	9	16	n/a	56	116	3	n/a	n/a	n/a	n/a	365.026	BM24ANS.jpg
338.209	0.514	Blank	Blank	24.887	n/a	3	9	16	n/a	56	n/a	3	n/a	n/a	n/a	n/a	365.523	n/a
338.74	0.497	angry	Picture	24.373	n/a	3	9	17	n/a	57	89	3	n/a	n/a	n/a	n/a	366.053	AF17ANS.jpg
339.237	0.514	Blank	Blank	23.859	n/a	3	9	17	n/a	57	n/a	3	n/a	n/a	n/a	n/a	366.551	n/a
339.768	0.497	angry	Picture	23.345	n/a	3	9	18	n/a	58	118	3	n/a	n/a	n/a	n/a	367.081	BM26ANS.jpg
340.265	0.514	Blank	Blank	22.831	n/a	3	9	18	n/a	58	n/a	3	n/a	n/a	n/a	n/a	367.579	n/a
340.796	0.497	angry	Picture	22.317	n/a	3	9	19	n/a	59	100	3	n/a	n/a	n/a	n/a	368.109	AF32ANS.jpg
341.293	0.514	Blank	Blank	21.803	n/a	3	9	19	n/a	59	n/a	3	n/a	n/a	n/a	n/a	368.606	n/a
341.823	0.497	angry	Picture	21.289	n/a	3	9	20	n/a	60	119	3	n/a	n/a	n/a	n/a	369.137	BM28ANS.jpg
342.321	0.514	Blank	Blank	20.775	n/a	3	9	20	n/a	60	n/a	3	n/a	n/a	n/a	n/a	369.634	n/a
342.851	10.014	ITI	Fixation+	10.745	n/a	3	n/a	n/a	n/a	n/a	n/a	n/a	n/a	n/a	n/a	n/a	370.165	n/a
363.61	n/a	ConfirmRating	Rate	n/a	10.743	3	n/a	n/a	0	n/a	n/a	n/a	2	Angry	37	49	390.924	n/a
380.789	n/a	ConfirmRating	Rate	n/a	17.159	3	n/a	n/a	1	n/a	n/a	n/a	3	Angry	38	49	408.102	n/a
380.817	10.014	ITI	Fixation+	99.594	n/a	4	n/a	n/a	n/a	n/a	n/a	n/a	n/a	n/a	n/a	n/a	408.13	n/a
390.847	0.497	happy	Picture	99.08	n/a	4	10	1	n/a	61	79	2	n/a	n/a	n/a	n/a	418.16	BM28HAS.jpg
391.344	0.514	Blank	Blank	98.566	n/a	4	10	1	n/a	61	n/a	2	n/a	n/a	n/a	n/a	418.658	n/a
391.875	0.497	happy	Picture	98.052	n/a	4	10	2	n/a	62	61	2	n/a	n/a	n/a	n/a	419.188	AM01HAS.jpg
392.372	0.514	Blank	Blank	97.538	n/a	4	10	2	n/a	62	n/a	2	n/a	n/a	n/a	n/a	419.686	n/a
392.903	0.497	happy	Picture	97.024	n/a	4	10	3	n/a	63	57	2	n/a	n/a	n/a	n/a	420.216	BF28HAS.jpg
393.4	0.514	Blank	Blank	96.51	n/a	4	10	3	n/a	63	n/a	2	n/a	n/a	n/a	n/a	420.714	n/a
393.93	0.497	happy	Picture	95.996	n/a	4	10	4	n/a	64	77	2	n/a	n/a	n/a	n/a	421.244	BM25HAS.jpg
394.428	0.514	Blank	Blank	95.482	n/a	4	10	4	n/a	64	n/a	2	n/a	n/a	n/a	n/a	421.741	n/a
394.958	0.497	happy	Picture	94.968	n/a	4	10	5	n/a	65	47	2	n/a	n/a	n/a	n/a	422.272	BF11HAS.jpg
395.456	0.514	Blank	Blank	94.454	n/a	4	10	5	n/a	65	n/a	2	n/a	n/a	n/a	n/a	422.769	n/a
395.986	0.497	happy	Picture	93.94	n/a	4	10	6	n/a	66	50	2	n/a	n/a	n/a	n/a	423.3	AF18HAS.jpg
396.483	0.514	Blank	Blank	93.426	n/a	4	10	6	n/a	66	n/a	2	n/a	n/a	n/a	n/a	423.797	n/a
397.014	0.497	happy	Picture	92.912	n/a	4	10	7	n/a	67	78	2	n/a	n/a	n/a	n/a	424.328	BM26HAS.jpg
397.511	0.514	Blank	Blank	92.398	n/a	4	10	7	n/a	67	n/a	2	n/a	n/a	n/a	n/a	424.825	n/a
398.042	0.497	happy	Picture	91.885	n/a	4	10	8	n/a	68	45	2	n/a	n/a	n/a	n/a	425.356	BF07HAS.jpg
398.539	0.514	Blank	Blank	91.37	n/a	4	10	8	n/a	68	n/a	2	n/a	n/a	n/a	n/a	425.853	n/a
399.07	0.497	happy	Picture	90.857	n/a	4	10	9	n/a	69	56	2	n/a	n/a	n/a	n/a	426.384	AF26HAS.jpg
399.567	0.514	Blank	Blank	90.343	n/a	4	10	9	n/a	69	n/a	2	n/a	n/a	n/a	n/a	426.881	n/a
400.098	0.497	happy	Picture	89.829	n/a	4	10	10	n/a	70	65	2	n/a	n/a	n/a	n/a	427.411	BM06HAS.jpg
400.595	0.514	Blank	Blank	89.315	n/a	4	10	10	n/a	70	n/a	2	n/a	n/a	n/a	n/a	427.909	n/a
401.126	0.497	happy	Picture	88.801	n/a	4	10	11	n/a	71	73	2	n/a	n/a	n/a	n/a	428.439	AM21HAS.jpg
401.623	0.514	Blank	Blank	88.287	n/a	4	10	11	n/a	71	n/a	2	n/a	n/a	n/a	n/a	428.937	n/a
402.153	0.497	happy	Picture	87.773	n/a	4	10	12	n/a	72	41	2	n/a	n/a	n/a	n/a	429.467	AF01HAS.jpg
402.651	0.514	Blank	Blank	87.259	n/a	4	10	12	n/a	72	n/a	2	n/a	n/a	n/a	n/a	429.964	n/a
403.181	0.497	happy	Picture	86.745	n/a	4	10	13	n/a	73	59	2	n/a	n/a	n/a	n/a	430.495	AF31HAS.jpg
403.679	0.514	Blank	Blank	86.231	n/a	4	10	13	n/a	73	n/a	2	n/a	n/a	n/a	n/a	430.992	n/a
404.209	0.497	happy	Picture	85.717	n/a	4	10	14	n/a	74	64	2	n/a	n/a	n/a	n/a	431.523	BM05HAS.jpg
404.707	0.514	Blank	Blank	85.203	n/a	4	10	14	n/a	74	n/a	2	n/a	n/a	n/a	n/a	432.02	n/a
405.237	0.497	happy	Picture	84.689	n/a	4	10	15	n/a	75	68	2	n/a	n/a	n/a	n/a	432.551	AM09HAS.jpg
405.734	0.514	Blank	Blank	84.175	n/a	4	10	15	n/a	75	n/a	2	n/a	n/a	n/a	n/a	433.048	n/a
406.265	0.497	happy	Picture	83.661	n/a	4	10	16	n/a	76	54	2	n/a	n/a	n/a	n/a	433.579	AF23HAS.jpg
406.762	0.514	Blank	Blank	83.147	n/a	4	10	16	n/a	76	n/a	2	n/a	n/a	n/a	n/a	434.076	n/a
407.293	0.497	happy	Picture	82.633	n/a	4	10	17	n/a	77	53	2	n/a	n/a	n/a	n/a	434.606	BF22HAS.jpg
407.79	0.514	Blank	Blank	82.12	n/a	4	10	17	n/a	77	n/a	2	n/a	n/a	n/a	n/a	435.104	n/a
408.321	0.497	happy	Picture	81.606	n/a	4	10	18	n/a	78	44	2	n/a	n/a	n/a	n/a	435.634	AF05HAS.jpg
408.818	0.514	Blank	Blank	81.092	n/a	4	10	18	n/a	78	n/a	2	n/a	n/a	n/a	n/a	436.132	n/a
409.349	0.497	happy	Picture	80.578	n/a	4	10	19	n/a	79	52	2	n/a	n/a	n/a	n/a	436.662	AF21HAS.jpg
409.846	0.514	Blank	Blank	80.064	n/a	4	10	19	n/a	79	n/a	2	n/a	n/a	n/a	n/a	437.16	n/a
410.377	0.497	happy	Picture	79.55	n/a	4	10	20	n/a	80	62	2	n/a	n/a	n/a	n/a	437.69	BM03HAS.jpg
410.874	0.514	Blank	Blank	79.036	n/a	4	10	20	n/a	80	n/a	2	n/a	n/a	n/a	n/a	438.188	n/a
411.404	10.014	ITI	Fixation+	69.006	n/a	4	n/a	n/a	n/a	n/a	n/a	n/a	n/a	n/a	n/a	n/a	438.718	n/a
421.435	0.497	neutral	Picture	68.492	n/a	4	11	1	n/a	81	23	1	n/a	n/a	n/a	n/a	448.748	AM04NES.jpg
421.932	0.514	Blank	Blank	67.978	n/a	4	11	1	n/a	81	n/a	1	n/a	n/a	n/a	n/a	449.246	n/a
422.462	0.497	neutral	Picture	67.464	n/a	4	11	2	n/a	82	29	1	n/a	n/a	n/a	n/a	449.776	AM10NES.jpg
422.96	0.514	Blank	Blank	66.95	n/a	4	11	2	n/a	82	n/a	1	n/a	n/a	n/a	n/a	450.273	n/a
423.49	0.497	neutral	Picture	66.436	n/a	4	11	3	n/a	83	24	1	n/a	n/a	n/a	n/a	450.804	BM05NES.jpg
423.988	0.514	Blank	Blank	65.922	n/a	4	11	3	n/a	83	n/a	1	n/a	n/a	n/a	n/a	451.301	n/a
424.518	0.497	neutral	Picture	65.408	n/a	4	11	4	n/a	84	12	1	n/a	n/a	n/a	n/a	451.832	AF21NES.jpg
425.016	0.514	Blank	Blank	64.894	n/a	4	11	4	n/a	84	n/a	1	n/a	n/a	n/a	n/a	452.329	n/a
425.546	0.497	neutral	Picture	64.38	n/a	4	11	5	n/a	85	13	1	n/a	n/a	n/a	n/a	452.86	BF22NES.jpg
426.043	0.514	Blank	Blank	63.866	n/a	4	11	5	n/a	85	n/a	1	n/a	n/a	n/a	n/a	453.357	n/a
426.574	0.497	neutral	Picture	63.352	n/a	4	11	6	n/a	86	17	1	n/a	n/a	n/a	n/a	453.888	BF28NES.jpg
427.071	0.514	Blank	Blank	62.839	n/a	4	11	6	n/a	86	n/a	1	n/a	n/a	n/a	n/a	454.385	n/a
427.602	0.497	neutral	Picture	62.325	n/a	4	11	7	n/a	87	4	1	n/a	n/a	n/a	n/a	454.916	AF05NES.jpg
428.099	0.514	Blank	Blank	61.811	n/a	4	11	7	n/a	87	n/a	1	n/a	n/a	n/a	n/a	455.413	n/a
428.63	0.497	neutral	Picture	61.297	n/a	4	11	8	n/a	88	11	1	n/a	n/a	n/a	n/a	455.943	AF20NES.jpg
429.127	0.514	Blank	Blank	60.783	n/a	4	11	8	n/a	88	n/a	1	n/a	n/a	n/a	n/a	456.441	n/a
429.658	0.497	neutral	Picture	60.269	n/a	4	11	9	n/a	89	22	1	n/a	n/a	n/a	n/a	456.971	BM03NES.jpg
430.155	0.514	Blank	Blank	59.755	n/a	4	11	9	n/a	89	n/a	1	n/a	n/a	n/a	n/a	457.469	n/a
430.685	0.497	neutral	Picture	59.241	n/a	4	11	10	n/a	90	15	1	n/a	n/a	n/a	n/a	457.999	AF25NES.jpg
431.183	0.514	Blank	Blank	58.727	n/a	4	11	10	n/a	90	n/a	1	n/a	n/a	n/a	n/a	458.497	n/a
431.713	0.497	neutral	Picture	58.213	n/a	4	11	11	n/a	91	19	1	n/a	n/a	n/a	n/a	459.027	AF31NES.jpg
432.211	0.514	Blank	Blank	57.699	n/a	4	11	11	n/a	91	n/a	1	n/a	n/a	n/a	n/a	459.524	n/a
432.741	0.497	neutral	Picture	57.185	n/a	4	11	12	n/a	92	9	1	n/a	n/a	n/a	n/a	460.055	AF17NES.jpg
433.239	0.514	Blank	Blank	56.671	n/a	4	11	12	n/a	92	n/a	1	n/a	n/a	n/a	n/a	460.552	n/a
433.769	0.497	neutral	Picture	56.157	n/a	4	11	13	n/a	93	14	1	n/a	n/a	n/a	n/a	461.083	AF23NES.jpg
434.266	0.514	Blank	Blank	55.643	n/a	4	11	13	n/a	93	n/a	1	n/a	n/a	n/a	n/a	461.58	n/a
434.797	0.497	neutral	Picture	55.129	n/a	4	11	14	n/a	94	36	1	n/a	n/a	n/a	n/a	462.111	BM24NES.jpg
435.294	0.514	Blank	Blank	54.615	n/a	4	11	14	n/a	94	n/a	1	n/a	n/a	n/a	n/a	462.608	n/a
435.825	0.497	neutral	Picture	54.101	n/a	4	11	15	n/a	95	34	1	n/a	n/a	n/a	n/a	463.139	AM22NES.jpg
436.322	0.514	Blank	Blank	53.588	n/a	4	11	15	n/a	95	n/a	1	n/a	n/a	n/a	n/a	463.636	n/a
436.853	0.497	neutral	Picture	53.074	n/a	4	11	16	n/a	96	10	1	n/a	n/a	n/a	n/a	464.166	AF18NES.jpg
437.35	0.514	Blank	Blank	52.56	n/a	4	11	16	n/a	96	n/a	1	n/a	n/a	n/a	n/a	464.664	n/a
437.881	0.497	neutral	Picture	52.046	n/a	4	11	17	n/a	97	5	1	n/a	n/a	n/a	n/a	465.194	BF07NES.jpg
438.378	0.514	Blank	Blank	51.532	n/a	4	11	17	n/a	97	n/a	1	n/a	n/a	n/a	n/a	465.692	n/a
438.909	0.497	neutral	Picture	51.018	n/a	4	11	18	n/a	98	25	1	n/a	n/a	n/a	n/a	466.222	BM06NES.jpg
439.406	0.514	Blank	Blank	50.504	n/a	4	11	18	n/a	98	n/a	1	n/a	n/a	n/a	n/a	466.719	n/a
439.936	0.497	neutral	Picture	49.99	n/a	4	11	19	n/a	99	39	1	n/a	n/a	n/a	n/a	467.25	AM28NES.jpg
440.434	0.514	Blank	Blank	49.476	n/a	4	11	19	n/a	99	n/a	1	n/a	n/a	n/a	n/a	467.747	n/a
440.964	0.497	neutral	Picture	48.962	n/a	4	11	20	n/a	100	33	1	n/a	n/a	n/a	n/a	468.278	AM21NES.jpg
441.462	0.514	Blank	Blank	48.448	n/a	4	11	20	n/a	100	n/a	1	n/a	n/a	n/a	n/a	468.775	n/a
441.992	10.014	ITI	Fixation+	38.418	n/a	4	n/a	n/a	n/a	n/a	n/a	n/a	n/a	n/a	n/a	n/a	469.306	n/a
452.022	0.497	happy	Picture	37.904	n/a	4	12	1	n/a	101	74	2	n/a	n/a	n/a	n/a	479.336	AM22HAS.jpg
452.52	0.514	Blank	Blank	37.39	n/a	4	12	1	n/a	101	n/a	2	n/a	n/a	n/a	n/a	479.833	n/a
453.05	0.497	happy	Picture	36.876	n/a	4	12	2	n/a	102	76	2	n/a	n/a	n/a	n/a	480.364	BM24HAS.jpg
453.548	0.514	Blank	Blank	36.362	n/a	4	12	2	n/a	102	n/a	2	n/a	n/a	n/a	n/a	480.861	n/a
454.078	0.497	happy	Picture	35.848	n/a	4	12	3	n/a	103	80	2	n/a	n/a	n/a	n/a	481.392	BM35HAS.jpg
454.575	0.514	Blank	Blank	35.334	n/a	4	12	3	n/a	103	n/a	2	n/a	n/a	n/a	n/a	481.889	n/a
455.106	0.497	happy	Picture	34.82	n/a	4	12	4	n/a	104	75	2	n/a	n/a	n/a	n/a	482.42	AM23HAS.jpg
455.603	0.514	Blank	Blank	34.307	n/a	4	12	4	n/a	104	n/a	2	n/a	n/a	n/a	n/a	482.917	n/a
456.134	0.497	happy	Picture	33.792	n/a	4	12	5	n/a	105	49	2	n/a	n/a	n/a	n/a	483.447	AF17HAS.jpg
456.631	0.514	Blank	Blank	33.279	n/a	4	12	5	n/a	105	n/a	2	n/a	n/a	n/a	n/a	483.945	n/a
457.162	0.497	happy	Picture	32.765	n/a	4	12	6	n/a	106	43	2	n/a	n/a	n/a	n/a	484.475	BF04HAS.jpg
457.659	0.514	Blank	Blank	32.251	n/a	4	12	6	n/a	106	n/a	2	n/a	n/a	n/a	n/a	484.973	n/a
458.19	0.497	happy	Picture	31.737	n/a	4	12	7	n/a	107	70	2	n/a	n/a	n/a	n/a	485.503	BM11HAS.jpg
458.687	0.514	Blank	Blank	31.223	n/a	4	12	7	n/a	107	n/a	2	n/a	n/a	n/a	n/a	486.001	n/a
459.218	0.497	happy	Picture	30.709	n/a	4	12	8	n/a	108	66	2	n/a	n/a	n/a	n/a	486.531	BM07HAS.jpg
459.715	0.514	Blank	Blank	30.195	n/a	4	12	8	n/a	108	n/a	2	n/a	n/a	n/a	n/a	487.029	n/a
460.245	0.497	happy	Picture	29.681	n/a	4	12	9	n/a	109	48	2	n/a	n/a	n/a	n/a	487.559	AF14HAS.jpg
460.743	0.514	Blank	Blank	29.167	n/a	4	12	9	n/a	109	n/a	2	n/a	n/a	n/a	n/a	488.056	n/a
461.273	0.497	happy	Picture	28.653	n/a	4	12	10	n/a	110	58	2	n/a	n/a	n/a	n/a	488.587	BF29HAS.jpg
461.771	0.514	Blank	Blank	28.139	n/a	4	12	10	n/a	110	n/a	2	n/a	n/a	n/a	n/a	489.084	n/a
462.301	0.497	happy	Picture	27.625	n/a	4	12	11	n/a	111	63	2	n/a	n/a	n/a	n/a	489.615	AM04HAS.jpg
462.798	0.514	Blank	Blank	27.111	n/a	4	12	11	n/a	111	n/a	2	n/a	n/a	n/a	n/a	490.112	n/a
463.329	0.497	happy	Picture	26.597	n/a	4	12	12	n/a	112	72	2	n/a	n/a	n/a	n/a	490.643	AM14HAS.jpg
463.826	0.514	Blank	Blank	26.083	n/a	4	12	12	n/a	112	n/a	2	n/a	n/a	n/a	n/a	491.14	n/a
464.357	0.497	happy	Picture	25.57	n/a	4	12	13	n/a	113	55	2	n/a	n/a	n/a	n/a	491.671	AF25HAS.jpg
464.854	0.514	Blank	Blank	25.055	n/a	4	12	13	n/a	113	n/a	2	n/a	n/a	n/a	n/a	492.168	n/a
465.385	0.497	happy	Picture	24.542	n/a	4	12	14	n/a	114	42	2	n/a	n/a	n/a	n/a	492.698	AF03HAS.jpg
465.882	0.514	Blank	Blank	24.028	n/a	4	12	14	n/a	114	n/a	2	n/a	n/a	n/a	n/a	493.196	n/a
466.413	0.497	happy	Picture	23.514	n/a	4	12	15	n/a	115	60	2	n/a	n/a	n/a	n/a	493.726	AF32HAS.jpg
466.91	0.514	Blank	Blank	23.0	n/a	4	12	15	n/a	115	n/a	2	n/a	n/a	n/a	n/a	494.224	n/a
467.441	0.497	happy	Picture	22.486	n/a	4	12	16	n/a	116	67	2	n/a	n/a	n/a	n/a	494.754	BM08HAS.jpg
467.938	0.514	Blank	Blank	21.972	n/a	4	12	16	n/a	116	n/a	2	n/a	n/a	n/a	n/a	495.252	n/a
468.468	0.497	happy	Picture	21.458	n/a	4	12	17	n/a	117	51	2	n/a	n/a	n/a	n/a	495.782	AF20HAS.jpg
468.966	0.514	Blank	Blank	20.944	n/a	4	12	17	n/a	117	n/a	2	n/a	n/a	n/a	n/a	496.279	n/a
469.496	0.497	happy	Picture	20.43	n/a	4	12	18	n/a	118	71	2	n/a	n/a	n/a	n/a	496.81	BM12HAS.jpg
469.994	0.514	Blank	Blank	19.916	n/a	4	12	18	n/a	118	n/a	2	n/a	n/a	n/a	n/a	497.307	n/a
470.524	0.497	happy	Picture	19.402	n/a	4	12	19	n/a	119	69	2	n/a	n/a	n/a	n/a	497.838	AM10HAS.jpg
471.022	0.514	Blank	Blank	18.888	n/a	4	12	19	n/a	119	n/a	2	n/a	n/a	n/a	n/a	498.335	n/a
471.552	0.497	happy	Picture	18.374	n/a	4	12	20	n/a	120	46	2	n/a	n/a	n/a	n/a	498.866	AF09HAS.jpg
472.049	0.514	Blank	Blank	17.86	n/a	4	12	20	n/a	120	n/a	2	n/a	n/a	n/a	n/a	499.363	n/a
472.58	10.014	ITI	Fixation+	7.83	n/a	4	n/a	n/a	n/a	n/a	n/a	n/a	n/a	n/a	n/a	n/a	499.894	n/a
490.424	n/a	ConfirmRating	Rate	n/a	7.825	4	n/a	n/a	0	n/a	n/a	n/a	2	Happy	63	51	517.737	n/a
496.398	n/a	ConfirmRating	Rate	n/a	5.952	4	n/a	n/a	1	n/a	n/a	n/a	3	Happy	62	51	523.711	n/a
