onset	duration	trial_type	event_type	time_until_response	response_time	trial_number	block_num_within_trial	image_seq_num_within_block	question_seq_num_within_block	image_seq_num	picture_number	condition	question_type	block_type	rating	rating_computed	onset_uncorrected	KDEV_imagefile
0.004	10.014	ITI	Fixation+	100.326	n/a	1	n/a	n/a	n/a	n/a	n/a	n/a	n/a	n/a	n/a	n/a	30.616	n/a
10.035	0.497	happy	Picture	99.812	n/a	1	1	1	n/a	1	46	2	n/a	n/a	n/a	n/a	40.646	AF09HAS.jpg
10.532	0.514	Blank	Blank	99.298	n/a	1	1	1	n/a	1	n/a	2	n/a	n/a	n/a	n/a	41.143	n/a
11.062	0.497	happy	Picture	98.784	n/a	1	1	2	n/a	2	69	2	n/a	n/a	n/a	n/a	41.674	AM10HAS.jpg
11.56	0.514	Blank	Blank	98.27	n/a	1	1	2	n/a	2	n/a	2	n/a	n/a	n/a	n/a	42.171	n/a
12.09	0.497	happy	Picture	97.757	n/a	1	1	3	n/a	3	71	2	n/a	n/a	n/a	n/a	42.702	BM12HAS.jpg
12.588	0.514	Blank	Blank	97.243	n/a	1	1	3	n/a	3	n/a	2	n/a	n/a	n/a	n/a	43.199	n/a
13.118	0.497	happy	Picture	96.729	n/a	1	1	4	n/a	4	51	2	n/a	n/a	n/a	n/a	43.73	AF20HAS.jpg
13.616	0.514	Blank	Blank	96.215	n/a	1	1	4	n/a	4	n/a	2	n/a	n/a	n/a	n/a	44.227	n/a
14.146	0.497	happy	Picture	95.701	n/a	1	1	5	n/a	5	67	2	n/a	n/a	n/a	n/a	44.758	BM08HAS.jpg
14.644	0.514	Blank	Blank	95.187	n/a	1	1	5	n/a	5	n/a	2	n/a	n/a	n/a	n/a	45.255	n/a
15.174	0.497	happy	Picture	94.673	n/a	1	1	6	n/a	6	60	2	n/a	n/a	n/a	n/a	45.785	AF32HAS.jpg
15.671	0.514	Blank	Blank	94.159	n/a	1	1	6	n/a	6	n/a	2	n/a	n/a	n/a	n/a	46.283	n/a
16.202	0.497	happy	Picture	93.645	n/a	1	1	7	n/a	7	42	2	n/a	n/a	n/a	n/a	46.813	AF03HAS.jpg
16.699	0.514	Blank	Blank	93.131	n/a	1	1	7	n/a	7	n/a	2	n/a	n/a	n/a	n/a	47.311	n/a
17.23	0.497	happy	Picture	92.617	n/a	1	1	8	n/a	8	55	2	n/a	n/a	n/a	n/a	47.841	AF25HAS.jpg
17.727	0.514	Blank	Blank	92.103	n/a	1	1	8	n/a	8	n/a	2	n/a	n/a	n/a	n/a	48.339	n/a
18.258	0.497	happy	Picture	91.589	n/a	1	1	9	n/a	9	72	2	n/a	n/a	n/a	n/a	48.869	AM14HAS.jpg
18.755	0.514	Blank	Blank	91.075	n/a	1	1	9	n/a	9	n/a	2	n/a	n/a	n/a	n/a	49.367	n/a
19.286	0.497	happy	Picture	90.561	n/a	1	1	10	n/a	10	63	2	n/a	n/a	n/a	n/a	49.897	AM04HAS.jpg
19.783	0.514	Blank	Blank	90.047	n/a	1	1	10	n/a	10	n/a	2	n/a	n/a	n/a	n/a	50.394	n/a
20.313	0.497	happy	Picture	89.534	n/a	1	1	11	n/a	11	58	2	n/a	n/a	n/a	n/a	50.925	BF29HAS.jpg
20.811	0.514	Blank	Blank	89.02	n/a	1	1	11	n/a	11	n/a	2	n/a	n/a	n/a	n/a	51.422	n/a
21.341	0.497	happy	Picture	88.506	n/a	1	1	12	n/a	12	48	2	n/a	n/a	n/a	n/a	51.953	AF14HAS.jpg
21.839	0.514	Blank	Blank	87.992	n/a	1	1	12	n/a	12	n/a	2	n/a	n/a	n/a	n/a	52.45	n/a
22.369	0.497	happy	Picture	87.478	n/a	1	1	13	n/a	13	66	2	n/a	n/a	n/a	n/a	52.981	BM07HAS.jpg
22.867	0.514	Blank	Blank	86.964	n/a	1	1	13	n/a	13	n/a	2	n/a	n/a	n/a	n/a	53.478	n/a
23.397	0.497	happy	Picture	86.45	n/a	1	1	14	n/a	14	70	2	n/a	n/a	n/a	n/a	54.009	BM11HAS.jpg
23.895	0.514	Blank	Blank	85.936	n/a	1	1	14	n/a	14	n/a	2	n/a	n/a	n/a	n/a	54.506	n/a
24.425	0.497	happy	Picture	85.422	n/a	1	1	15	n/a	15	43	2	n/a	n/a	n/a	n/a	55.036	BF04HAS.jpg
24.922	0.514	Blank	Blank	84.908	n/a	1	1	15	n/a	15	n/a	2	n/a	n/a	n/a	n/a	55.534	n/a
25.453	0.497	happy	Picture	84.394	n/a	1	1	16	n/a	16	49	2	n/a	n/a	n/a	n/a	56.064	AF17HAS.jpg
25.95	0.514	Blank	Blank	83.88	n/a	1	1	16	n/a	16	n/a	2	n/a	n/a	n/a	n/a	56.562	n/a
26.481	0.497	happy	Picture	83.366	n/a	1	1	17	n/a	17	75	2	n/a	n/a	n/a	n/a	57.092	AM23HAS.jpg
26.978	0.514	Blank	Blank	82.852	n/a	1	1	17	n/a	17	n/a	2	n/a	n/a	n/a	n/a	57.59	n/a
27.509	0.497	happy	Picture	82.338	n/a	1	1	18	n/a	18	80	2	n/a	n/a	n/a	n/a	58.12	BM35HAS.jpg
28.006	0.514	Blank	Blank	81.824	n/a	1	1	18	n/a	18	n/a	2	n/a	n/a	n/a	n/a	58.618	n/a
28.537	0.497	happy	Picture	81.31	n/a	1	1	19	n/a	19	76	2	n/a	n/a	n/a	n/a	59.148	BM24HAS.jpg
29.034	0.514	Blank	Blank	80.796	n/a	1	1	19	n/a	19	n/a	2	n/a	n/a	n/a	n/a	59.645	n/a
29.565	0.497	happy	Picture	80.282	n/a	1	1	20	n/a	20	74	2	n/a	n/a	n/a	n/a	60.176	AM22HAS.jpg
30.062	0.514	Blank	Blank	79.769	n/a	1	1	20	n/a	20	n/a	2	n/a	n/a	n/a	n/a	60.673	n/a
30.592	10.014	ITI	Fixation+	69.738	n/a	1	n/a	n/a	n/a	n/a	n/a	n/a	n/a	n/a	n/a	n/a	61.204	n/a
40.623	0.497	neutral	Picture	69.224	n/a	1	2	1	n/a	21	33	1	n/a	n/a	n/a	n/a	71.234	AM21NES.jpg
41.12	0.514	Blank	Blank	68.71	n/a	1	2	1	n/a	21	n/a	1	n/a	n/a	n/a	n/a	71.731	n/a
41.651	0.497	neutral	Picture	68.197	n/a	1	2	2	n/a	22	39	1	n/a	n/a	n/a	n/a	72.262	AM28NES.jpg
42.148	0.514	Blank	Blank	67.683	n/a	1	2	2	n/a	22	n/a	1	n/a	n/a	n/a	n/a	72.759	n/a
42.678	0.497	neutral	Picture	67.169	n/a	1	2	3	n/a	23	25	1	n/a	n/a	n/a	n/a	73.29	BM06NES.jpg
43.176	0.514	Blank	Blank	66.655	n/a	1	2	3	n/a	23	n/a	1	n/a	n/a	n/a	n/a	73.787	n/a
43.706	0.497	neutral	Picture	66.141	n/a	1	2	4	n/a	24	5	1	n/a	n/a	n/a	n/a	74.318	BF07NES.jpg
44.204	0.514	Blank	Blank	65.627	n/a	1	2	4	n/a	24	n/a	1	n/a	n/a	n/a	n/a	74.815	n/a
44.734	0.497	neutral	Picture	65.113	n/a	1	2	5	n/a	25	10	1	n/a	n/a	n/a	n/a	75.346	AF18NES.jpg
45.232	0.514	Blank	Blank	64.599	n/a	1	2	5	n/a	25	n/a	1	n/a	n/a	n/a	n/a	75.843	n/a
45.762	0.497	neutral	Picture	64.085	n/a	1	2	6	n/a	26	34	1	n/a	n/a	n/a	n/a	76.374	AM22NES.jpg
46.259	0.514	Blank	Blank	63.571	n/a	1	2	6	n/a	26	n/a	1	n/a	n/a	n/a	n/a	76.871	n/a
46.79	0.497	neutral	Picture	63.057	n/a	1	2	7	n/a	27	36	1	n/a	n/a	n/a	n/a	77.401	BM24NES.jpg
47.287	0.514	Blank	Blank	62.543	n/a	1	2	7	n/a	27	n/a	1	n/a	n/a	n/a	n/a	77.899	n/a
47.818	0.497	neutral	Picture	62.029	n/a	1	2	8	n/a	28	14	1	n/a	n/a	n/a	n/a	78.429	AF23NES.jpg
48.315	0.514	Blank	Blank	61.515	n/a	1	2	8	n/a	28	n/a	1	n/a	n/a	n/a	n/a	78.927	n/a
48.846	0.497	neutral	Picture	61.001	n/a	1	2	9	n/a	29	9	1	n/a	n/a	n/a	n/a	79.457	AF17NES.jpg
49.343	0.514	Blank	Blank	60.487	n/a	1	2	9	n/a	29	n/a	1	n/a	n/a	n/a	n/a	79.955	n/a
49.874	0.497	neutral	Picture	59.973	n/a	1	2	10	n/a	30	19	1	n/a	n/a	n/a	n/a	80.485	AF31NES.jpg
50.371	0.514	Blank	Blank	59.459	n/a	1	2	10	n/a	30	n/a	1	n/a	n/a	n/a	n/a	80.983	n/a
50.902	0.497	neutral	Picture	58.945	n/a	1	2	11	n/a	31	15	1	n/a	n/a	n/a	n/a	81.513	AF25NES.jpg
51.399	0.514	Blank	Blank	58.431	n/a	1	2	11	n/a	31	n/a	1	n/a	n/a	n/a	n/a	82.01	n/a
51.929	0.497	neutral	Picture	57.918	n/a	1	2	12	n/a	32	22	1	n/a	n/a	n/a	n/a	82.541	BM03NES.jpg
52.427	0.514	Blank	Blank	57.404	n/a	1	2	12	n/a	32	n/a	1	n/a	n/a	n/a	n/a	83.038	n/a
52.957	0.497	neutral	Picture	56.89	n/a	1	2	13	n/a	33	11	1	n/a	n/a	n/a	n/a	83.569	AF20NES.jpg
53.455	0.514	Blank	Blank	56.376	n/a	1	2	13	n/a	33	n/a	1	n/a	n/a	n/a	n/a	84.066	n/a
53.985	0.497	neutral	Picture	55.862	n/a	1	2	14	n/a	34	4	1	n/a	n/a	n/a	n/a	84.597	AF05NES.jpg
54.482	0.514	Blank	Blank	55.348	n/a	1	2	14	n/a	34	n/a	1	n/a	n/a	n/a	n/a	85.094	n/a
55.013	0.497	neutral	Picture	54.834	n/a	1	2	15	n/a	35	17	1	n/a	n/a	n/a	n/a	85.624	BF28NES.jpg
55.51	0.514	Blank	Blank	54.32	n/a	1	2	15	n/a	35	n/a	1	n/a	n/a	n/a	n/a	86.122	n/a
56.041	0.497	neutral	Picture	53.806	n/a	1	2	16	n/a	36	13	1	n/a	n/a	n/a	n/a	86.652	BF22NES.jpg
56.538	0.514	Blank	Blank	53.292	n/a	1	2	16	n/a	36	n/a	1	n/a	n/a	n/a	n/a	87.15	n/a
57.069	0.497	neutral	Picture	52.778	n/a	1	2	17	n/a	37	12	1	n/a	n/a	n/a	n/a	87.68	AF21NES.jpg
57.566	0.514	Blank	Blank	52.264	n/a	1	2	17	n/a	37	n/a	1	n/a	n/a	n/a	n/a	88.178	n/a
58.097	0.497	neutral	Picture	51.75	n/a	1	2	18	n/a	38	24	1	n/a	n/a	n/a	n/a	88.708	BM05NES.jpg
58.594	0.514	Blank	Blank	51.236	n/a	1	2	18	n/a	38	n/a	1	n/a	n/a	n/a	n/a	89.206	n/a
59.125	0.497	neutral	Picture	50.722	n/a	1	2	19	n/a	39	29	1	n/a	n/a	n/a	n/a	89.736	AM10NES.jpg
59.622	0.514	Blank	Blank	50.208	n/a	1	2	19	n/a	39	n/a	1	n/a	n/a	n/a	n/a	90.234	n/a
60.152	0.497	neutral	Picture	49.694	n/a	1	2	20	n/a	40	23	1	n/a	n/a	n/a	n/a	90.764	AM04NES.jpg
60.65	0.514	Blank	Blank	49.181	n/a	1	2	20	n/a	40	n/a	1	n/a	n/a	n/a	n/a	91.261	n/a
61.18	10.014	ITI	Fixation+	39.15	n/a	1	n/a	n/a	n/a	n/a	n/a	n/a	n/a	n/a	n/a	n/a	91.792	n/a
71.211	0.497	happy	Picture	38.636	n/a	1	3	1	n/a	41	62	2	n/a	n/a	n/a	n/a	101.822	BM03HAS.jpg
71.708	0.514	Blank	Blank	38.122	n/a	1	3	1	n/a	41	n/a	2	n/a	n/a	n/a	n/a	102.32	n/a
72.238	0.497	happy	Picture	37.608	n/a	1	3	2	n/a	42	52	2	n/a	n/a	n/a	n/a	102.85	AF21HAS.jpg
72.736	0.514	Blank	Blank	37.095	n/a	1	3	2	n/a	42	n/a	2	n/a	n/a	n/a	n/a	103.347	n/a
73.266	0.497	happy	Picture	36.581	n/a	1	3	3	n/a	43	44	2	n/a	n/a	n/a	n/a	103.878	AF05HAS.jpg
73.764	0.514	Blank	Blank	36.067	n/a	1	3	3	n/a	43	n/a	2	n/a	n/a	n/a	n/a	104.375	n/a
74.294	0.497	happy	Picture	35.553	n/a	1	3	4	n/a	44	53	2	n/a	n/a	n/a	n/a	104.906	BF22HAS.jpg
74.792	0.514	Blank	Blank	35.039	n/a	1	3	4	n/a	44	n/a	2	n/a	n/a	n/a	n/a	105.403	n/a
75.322	0.497	happy	Picture	34.525	n/a	1	3	5	n/a	45	54	2	n/a	n/a	n/a	n/a	105.934	AF23HAS.jpg
75.82	0.514	Blank	Blank	34.011	n/a	1	3	5	n/a	45	n/a	2	n/a	n/a	n/a	n/a	106.431	n/a
76.35	0.497	happy	Picture	33.497	n/a	1	3	6	n/a	46	68	2	n/a	n/a	n/a	n/a	106.962	AM09HAS.jpg
76.847	0.514	Blank	Blank	32.983	n/a	1	3	6	n/a	46	n/a	2	n/a	n/a	n/a	n/a	107.459	n/a
77.378	0.497	happy	Picture	32.469	n/a	1	3	7	n/a	47	64	2	n/a	n/a	n/a	n/a	107.989	BM05HAS.jpg
77.875	0.514	Blank	Blank	31.955	n/a	1	3	7	n/a	47	n/a	2	n/a	n/a	n/a	n/a	108.487	n/a
78.406	0.497	happy	Picture	31.441	n/a	1	3	8	n/a	48	59	2	n/a	n/a	n/a	n/a	109.017	AF31HAS.jpg
78.903	0.514	Blank	Blank	30.927	n/a	1	3	8	n/a	48	n/a	2	n/a	n/a	n/a	n/a	109.515	n/a
79.434	0.497	happy	Picture	30.413	n/a	1	3	9	n/a	49	41	2	n/a	n/a	n/a	n/a	110.045	AF01HAS.jpg
79.931	0.514	Blank	Blank	29.899	n/a	1	3	9	n/a	49	n/a	2	n/a	n/a	n/a	n/a	110.543	n/a
80.462	0.497	happy	Picture	29.385	n/a	1	3	10	n/a	50	73	2	n/a	n/a	n/a	n/a	111.073	AM21HAS.jpg
80.959	0.514	Blank	Blank	28.871	n/a	1	3	10	n/a	50	n/a	2	n/a	n/a	n/a	n/a	111.57	n/a
81.489	0.497	happy	Picture	28.357	n/a	1	3	11	n/a	51	65	2	n/a	n/a	n/a	n/a	112.101	BM06HAS.jpg
81.987	0.514	Blank	Blank	27.844	n/a	1	3	11	n/a	51	n/a	2	n/a	n/a	n/a	n/a	112.598	n/a
82.517	0.497	happy	Picture	27.329	n/a	1	3	12	n/a	52	56	2	n/a	n/a	n/a	n/a	113.129	AF26HAS.jpg
83.015	0.514	Blank	Blank	26.816	n/a	1	3	12	n/a	52	n/a	2	n/a	n/a	n/a	n/a	113.626	n/a
83.545	0.497	happy	Picture	26.302	n/a	1	3	13	n/a	53	45	2	n/a	n/a	n/a	n/a	114.157	BF07HAS.jpg
84.043	0.514	Blank	Blank	25.788	n/a	1	3	13	n/a	53	n/a	2	n/a	n/a	n/a	n/a	114.654	n/a
84.573	0.497	happy	Picture	25.274	n/a	1	3	14	n/a	54	78	2	n/a	n/a	n/a	n/a	115.185	BM26HAS.jpg
85.071	0.514	Blank	Blank	24.76	n/a	1	3	14	n/a	54	n/a	2	n/a	n/a	n/a	n/a	115.682	n/a
85.601	0.497	happy	Picture	24.246	n/a	1	3	15	n/a	55	50	2	n/a	n/a	n/a	n/a	116.213	AF18HAS.jpg
86.098	0.514	Blank	Blank	23.732	n/a	1	3	15	n/a	55	n/a	2	n/a	n/a	n/a	n/a	116.71	n/a
86.629	0.497	happy	Picture	23.218	n/a	1	3	16	n/a	56	47	2	n/a	n/a	n/a	n/a	117.24	BF11HAS.jpg
87.126	0.514	Blank	Blank	22.704	n/a	1	3	16	n/a	56	n/a	2	n/a	n/a	n/a	n/a	117.738	n/a
87.657	0.497	happy	Picture	22.19	n/a	1	3	17	n/a	57	77	2	n/a	n/a	n/a	n/a	118.268	BM25HAS.jpg
88.154	0.514	Blank	Blank	21.676	n/a	1	3	17	n/a	57	n/a	2	n/a	n/a	n/a	n/a	118.766	n/a
88.685	0.497	happy	Picture	21.162	n/a	1	3	18	n/a	58	57	2	n/a	n/a	n/a	n/a	119.296	BF28HAS.jpg
89.182	0.514	Blank	Blank	20.648	n/a	1	3	18	n/a	58	n/a	2	n/a	n/a	n/a	n/a	119.794	n/a
89.713	0.497	happy	Picture	20.134	n/a	1	3	19	n/a	59	61	2	n/a	n/a	n/a	n/a	120.324	AM01HAS.jpg
90.21	0.514	Blank	Blank	19.62	n/a	1	3	19	n/a	59	n/a	2	n/a	n/a	n/a	n/a	120.822	n/a
90.74	0.497	happy	Picture	19.106	n/a	1	3	20	n/a	60	79	2	n/a	n/a	n/a	n/a	121.352	BM28HAS.jpg
91.238	0.514	Blank	Blank	18.593	n/a	1	3	20	n/a	60	n/a	2	n/a	n/a	n/a	n/a	121.849	n/a
91.768	10.014	ITI	Fixation+	8.562	n/a	1	n/a	n/a	n/a	n/a	n/a	n/a	n/a	n/a	n/a	n/a	122.38	n/a
110.344	n/a	ConfirmRating	Rate	n/a	8.538	1	n/a	n/a	0	n/a	n/a	n/a	2	Happy	67	51	140.956	n/a
113.74	n/a	ConfirmRating	Rate	n/a	3.382	1	n/a	n/a	1	n/a	n/a	n/a	3	Happy	7	48	144.352	n/a
113.769	10.014	ITI	Fixation+	96.141	n/a	2	n/a	n/a	n/a	n/a	n/a	n/a	n/a	n/a	n/a	n/a	144.38	n/a
123.799	0.497	angry	Picture	95.627	n/a	2	4	1	n/a	61	119	3	n/a	n/a	n/a	n/a	154.41	BM28ANS.jpg
124.296	0.514	Blank	Blank	95.113	n/a	2	4	1	n/a	61	n/a	3	n/a	n/a	n/a	n/a	154.908	n/a
124.827	0.497	angry	Picture	94.599	n/a	2	4	2	n/a	62	100	3	n/a	n/a	n/a	n/a	155.438	AF32ANS.jpg
125.324	0.514	Blank	Blank	94.085	n/a	2	4	2	n/a	62	n/a	3	n/a	n/a	n/a	n/a	155.935	n/a
125.855	0.497	angry	Picture	93.571	n/a	2	4	3	n/a	63	118	3	n/a	n/a	n/a	n/a	156.466	BM26ANS.jpg
126.352	0.514	Blank	Blank	93.057	n/a	2	4	3	n/a	63	n/a	3	n/a	n/a	n/a	n/a	156.963	n/a
126.882	0.497	angry	Picture	92.543	n/a	2	4	4	n/a	64	89	3	n/a	n/a	n/a	n/a	157.494	AF17ANS.jpg
127.38	0.514	Blank	Blank	92.029	n/a	2	4	4	n/a	64	n/a	3	n/a	n/a	n/a	n/a	157.991	n/a
127.91	0.497	angry	Picture	91.516	n/a	2	4	5	n/a	65	116	3	n/a	n/a	n/a	n/a	158.522	BM24ANS.jpg
128.408	0.514	Blank	Blank	91.001	n/a	2	4	5	n/a	65	n/a	3	n/a	n/a	n/a	n/a	159.019	n/a
128.938	0.497	angry	Picture	90.488	n/a	2	4	6	n/a	66	105	3	n/a	n/a	n/a	n/a	159.55	BM06ANS.jpg
129.436	0.514	Blank	Blank	89.974	n/a	2	4	6	n/a	66	n/a	3	n/a	n/a	n/a	n/a	160.047	n/a
129.966	0.497	angry	Picture	89.46	n/a	2	4	7	n/a	67	106	3	n/a	n/a	n/a	n/a	160.578	AM07ANS.jpg
130.463	0.514	Blank	Blank	88.946	n/a	2	4	7	n/a	67	n/a	3	n/a	n/a	n/a	n/a	161.075	n/a
130.994	0.497	angry	Picture	88.432	n/a	2	4	8	n/a	68	94	3	n/a	n/a	n/a	n/a	161.606	AF23ANS.jpg
131.491	0.514	Blank	Blank	87.918	n/a	2	4	8	n/a	68	n/a	3	n/a	n/a	n/a	n/a	162.103	n/a
132.022	0.497	angry	Picture	87.404	n/a	2	4	9	n/a	69	117	3	n/a	n/a	n/a	n/a	162.633	BM25ANS.jpg
132.519	0.514	Blank	Blank	86.89	n/a	2	4	9	n/a	69	n/a	3	n/a	n/a	n/a	n/a	163.131	n/a
133.05	0.497	angry	Picture	86.376	n/a	2	4	10	n/a	70	90	3	n/a	n/a	n/a	n/a	163.661	AF18ANS.jpg
133.547	0.514	Blank	Blank	85.862	n/a	2	4	10	n/a	70	n/a	3	n/a	n/a	n/a	n/a	164.159	n/a
134.078	0.497	angry	Picture	85.348	n/a	2	4	11	n/a	71	83	3	n/a	n/a	n/a	n/a	164.689	BF04ANS.jpg
134.575	0.514	Blank	Blank	84.834	n/a	2	4	11	n/a	71	n/a	3	n/a	n/a	n/a	n/a	165.187	n/a
135.106	0.497	angry	Picture	84.32	n/a	2	4	12	n/a	72	112	3	n/a	n/a	n/a	n/a	165.717	AM14ANS.jpg
135.603	0.514	Blank	Blank	83.806	n/a	2	4	12	n/a	72	n/a	3	n/a	n/a	n/a	n/a	166.214	n/a
136.133	0.497	angry	Picture	83.292	n/a	2	4	13	n/a	73	102	3	n/a	n/a	n/a	n/a	166.745	BM03ANS.jpg
136.631	0.514	Blank	Blank	82.778	n/a	2	4	13	n/a	73	n/a	3	n/a	n/a	n/a	n/a	167.242	n/a
137.161	0.497	angry	Picture	82.264	n/a	2	4	14	n/a	74	95	3	n/a	n/a	n/a	n/a	167.773	AF25ANS.jpg
137.659	0.514	Blank	Blank	81.75	n/a	2	4	14	n/a	74	n/a	3	n/a	n/a	n/a	n/a	168.27	n/a
138.189	0.497	angry	Picture	81.237	n/a	2	4	15	n/a	75	113	3	n/a	n/a	n/a	n/a	168.801	AM21ANS.jpg
138.687	0.514	Blank	Blank	80.723	n/a	2	4	15	n/a	75	n/a	3	n/a	n/a	n/a	n/a	169.298	n/a
139.217	0.497	angry	Picture	80.209	n/a	2	4	16	n/a	76	88	3	n/a	n/a	n/a	n/a	169.829	AF14ANS.jpg
139.714	0.514	Blank	Blank	79.695	n/a	2	4	16	n/a	76	n/a	3	n/a	n/a	n/a	n/a	170.326	n/a
140.245	0.497	angry	Picture	79.181	n/a	2	4	17	n/a	77	93	3	n/a	n/a	n/a	n/a	170.857	BF22ANS.jpg
140.742	0.514	Blank	Blank	78.667	n/a	2	4	17	n/a	77	n/a	3	n/a	n/a	n/a	n/a	171.354	n/a
141.273	0.497	angry	Picture	78.153	n/a	2	4	18	n/a	78	86	3	n/a	n/a	n/a	n/a	171.884	AF09ANS.jpg
141.77	0.514	Blank	Blank	77.639	n/a	2	4	18	n/a	78	n/a	3	n/a	n/a	n/a	n/a	172.382	n/a
142.301	0.497	angry	Picture	77.125	n/a	2	4	19	n/a	79	92	3	n/a	n/a	n/a	n/a	172.912	AF21ANS.jpg
142.798	0.514	Blank	Blank	76.611	n/a	2	4	19	n/a	79	n/a	3	n/a	n/a	n/a	n/a	173.41	n/a
143.329	0.497	angry	Picture	76.097	n/a	2	4	20	n/a	80	84	3	n/a	n/a	n/a	n/a	173.94	AF05ANS.jpg
143.826	0.514	Blank	Blank	75.583	n/a	2	4	20	n/a	80	n/a	3	n/a	n/a	n/a	n/a	174.438	n/a
144.357	10.014	ITI	Fixation+	65.553	n/a	2	n/a	n/a	n/a	n/a	n/a	n/a	n/a	n/a	n/a	n/a	174.968	n/a
154.387	0.497	neutral	Picture	65.039	n/a	2	5	1	n/a	81	4	1	n/a	n/a	n/a	n/a	184.998	AF05NES.jpg
154.884	0.514	Blank	Blank	64.525	n/a	2	5	1	n/a	81	n/a	1	n/a	n/a	n/a	n/a	185.496	n/a
155.415	0.497	neutral	Picture	64.011	n/a	2	5	2	n/a	82	14	1	n/a	n/a	n/a	n/a	186.026	AF23NES.jpg
155.912	0.514	Blank	Blank	63.497	n/a	2	5	2	n/a	82	n/a	1	n/a	n/a	n/a	n/a	186.524	n/a
156.443	0.497	neutral	Picture	62.983	n/a	2	5	3	n/a	83	19	1	n/a	n/a	n/a	n/a	187.054	AF31NES.jpg
156.94	0.514	Blank	Blank	62.469	n/a	2	5	3	n/a	83	n/a	1	n/a	n/a	n/a	n/a	187.552	n/a
157.47	0.497	neutral	Picture	61.955	n/a	2	5	4	n/a	84	8	1	n/a	n/a	n/a	n/a	188.082	AF14NES.jpg
157.968	0.514	Blank	Blank	61.441	n/a	2	5	4	n/a	84	n/a	1	n/a	n/a	n/a	n/a	188.579	n/a
158.498	0.497	neutral	Picture	60.927	n/a	2	5	5	n/a	85	25	1	n/a	n/a	n/a	n/a	189.11	BM06NES.jpg
158.996	0.514	Blank	Blank	60.413	n/a	2	5	5	n/a	85	n/a	1	n/a	n/a	n/a	n/a	189.607	n/a
159.526	0.497	neutral	Picture	59.9	n/a	2	5	6	n/a	86	9	1	n/a	n/a	n/a	n/a	190.138	AF17NES.jpg
160.024	0.514	Blank	Blank	59.386	n/a	2	5	6	n/a	86	n/a	1	n/a	n/a	n/a	n/a	190.635	n/a
160.554	0.497	neutral	Picture	58.872	n/a	2	5	7	n/a	87	2	1	n/a	n/a	n/a	n/a	191.166	AF03NES.jpg
161.052	0.514	Blank	Blank	58.358	n/a	2	5	7	n/a	87	n/a	1	n/a	n/a	n/a	n/a	191.663	n/a
161.582	0.497	neutral	Picture	57.844	n/a	2	5	8	n/a	88	17	1	n/a	n/a	n/a	n/a	192.194	BF28NES.jpg
162.079	0.514	Blank	Blank	57.33	n/a	2	5	8	n/a	88	n/a	1	n/a	n/a	n/a	n/a	192.691	n/a
162.61	0.497	neutral	Picture	56.816	n/a	2	5	9	n/a	89	6	1	n/a	n/a	n/a	n/a	193.221	AF09NES.jpg
163.107	0.514	Blank	Blank	56.302	n/a	2	5	9	n/a	89	n/a	1	n/a	n/a	n/a	n/a	193.719	n/a
163.638	0.497	neutral	Picture	55.788	n/a	2	5	10	n/a	90	12	1	n/a	n/a	n/a	n/a	194.249	AF21NES.jpg
164.135	0.514	Blank	Blank	55.274	n/a	2	5	10	n/a	90	n/a	1	n/a	n/a	n/a	n/a	194.747	n/a
164.666	0.497	neutral	Picture	54.76	n/a	2	5	11	n/a	91	24	1	n/a	n/a	n/a	n/a	195.277	BM05NES.jpg
165.163	0.514	Blank	Blank	54.246	n/a	2	5	11	n/a	91	n/a	1	n/a	n/a	n/a	n/a	195.775	n/a
165.694	0.497	neutral	Picture	53.732	n/a	2	5	12	n/a	92	34	1	n/a	n/a	n/a	n/a	196.305	AM22NES.jpg
166.191	0.514	Blank	Blank	53.218	n/a	2	5	12	n/a	92	n/a	1	n/a	n/a	n/a	n/a	196.803	n/a
166.721	0.497	neutral	Picture	52.704	n/a	2	5	13	n/a	93	23	1	n/a	n/a	n/a	n/a	197.333	AM04NES.jpg
167.219	0.514	Blank	Blank	52.19	n/a	2	5	13	n/a	93	n/a	1	n/a	n/a	n/a	n/a	197.83	n/a
167.749	0.497	neutral	Picture	51.676	n/a	2	5	14	n/a	94	15	1	n/a	n/a	n/a	n/a	198.361	AF25NES.jpg
168.247	0.514	Blank	Blank	51.162	n/a	2	5	14	n/a	94	n/a	1	n/a	n/a	n/a	n/a	198.858	n/a
168.777	0.497	neutral	Picture	50.649	n/a	2	5	15	n/a	95	37	1	n/a	n/a	n/a	n/a	199.389	BM25NES.jpg
169.275	0.514	Blank	Blank	50.135	n/a	2	5	15	n/a	95	n/a	1	n/a	n/a	n/a	n/a	199.886	n/a
169.805	0.497	neutral	Picture	49.621	n/a	2	5	16	n/a	96	32	1	n/a	n/a	n/a	n/a	200.417	AM14NES.jpg
170.302	0.514	Blank	Blank	49.107	n/a	2	5	16	n/a	96	n/a	1	n/a	n/a	n/a	n/a	200.914	n/a
170.833	0.497	neutral	Picture	48.593	n/a	2	5	17	n/a	97	3	1	n/a	n/a	n/a	n/a	201.445	BF04NES.jpg
171.33	0.514	Blank	Blank	48.079	n/a	2	5	17	n/a	97	n/a	1	n/a	n/a	n/a	n/a	201.942	n/a
171.861	0.497	neutral	Picture	47.565	n/a	2	5	18	n/a	98	16	1	n/a	n/a	n/a	n/a	202.472	AF26NES.jpg
172.358	0.514	Blank	Blank	47.051	n/a	2	5	18	n/a	98	n/a	1	n/a	n/a	n/a	n/a	202.97	n/a
172.889	0.497	neutral	Picture	46.537	n/a	2	5	19	n/a	99	27	1	n/a	n/a	n/a	n/a	203.5	BM08NES.jpg
173.386	0.514	Blank	Blank	46.023	n/a	2	5	19	n/a	99	n/a	1	n/a	n/a	n/a	n/a	203.998	n/a
173.917	0.497	neutral	Picture	45.509	n/a	2	5	20	n/a	100	28	1	n/a	n/a	n/a	n/a	204.528	AM09NES.jpg
174.414	0.514	Blank	Blank	44.995	n/a	2	5	20	n/a	100	n/a	1	n/a	n/a	n/a	n/a	205.026	n/a
174.945	10.014	ITI	Fixation+	34.965	n/a	2	n/a	n/a	n/a	n/a	n/a	n/a	n/a	n/a	n/a	n/a	205.556	n/a
184.975	0.497	angry	Picture	34.451	n/a	2	6	1	n/a	101	81	3	n/a	n/a	n/a	n/a	215.586	AF01ANS.jpg
185.472	0.514	Blank	Blank	33.937	n/a	2	6	1	n/a	101	n/a	3	n/a	n/a	n/a	n/a	216.084	n/a
186.003	0.497	angry	Picture	33.423	n/a	2	6	2	n/a	102	120	3	n/a	n/a	n/a	n/a	216.614	AM35ANS.jpg
186.5	0.514	Blank	Blank	32.909	n/a	2	6	2	n/a	102	n/a	3	n/a	n/a	n/a	n/a	217.112	n/a
187.031	0.497	angry	Picture	32.395	n/a	2	6	3	n/a	103	114	3	n/a	n/a	n/a	n/a	217.642	AM22ANS.jpg
187.528	0.514	Blank	Blank	31.881	n/a	2	6	3	n/a	103	n/a	3	n/a	n/a	n/a	n/a	218.139	n/a
188.058	0.497	angry	Picture	31.367	n/a	2	6	4	n/a	104	109	3	n/a	n/a	n/a	n/a	218.67	AM10ANS.jpg
188.556	0.514	Blank	Blank	30.853	n/a	2	6	4	n/a	104	n/a	3	n/a	n/a	n/a	n/a	219.167	n/a
189.086	0.497	angry	Picture	30.339	n/a	2	6	5	n/a	105	96	3	n/a	n/a	n/a	n/a	219.698	AF26ANS.jpg
189.584	0.514	Blank	Blank	29.825	n/a	2	6	5	n/a	105	n/a	3	n/a	n/a	n/a	n/a	220.195	n/a
190.114	0.497	angry	Picture	29.311	n/a	2	6	6	n/a	106	82	3	n/a	n/a	n/a	n/a	220.726	AF03ANS.jpg
190.612	0.514	Blank	Blank	28.798	n/a	2	6	6	n/a	106	n/a	3	n/a	n/a	n/a	n/a	221.223	n/a
191.142	0.497	angry	Picture	28.284	n/a	2	6	7	n/a	107	97	3	n/a	n/a	n/a	n/a	221.754	BF28ANS.jpg
191.639	0.514	Blank	Blank	27.77	n/a	2	6	7	n/a	107	n/a	3	n/a	n/a	n/a	n/a	222.251	n/a
192.17	0.497	angry	Picture	27.256	n/a	2	6	8	n/a	108	115	3	n/a	n/a	n/a	n/a	222.782	AM23ANS.jpg
192.667	0.514	Blank	Blank	26.742	n/a	2	6	8	n/a	108	n/a	3	n/a	n/a	n/a	n/a	223.279	n/a
193.198	0.497	angry	Picture	26.228	n/a	2	6	9	n/a	109	91	3	n/a	n/a	n/a	n/a	223.81	AF20ANS.jpg
193.695	0.514	Blank	Blank	25.714	n/a	2	6	9	n/a	109	n/a	3	n/a	n/a	n/a	n/a	224.307	n/a
194.226	0.497	angry	Picture	25.2	n/a	2	6	10	n/a	110	87	3	n/a	n/a	n/a	n/a	224.837	BF11ANS.jpg
194.723	0.514	Blank	Blank	24.686	n/a	2	6	10	n/a	110	n/a	3	n/a	n/a	n/a	n/a	225.335	n/a
195.254	0.497	angry	Picture	24.172	n/a	2	6	11	n/a	111	85	3	n/a	n/a	n/a	n/a	225.865	BF07ANS.jpg
195.751	0.514	Blank	Blank	23.658	n/a	2	6	11	n/a	111	n/a	3	n/a	n/a	n/a	n/a	226.363	n/a
196.282	0.497	angry	Picture	23.144	n/a	2	6	12	n/a	112	110	3	n/a	n/a	n/a	n/a	226.893	AM11ANS.jpg
196.779	0.514	Blank	Blank	22.63	n/a	2	6	12	n/a	112	n/a	3	n/a	n/a	n/a	n/a	227.391	n/a
197.309	0.497	angry	Picture	22.116	n/a	2	6	13	n/a	113	111	3	n/a	n/a	n/a	n/a	227.921	BM12ANS.jpg
197.807	0.514	Blank	Blank	21.602	n/a	2	6	13	n/a	113	n/a	3	n/a	n/a	n/a	n/a	228.418	n/a
198.337	0.497	angry	Picture	21.088	n/a	2	6	14	n/a	114	103	3	n/a	n/a	n/a	n/a	228.949	AM04ANS.jpg
198.835	0.514	Blank	Blank	20.574	n/a	2	6	14	n/a	114	n/a	3	n/a	n/a	n/a	n/a	229.446	n/a
199.365	0.497	angry	Picture	20.06	n/a	2	6	15	n/a	115	101	3	n/a	n/a	n/a	n/a	229.977	AM01ANS.jpg
199.863	0.514	Blank	Blank	19.547	n/a	2	6	15	n/a	115	n/a	3	n/a	n/a	n/a	n/a	230.474	n/a
200.393	0.497	angry	Picture	19.033	n/a	2	6	16	n/a	116	104	3	n/a	n/a	n/a	n/a	231.005	BM05ANS.jpg
200.891	0.514	Blank	Blank	18.519	n/a	2	6	16	n/a	116	n/a	3	n/a	n/a	n/a	n/a	231.502	n/a
201.421	0.497	angry	Picture	18.005	n/a	2	6	17	n/a	117	107	3	n/a	n/a	n/a	n/a	232.033	BM08ANS.jpg
201.918	0.514	Blank	Blank	17.491	n/a	2	6	17	n/a	117	n/a	3	n/a	n/a	n/a	n/a	232.53	n/a
202.449	0.497	angry	Picture	16.977	n/a	2	6	18	n/a	118	98	3	n/a	n/a	n/a	n/a	233.06	BF29ANS.jpg
202.946	0.514	Blank	Blank	16.463	n/a	2	6	18	n/a	118	n/a	3	n/a	n/a	n/a	n/a	233.558	n/a
203.477	0.497	angry	Picture	15.949	n/a	2	6	19	n/a	119	99	3	n/a	n/a	n/a	n/a	234.088	AF31ANS.jpg
203.974	0.514	Blank	Blank	15.435	n/a	2	6	19	n/a	119	n/a	3	n/a	n/a	n/a	n/a	234.586	n/a
204.505	0.497	angry	Picture	14.921	n/a	2	6	20	n/a	120	108	3	n/a	n/a	n/a	n/a	235.116	AM09ANS.jpg
205.002	0.514	Blank	Blank	14.407	n/a	2	6	20	n/a	120	n/a	3	n/a	n/a	n/a	n/a	235.614	n/a
205.533	10.014	ITI	Fixation+	4.377	n/a	2	n/a	n/a	n/a	n/a	n/a	n/a	n/a	n/a	n/a	n/a	236.144	n/a
219.923	n/a	ConfirmRating	Rate	n/a	4.36	2	n/a	n/a	0	n/a	n/a	n/a	2	Angry	37	49	250.535	n/a
222.945	n/a	ConfirmRating	Rate	n/a	3.017	2	n/a	n/a	1	n/a	n/a	n/a	3	Angry	32	48	253.557	n/a
222.974	15.004	Rest	Picture	n/a	n/a	n/a	n/a	n/a	n/a	n/a	n/a	n/a	0	n/a	0	0	253.585	n/a
237.994	10.014	ITI	Fixation+	94.729	n/a	3	n/a	n/a	n/a	n/a	n/a	n/a	n/a	n/a	n/a	n/a	268.606	n/a
248.024	0.497	happy	Picture	94.215	n/a	3	7	1	n/a	1	46	2	n/a	n/a	n/a	n/a	278.636	AF09HAS.jpg
248.522	0.514	Blank	Blank	93.701	n/a	3	7	1	n/a	1	n/a	2	n/a	n/a	n/a	n/a	279.133	n/a
249.052	0.497	happy	Picture	93.187	n/a	3	7	2	n/a	2	69	2	n/a	n/a	n/a	n/a	279.664	AM10HAS.jpg
249.549	0.514	Blank	Blank	92.673	n/a	3	7	2	n/a	2	n/a	2	n/a	n/a	n/a	n/a	280.161	n/a
250.08	0.497	happy	Picture	92.16	n/a	3	7	3	n/a	3	71	2	n/a	n/a	n/a	n/a	280.692	BM12HAS.jpg
250.577	0.514	Blank	Blank	91.646	n/a	3	7	3	n/a	3	n/a	2	n/a	n/a	n/a	n/a	281.189	n/a
251.108	0.497	happy	Picture	91.132	n/a	3	7	4	n/a	4	51	2	n/a	n/a	n/a	n/a	281.719	AF20HAS.jpg
251.605	0.514	Blank	Blank	90.618	n/a	3	7	4	n/a	4	n/a	2	n/a	n/a	n/a	n/a	282.217	n/a
252.136	0.497	happy	Picture	90.104	n/a	3	7	5	n/a	5	67	2	n/a	n/a	n/a	n/a	282.747	BM08HAS.jpg
252.633	0.514	Blank	Blank	89.59	n/a	3	7	5	n/a	5	n/a	2	n/a	n/a	n/a	n/a	283.245	n/a
253.164	0.497	happy	Picture	89.076	n/a	3	7	6	n/a	6	60	2	n/a	n/a	n/a	n/a	283.775	AF32HAS.jpg
253.661	0.514	Blank	Blank	88.562	n/a	3	7	6	n/a	6	n/a	2	n/a	n/a	n/a	n/a	284.273	n/a
254.192	0.497	happy	Picture	88.048	n/a	3	7	7	n/a	7	42	2	n/a	n/a	n/a	n/a	284.803	AF03HAS.jpg
254.689	0.514	Blank	Blank	87.534	n/a	3	7	7	n/a	7	n/a	2	n/a	n/a	n/a	n/a	285.3	n/a
255.22	0.497	happy	Picture	87.02	n/a	3	7	8	n/a	8	55	2	n/a	n/a	n/a	n/a	285.831	AF25HAS.jpg
255.717	0.514	Blank	Blank	86.506	n/a	3	7	8	n/a	8	n/a	2	n/a	n/a	n/a	n/a	286.328	n/a
256.247	0.497	happy	Picture	85.992	n/a	3	7	9	n/a	9	72	2	n/a	n/a	n/a	n/a	286.859	AM14HAS.jpg
256.745	0.514	Blank	Blank	85.478	n/a	3	7	9	n/a	9	n/a	2	n/a	n/a	n/a	n/a	287.356	n/a
257.275	0.497	happy	Picture	84.964	n/a	3	7	10	n/a	10	63	2	n/a	n/a	n/a	n/a	287.887	AM04HAS.jpg
257.773	0.514	Blank	Blank	84.45	n/a	3	7	10	n/a	10	n/a	2	n/a	n/a	n/a	n/a	288.384	n/a
258.303	0.497	happy	Picture	83.936	n/a	3	7	11	n/a	11	58	2	n/a	n/a	n/a	n/a	288.915	BF29HAS.jpg
258.801	0.514	Blank	Blank	83.422	n/a	3	7	11	n/a	11	n/a	2	n/a	n/a	n/a	n/a	289.412	n/a
259.331	0.497	happy	Picture	82.908	n/a	3	7	12	n/a	12	48	2	n/a	n/a	n/a	n/a	289.943	AF14HAS.jpg
259.829	0.514	Blank	Blank	82.395	n/a	3	7	12	n/a	12	n/a	2	n/a	n/a	n/a	n/a	290.44	n/a
260.359	0.497	happy	Picture	81.881	n/a	3	7	13	n/a	13	66	2	n/a	n/a	n/a	n/a	290.971	BM07HAS.jpg
260.856	0.514	Blank	Blank	81.367	n/a	3	7	13	n/a	13	n/a	2	n/a	n/a	n/a	n/a	291.468	n/a
261.387	0.497	happy	Picture	80.853	n/a	3	7	14	n/a	14	70	2	n/a	n/a	n/a	n/a	291.998	BM11HAS.jpg
261.884	0.514	Blank	Blank	80.339	n/a	3	7	14	n/a	14	n/a	2	n/a	n/a	n/a	n/a	292.496	n/a
262.415	0.497	happy	Picture	79.825	n/a	3	7	15	n/a	15	43	2	n/a	n/a	n/a	n/a	293.026	BF04HAS.jpg
262.912	0.514	Blank	Blank	79.311	n/a	3	7	15	n/a	15	n/a	2	n/a	n/a	n/a	n/a	293.524	n/a
263.443	0.497	happy	Picture	78.797	n/a	3	7	16	n/a	16	49	2	n/a	n/a	n/a	n/a	294.054	AF17HAS.jpg
263.94	0.514	Blank	Blank	78.283	n/a	3	7	16	n/a	16	n/a	2	n/a	n/a	n/a	n/a	294.551	n/a
264.471	0.497	happy	Picture	77.769	n/a	3	7	17	n/a	17	75	2	n/a	n/a	n/a	n/a	295.082	AM23HAS.jpg
264.968	0.514	Blank	Blank	77.255	n/a	3	7	17	n/a	17	n/a	2	n/a	n/a	n/a	n/a	295.579	n/a
265.498	0.497	happy	Picture	76.741	n/a	3	7	18	n/a	18	80	2	n/a	n/a	n/a	n/a	296.11	BM35HAS.jpg
265.996	0.514	Blank	Blank	76.227	n/a	3	7	18	n/a	18	n/a	2	n/a	n/a	n/a	n/a	296.607	n/a
266.526	0.497	happy	Picture	75.713	n/a	3	7	19	n/a	19	76	2	n/a	n/a	n/a	n/a	297.138	BM24HAS.jpg
267.024	0.514	Blank	Blank	75.199	n/a	3	7	19	n/a	19	n/a	2	n/a	n/a	n/a	n/a	297.635	n/a
267.554	0.497	happy	Picture	74.685	n/a	3	7	20	n/a	20	74	2	n/a	n/a	n/a	n/a	298.166	AM22HAS.jpg
268.052	0.514	Blank	Blank	74.171	n/a	3	7	20	n/a	20	n/a	2	n/a	n/a	n/a	n/a	298.663	n/a
268.582	10.014	ITI	Fixation+	64.141	n/a	3	n/a	n/a	n/a	n/a	n/a	n/a	n/a	n/a	n/a	n/a	299.194	n/a
278.612	0.497	neutral	Picture	63.627	n/a	3	8	1	n/a	21	33	1	n/a	n/a	n/a	n/a	309.224	AM21NES.jpg
279.11	0.514	Blank	Blank	63.113	n/a	3	8	1	n/a	21	n/a	1	n/a	n/a	n/a	n/a	309.721	n/a
279.64	0.497	neutral	Picture	62.599	n/a	3	8	2	n/a	22	39	1	n/a	n/a	n/a	n/a	310.252	AM28NES.jpg
280.138	0.514	Blank	Blank	62.085	n/a	3	8	2	n/a	22	n/a	1	n/a	n/a	n/a	n/a	310.749	n/a
280.668	0.497	neutral	Picture	61.571	n/a	3	8	3	n/a	23	25	1	n/a	n/a	n/a	n/a	311.28	BM06NES.jpg
281.166	0.514	Blank	Blank	61.058	n/a	3	8	3	n/a	23	n/a	1	n/a	n/a	n/a	n/a	311.777	n/a
281.696	0.497	neutral	Picture	60.544	n/a	3	8	4	n/a	24	5	1	n/a	n/a	n/a	n/a	312.308	BF07NES.jpg
282.193	0.514	Blank	Blank	60.03	n/a	3	8	4	n/a	24	n/a	1	n/a	n/a	n/a	n/a	312.805	n/a
282.724	0.497	neutral	Picture	59.516	n/a	3	8	5	n/a	25	10	1	n/a	n/a	n/a	n/a	313.335	AF18NES.jpg
283.221	0.514	Blank	Blank	59.002	n/a	3	8	5	n/a	25	n/a	1	n/a	n/a	n/a	n/a	313.833	n/a
283.752	0.497	neutral	Picture	58.488	n/a	3	8	6	n/a	26	34	1	n/a	n/a	n/a	n/a	314.363	AM22NES.jpg
284.249	0.514	Blank	Blank	57.974	n/a	3	8	6	n/a	26	n/a	1	n/a	n/a	n/a	n/a	314.861	n/a
284.78	0.497	neutral	Picture	57.46	n/a	3	8	7	n/a	27	36	1	n/a	n/a	n/a	n/a	315.391	BM24NES.jpg
285.277	0.514	Blank	Blank	56.946	n/a	3	8	7	n/a	27	n/a	1	n/a	n/a	n/a	n/a	315.889	n/a
285.808	0.497	neutral	Picture	56.432	n/a	3	8	8	n/a	28	14	1	n/a	n/a	n/a	n/a	316.419	AF23NES.jpg
286.305	0.514	Blank	Blank	55.918	n/a	3	8	8	n/a	28	n/a	1	n/a	n/a	n/a	n/a	316.916	n/a
286.835	0.497	neutral	Picture	55.404	n/a	3	8	9	n/a	29	9	1	n/a	n/a	n/a	n/a	317.447	AF17NES.jpg
287.333	0.514	Blank	Blank	54.89	n/a	3	8	9	n/a	29	n/a	1	n/a	n/a	n/a	n/a	317.944	n/a
287.863	0.497	neutral	Picture	54.376	n/a	3	8	10	n/a	30	19	1	n/a	n/a	n/a	n/a	318.475	AF31NES.jpg
288.361	0.514	Blank	Blank	53.862	n/a	3	8	10	n/a	30	n/a	1	n/a	n/a	n/a	n/a	318.972	n/a
288.891	0.497	neutral	Picture	53.348	n/a	3	8	11	n/a	31	15	1	n/a	n/a	n/a	n/a	319.503	AF25NES.jpg
289.389	0.514	Blank	Blank	52.834	n/a	3	8	11	n/a	31	n/a	1	n/a	n/a	n/a	n/a	320.0	n/a
289.919	0.497	neutral	Picture	52.32	n/a	3	8	12	n/a	32	22	1	n/a	n/a	n/a	n/a	320.531	BM03NES.jpg
290.417	0.514	Blank	Blank	51.807	n/a	3	8	12	n/a	32	n/a	1	n/a	n/a	n/a	n/a	321.028	n/a
290.947	0.497	neutral	Picture	51.293	n/a	3	8	13	n/a	33	11	1	n/a	n/a	n/a	n/a	321.558	AF20NES.jpg
291.444	0.514	Blank	Blank	50.779	n/a	3	8	13	n/a	33	n/a	1	n/a	n/a	n/a	n/a	322.056	n/a
291.975	0.497	neutral	Picture	50.265	n/a	3	8	14	n/a	34	4	1	n/a	n/a	n/a	n/a	322.586	AF05NES.jpg
292.472	0.514	Blank	Blank	49.751	n/a	3	8	14	n/a	34	n/a	1	n/a	n/a	n/a	n/a	323.084	n/a
293.003	0.497	neutral	Picture	49.237	n/a	3	8	15	n/a	35	17	1	n/a	n/a	n/a	n/a	323.614	BF28NES.jpg
293.5	0.514	Blank	Blank	48.723	n/a	3	8	15	n/a	35	n/a	1	n/a	n/a	n/a	n/a	324.112	n/a
294.031	0.497	neutral	Picture	48.209	n/a	3	8	16	n/a	36	13	1	n/a	n/a	n/a	n/a	324.642	BF22NES.jpg
294.528	0.514	Blank	Blank	47.695	n/a	3	8	16	n/a	36	n/a	1	n/a	n/a	n/a	n/a	325.139	n/a
295.059	0.497	neutral	Picture	47.181	n/a	3	8	17	n/a	37	12	1	n/a	n/a	n/a	n/a	325.67	AF21NES.jpg
295.556	0.514	Blank	Blank	46.667	n/a	3	8	17	n/a	37	n/a	1	n/a	n/a	n/a	n/a	326.167	n/a
296.086	0.497	neutral	Picture	46.153	n/a	3	8	18	n/a	38	24	1	n/a	n/a	n/a	n/a	326.698	BM05NES.jpg
296.584	0.514	Blank	Blank	45.639	n/a	3	8	18	n/a	38	n/a	1	n/a	n/a	n/a	n/a	327.195	n/a
297.114	0.497	neutral	Picture	45.125	n/a	3	8	19	n/a	39	29	1	n/a	n/a	n/a	n/a	327.726	AM10NES.jpg
297.612	0.514	Blank	Blank	44.611	n/a	3	8	19	n/a	39	n/a	1	n/a	n/a	n/a	n/a	328.223	n/a
298.142	0.497	neutral	Picture	44.097	n/a	3	8	20	n/a	40	23	1	n/a	n/a	n/a	n/a	328.754	AM04NES.jpg
298.64	0.514	Blank	Blank	43.583	n/a	3	8	20	n/a	40	n/a	1	n/a	n/a	n/a	n/a	329.251	n/a
299.17	10.014	ITI	Fixation+	33.553	n/a	3	n/a	n/a	n/a	n/a	n/a	n/a	n/a	n/a	n/a	n/a	329.782	n/a
309.2	0.497	happy	Picture	33.039	n/a	3	9	1	n/a	41	62	2	n/a	n/a	n/a	n/a	339.812	BM03HAS.jpg
309.698	0.514	Blank	Blank	32.525	n/a	3	9	1	n/a	41	n/a	2	n/a	n/a	n/a	n/a	340.309	n/a
310.228	0.497	happy	Picture	32.011	n/a	3	9	2	n/a	42	52	2	n/a	n/a	n/a	n/a	340.84	AF21HAS.jpg
310.726	0.514	Blank	Blank	31.497	n/a	3	9	2	n/a	42	n/a	2	n/a	n/a	n/a	n/a	341.337	n/a
311.256	0.497	happy	Picture	30.983	n/a	3	9	3	n/a	43	44	2	n/a	n/a	n/a	n/a	341.868	AF05HAS.jpg
311.754	0.514	Blank	Blank	30.47	n/a	3	9	3	n/a	43	n/a	2	n/a	n/a	n/a	n/a	342.365	n/a
312.284	0.497	happy	Picture	29.955	n/a	3	9	4	n/a	44	53	2	n/a	n/a	n/a	n/a	342.896	BF22HAS.jpg
312.781	0.514	Blank	Blank	29.442	n/a	3	9	4	n/a	44	n/a	2	n/a	n/a	n/a	n/a	343.393	n/a
313.312	0.497	happy	Picture	28.928	n/a	3	9	5	n/a	45	54	2	n/a	n/a	n/a	n/a	343.923	AF23HAS.jpg
313.809	0.514	Blank	Blank	28.414	n/a	3	9	5	n/a	45	n/a	2	n/a	n/a	n/a	n/a	344.421	n/a
314.34	0.497	happy	Picture	27.9	n/a	3	9	6	n/a	46	68	2	n/a	n/a	n/a	n/a	344.951	AM09HAS.jpg
314.837	0.514	Blank	Blank	27.386	n/a	3	9	6	n/a	46	n/a	2	n/a	n/a	n/a	n/a	345.449	n/a
315.368	0.497	happy	Picture	26.872	n/a	3	9	7	n/a	47	64	2	n/a	n/a	n/a	n/a	345.979	BM05HAS.jpg
315.865	0.514	Blank	Blank	26.358	n/a	3	9	7	n/a	47	n/a	2	n/a	n/a	n/a	n/a	346.476	n/a
316.396	0.497	happy	Picture	25.844	n/a	3	9	8	n/a	48	59	2	n/a	n/a	n/a	n/a	347.007	AF31HAS.jpg
316.893	0.514	Blank	Blank	25.33	n/a	3	9	8	n/a	48	n/a	2	n/a	n/a	n/a	n/a	347.504	n/a
317.424	0.497	happy	Picture	24.816	n/a	3	9	9	n/a	49	41	2	n/a	n/a	n/a	n/a	348.035	AF01HAS.jpg
317.921	0.514	Blank	Blank	24.302	n/a	3	9	9	n/a	49	n/a	2	n/a	n/a	n/a	n/a	348.532	n/a
318.451	0.497	happy	Picture	23.788	n/a	3	9	10	n/a	50	73	2	n/a	n/a	n/a	n/a	349.063	AM21HAS.jpg
318.949	0.514	Blank	Blank	23.274	n/a	3	9	10	n/a	50	n/a	2	n/a	n/a	n/a	n/a	349.56	n/a
319.479	0.497	happy	Picture	22.76	n/a	3	9	11	n/a	51	65	2	n/a	n/a	n/a	n/a	350.091	BM06HAS.jpg
319.977	0.514	Blank	Blank	22.246	n/a	3	9	11	n/a	51	n/a	2	n/a	n/a	n/a	n/a	350.588	n/a
320.507	0.497	happy	Picture	21.732	n/a	3	9	12	n/a	52	56	2	n/a	n/a	n/a	n/a	351.119	AF26HAS.jpg
321.005	0.514	Blank	Blank	21.219	n/a	3	9	12	n/a	52	n/a	2	n/a	n/a	n/a	n/a	351.616	n/a
321.535	0.497	happy	Picture	20.704	n/a	3	9	13	n/a	53	45	2	n/a	n/a	n/a	n/a	352.147	BF07HAS.jpg
322.032	0.514	Blank	Blank	20.191	n/a	3	9	13	n/a	53	n/a	2	n/a	n/a	n/a	n/a	352.644	n/a
322.563	0.497	happy	Picture	19.677	n/a	3	9	14	n/a	54	78	2	n/a	n/a	n/a	n/a	353.174	BM26HAS.jpg
323.06	0.514	Blank	Blank	19.163	n/a	3	9	14	n/a	54	n/a	2	n/a	n/a	n/a	n/a	353.672	n/a
323.591	0.497	happy	Picture	18.649	n/a	3	9	15	n/a	55	50	2	n/a	n/a	n/a	n/a	354.202	AF18HAS.jpg
324.088	0.514	Blank	Blank	18.135	n/a	3	9	15	n/a	55	n/a	2	n/a	n/a	n/a	n/a	354.7	n/a
324.619	0.497	happy	Picture	17.621	n/a	3	9	16	n/a	56	47	2	n/a	n/a	n/a	n/a	355.23	BF11HAS.jpg
325.116	0.514	Blank	Blank	17.107	n/a	3	9	16	n/a	56	n/a	2	n/a	n/a	n/a	n/a	355.728	n/a
325.647	0.497	happy	Picture	16.593	n/a	3	9	17	n/a	57	77	2	n/a	n/a	n/a	n/a	356.258	BM25HAS.jpg
326.144	0.514	Blank	Blank	16.079	n/a	3	9	17	n/a	57	n/a	2	n/a	n/a	n/a	n/a	356.755	n/a
326.675	0.497	happy	Picture	15.565	n/a	3	9	18	n/a	58	57	2	n/a	n/a	n/a	n/a	357.286	BF28HAS.jpg
327.172	0.514	Blank	Blank	15.051	n/a	3	9	18	n/a	58	n/a	2	n/a	n/a	n/a	n/a	357.783	n/a
327.702	0.497	happy	Picture	14.537	n/a	3	9	19	n/a	59	61	2	n/a	n/a	n/a	n/a	358.314	AM01HAS.jpg
328.2	0.514	Blank	Blank	14.023	n/a	3	9	19	n/a	59	n/a	2	n/a	n/a	n/a	n/a	358.811	n/a
328.73	0.497	happy	Picture	13.509	n/a	3	9	20	n/a	60	79	2	n/a	n/a	n/a	n/a	359.342	BM28HAS.jpg
329.228	0.514	Blank	Blank	12.995	n/a	3	9	20	n/a	60	n/a	2	n/a	n/a	n/a	n/a	359.839	n/a
329.758	10.014	ITI	Fixation+	2.965	n/a	3	n/a	n/a	n/a	n/a	n/a	n/a	n/a	n/a	n/a	n/a	360.37	n/a
342.737	n/a	ConfirmRating	Rate	n/a	2.951	3	n/a	n/a	0	n/a	n/a	n/a	2	Happy	57	51	373.348	n/a
344.093	n/a	ConfirmRating	Rate	n/a	1.343	3	n/a	n/a	1	n/a	n/a	n/a	3	Happy	33	48	374.704	n/a
344.115	10.014	ITI	Fixation+	94.906	n/a	4	n/a	n/a	n/a	n/a	n/a	n/a	n/a	n/a	n/a	n/a	374.727	n/a
354.146	0.497	angry	Picture	94.392	n/a	4	10	1	n/a	61	119	3	n/a	n/a	n/a	n/a	384.757	BM28ANS.jpg
354.643	0.514	Blank	Blank	93.878	n/a	4	10	1	n/a	61	n/a	3	n/a	n/a	n/a	n/a	385.255	n/a
355.174	0.497	angry	Picture	93.364	n/a	4	10	2	n/a	62	100	3	n/a	n/a	n/a	n/a	385.785	AF32ANS.jpg
355.671	0.514	Blank	Blank	92.85	n/a	4	10	2	n/a	62	n/a	3	n/a	n/a	n/a	n/a	386.282	n/a
356.201	0.497	angry	Picture	92.336	n/a	4	10	3	n/a	63	118	3	n/a	n/a	n/a	n/a	386.813	BM26ANS.jpg
356.699	0.514	Blank	Blank	91.822	n/a	4	10	3	n/a	63	n/a	3	n/a	n/a	n/a	n/a	387.31	n/a
357.229	0.497	angry	Picture	91.308	n/a	4	10	4	n/a	64	89	3	n/a	n/a	n/a	n/a	387.841	AF17ANS.jpg
357.727	0.514	Blank	Blank	90.794	n/a	4	10	4	n/a	64	n/a	3	n/a	n/a	n/a	n/a	388.338	n/a
358.257	0.497	angry	Picture	90.28	n/a	4	10	5	n/a	65	116	3	n/a	n/a	n/a	n/a	388.869	BM24ANS.jpg
358.755	0.514	Blank	Blank	89.766	n/a	4	10	5	n/a	65	n/a	3	n/a	n/a	n/a	n/a	389.366	n/a
359.285	0.497	angry	Picture	89.252	n/a	4	10	6	n/a	66	105	3	n/a	n/a	n/a	n/a	389.897	BM06ANS.jpg
359.783	0.514	Blank	Blank	88.738	n/a	4	10	6	n/a	66	n/a	3	n/a	n/a	n/a	n/a	390.394	n/a
360.313	0.497	angry	Picture	88.224	n/a	4	10	7	n/a	67	106	3	n/a	n/a	n/a	n/a	390.925	AM07ANS.jpg
360.81	0.514	Blank	Blank	87.711	n/a	4	10	7	n/a	67	n/a	3	n/a	n/a	n/a	n/a	391.422	n/a
361.341	0.497	angry	Picture	87.196	n/a	4	10	8	n/a	68	94	3	n/a	n/a	n/a	n/a	391.952	AF23ANS.jpg
361.838	0.514	Blank	Blank	86.683	n/a	4	10	8	n/a	68	n/a	3	n/a	n/a	n/a	n/a	392.45	n/a
362.369	0.497	angry	Picture	86.169	n/a	4	10	9	n/a	69	117	3	n/a	n/a	n/a	n/a	392.98	BM25ANS.jpg
362.866	0.514	Blank	Blank	85.655	n/a	4	10	9	n/a	69	n/a	3	n/a	n/a	n/a	n/a	393.478	n/a
363.397	0.497	angry	Picture	85.141	n/a	4	10	10	n/a	70	90	3	n/a	n/a	n/a	n/a	394.008	AF18ANS.jpg
363.894	0.514	Blank	Blank	84.627	n/a	4	10	10	n/a	70	n/a	3	n/a	n/a	n/a	n/a	394.505	n/a
364.425	0.497	angry	Picture	84.113	n/a	4	10	11	n/a	71	83	3	n/a	n/a	n/a	n/a	395.036	BF04ANS.jpg
364.922	0.514	Blank	Blank	83.599	n/a	4	10	11	n/a	71	n/a	3	n/a	n/a	n/a	n/a	395.533	n/a
365.452	0.497	angry	Picture	83.085	n/a	4	10	12	n/a	72	112	3	n/a	n/a	n/a	n/a	396.064	AM14ANS.jpg
365.95	0.514	Blank	Blank	82.571	n/a	4	10	12	n/a	72	n/a	3	n/a	n/a	n/a	n/a	396.561	n/a
366.48	0.497	angry	Picture	82.057	n/a	4	10	13	n/a	73	102	3	n/a	n/a	n/a	n/a	397.092	BM03ANS.jpg
366.978	0.514	Blank	Blank	81.543	n/a	4	10	13	n/a	73	n/a	3	n/a	n/a	n/a	n/a	397.589	n/a
367.508	0.497	angry	Picture	81.029	n/a	4	10	14	n/a	74	95	3	n/a	n/a	n/a	n/a	398.12	AF25ANS.jpg
368.006	0.514	Blank	Blank	80.515	n/a	4	10	14	n/a	74	n/a	3	n/a	n/a	n/a	n/a	398.617	n/a
368.536	0.497	angry	Picture	80.001	n/a	4	10	15	n/a	75	113	3	n/a	n/a	n/a	n/a	399.148	AM21ANS.jpg
369.034	0.514	Blank	Blank	79.487	n/a	4	10	15	n/a	75	n/a	3	n/a	n/a	n/a	n/a	399.645	n/a
369.564	0.497	angry	Picture	78.973	n/a	4	10	16	n/a	76	88	3	n/a	n/a	n/a	n/a	400.175	AF14ANS.jpg
370.061	0.514	Blank	Blank	78.459	n/a	4	10	16	n/a	76	n/a	3	n/a	n/a	n/a	n/a	400.673	n/a
370.592	0.497	angry	Picture	77.945	n/a	4	10	17	n/a	77	93	3	n/a	n/a	n/a	n/a	401.203	BF22ANS.jpg
371.089	0.514	Blank	Blank	77.432	n/a	4	10	17	n/a	77	n/a	3	n/a	n/a	n/a	n/a	401.701	n/a
371.62	0.497	angry	Picture	76.918	n/a	4	10	18	n/a	78	86	3	n/a	n/a	n/a	n/a	402.231	AF09ANS.jpg
372.117	0.514	Blank	Blank	76.404	n/a	4	10	18	n/a	78	n/a	3	n/a	n/a	n/a	n/a	402.729	n/a
372.648	0.497	angry	Picture	75.89	n/a	4	10	19	n/a	79	92	3	n/a	n/a	n/a	n/a	403.259	AF21ANS.jpg
373.145	0.514	Blank	Blank	75.376	n/a	4	10	19	n/a	79	n/a	3	n/a	n/a	n/a	n/a	403.757	n/a
373.676	0.497	angry	Picture	74.862	n/a	4	10	20	n/a	80	84	3	n/a	n/a	n/a	n/a	404.287	AF05ANS.jpg
374.173	0.514	Blank	Blank	74.348	n/a	4	10	20	n/a	80	n/a	3	n/a	n/a	n/a	n/a	404.784	n/a
374.704	10.014	ITI	Fixation+	64.318	n/a	4	n/a	n/a	n/a	n/a	n/a	n/a	n/a	n/a	n/a	n/a	405.315	n/a
384.734	0.497	neutral	Picture	63.804	n/a	4	11	1	n/a	81	4	1	n/a	n/a	n/a	n/a	415.345	AF05NES.jpg
385.231	0.514	Blank	Blank	63.29	n/a	4	11	1	n/a	81	n/a	1	n/a	n/a	n/a	n/a	415.842	n/a
385.762	0.497	neutral	Picture	62.776	n/a	4	11	2	n/a	82	14	1	n/a	n/a	n/a	n/a	416.373	AF23NES.jpg
386.259	0.514	Blank	Blank	62.262	n/a	4	11	2	n/a	82	n/a	1	n/a	n/a	n/a	n/a	416.87	n/a
386.79	0.497	neutral	Picture	61.748	n/a	4	11	3	n/a	83	19	1	n/a	n/a	n/a	n/a	417.401	AF31NES.jpg
387.287	0.514	Blank	Blank	61.234	n/a	4	11	3	n/a	83	n/a	1	n/a	n/a	n/a	n/a	417.898	n/a
387.817	0.497	neutral	Picture	60.72	n/a	4	11	4	n/a	84	8	1	n/a	n/a	n/a	n/a	418.429	AF14NES.jpg
388.315	0.514	Blank	Blank	60.206	n/a	4	11	4	n/a	84	n/a	1	n/a	n/a	n/a	n/a	418.926	n/a
388.845	0.497	neutral	Picture	59.692	n/a	4	11	5	n/a	85	25	1	n/a	n/a	n/a	n/a	419.457	BM06NES.jpg
389.343	0.514	Blank	Blank	59.178	n/a	4	11	5	n/a	85	n/a	1	n/a	n/a	n/a	n/a	419.954	n/a
389.873	0.497	neutral	Picture	58.664	n/a	4	11	6	n/a	86	9	1	n/a	n/a	n/a	n/a	420.485	AF17NES.jpg
390.371	0.514	Blank	Blank	58.15	n/a	4	11	6	n/a	86	n/a	1	n/a	n/a	n/a	n/a	420.982	n/a
390.901	0.497	neutral	Picture	57.636	n/a	4	11	7	n/a	87	2	1	n/a	n/a	n/a	n/a	421.512	AF03NES.jpg
391.398	0.514	Blank	Blank	57.123	n/a	4	11	7	n/a	87	n/a	1	n/a	n/a	n/a	n/a	422.01	n/a
391.929	0.497	neutral	Picture	56.608	n/a	4	11	8	n/a	88	17	1	n/a	n/a	n/a	n/a	422.54	BF28NES.jpg
392.426	0.514	Blank	Blank	56.095	n/a	4	11	8	n/a	88	n/a	1	n/a	n/a	n/a	n/a	423.038	n/a
392.957	0.497	neutral	Picture	55.581	n/a	4	11	9	n/a	89	6	1	n/a	n/a	n/a	n/a	423.568	AF09NES.jpg
393.454	0.514	Blank	Blank	55.067	n/a	4	11	9	n/a	89	n/a	1	n/a	n/a	n/a	n/a	424.066	n/a
393.985	0.497	neutral	Picture	54.553	n/a	4	11	10	n/a	90	12	1	n/a	n/a	n/a	n/a	424.596	AF21NES.jpg
394.482	0.514	Blank	Blank	54.039	n/a	4	11	10	n/a	90	n/a	1	n/a	n/a	n/a	n/a	425.094	n/a
395.013	0.497	neutral	Picture	53.525	n/a	4	11	11	n/a	91	24	1	n/a	n/a	n/a	n/a	425.624	BM05NES.jpg
395.51	0.514	Blank	Blank	53.011	n/a	4	11	11	n/a	91	n/a	1	n/a	n/a	n/a	n/a	426.121	n/a
396.041	0.497	neutral	Picture	52.497	n/a	4	11	12	n/a	92	34	1	n/a	n/a	n/a	n/a	426.652	AM22NES.jpg
396.538	0.514	Blank	Blank	51.983	n/a	4	11	12	n/a	92	n/a	1	n/a	n/a	n/a	n/a	427.149	n/a
397.068	0.497	neutral	Picture	51.469	n/a	4	11	13	n/a	93	23	1	n/a	n/a	n/a	n/a	427.68	AM04NES.jpg
397.566	0.514	Blank	Blank	50.955	n/a	4	11	13	n/a	93	n/a	1	n/a	n/a	n/a	n/a	428.177	n/a
398.096	0.497	neutral	Picture	50.441	n/a	4	11	14	n/a	94	15	1	n/a	n/a	n/a	n/a	428.708	AF25NES.jpg
398.594	0.514	Blank	Blank	49.927	n/a	4	11	14	n/a	94	n/a	1	n/a	n/a	n/a	n/a	429.205	n/a
399.124	0.497	neutral	Picture	49.413	n/a	4	11	15	n/a	95	37	1	n/a	n/a	n/a	n/a	429.736	BM25NES.jpg
399.622	0.514	Blank	Blank	48.899	n/a	4	11	15	n/a	95	n/a	1	n/a	n/a	n/a	n/a	430.233	n/a
400.152	0.497	neutral	Picture	48.385	n/a	4	11	16	n/a	96	32	1	n/a	n/a	n/a	n/a	430.764	AM14NES.jpg
400.649	0.514	Blank	Blank	47.872	n/a	4	11	16	n/a	96	n/a	1	n/a	n/a	n/a	n/a	431.261	n/a
401.18	0.497	neutral	Picture	47.357	n/a	4	11	17	n/a	97	3	1	n/a	n/a	n/a	n/a	431.791	BF04NES.jpg
401.677	0.514	Blank	Blank	46.844	n/a	4	11	17	n/a	97	n/a	1	n/a	n/a	n/a	n/a	432.289	n/a
402.208	0.497	neutral	Picture	46.33	n/a	4	11	18	n/a	98	16	1	n/a	n/a	n/a	n/a	432.819	AF26NES.jpg
402.705	0.514	Blank	Blank	45.816	n/a	4	11	18	n/a	98	n/a	1	n/a	n/a	n/a	n/a	433.317	n/a
403.236	0.497	neutral	Picture	45.302	n/a	4	11	19	n/a	99	27	1	n/a	n/a	n/a	n/a	433.847	BM08NES.jpg
403.733	0.514	Blank	Blank	44.788	n/a	4	11	19	n/a	99	n/a	1	n/a	n/a	n/a	n/a	434.345	n/a
404.264	0.497	neutral	Picture	44.274	n/a	4	11	20	n/a	100	28	1	n/a	n/a	n/a	n/a	434.875	AM09NES.jpg
404.761	0.514	Blank	Blank	43.76	n/a	4	11	20	n/a	100	n/a	1	n/a	n/a	n/a	n/a	435.373	n/a
405.292	10.014	ITI	Fixation+	33.73	n/a	4	n/a	n/a	n/a	n/a	n/a	n/a	n/a	n/a	n/a	n/a	435.903	n/a
415.322	0.497	angry	Picture	33.216	n/a	4	12	1	n/a	101	81	3	n/a	n/a	n/a	n/a	445.933	AF01ANS.jpg
415.819	0.514	Blank	Blank	32.702	n/a	4	12	1	n/a	101	n/a	3	n/a	n/a	n/a	n/a	446.431	n/a
416.35	0.497	angry	Picture	32.188	n/a	4	12	2	n/a	102	120	3	n/a	n/a	n/a	n/a	446.961	AM35ANS.jpg
416.847	0.514	Blank	Blank	31.674	n/a	4	12	2	n/a	102	n/a	3	n/a	n/a	n/a	n/a	447.459	n/a
417.377	0.497	angry	Picture	31.16	n/a	4	12	3	n/a	103	114	3	n/a	n/a	n/a	n/a	447.989	AM22ANS.jpg
417.875	0.514	Blank	Blank	30.646	n/a	4	12	3	n/a	103	n/a	3	n/a	n/a	n/a	n/a	448.486	n/a
418.405	0.497	angry	Picture	30.132	n/a	4	12	4	n/a	104	109	3	n/a	n/a	n/a	n/a	449.017	AM10ANS.jpg
418.903	0.514	Blank	Blank	29.618	n/a	4	12	4	n/a	104	n/a	3	n/a	n/a	n/a	n/a	449.514	n/a
419.433	0.497	angry	Picture	29.104	n/a	4	12	5	n/a	105	96	3	n/a	n/a	n/a	n/a	450.045	AF26ANS.jpg
419.931	0.514	Blank	Blank	28.59	n/a	4	12	5	n/a	105	n/a	3	n/a	n/a	n/a	n/a	450.542	n/a
420.461	0.497	angry	Picture	28.076	n/a	4	12	6	n/a	106	82	3	n/a	n/a	n/a	n/a	451.073	AF03ANS.jpg
420.959	0.514	Blank	Blank	27.562	n/a	4	12	6	n/a	106	n/a	3	n/a	n/a	n/a	n/a	451.57	n/a
421.489	0.497	angry	Picture	27.048	n/a	4	12	7	n/a	107	97	3	n/a	n/a	n/a	n/a	452.101	BF28ANS.jpg
421.986	0.514	Blank	Blank	26.534	n/a	4	12	7	n/a	107	n/a	3	n/a	n/a	n/a	n/a	452.598	n/a
422.517	0.497	angry	Picture	26.02	n/a	4	12	8	n/a	108	115	3	n/a	n/a	n/a	n/a	453.128	AM23ANS.jpg
423.014	0.514	Blank	Blank	25.507	n/a	4	12	8	n/a	108	n/a	3	n/a	n/a	n/a	n/a	453.626	n/a
423.545	0.497	angry	Picture	24.993	n/a	4	12	9	n/a	109	91	3	n/a	n/a	n/a	n/a	454.156	AF20ANS.jpg
424.042	0.514	Blank	Blank	24.479	n/a	4	12	9	n/a	109	n/a	3	n/a	n/a	n/a	n/a	454.654	n/a
424.573	0.497	angry	Picture	23.965	n/a	4	12	10	n/a	110	87	3	n/a	n/a	n/a	n/a	455.184	BF11ANS.jpg
425.07	0.514	Blank	Blank	23.451	n/a	4	12	10	n/a	110	n/a	3	n/a	n/a	n/a	n/a	455.682	n/a
425.601	0.497	angry	Picture	22.937	n/a	4	12	11	n/a	111	85	3	n/a	n/a	n/a	n/a	456.212	BF07ANS.jpg
426.098	0.514	Blank	Blank	22.423	n/a	4	12	11	n/a	111	n/a	3	n/a	n/a	n/a	n/a	456.709	n/a
426.629	0.497	angry	Picture	21.909	n/a	4	12	12	n/a	112	110	3	n/a	n/a	n/a	n/a	457.24	AM11ANS.jpg
427.126	0.514	Blank	Blank	21.395	n/a	4	12	12	n/a	112	n/a	3	n/a	n/a	n/a	n/a	457.737	n/a
427.656	0.497	angry	Picture	20.881	n/a	4	12	13	n/a	113	111	3	n/a	n/a	n/a	n/a	458.268	BM12ANS.jpg
428.154	0.514	Blank	Blank	20.367	n/a	4	12	13	n/a	113	n/a	3	n/a	n/a	n/a	n/a	458.765	n/a
428.684	0.497	angry	Picture	19.853	n/a	4	12	14	n/a	114	103	3	n/a	n/a	n/a	n/a	459.296	AM04ANS.jpg
429.182	0.514	Blank	Blank	19.339	n/a	4	12	14	n/a	114	n/a	3	n/a	n/a	n/a	n/a	459.793	n/a
429.712	0.497	angry	Picture	18.825	n/a	4	12	15	n/a	115	101	3	n/a	n/a	n/a	n/a	460.324	AM01ANS.jpg
430.21	0.514	Blank	Blank	18.311	n/a	4	12	15	n/a	115	n/a	3	n/a	n/a	n/a	n/a	460.821	n/a
430.74	0.497	angry	Picture	17.797	n/a	4	12	16	n/a	116	104	3	n/a	n/a	n/a	n/a	461.351	BM05ANS.jpg
431.237	0.514	Blank	Blank	17.283	n/a	4	12	16	n/a	116	n/a	3	n/a	n/a	n/a	n/a	461.849	n/a
431.768	0.497	angry	Picture	16.769	n/a	4	12	17	n/a	117	107	3	n/a	n/a	n/a	n/a	462.379	BM08ANS.jpg
432.265	0.514	Blank	Blank	16.255	n/a	4	12	17	n/a	117	n/a	3	n/a	n/a	n/a	n/a	462.877	n/a
432.796	0.497	angry	Picture	15.742	n/a	4	12	18	n/a	118	98	3	n/a	n/a	n/a	n/a	463.407	BF29ANS.jpg
433.293	0.514	Blank	Blank	15.228	n/a	4	12	18	n/a	118	n/a	3	n/a	n/a	n/a	n/a	463.905	n/a
433.824	0.497	angry	Picture	14.714	n/a	4	12	19	n/a	119	99	3	n/a	n/a	n/a	n/a	464.435	AF31ANS.jpg
434.321	0.514	Blank	Blank	14.2	n/a	4	12	19	n/a	119	n/a	3	n/a	n/a	n/a	n/a	464.933	n/a
434.852	0.497	angry	Picture	13.686	n/a	4	12	20	n/a	120	108	3	n/a	n/a	n/a	n/a	465.463	AM09ANS.jpg
435.349	0.514	Blank	Blank	13.172	n/a	4	12	20	n/a	120	n/a	3	n/a	n/a	n/a	n/a	465.961	n/a
435.88	10.014	ITI	Fixation+	3.142	n/a	4	n/a	n/a	n/a	n/a	n/a	n/a	n/a	n/a	n/a	n/a	466.491	n/a
449.035	n/a	ConfirmRating	Rate	n/a	3.133	4	n/a	n/a	0	n/a	n/a	n/a	2	Angry	37	49	479.646	n/a
451.3	n/a	ConfirmRating	Rate	n/a	2.254	4	n/a	n/a	1	n/a	n/a	n/a	3	Angry	20	45	481.911	n/a
