onset	duration	trial_type	event_type	time_until_response	response_time	trial_number	block_num_within_trial	image_seq_num_within_block	question_seq_num_within_block	image_seq_num	picture_number	condition	question_type	block_type	rating	rating_computed	onset_uncorrected	KDEV_imagefile
0.009	10.014	ITI	Fixation+	95.07	n/a	1	n/a	n/a	n/a	n/a	n/a	n/a	n/a	n/a	n/a	n/a	28.775	n/a
10.04	0.497	angry	Picture	94.556	n/a	1	1	1	n/a	1	46	2	n/a	n/a	n/a	n/a	38.806	AF09HAS.jpg
10.537	0.514	Blank	Blank	94.042	n/a	1	1	1	n/a	1	n/a	2	n/a	n/a	n/a	n/a	39.303	n/a
11.067	0.497	angry	Picture	93.528	n/a	1	1	2	n/a	2	69	2	n/a	n/a	n/a	n/a	39.833	AM10HAS.jpg
11.565	0.514	Blank	Blank	93.014	n/a	1	1	2	n/a	2	n/a	2	n/a	n/a	n/a	n/a	40.331	n/a
12.095	0.497	angry	Picture	92.5	n/a	1	1	3	n/a	3	71	2	n/a	n/a	n/a	n/a	40.861	BM12HAS.jpg
12.593	0.514	Blank	Blank	91.986	n/a	1	1	3	n/a	3	n/a	2	n/a	n/a	n/a	n/a	41.359	n/a
13.123	0.497	angry	Picture	91.472	n/a	1	1	4	n/a	4	51	2	n/a	n/a	n/a	n/a	41.889	AF20HAS.jpg
13.62	0.514	Blank	Blank	90.958	n/a	1	1	4	n/a	4	n/a	2	n/a	n/a	n/a	n/a	42.386	n/a
14.151	0.497	angry	Picture	90.444	n/a	1	1	5	n/a	5	67	2	n/a	n/a	n/a	n/a	42.917	BM08HAS.jpg
14.648	0.514	Blank	Blank	89.93	n/a	1	1	5	n/a	5	n/a	2	n/a	n/a	n/a	n/a	43.414	n/a
15.179	0.497	angry	Picture	89.416	n/a	1	1	6	n/a	6	60	2	n/a	n/a	n/a	n/a	43.945	AF32HAS.jpg
15.676	0.514	Blank	Blank	88.902	n/a	1	1	6	n/a	6	n/a	2	n/a	n/a	n/a	n/a	44.442	n/a
16.207	0.497	angry	Picture	88.388	n/a	1	1	7	n/a	7	42	2	n/a	n/a	n/a	n/a	44.973	AF03HAS.jpg
16.704	0.514	Blank	Blank	87.874	n/a	1	1	7	n/a	7	n/a	2	n/a	n/a	n/a	n/a	45.47	n/a
17.235	0.497	angry	Picture	87.361	n/a	1	1	8	n/a	8	55	2	n/a	n/a	n/a	n/a	46.001	AF25HAS.jpg
17.732	0.514	Blank	Blank	86.847	n/a	1	1	8	n/a	8	n/a	2	n/a	n/a	n/a	n/a	46.498	n/a
18.263	0.497	angry	Picture	86.333	n/a	1	1	9	n/a	9	72	2	n/a	n/a	n/a	n/a	47.029	AM14HAS.jpg
18.76	0.514	Blank	Blank	85.819	n/a	1	1	9	n/a	9	n/a	2	n/a	n/a	n/a	n/a	47.526	n/a
19.29	0.497	angry	Picture	85.305	n/a	1	1	10	n/a	10	63	2	n/a	n/a	n/a	n/a	48.056	AM04HAS.jpg
19.788	0.514	Blank	Blank	84.791	n/a	1	1	10	n/a	10	n/a	2	n/a	n/a	n/a	n/a	48.554	n/a
20.318	0.497	angry	Picture	84.277	n/a	1	1	11	n/a	11	58	2	n/a	n/a	n/a	n/a	49.084	BF29HAS.jpg
20.816	0.514	Blank	Blank	83.763	n/a	1	1	11	n/a	11	n/a	2	n/a	n/a	n/a	n/a	49.582	n/a
21.346	0.497	angry	Picture	83.249	n/a	1	1	12	n/a	12	48	2	n/a	n/a	n/a	n/a	50.112	AF14HAS.jpg
21.844	0.514	Blank	Blank	82.735	n/a	1	1	12	n/a	12	n/a	2	n/a	n/a	n/a	n/a	50.61	n/a
22.374	0.497	angry	Picture	82.221	n/a	1	1	13	n/a	13	66	2	n/a	n/a	n/a	n/a	51.14	BM07HAS.jpg
22.872	0.514	Blank	Blank	81.707	n/a	1	1	13	n/a	13	n/a	2	n/a	n/a	n/a	n/a	51.638	n/a
23.402	0.497	angry	Picture	81.193	n/a	1	1	14	n/a	14	70	2	n/a	n/a	n/a	n/a	52.168	BM11HAS.jpg
23.899	0.514	Blank	Blank	80.679	n/a	1	1	14	n/a	14	n/a	2	n/a	n/a	n/a	n/a	52.665	n/a
24.43	0.497	angry	Picture	80.165	n/a	1	1	15	n/a	15	43	2	n/a	n/a	n/a	n/a	53.196	BF04HAS.jpg
24.927	0.514	Blank	Blank	79.651	n/a	1	1	15	n/a	15	n/a	2	n/a	n/a	n/a	n/a	53.693	n/a
25.458	0.497	angry	Picture	79.137	n/a	1	1	16	n/a	16	49	2	n/a	n/a	n/a	n/a	54.224	AF17HAS.jpg
25.955	0.514	Blank	Blank	78.624	n/a	1	1	16	n/a	16	n/a	2	n/a	n/a	n/a	n/a	54.721	n/a
26.486	0.497	angry	Picture	78.109	n/a	1	1	17	n/a	17	75	2	n/a	n/a	n/a	n/a	55.252	AM23HAS.jpg
26.983	0.514	Blank	Blank	77.596	n/a	1	1	17	n/a	17	n/a	2	n/a	n/a	n/a	n/a	55.749	n/a
27.514	0.497	angry	Picture	77.082	n/a	1	1	18	n/a	18	80	2	n/a	n/a	n/a	n/a	56.279	BM35HAS.jpg
28.011	0.514	Blank	Blank	76.568	n/a	1	1	18	n/a	18	n/a	2	n/a	n/a	n/a	n/a	56.777	n/a
28.541	0.497	angry	Picture	76.054	n/a	1	1	19	n/a	19	76	2	n/a	n/a	n/a	n/a	57.307	BM24HAS.jpg
29.039	0.514	Blank	Blank	75.54	n/a	1	1	19	n/a	19	n/a	2	n/a	n/a	n/a	n/a	57.805	n/a
29.569	0.497	angry	Picture	75.026	n/a	1	1	20	n/a	20	74	2	n/a	n/a	n/a	n/a	58.335	AM22HAS.jpg
30.067	0.514	Blank	Blank	74.512	n/a	1	1	20	n/a	20	n/a	2	n/a	n/a	n/a	n/a	58.833	n/a
30.597	10.014	ITI	Fixation+	64.482	n/a	1	n/a	n/a	n/a	n/a	n/a	n/a	n/a	n/a	n/a	n/a	59.363	n/a
40.627	0.497	neutral	Picture	63.968	n/a	1	2	1	n/a	21	33	1	n/a	n/a	n/a	n/a	69.393	AM21NES.jpg
41.125	0.514	Blank	Blank	63.454	n/a	1	2	1	n/a	21	n/a	1	n/a	n/a	n/a	n/a	69.891	n/a
41.655	0.497	neutral	Picture	62.94	n/a	1	2	2	n/a	22	39	1	n/a	n/a	n/a	n/a	70.421	AM28NES.jpg
42.152	0.514	Blank	Blank	62.426	n/a	1	2	2	n/a	22	n/a	1	n/a	n/a	n/a	n/a	70.918	n/a
42.683	0.497	neutral	Picture	61.912	n/a	1	2	3	n/a	23	25	1	n/a	n/a	n/a	n/a	71.449	BM06NES.jpg
43.18	0.514	Blank	Blank	61.398	n/a	1	2	3	n/a	23	n/a	1	n/a	n/a	n/a	n/a	71.946	n/a
43.711	0.497	neutral	Picture	60.884	n/a	1	2	4	n/a	24	5	1	n/a	n/a	n/a	n/a	72.477	BF07NES.jpg
44.208	0.514	Blank	Blank	60.37	n/a	1	2	4	n/a	24	n/a	1	n/a	n/a	n/a	n/a	72.974	n/a
44.739	0.497	neutral	Picture	59.856	n/a	1	2	5	n/a	25	10	1	n/a	n/a	n/a	n/a	73.505	AF18NES.jpg
45.236	0.514	Blank	Blank	59.342	n/a	1	2	5	n/a	25	n/a	1	n/a	n/a	n/a	n/a	74.002	n/a
45.767	0.497	neutral	Picture	58.828	n/a	1	2	6	n/a	26	34	1	n/a	n/a	n/a	n/a	74.533	AM22NES.jpg
46.264	0.514	Blank	Blank	58.314	n/a	1	2	6	n/a	26	n/a	1	n/a	n/a	n/a	n/a	75.03	n/a
46.795	0.497	neutral	Picture	57.801	n/a	1	2	7	n/a	27	36	1	n/a	n/a	n/a	n/a	75.561	BM24NES.jpg
47.292	0.514	Blank	Blank	57.287	n/a	1	2	7	n/a	27	n/a	1	n/a	n/a	n/a	n/a	76.058	n/a
47.822	0.497	neutral	Picture	56.773	n/a	1	2	8	n/a	28	14	1	n/a	n/a	n/a	n/a	76.588	AF23NES.jpg
48.32	0.514	Blank	Blank	56.259	n/a	1	2	8	n/a	28	n/a	1	n/a	n/a	n/a	n/a	77.086	n/a
48.85	0.497	neutral	Picture	55.745	n/a	1	2	9	n/a	29	9	1	n/a	n/a	n/a	n/a	77.616	AF17NES.jpg
49.348	0.514	Blank	Blank	55.231	n/a	1	2	9	n/a	29	n/a	1	n/a	n/a	n/a	n/a	78.114	n/a
49.878	0.497	neutral	Picture	54.717	n/a	1	2	10	n/a	30	19	1	n/a	n/a	n/a	n/a	78.644	AF31NES.jpg
50.376	0.514	Blank	Blank	54.203	n/a	1	2	10	n/a	30	n/a	1	n/a	n/a	n/a	n/a	79.142	n/a
50.906	0.497	neutral	Picture	53.689	n/a	1	2	11	n/a	31	15	1	n/a	n/a	n/a	n/a	79.672	AF25NES.jpg
51.404	0.514	Blank	Blank	53.175	n/a	1	2	11	n/a	31	n/a	1	n/a	n/a	n/a	n/a	80.169	n/a
51.934	0.497	neutral	Picture	52.661	n/a	1	2	12	n/a	32	22	1	n/a	n/a	n/a	n/a	80.7	BM03NES.jpg
52.431	0.514	Blank	Blank	52.147	n/a	1	2	12	n/a	32	n/a	1	n/a	n/a	n/a	n/a	81.197	n/a
52.962	0.497	neutral	Picture	51.633	n/a	1	2	13	n/a	33	11	1	n/a	n/a	n/a	n/a	81.728	AF20NES.jpg
53.459	0.514	Blank	Blank	51.119	n/a	1	2	13	n/a	33	n/a	1	n/a	n/a	n/a	n/a	82.225	n/a
53.99	0.497	neutral	Picture	50.605	n/a	1	2	14	n/a	34	4	1	n/a	n/a	n/a	n/a	82.756	AF05NES.jpg
54.487	0.514	Blank	Blank	50.091	n/a	1	2	14	n/a	34	n/a	1	n/a	n/a	n/a	n/a	83.253	n/a
55.018	0.497	neutral	Picture	49.577	n/a	1	2	15	n/a	35	17	1	n/a	n/a	n/a	n/a	83.784	BF28NES.jpg
55.515	0.514	Blank	Blank	49.064	n/a	1	2	15	n/a	35	n/a	1	n/a	n/a	n/a	n/a	84.281	n/a
56.045	0.497	neutral	Picture	48.55	n/a	1	2	16	n/a	36	13	1	n/a	n/a	n/a	n/a	84.811	BF22NES.jpg
56.543	0.514	Blank	Blank	48.036	n/a	1	2	16	n/a	36	n/a	1	n/a	n/a	n/a	n/a	85.309	n/a
57.073	0.497	neutral	Picture	47.522	n/a	1	2	17	n/a	37	12	1	n/a	n/a	n/a	n/a	85.839	AF21NES.jpg
57.571	0.514	Blank	Blank	47.008	n/a	1	2	17	n/a	37	n/a	1	n/a	n/a	n/a	n/a	86.337	n/a
58.101	0.497	neutral	Picture	46.494	n/a	1	2	18	n/a	38	24	1	n/a	n/a	n/a	n/a	86.867	BM05NES.jpg
58.599	0.514	Blank	Blank	45.98	n/a	1	2	18	n/a	38	n/a	1	n/a	n/a	n/a	n/a	87.365	n/a
59.129	0.497	neutral	Picture	45.466	n/a	1	2	19	n/a	39	29	1	n/a	n/a	n/a	n/a	87.895	AM10NES.jpg
59.627	0.514	Blank	Blank	44.952	n/a	1	2	19	n/a	39	n/a	1	n/a	n/a	n/a	n/a	88.392	n/a
60.157	0.497	neutral	Picture	44.438	n/a	1	2	20	n/a	40	23	1	n/a	n/a	n/a	n/a	88.923	AM04NES.jpg
60.654	0.514	Blank	Blank	43.924	n/a	1	2	20	n/a	40	n/a	1	n/a	n/a	n/a	n/a	89.42	n/a
61.185	10.014	ITI	Fixation+	33.894	n/a	1	n/a	n/a	n/a	n/a	n/a	n/a	n/a	n/a	n/a	n/a	89.951	n/a
71.215	0.497	angry	Picture	33.38	n/a	1	3	1	n/a	41	62	2	n/a	n/a	n/a	n/a	99.981	BM03HAS.jpg
71.712	0.514	Blank	Blank	32.866	n/a	1	3	1	n/a	41	n/a	2	n/a	n/a	n/a	n/a	100.478	n/a
72.243	0.497	angry	Picture	32.352	n/a	1	3	2	n/a	42	52	2	n/a	n/a	n/a	n/a	101.009	AF21HAS.jpg
72.74	0.514	Blank	Blank	31.838	n/a	1	3	2	n/a	42	n/a	2	n/a	n/a	n/a	n/a	101.506	n/a
73.271	0.497	angry	Picture	31.324	n/a	1	3	3	n/a	43	44	2	n/a	n/a	n/a	n/a	102.037	AF05HAS.jpg
73.768	0.514	Blank	Blank	30.81	n/a	1	3	3	n/a	43	n/a	2	n/a	n/a	n/a	n/a	102.534	n/a
74.299	0.497	angry	Picture	30.296	n/a	1	3	4	n/a	44	53	2	n/a	n/a	n/a	n/a	103.065	BF22HAS.jpg
74.796	0.514	Blank	Blank	29.782	n/a	1	3	4	n/a	44	n/a	2	n/a	n/a	n/a	n/a	103.562	n/a
75.327	0.497	angry	Picture	29.268	n/a	1	3	5	n/a	45	54	2	n/a	n/a	n/a	n/a	104.093	AF23HAS.jpg
75.824	0.514	Blank	Blank	28.755	n/a	1	3	5	n/a	45	n/a	2	n/a	n/a	n/a	n/a	104.59	n/a
76.355	0.497	angry	Picture	28.241	n/a	1	3	6	n/a	46	68	2	n/a	n/a	n/a	n/a	105.121	AM09HAS.jpg
76.852	0.514	Blank	Blank	27.727	n/a	1	3	6	n/a	46	n/a	2	n/a	n/a	n/a	n/a	105.618	n/a
77.382	0.497	angry	Picture	27.213	n/a	1	3	7	n/a	47	64	2	n/a	n/a	n/a	n/a	106.148	BM05HAS.jpg
77.88	0.514	Blank	Blank	26.699	n/a	1	3	7	n/a	47	n/a	2	n/a	n/a	n/a	n/a	106.646	n/a
78.41	0.497	angry	Picture	26.185	n/a	1	3	8	n/a	48	59	2	n/a	n/a	n/a	n/a	107.176	AF31HAS.jpg
78.908	0.514	Blank	Blank	25.671	n/a	1	3	8	n/a	48	n/a	2	n/a	n/a	n/a	n/a	107.674	n/a
79.438	0.497	angry	Picture	25.157	n/a	1	3	9	n/a	49	41	2	n/a	n/a	n/a	n/a	108.204	AF01HAS.jpg
79.935	0.514	Blank	Blank	24.643	n/a	1	3	9	n/a	49	n/a	2	n/a	n/a	n/a	n/a	108.701	n/a
80.466	0.497	angry	Picture	24.129	n/a	1	3	10	n/a	50	73	2	n/a	n/a	n/a	n/a	109.232	AM21HAS.jpg
80.963	0.514	Blank	Blank	23.615	n/a	1	3	10	n/a	50	n/a	2	n/a	n/a	n/a	n/a	109.729	n/a
81.494	0.497	angry	Picture	23.101	n/a	1	3	11	n/a	51	65	2	n/a	n/a	n/a	n/a	110.26	BM06HAS.jpg
81.991	0.514	Blank	Blank	22.587	n/a	1	3	11	n/a	51	n/a	2	n/a	n/a	n/a	n/a	110.757	n/a
82.522	0.497	angry	Picture	22.073	n/a	1	3	12	n/a	52	56	2	n/a	n/a	n/a	n/a	111.288	AF26HAS.jpg
83.019	0.514	Blank	Blank	21.559	n/a	1	3	12	n/a	52	n/a	2	n/a	n/a	n/a	n/a	111.785	n/a
83.55	0.497	angry	Picture	21.046	n/a	1	3	13	n/a	53	45	2	n/a	n/a	n/a	n/a	112.316	BF07HAS.jpg
84.047	0.514	Blank	Blank	20.532	n/a	1	3	13	n/a	53	n/a	2	n/a	n/a	n/a	n/a	112.813	n/a
84.578	0.497	angry	Picture	20.018	n/a	1	3	14	n/a	54	78	2	n/a	n/a	n/a	n/a	113.344	BM26HAS.jpg
85.075	0.514	Blank	Blank	19.504	n/a	1	3	14	n/a	54	n/a	2	n/a	n/a	n/a	n/a	113.841	n/a
85.605	0.497	angry	Picture	18.99	n/a	1	3	15	n/a	55	50	2	n/a	n/a	n/a	n/a	114.371	AF18HAS.jpg
86.103	0.514	Blank	Blank	18.476	n/a	1	3	15	n/a	55	n/a	2	n/a	n/a	n/a	n/a	114.869	n/a
86.633	0.497	angry	Picture	17.962	n/a	1	3	16	n/a	56	47	2	n/a	n/a	n/a	n/a	115.399	BF11HAS.jpg
87.131	0.514	Blank	Blank	17.448	n/a	1	3	16	n/a	56	n/a	2	n/a	n/a	n/a	n/a	115.897	n/a
87.661	0.497	angry	Picture	16.934	n/a	1	3	17	n/a	57	77	2	n/a	n/a	n/a	n/a	116.427	BM25HAS.jpg
88.159	0.514	Blank	Blank	16.42	n/a	1	3	17	n/a	57	n/a	2	n/a	n/a	n/a	n/a	116.925	n/a
88.689	0.497	angry	Picture	15.906	n/a	1	3	18	n/a	58	57	2	n/a	n/a	n/a	n/a	117.455	BF28HAS.jpg
89.186	0.514	Blank	Blank	15.392	n/a	1	3	18	n/a	58	n/a	2	n/a	n/a	n/a	n/a	117.952	n/a
89.717	0.497	angry	Picture	14.878	n/a	1	3	19	n/a	59	61	2	n/a	n/a	n/a	n/a	118.483	AM01HAS.jpg
90.214	0.514	Blank	Blank	14.364	n/a	1	3	19	n/a	59	n/a	2	n/a	n/a	n/a	n/a	118.98	n/a
90.745	0.497	angry	Picture	13.85	n/a	1	3	20	n/a	60	79	2	n/a	n/a	n/a	n/a	119.511	BM28HAS.jpg
91.242	0.514	Blank	Blank	13.336	n/a	1	3	20	n/a	60	n/a	2	n/a	n/a	n/a	n/a	120.008	n/a
91.773	10.014	ITI	Fixation+	3.306	n/a	1	n/a	n/a	n/a	n/a	n/a	n/a	n/a	n/a	n/a	n/a	120.539	n/a
105.093	n/a	ConfirmRating	Rate	n/a	3.3	1	n/a	n/a	0	n/a	n/a	n/a	2	Angry	64	51	133.858	n/a
107.565	n/a	ConfirmRating	Rate	n/a	2.454	1	n/a	n/a	1	n/a	n/a	n/a	3	Angry	34	49	136.331	n/a
107.589	10.014	ITI	Fixation+	96.328	n/a	2	n/a	n/a	n/a	n/a	n/a	n/a	n/a	n/a	n/a	n/a	136.355	n/a
117.619	0.497	happy	Picture	95.814	n/a	2	4	1	n/a	61	119	3	n/a	n/a	n/a	n/a	146.385	BM28ANS.jpg
118.116	0.514	Blank	Blank	95.3	n/a	2	4	1	n/a	61	n/a	3	n/a	n/a	n/a	n/a	146.882	n/a
118.647	0.497	happy	Picture	94.786	n/a	2	4	2	n/a	62	100	3	n/a	n/a	n/a	n/a	147.413	AF32ANS.jpg
119.144	0.514	Blank	Blank	94.272	n/a	2	4	2	n/a	62	n/a	3	n/a	n/a	n/a	n/a	147.91	n/a
119.675	0.497	happy	Picture	93.758	n/a	2	4	3	n/a	63	118	3	n/a	n/a	n/a	n/a	148.441	BM26ANS.jpg
120.172	0.514	Blank	Blank	93.244	n/a	2	4	3	n/a	63	n/a	3	n/a	n/a	n/a	n/a	148.938	n/a
120.703	0.497	happy	Picture	92.73	n/a	2	4	4	n/a	64	89	3	n/a	n/a	n/a	n/a	149.469	AF17ANS.jpg
121.2	0.514	Blank	Blank	92.217	n/a	2	4	4	n/a	64	n/a	3	n/a	n/a	n/a	n/a	149.966	n/a
121.731	0.497	happy	Picture	91.703	n/a	2	4	5	n/a	65	116	3	n/a	n/a	n/a	n/a	150.496	BM24ANS.jpg
122.228	0.514	Blank	Blank	91.189	n/a	2	4	5	n/a	65	n/a	3	n/a	n/a	n/a	n/a	150.994	n/a
122.758	0.497	happy	Picture	90.675	n/a	2	4	6	n/a	66	105	3	n/a	n/a	n/a	n/a	151.524	BM06ANS.jpg
123.256	0.514	Blank	Blank	90.161	n/a	2	4	6	n/a	66	n/a	3	n/a	n/a	n/a	n/a	152.022	n/a
123.786	0.497	happy	Picture	89.647	n/a	2	4	7	n/a	67	106	3	n/a	n/a	n/a	n/a	152.552	AM07ANS.jpg
124.284	0.514	Blank	Blank	89.133	n/a	2	4	7	n/a	67	n/a	3	n/a	n/a	n/a	n/a	153.05	n/a
124.814	0.497	happy	Picture	88.619	n/a	2	4	8	n/a	68	94	3	n/a	n/a	n/a	n/a	153.58	AF23ANS.jpg
125.311	0.514	Blank	Blank	88.105	n/a	2	4	8	n/a	68	n/a	3	n/a	n/a	n/a	n/a	154.077	n/a
125.842	0.497	happy	Picture	87.591	n/a	2	4	9	n/a	69	117	3	n/a	n/a	n/a	n/a	154.608	BM25ANS.jpg
126.339	0.514	Blank	Blank	87.077	n/a	2	4	9	n/a	69	n/a	3	n/a	n/a	n/a	n/a	155.105	n/a
126.87	0.497	happy	Picture	86.563	n/a	2	4	10	n/a	70	90	3	n/a	n/a	n/a	n/a	155.636	AF18ANS.jpg
127.367	0.514	Blank	Blank	86.049	n/a	2	4	10	n/a	70	n/a	3	n/a	n/a	n/a	n/a	156.133	n/a
127.898	0.497	happy	Picture	85.535	n/a	2	4	11	n/a	71	83	3	n/a	n/a	n/a	n/a	156.664	BF04ANS.jpg
128.395	0.514	Blank	Blank	85.021	n/a	2	4	11	n/a	71	n/a	3	n/a	n/a	n/a	n/a	157.161	n/a
128.926	0.497	happy	Picture	84.507	n/a	2	4	12	n/a	72	112	3	n/a	n/a	n/a	n/a	157.692	AM14ANS.jpg
129.423	0.514	Blank	Blank	83.993	n/a	2	4	12	n/a	72	n/a	3	n/a	n/a	n/a	n/a	158.189	n/a
129.954	0.497	happy	Picture	83.48	n/a	2	4	13	n/a	73	102	3	n/a	n/a	n/a	n/a	158.72	BM03ANS.jpg
130.451	0.514	Blank	Blank	82.966	n/a	2	4	13	n/a	73	n/a	3	n/a	n/a	n/a	n/a	159.217	n/a
130.982	0.497	happy	Picture	82.452	n/a	2	4	14	n/a	74	95	3	n/a	n/a	n/a	n/a	159.748	AF25ANS.jpg
131.479	0.514	Blank	Blank	81.938	n/a	2	4	14	n/a	74	n/a	3	n/a	n/a	n/a	n/a	160.245	n/a
132.009	0.497	happy	Picture	81.424	n/a	2	4	15	n/a	75	113	3	n/a	n/a	n/a	n/a	160.775	AM21ANS.jpg
132.507	0.514	Blank	Blank	80.91	n/a	2	4	15	n/a	75	n/a	3	n/a	n/a	n/a	n/a	161.273	n/a
133.037	0.497	happy	Picture	80.396	n/a	2	4	16	n/a	76	88	3	n/a	n/a	n/a	n/a	161.803	AF14ANS.jpg
133.535	0.514	Blank	Blank	79.882	n/a	2	4	16	n/a	76	n/a	3	n/a	n/a	n/a	n/a	162.301	n/a
134.065	0.497	happy	Picture	79.368	n/a	2	4	17	n/a	77	93	3	n/a	n/a	n/a	n/a	162.831	BF22ANS.jpg
134.563	0.514	Blank	Blank	78.854	n/a	2	4	17	n/a	77	n/a	3	n/a	n/a	n/a	n/a	163.328	n/a
135.093	0.497	happy	Picture	78.34	n/a	2	4	18	n/a	78	86	3	n/a	n/a	n/a	n/a	163.859	AF09ANS.jpg
135.59	0.514	Blank	Blank	77.826	n/a	2	4	18	n/a	78	n/a	3	n/a	n/a	n/a	n/a	164.356	n/a
136.121	0.497	happy	Picture	77.312	n/a	2	4	19	n/a	79	92	3	n/a	n/a	n/a	n/a	164.887	AF21ANS.jpg
136.618	0.514	Blank	Blank	76.798	n/a	2	4	19	n/a	79	n/a	3	n/a	n/a	n/a	n/a	165.384	n/a
137.149	0.497	happy	Picture	76.284	n/a	2	4	20	n/a	80	84	3	n/a	n/a	n/a	n/a	165.915	AF05ANS.jpg
137.646	0.514	Blank	Blank	75.77	n/a	2	4	20	n/a	80	n/a	3	n/a	n/a	n/a	n/a	166.412	n/a
138.177	10.014	ITI	Fixation+	65.74	n/a	2	n/a	n/a	n/a	n/a	n/a	n/a	n/a	n/a	n/a	n/a	166.943	n/a
148.207	0.497	neutral	Picture	65.226	n/a	2	5	1	n/a	81	4	1	n/a	n/a	n/a	n/a	176.973	AF05NES.jpg
148.704	0.514	Blank	Blank	64.712	n/a	2	5	1	n/a	81	n/a	1	n/a	n/a	n/a	n/a	177.47	n/a
149.235	0.497	neutral	Picture	64.198	n/a	2	5	2	n/a	82	14	1	n/a	n/a	n/a	n/a	178.001	AF23NES.jpg
149.732	0.514	Blank	Blank	63.684	n/a	2	5	2	n/a	82	n/a	1	n/a	n/a	n/a	n/a	178.498	n/a
150.263	0.497	neutral	Picture	63.171	n/a	2	5	3	n/a	83	19	1	n/a	n/a	n/a	n/a	179.029	AF31NES.jpg
150.76	0.514	Blank	Blank	62.657	n/a	2	5	3	n/a	83	n/a	1	n/a	n/a	n/a	n/a	179.526	n/a
151.29	0.497	neutral	Picture	62.143	n/a	2	5	4	n/a	84	8	1	n/a	n/a	n/a	n/a	180.056	AF14NES.jpg
151.788	0.514	Blank	Blank	61.629	n/a	2	5	4	n/a	84	n/a	1	n/a	n/a	n/a	n/a	180.554	n/a
152.318	0.497	neutral	Picture	61.115	n/a	2	5	5	n/a	85	25	1	n/a	n/a	n/a	n/a	181.084	BM06NES.jpg
152.816	0.514	Blank	Blank	60.601	n/a	2	5	5	n/a	85	n/a	1	n/a	n/a	n/a	n/a	181.582	n/a
153.346	0.497	neutral	Picture	60.087	n/a	2	5	6	n/a	86	9	1	n/a	n/a	n/a	n/a	182.112	AF17NES.jpg
153.844	0.514	Blank	Blank	59.573	n/a	2	5	6	n/a	86	n/a	1	n/a	n/a	n/a	n/a	182.61	n/a
154.374	0.497	neutral	Picture	59.059	n/a	2	5	7	n/a	87	2	1	n/a	n/a	n/a	n/a	183.14	AF03NES.jpg
154.871	0.514	Blank	Blank	58.545	n/a	2	5	7	n/a	87	n/a	1	n/a	n/a	n/a	n/a	183.637	n/a
155.402	0.497	neutral	Picture	58.031	n/a	2	5	8	n/a	88	17	1	n/a	n/a	n/a	n/a	184.168	BF28NES.jpg
155.899	0.514	Blank	Blank	57.517	n/a	2	5	8	n/a	88	n/a	1	n/a	n/a	n/a	n/a	184.665	n/a
156.43	0.497	neutral	Picture	57.003	n/a	2	5	9	n/a	89	6	1	n/a	n/a	n/a	n/a	185.196	AF09NES.jpg
156.927	0.514	Blank	Blank	56.489	n/a	2	5	9	n/a	89	n/a	1	n/a	n/a	n/a	n/a	185.693	n/a
157.458	0.497	neutral	Picture	55.975	n/a	2	5	10	n/a	90	12	1	n/a	n/a	n/a	n/a	186.224	AF21NES.jpg
157.955	0.514	Blank	Blank	55.461	n/a	2	5	10	n/a	90	n/a	1	n/a	n/a	n/a	n/a	186.721	n/a
158.486	0.497	neutral	Picture	54.947	n/a	2	5	11	n/a	91	24	1	n/a	n/a	n/a	n/a	187.252	BM05NES.jpg
158.983	0.514	Blank	Blank	54.434	n/a	2	5	11	n/a	91	n/a	1	n/a	n/a	n/a	n/a	187.749	n/a
159.514	0.497	neutral	Picture	53.92	n/a	2	5	12	n/a	92	34	1	n/a	n/a	n/a	n/a	188.28	AM22NES.jpg
160.011	0.514	Blank	Blank	53.406	n/a	2	5	12	n/a	92	n/a	1	n/a	n/a	n/a	n/a	188.777	n/a
160.541	0.497	neutral	Picture	52.892	n/a	2	5	13	n/a	93	23	1	n/a	n/a	n/a	n/a	189.307	AM04NES.jpg
161.039	0.514	Blank	Blank	52.378	n/a	2	5	13	n/a	93	n/a	1	n/a	n/a	n/a	n/a	189.805	n/a
161.569	0.497	neutral	Picture	51.864	n/a	2	5	14	n/a	94	15	1	n/a	n/a	n/a	n/a	190.335	AF25NES.jpg
162.067	0.514	Blank	Blank	51.35	n/a	2	5	14	n/a	94	n/a	1	n/a	n/a	n/a	n/a	190.833	n/a
162.597	0.497	neutral	Picture	50.836	n/a	2	5	15	n/a	95	37	1	n/a	n/a	n/a	n/a	191.363	BM25NES.jpg
163.095	0.514	Blank	Blank	50.322	n/a	2	5	15	n/a	95	n/a	1	n/a	n/a	n/a	n/a	191.861	n/a
163.625	0.497	neutral	Picture	49.808	n/a	2	5	16	n/a	96	32	1	n/a	n/a	n/a	n/a	192.391	AM14NES.jpg
164.122	0.514	Blank	Blank	49.294	n/a	2	5	16	n/a	96	n/a	1	n/a	n/a	n/a	n/a	192.888	n/a
164.653	0.497	neutral	Picture	48.78	n/a	2	5	17	n/a	97	3	1	n/a	n/a	n/a	n/a	193.419	BF04NES.jpg
165.15	0.514	Blank	Blank	48.266	n/a	2	5	17	n/a	97	n/a	1	n/a	n/a	n/a	n/a	193.916	n/a
165.681	0.497	neutral	Picture	47.752	n/a	2	5	18	n/a	98	16	1	n/a	n/a	n/a	n/a	194.447	AF26NES.jpg
166.178	0.514	Blank	Blank	47.238	n/a	2	5	18	n/a	98	n/a	1	n/a	n/a	n/a	n/a	194.944	n/a
166.709	0.497	neutral	Picture	46.724	n/a	2	5	19	n/a	99	27	1	n/a	n/a	n/a	n/a	195.475	BM08NES.jpg
167.206	0.514	Blank	Blank	46.21	n/a	2	5	19	n/a	99	n/a	1	n/a	n/a	n/a	n/a	195.972	n/a
167.737	0.497	neutral	Picture	45.697	n/a	2	5	20	n/a	100	28	1	n/a	n/a	n/a	n/a	196.502	AM09NES.jpg
168.234	0.514	Blank	Blank	45.183	n/a	2	5	20	n/a	100	n/a	1	n/a	n/a	n/a	n/a	197.0	n/a
168.764	10.014	ITI	Fixation+	35.153	n/a	2	n/a	n/a	n/a	n/a	n/a	n/a	n/a	n/a	n/a	n/a	197.53	n/a
178.795	0.497	happy	Picture	34.639	n/a	2	6	1	n/a	101	81	3	n/a	n/a	n/a	n/a	207.561	AF01ANS.jpg
179.292	0.514	Blank	Blank	34.125	n/a	2	6	1	n/a	101	n/a	3	n/a	n/a	n/a	n/a	208.058	n/a
179.823	0.497	happy	Picture	33.611	n/a	2	6	2	n/a	102	120	3	n/a	n/a	n/a	n/a	208.589	AM35ANS.jpg
180.32	0.514	Blank	Blank	33.097	n/a	2	6	2	n/a	102	n/a	3	n/a	n/a	n/a	n/a	209.086	n/a
180.85	0.497	happy	Picture	32.583	n/a	2	6	3	n/a	103	114	3	n/a	n/a	n/a	n/a	209.616	AM22ANS.jpg
181.348	0.514	Blank	Blank	32.069	n/a	2	6	3	n/a	103	n/a	3	n/a	n/a	n/a	n/a	210.114	n/a
181.878	0.497	happy	Picture	31.555	n/a	2	6	4	n/a	104	109	3	n/a	n/a	n/a	n/a	210.644	AM10ANS.jpg
182.376	0.514	Blank	Blank	31.041	n/a	2	6	4	n/a	104	n/a	3	n/a	n/a	n/a	n/a	211.142	n/a
182.906	0.497	happy	Picture	30.527	n/a	2	6	5	n/a	105	96	3	n/a	n/a	n/a	n/a	211.672	AF26ANS.jpg
183.404	0.514	Blank	Blank	30.013	n/a	2	6	5	n/a	105	n/a	3	n/a	n/a	n/a	n/a	212.169	n/a
183.934	0.497	happy	Picture	29.499	n/a	2	6	6	n/a	106	82	3	n/a	n/a	n/a	n/a	212.7	AF03ANS.jpg
184.431	0.514	Blank	Blank	28.985	n/a	2	6	6	n/a	106	n/a	3	n/a	n/a	n/a	n/a	213.197	n/a
184.962	0.497	happy	Picture	28.471	n/a	2	6	7	n/a	107	97	3	n/a	n/a	n/a	n/a	213.728	BF28ANS.jpg
185.459	0.514	Blank	Blank	27.957	n/a	2	6	7	n/a	107	n/a	3	n/a	n/a	n/a	n/a	214.225	n/a
185.99	0.497	happy	Picture	27.443	n/a	2	6	8	n/a	108	115	3	n/a	n/a	n/a	n/a	214.756	AM23ANS.jpg
186.487	0.514	Blank	Blank	26.929	n/a	2	6	8	n/a	108	n/a	3	n/a	n/a	n/a	n/a	215.253	n/a
187.018	0.497	happy	Picture	26.415	n/a	2	6	9	n/a	109	91	3	n/a	n/a	n/a	n/a	215.784	AF20ANS.jpg
187.515	0.514	Blank	Blank	25.902	n/a	2	6	9	n/a	109	n/a	3	n/a	n/a	n/a	n/a	216.281	n/a
188.046	0.497	happy	Picture	25.388	n/a	2	6	10	n/a	110	87	3	n/a	n/a	n/a	n/a	216.811	BF11ANS.jpg
188.543	0.514	Blank	Blank	24.874	n/a	2	6	10	n/a	110	n/a	3	n/a	n/a	n/a	n/a	217.309	n/a
189.073	0.497	happy	Picture	24.36	n/a	2	6	11	n/a	111	85	3	n/a	n/a	n/a	n/a	217.839	BF07ANS.jpg
189.571	0.514	Blank	Blank	23.846	n/a	2	6	11	n/a	111	n/a	3	n/a	n/a	n/a	n/a	218.337	n/a
190.101	0.497	happy	Picture	23.332	n/a	2	6	12	n/a	112	110	3	n/a	n/a	n/a	n/a	218.867	AM11ANS.jpg
190.599	0.514	Blank	Blank	22.818	n/a	2	6	12	n/a	112	n/a	3	n/a	n/a	n/a	n/a	219.365	n/a
191.129	0.497	happy	Picture	22.304	n/a	2	6	13	n/a	113	111	3	n/a	n/a	n/a	n/a	219.895	BM12ANS.jpg
191.627	0.514	Blank	Blank	21.79	n/a	2	6	13	n/a	113	n/a	3	n/a	n/a	n/a	n/a	220.393	n/a
192.157	0.497	happy	Picture	21.276	n/a	2	6	14	n/a	114	103	3	n/a	n/a	n/a	n/a	220.923	AM04ANS.jpg
192.654	0.514	Blank	Blank	20.762	n/a	2	6	14	n/a	114	n/a	3	n/a	n/a	n/a	n/a	221.42	n/a
193.185	0.497	happy	Picture	20.248	n/a	2	6	15	n/a	115	101	3	n/a	n/a	n/a	n/a	221.951	AM01ANS.jpg
193.682	0.514	Blank	Blank	19.734	n/a	2	6	15	n/a	115	n/a	3	n/a	n/a	n/a	n/a	222.448	n/a
194.213	0.497	happy	Picture	19.22	n/a	2	6	16	n/a	116	104	3	n/a	n/a	n/a	n/a	222.979	BM05ANS.jpg
194.71	0.514	Blank	Blank	18.706	n/a	2	6	16	n/a	116	n/a	3	n/a	n/a	n/a	n/a	223.476	n/a
195.241	0.497	happy	Picture	18.192	n/a	2	6	17	n/a	117	107	3	n/a	n/a	n/a	n/a	224.007	BM08ANS.jpg
195.738	0.514	Blank	Blank	17.678	n/a	2	6	17	n/a	117	n/a	3	n/a	n/a	n/a	n/a	224.504	n/a
196.269	0.497	happy	Picture	17.165	n/a	2	6	18	n/a	118	98	3	n/a	n/a	n/a	n/a	225.035	BF29ANS.jpg
196.766	0.514	Blank	Blank	16.651	n/a	2	6	18	n/a	118	n/a	3	n/a	n/a	n/a	n/a	225.532	n/a
197.297	0.497	happy	Picture	16.137	n/a	2	6	19	n/a	119	99	3	n/a	n/a	n/a	n/a	226.063	AF31ANS.jpg
197.794	0.514	Blank	Blank	15.623	n/a	2	6	19	n/a	119	n/a	3	n/a	n/a	n/a	n/a	226.56	n/a
198.324	0.497	happy	Picture	15.109	n/a	2	6	20	n/a	120	108	3	n/a	n/a	n/a	n/a	227.09	AM09ANS.jpg
198.822	0.514	Blank	Blank	14.595	n/a	2	6	20	n/a	120	n/a	3	n/a	n/a	n/a	n/a	227.588	n/a
199.352	10.014	ITI	Fixation+	4.565	n/a	2	n/a	n/a	n/a	n/a	n/a	n/a	n/a	n/a	n/a	n/a	228.118	n/a
213.93	n/a	ConfirmRating	Rate	n/a	4.559	2	n/a	n/a	0	n/a	n/a	n/a	2	Happy	79	53	242.696	n/a
216.491	n/a	ConfirmRating	Rate	n/a	2.536	2	n/a	n/a	1	n/a	n/a	n/a	3	Happy	17	47	245.257	n/a
216.511	15.004	Rest	Picture	n/a	n/a	n/a	n/a	n/a	n/a	n/a	n/a	n/a	0	n/a	0	0	245.277	n/a
231.532	10.014	ITI	Fixation+	94.786	n/a	3	n/a	n/a	n/a	n/a	n/a	n/a	n/a	n/a	n/a	n/a	260.298	n/a
241.562	0.497	angry	Picture	94.272	n/a	3	7	1	n/a	1	46	2	n/a	n/a	n/a	n/a	270.328	AF09HAS.jpg
242.059	0.514	Blank	Blank	93.758	n/a	3	7	1	n/a	1	n/a	2	n/a	n/a	n/a	n/a	270.825	n/a
242.59	0.497	angry	Picture	93.244	n/a	3	7	2	n/a	2	69	2	n/a	n/a	n/a	n/a	271.356	AM10HAS.jpg
243.087	0.514	Blank	Blank	92.73	n/a	3	7	2	n/a	2	n/a	2	n/a	n/a	n/a	n/a	271.853	n/a
243.618	0.497	angry	Picture	92.216	n/a	3	7	3	n/a	3	71	2	n/a	n/a	n/a	n/a	272.384	BM12HAS.jpg
244.115	0.514	Blank	Blank	91.702	n/a	3	7	3	n/a	3	n/a	2	n/a	n/a	n/a	n/a	272.881	n/a
244.645	0.497	angry	Picture	91.188	n/a	3	7	4	n/a	4	51	2	n/a	n/a	n/a	n/a	273.411	AF20HAS.jpg
245.143	0.514	Blank	Blank	90.674	n/a	3	7	4	n/a	4	n/a	2	n/a	n/a	n/a	n/a	273.909	n/a
245.673	0.497	angry	Picture	90.161	n/a	3	7	5	n/a	5	67	2	n/a	n/a	n/a	n/a	274.439	BM08HAS.jpg
246.171	0.514	Blank	Blank	89.647	n/a	3	7	5	n/a	5	n/a	2	n/a	n/a	n/a	n/a	274.937	n/a
246.701	0.497	angry	Picture	89.133	n/a	3	7	6	n/a	6	60	2	n/a	n/a	n/a	n/a	275.467	AF32HAS.jpg
247.198	0.514	Blank	Blank	88.619	n/a	3	7	6	n/a	6	n/a	2	n/a	n/a	n/a	n/a	275.964	n/a
247.729	0.497	angry	Picture	88.105	n/a	3	7	7	n/a	7	42	2	n/a	n/a	n/a	n/a	276.495	AF03HAS.jpg
248.226	0.514	Blank	Blank	87.591	n/a	3	7	7	n/a	7	n/a	2	n/a	n/a	n/a	n/a	276.992	n/a
248.757	0.497	angry	Picture	87.077	n/a	3	7	8	n/a	8	55	2	n/a	n/a	n/a	n/a	277.523	AF25HAS.jpg
249.254	0.514	Blank	Blank	86.563	n/a	3	7	8	n/a	8	n/a	2	n/a	n/a	n/a	n/a	278.02	n/a
249.785	0.497	angry	Picture	86.049	n/a	3	7	9	n/a	9	72	2	n/a	n/a	n/a	n/a	278.551	AM14HAS.jpg
250.282	0.514	Blank	Blank	85.535	n/a	3	7	9	n/a	9	n/a	2	n/a	n/a	n/a	n/a	279.048	n/a
250.813	0.497	angry	Picture	85.021	n/a	3	7	10	n/a	10	63	2	n/a	n/a	n/a	n/a	279.579	AM04HAS.jpg
251.31	0.514	Blank	Blank	84.507	n/a	3	7	10	n/a	10	n/a	2	n/a	n/a	n/a	n/a	280.076	n/a
251.84	0.497	angry	Picture	83.993	n/a	3	7	11	n/a	11	58	2	n/a	n/a	n/a	n/a	280.606	BF29HAS.jpg
252.338	0.514	Blank	Blank	83.479	n/a	3	7	11	n/a	11	n/a	2	n/a	n/a	n/a	n/a	281.104	n/a
252.868	0.497	angry	Picture	82.965	n/a	3	7	12	n/a	12	48	2	n/a	n/a	n/a	n/a	281.634	AF14HAS.jpg
253.366	0.514	Blank	Blank	82.451	n/a	3	7	12	n/a	12	n/a	2	n/a	n/a	n/a	n/a	282.132	n/a
253.896	0.497	angry	Picture	81.937	n/a	3	7	13	n/a	13	66	2	n/a	n/a	n/a	n/a	282.662	BM07HAS.jpg
254.394	0.514	Blank	Blank	81.424	n/a	3	7	13	n/a	13	n/a	2	n/a	n/a	n/a	n/a	283.16	n/a
254.924	0.497	angry	Picture	80.91	n/a	3	7	14	n/a	14	70	2	n/a	n/a	n/a	n/a	283.69	BM11HAS.jpg
255.422	0.514	Blank	Blank	80.396	n/a	3	7	14	n/a	14	n/a	2	n/a	n/a	n/a	n/a	284.188	n/a
255.952	0.497	angry	Picture	79.882	n/a	3	7	15	n/a	15	43	2	n/a	n/a	n/a	n/a	284.718	BF04HAS.jpg
256.449	0.514	Blank	Blank	79.368	n/a	3	7	15	n/a	15	n/a	2	n/a	n/a	n/a	n/a	285.215	n/a
256.98	0.497	angry	Picture	78.854	n/a	3	7	16	n/a	16	49	2	n/a	n/a	n/a	n/a	285.746	AF17HAS.jpg
257.477	0.514	Blank	Blank	78.34	n/a	3	7	16	n/a	16	n/a	2	n/a	n/a	n/a	n/a	286.243	n/a
258.008	0.497	angry	Picture	77.826	n/a	3	7	17	n/a	17	75	2	n/a	n/a	n/a	n/a	286.774	AM23HAS.jpg
258.505	0.514	Blank	Blank	77.312	n/a	3	7	17	n/a	17	n/a	2	n/a	n/a	n/a	n/a	287.271	n/a
259.036	0.497	angry	Picture	76.798	n/a	3	7	18	n/a	18	80	2	n/a	n/a	n/a	n/a	287.802	BM35HAS.jpg
259.533	0.514	Blank	Blank	76.284	n/a	3	7	18	n/a	18	n/a	2	n/a	n/a	n/a	n/a	288.299	n/a
260.064	0.497	angry	Picture	75.77	n/a	3	7	19	n/a	19	76	2	n/a	n/a	n/a	n/a	288.83	BM24HAS.jpg
260.561	0.514	Blank	Blank	75.256	n/a	3	7	19	n/a	19	n/a	2	n/a	n/a	n/a	n/a	289.327	n/a
261.091	0.497	angry	Picture	74.742	n/a	3	7	20	n/a	20	74	2	n/a	n/a	n/a	n/a	289.858	AM22HAS.jpg
261.589	0.514	Blank	Blank	74.228	n/a	3	7	20	n/a	20	n/a	2	n/a	n/a	n/a	n/a	290.355	n/a
262.119	10.014	ITI	Fixation+	64.198	n/a	3	n/a	n/a	n/a	n/a	n/a	n/a	n/a	n/a	n/a	n/a	290.885	n/a
272.149	0.497	neutral	Picture	63.684	n/a	3	8	1	n/a	21	33	1	n/a	n/a	n/a	n/a	300.916	AM21NES.jpg
272.647	0.514	Blank	Blank	63.17	n/a	3	8	1	n/a	21	n/a	1	n/a	n/a	n/a	n/a	301.413	n/a
273.177	0.497	neutral	Picture	62.656	n/a	3	8	2	n/a	22	39	1	n/a	n/a	n/a	n/a	301.943	AM28NES.jpg
273.675	0.514	Blank	Blank	62.142	n/a	3	8	2	n/a	22	n/a	1	n/a	n/a	n/a	n/a	302.441	n/a
274.205	0.497	neutral	Picture	61.629	n/a	3	8	3	n/a	23	25	1	n/a	n/a	n/a	n/a	302.971	BM06NES.jpg
274.703	0.514	Blank	Blank	61.115	n/a	3	8	3	n/a	23	n/a	1	n/a	n/a	n/a	n/a	303.469	n/a
275.233	0.497	neutral	Picture	60.601	n/a	3	8	4	n/a	24	5	1	n/a	n/a	n/a	n/a	303.999	BF07NES.jpg
275.731	0.514	Blank	Blank	60.087	n/a	3	8	4	n/a	24	n/a	1	n/a	n/a	n/a	n/a	304.497	n/a
276.261	0.497	neutral	Picture	59.573	n/a	3	8	5	n/a	25	10	1	n/a	n/a	n/a	n/a	305.027	AF18NES.jpg
276.758	0.514	Blank	Blank	59.059	n/a	3	8	5	n/a	25	n/a	1	n/a	n/a	n/a	n/a	305.524	n/a
277.289	0.497	neutral	Picture	58.545	n/a	3	8	6	n/a	26	34	1	n/a	n/a	n/a	n/a	306.055	AM22NES.jpg
277.786	0.514	Blank	Blank	58.031	n/a	3	8	6	n/a	26	n/a	1	n/a	n/a	n/a	n/a	306.552	n/a
278.317	0.497	neutral	Picture	57.517	n/a	3	8	7	n/a	27	36	1	n/a	n/a	n/a	n/a	307.083	BM24NES.jpg
278.814	0.514	Blank	Blank	57.003	n/a	3	8	7	n/a	27	n/a	1	n/a	n/a	n/a	n/a	307.58	n/a
279.345	0.497	neutral	Picture	56.489	n/a	3	8	8	n/a	28	14	1	n/a	n/a	n/a	n/a	308.111	AF23NES.jpg
279.842	0.514	Blank	Blank	55.975	n/a	3	8	8	n/a	28	n/a	1	n/a	n/a	n/a	n/a	308.608	n/a
280.373	0.497	neutral	Picture	55.461	n/a	3	8	9	n/a	29	9	1	n/a	n/a	n/a	n/a	309.139	AF17NES.jpg
280.87	0.514	Blank	Blank	54.947	n/a	3	8	9	n/a	29	n/a	1	n/a	n/a	n/a	n/a	309.636	n/a
281.4	0.497	neutral	Picture	54.433	n/a	3	8	10	n/a	30	19	1	n/a	n/a	n/a	n/a	310.166	AF31NES.jpg
281.898	0.514	Blank	Blank	53.92	n/a	3	8	10	n/a	30	n/a	1	n/a	n/a	n/a	n/a	310.664	n/a
282.428	0.497	neutral	Picture	53.405	n/a	3	8	11	n/a	31	15	1	n/a	n/a	n/a	n/a	311.194	AF25NES.jpg
282.926	0.514	Blank	Blank	52.892	n/a	3	8	11	n/a	31	n/a	1	n/a	n/a	n/a	n/a	311.692	n/a
283.456	0.497	neutral	Picture	52.378	n/a	3	8	12	n/a	32	22	1	n/a	n/a	n/a	n/a	312.222	BM03NES.jpg
283.954	0.514	Blank	Blank	51.864	n/a	3	8	12	n/a	32	n/a	1	n/a	n/a	n/a	n/a	312.72	n/a
284.484	0.497	neutral	Picture	51.35	n/a	3	8	13	n/a	33	11	1	n/a	n/a	n/a	n/a	313.25	AF20NES.jpg
284.981	0.514	Blank	Blank	50.836	n/a	3	8	13	n/a	33	n/a	1	n/a	n/a	n/a	n/a	313.747	n/a
285.512	0.497	neutral	Picture	50.322	n/a	3	8	14	n/a	34	4	1	n/a	n/a	n/a	n/a	314.278	AF05NES.jpg
286.009	0.514	Blank	Blank	49.808	n/a	3	8	14	n/a	34	n/a	1	n/a	n/a	n/a	n/a	314.775	n/a
286.54	0.497	neutral	Picture	49.294	n/a	3	8	15	n/a	35	17	1	n/a	n/a	n/a	n/a	315.306	BF28NES.jpg
287.037	0.514	Blank	Blank	48.78	n/a	3	8	15	n/a	35	n/a	1	n/a	n/a	n/a	n/a	315.803	n/a
287.568	0.497	neutral	Picture	48.266	n/a	3	8	16	n/a	36	13	1	n/a	n/a	n/a	n/a	316.334	BF22NES.jpg
288.065	0.514	Blank	Blank	47.752	n/a	3	8	16	n/a	36	n/a	1	n/a	n/a	n/a	n/a	316.831	n/a
288.596	0.497	neutral	Picture	47.238	n/a	3	8	17	n/a	37	12	1	n/a	n/a	n/a	n/a	317.362	AF21NES.jpg
289.093	0.514	Blank	Blank	46.724	n/a	3	8	17	n/a	37	n/a	1	n/a	n/a	n/a	n/a	317.859	n/a
289.623	0.497	neutral	Picture	46.21	n/a	3	8	18	n/a	38	24	1	n/a	n/a	n/a	n/a	318.389	BM05NES.jpg
290.121	0.514	Blank	Blank	45.696	n/a	3	8	18	n/a	38	n/a	1	n/a	n/a	n/a	n/a	318.887	n/a
290.651	0.497	neutral	Picture	45.183	n/a	3	8	19	n/a	39	29	1	n/a	n/a	n/a	n/a	319.417	AM10NES.jpg
291.149	0.514	Blank	Blank	44.668	n/a	3	8	19	n/a	39	n/a	1	n/a	n/a	n/a	n/a	319.915	n/a
291.679	0.497	neutral	Picture	44.155	n/a	3	8	20	n/a	40	23	1	n/a	n/a	n/a	n/a	320.445	AM04NES.jpg
292.177	0.514	Blank	Blank	43.641	n/a	3	8	20	n/a	40	n/a	1	n/a	n/a	n/a	n/a	320.943	n/a
292.707	10.014	ITI	Fixation+	33.611	n/a	3	n/a	n/a	n/a	n/a	n/a	n/a	n/a	n/a	n/a	n/a	321.473	n/a
302.737	0.497	angry	Picture	33.097	n/a	3	9	1	n/a	41	62	2	n/a	n/a	n/a	n/a	331.503	BM03HAS.jpg
303.235	0.514	Blank	Blank	32.583	n/a	3	9	1	n/a	41	n/a	2	n/a	n/a	n/a	n/a	332.001	n/a
303.765	0.497	angry	Picture	32.069	n/a	3	9	2	n/a	42	52	2	n/a	n/a	n/a	n/a	332.531	AF21HAS.jpg
304.262	0.514	Blank	Blank	31.555	n/a	3	9	2	n/a	42	n/a	2	n/a	n/a	n/a	n/a	333.029	n/a
304.793	0.497	angry	Picture	31.041	n/a	3	9	3	n/a	43	44	2	n/a	n/a	n/a	n/a	333.559	AF05HAS.jpg
305.29	0.514	Blank	Blank	30.527	n/a	3	9	3	n/a	43	n/a	2	n/a	n/a	n/a	n/a	334.056	n/a
305.821	0.497	angry	Picture	30.013	n/a	3	9	4	n/a	44	53	2	n/a	n/a	n/a	n/a	334.587	BF22HAS.jpg
306.318	0.514	Blank	Blank	29.499	n/a	3	9	4	n/a	44	n/a	2	n/a	n/a	n/a	n/a	335.084	n/a
306.849	0.497	angry	Picture	28.985	n/a	3	9	5	n/a	45	54	2	n/a	n/a	n/a	n/a	335.615	AF23HAS.jpg
307.346	0.514	Blank	Blank	28.471	n/a	3	9	5	n/a	45	n/a	2	n/a	n/a	n/a	n/a	336.112	n/a
307.877	0.497	angry	Picture	27.957	n/a	3	9	6	n/a	46	68	2	n/a	n/a	n/a	n/a	336.643	AM09HAS.jpg
308.374	0.514	Blank	Blank	27.443	n/a	3	9	6	n/a	46	n/a	2	n/a	n/a	n/a	n/a	337.14	n/a
308.905	0.497	angry	Picture	26.929	n/a	3	9	7	n/a	47	64	2	n/a	n/a	n/a	n/a	337.671	BM05HAS.jpg
309.402	0.514	Blank	Blank	26.415	n/a	3	9	7	n/a	47	n/a	2	n/a	n/a	n/a	n/a	338.168	n/a
309.933	0.497	angry	Picture	25.901	n/a	3	9	8	n/a	48	59	2	n/a	n/a	n/a	n/a	338.699	AF31HAS.jpg
310.43	0.514	Blank	Blank	25.387	n/a	3	9	8	n/a	48	n/a	2	n/a	n/a	n/a	n/a	339.196	n/a
310.96	0.497	angry	Picture	24.873	n/a	3	9	9	n/a	49	41	2	n/a	n/a	n/a	n/a	339.726	AF01HAS.jpg
311.458	0.514	Blank	Blank	24.36	n/a	3	9	9	n/a	49	n/a	2	n/a	n/a	n/a	n/a	340.224	n/a
311.988	0.497	angry	Picture	23.846	n/a	3	9	10	n/a	50	73	2	n/a	n/a	n/a	n/a	340.754	AM21HAS.jpg
312.486	0.514	Blank	Blank	23.332	n/a	3	9	10	n/a	50	n/a	2	n/a	n/a	n/a	n/a	341.252	n/a
313.016	0.497	angry	Picture	22.818	n/a	3	9	11	n/a	51	65	2	n/a	n/a	n/a	n/a	341.782	BM06HAS.jpg
313.513	0.514	Blank	Blank	22.304	n/a	3	9	11	n/a	51	n/a	2	n/a	n/a	n/a	n/a	342.279	n/a
314.044	0.497	angry	Picture	21.79	n/a	3	9	12	n/a	52	56	2	n/a	n/a	n/a	n/a	342.81	AF26HAS.jpg
314.541	0.514	Blank	Blank	21.276	n/a	3	9	12	n/a	52	n/a	2	n/a	n/a	n/a	n/a	343.307	n/a
315.072	0.497	angry	Picture	20.762	n/a	3	9	13	n/a	53	45	2	n/a	n/a	n/a	n/a	343.838	BF07HAS.jpg
315.569	0.514	Blank	Blank	20.248	n/a	3	9	13	n/a	53	n/a	2	n/a	n/a	n/a	n/a	344.335	n/a
316.1	0.497	angry	Picture	19.734	n/a	3	9	14	n/a	54	78	2	n/a	n/a	n/a	n/a	344.866	BM26HAS.jpg
316.597	0.514	Blank	Blank	19.22	n/a	3	9	14	n/a	54	n/a	2	n/a	n/a	n/a	n/a	345.363	n/a
317.128	0.497	angry	Picture	18.706	n/a	3	9	15	n/a	55	50	2	n/a	n/a	n/a	n/a	345.894	AF18HAS.jpg
317.625	0.514	Blank	Blank	18.192	n/a	3	9	15	n/a	55	n/a	2	n/a	n/a	n/a	n/a	346.391	n/a
318.155	0.497	angry	Picture	17.678	n/a	3	9	16	n/a	56	47	2	n/a	n/a	n/a	n/a	346.921	BF11HAS.jpg
318.653	0.514	Blank	Blank	17.164	n/a	3	9	16	n/a	56	n/a	2	n/a	n/a	n/a	n/a	347.419	n/a
319.183	0.497	angry	Picture	16.65	n/a	3	9	17	n/a	57	77	2	n/a	n/a	n/a	n/a	347.949	BM25HAS.jpg
319.681	0.514	Blank	Blank	16.137	n/a	3	9	17	n/a	57	n/a	2	n/a	n/a	n/a	n/a	348.447	n/a
320.211	0.497	angry	Picture	15.623	n/a	3	9	18	n/a	58	57	2	n/a	n/a	n/a	n/a	348.977	BF28HAS.jpg
320.709	0.514	Blank	Blank	15.109	n/a	3	9	18	n/a	58	n/a	2	n/a	n/a	n/a	n/a	349.475	n/a
321.239	0.497	angry	Picture	14.595	n/a	3	9	19	n/a	59	61	2	n/a	n/a	n/a	n/a	350.005	AM01HAS.jpg
321.736	0.514	Blank	Blank	14.081	n/a	3	9	19	n/a	59	n/a	2	n/a	n/a	n/a	n/a	350.502	n/a
322.267	0.497	angry	Picture	13.567	n/a	3	9	20	n/a	60	79	2	n/a	n/a	n/a	n/a	351.033	BM28HAS.jpg
322.764	0.514	Blank	Blank	13.053	n/a	3	9	20	n/a	60	n/a	2	n/a	n/a	n/a	n/a	351.53	n/a
323.295	10.014	ITI	Fixation+	3.023	n/a	3	n/a	n/a	n/a	n/a	n/a	n/a	n/a	n/a	n/a	n/a	352.061	n/a
336.331	n/a	ConfirmRating	Rate	n/a	3.017	3	n/a	n/a	0	n/a	n/a	n/a	2	Angry	29	50	365.097	n/a
338.866	n/a	ConfirmRating	Rate	n/a	2.52	3	n/a	n/a	1	n/a	n/a	n/a	3	Angry	54	50	367.632	n/a
338.895	10.014	ITI	Fixation+	93.686	n/a	4	n/a	n/a	n/a	n/a	n/a	n/a	n/a	n/a	n/a	n/a	367.661	n/a
348.926	0.497	happy	Picture	93.172	n/a	4	10	1	n/a	61	119	3	n/a	n/a	n/a	n/a	377.692	BM28ANS.jpg
349.423	0.514	Blank	Blank	92.658	n/a	4	10	1	n/a	61	n/a	3	n/a	n/a	n/a	n/a	378.189	n/a
349.953	0.497	happy	Picture	92.144	n/a	4	10	2	n/a	62	100	3	n/a	n/a	n/a	n/a	378.719	AF32ANS.jpg
350.451	0.514	Blank	Blank	91.63	n/a	4	10	2	n/a	62	n/a	3	n/a	n/a	n/a	n/a	379.217	n/a
350.981	0.497	happy	Picture	91.116	n/a	4	10	3	n/a	63	118	3	n/a	n/a	n/a	n/a	379.747	BM26ANS.jpg
351.479	0.514	Blank	Blank	90.603	n/a	4	10	3	n/a	63	n/a	3	n/a	n/a	n/a	n/a	380.245	n/a
352.009	0.497	happy	Picture	90.089	n/a	4	10	4	n/a	64	89	3	n/a	n/a	n/a	n/a	380.775	AF17ANS.jpg
352.507	0.514	Blank	Blank	89.575	n/a	4	10	4	n/a	64	n/a	3	n/a	n/a	n/a	n/a	381.273	n/a
353.037	0.497	happy	Picture	89.061	n/a	4	10	5	n/a	65	116	3	n/a	n/a	n/a	n/a	381.803	BM24ANS.jpg
353.535	0.514	Blank	Blank	88.547	n/a	4	10	5	n/a	65	n/a	3	n/a	n/a	n/a	n/a	382.301	n/a
354.065	0.497	happy	Picture	88.033	n/a	4	10	6	n/a	66	105	3	n/a	n/a	n/a	n/a	382.831	BM06ANS.jpg
354.562	0.514	Blank	Blank	87.519	n/a	4	10	6	n/a	66	n/a	3	n/a	n/a	n/a	n/a	383.328	n/a
355.093	0.497	happy	Picture	87.005	n/a	4	10	7	n/a	67	106	3	n/a	n/a	n/a	n/a	383.859	AM07ANS.jpg
355.59	0.514	Blank	Blank	86.491	n/a	4	10	7	n/a	67	n/a	3	n/a	n/a	n/a	n/a	384.356	n/a
356.121	0.497	happy	Picture	85.977	n/a	4	10	8	n/a	68	94	3	n/a	n/a	n/a	n/a	384.887	AF23ANS.jpg
356.618	0.514	Blank	Blank	85.463	n/a	4	10	8	n/a	68	n/a	3	n/a	n/a	n/a	n/a	385.384	n/a
357.149	0.497	happy	Picture	84.949	n/a	4	10	9	n/a	69	117	3	n/a	n/a	n/a	n/a	385.915	BM25ANS.jpg
357.646	0.514	Blank	Blank	84.435	n/a	4	10	9	n/a	69	n/a	3	n/a	n/a	n/a	n/a	386.412	n/a
358.177	0.497	happy	Picture	83.921	n/a	4	10	10	n/a	70	90	3	n/a	n/a	n/a	n/a	386.943	AF18ANS.jpg
358.674	0.514	Blank	Blank	83.407	n/a	4	10	10	n/a	70	n/a	3	n/a	n/a	n/a	n/a	387.44	n/a
359.204	0.497	happy	Picture	82.893	n/a	4	10	11	n/a	71	83	3	n/a	n/a	n/a	n/a	387.971	BF04ANS.jpg
359.702	0.514	Blank	Blank	82.38	n/a	4	10	11	n/a	71	n/a	3	n/a	n/a	n/a	n/a	388.468	n/a
360.232	0.497	happy	Picture	81.866	n/a	4	10	12	n/a	72	112	3	n/a	n/a	n/a	n/a	388.998	AM14ANS.jpg
360.73	0.514	Blank	Blank	81.352	n/a	4	10	12	n/a	72	n/a	3	n/a	n/a	n/a	n/a	389.496	n/a
361.26	0.497	happy	Picture	80.838	n/a	4	10	13	n/a	73	102	3	n/a	n/a	n/a	n/a	390.026	BM03ANS.jpg
361.758	0.514	Blank	Blank	80.324	n/a	4	10	13	n/a	73	n/a	3	n/a	n/a	n/a	n/a	390.524	n/a
362.288	0.497	happy	Picture	79.81	n/a	4	10	14	n/a	74	95	3	n/a	n/a	n/a	n/a	391.054	AF25ANS.jpg
362.785	0.514	Blank	Blank	79.296	n/a	4	10	14	n/a	74	n/a	3	n/a	n/a	n/a	n/a	391.551	n/a
363.316	0.497	happy	Picture	78.782	n/a	4	10	15	n/a	75	113	3	n/a	n/a	n/a	n/a	392.082	AM21ANS.jpg
363.813	0.514	Blank	Blank	78.268	n/a	4	10	15	n/a	75	n/a	3	n/a	n/a	n/a	n/a	392.579	n/a
364.344	0.497	happy	Picture	77.754	n/a	4	10	16	n/a	76	88	3	n/a	n/a	n/a	n/a	393.11	AF14ANS.jpg
364.841	0.514	Blank	Blank	77.24	n/a	4	10	16	n/a	76	n/a	3	n/a	n/a	n/a	n/a	393.607	n/a
365.372	0.497	happy	Picture	76.726	n/a	4	10	17	n/a	77	93	3	n/a	n/a	n/a	n/a	394.138	BF22ANS.jpg
365.869	0.514	Blank	Blank	76.212	n/a	4	10	17	n/a	77	n/a	3	n/a	n/a	n/a	n/a	394.635	n/a
366.4	0.497	happy	Picture	75.698	n/a	4	10	18	n/a	78	86	3	n/a	n/a	n/a	n/a	395.166	AF09ANS.jpg
366.897	0.514	Blank	Blank	75.184	n/a	4	10	18	n/a	78	n/a	3	n/a	n/a	n/a	n/a	395.663	n/a
367.428	0.497	happy	Picture	74.67	n/a	4	10	19	n/a	79	92	3	n/a	n/a	n/a	n/a	396.194	AF21ANS.jpg
367.925	0.514	Blank	Blank	74.156	n/a	4	10	19	n/a	79	n/a	3	n/a	n/a	n/a	n/a	396.691	n/a
368.455	0.497	happy	Picture	73.642	n/a	4	10	20	n/a	80	84	3	n/a	n/a	n/a	n/a	397.221	AF05ANS.jpg
368.953	0.514	Blank	Blank	73.129	n/a	4	10	20	n/a	80	n/a	3	n/a	n/a	n/a	n/a	397.719	n/a
369.483	10.014	ITI	Fixation+	63.098	n/a	4	n/a	n/a	n/a	n/a	n/a	n/a	n/a	n/a	n/a	n/a	398.249	n/a
379.513	0.497	neutral	Picture	62.585	n/a	4	11	1	n/a	81	4	1	n/a	n/a	n/a	n/a	408.279	AF05NES.jpg
380.011	0.514	Blank	Blank	62.071	n/a	4	11	1	n/a	81	n/a	1	n/a	n/a	n/a	n/a	408.777	n/a
380.541	0.497	neutral	Picture	61.557	n/a	4	11	2	n/a	82	14	1	n/a	n/a	n/a	n/a	409.307	AF23NES.jpg
381.039	0.514	Blank	Blank	61.043	n/a	4	11	2	n/a	82	n/a	1	n/a	n/a	n/a	n/a	409.805	n/a
381.569	0.497	neutral	Picture	60.529	n/a	4	11	3	n/a	83	19	1	n/a	n/a	n/a	n/a	410.335	AF31NES.jpg
382.067	0.514	Blank	Blank	60.015	n/a	4	11	3	n/a	83	n/a	1	n/a	n/a	n/a	n/a	410.833	n/a
382.597	0.497	neutral	Picture	59.501	n/a	4	11	4	n/a	84	8	1	n/a	n/a	n/a	n/a	411.363	AF14NES.jpg
383.094	0.514	Blank	Blank	58.987	n/a	4	11	4	n/a	84	n/a	1	n/a	n/a	n/a	n/a	411.861	n/a
383.625	0.497	neutral	Picture	58.473	n/a	4	11	5	n/a	85	25	1	n/a	n/a	n/a	n/a	412.391	BM06NES.jpg
384.122	0.514	Blank	Blank	57.959	n/a	4	11	5	n/a	85	n/a	1	n/a	n/a	n/a	n/a	412.888	n/a
384.653	0.497	neutral	Picture	57.445	n/a	4	11	6	n/a	86	9	1	n/a	n/a	n/a	n/a	413.419	AF17NES.jpg
385.15	0.514	Blank	Blank	56.931	n/a	4	11	6	n/a	86	n/a	1	n/a	n/a	n/a	n/a	413.916	n/a
385.681	0.497	neutral	Picture	56.417	n/a	4	11	7	n/a	87	2	1	n/a	n/a	n/a	n/a	414.447	AF03NES.jpg
386.178	0.514	Blank	Blank	55.903	n/a	4	11	7	n/a	87	n/a	1	n/a	n/a	n/a	n/a	414.944	n/a
386.709	0.497	neutral	Picture	55.389	n/a	4	11	8	n/a	88	17	1	n/a	n/a	n/a	n/a	415.475	BF28NES.jpg
387.206	0.514	Blank	Blank	54.875	n/a	4	11	8	n/a	88	n/a	1	n/a	n/a	n/a	n/a	415.972	n/a
387.736	0.497	neutral	Picture	54.361	n/a	4	11	9	n/a	89	6	1	n/a	n/a	n/a	n/a	416.502	AF09NES.jpg
388.234	0.514	Blank	Blank	53.848	n/a	4	11	9	n/a	89	n/a	1	n/a	n/a	n/a	n/a	417.0	n/a
388.764	0.497	neutral	Picture	53.334	n/a	4	11	10	n/a	90	12	1	n/a	n/a	n/a	n/a	417.53	AF21NES.jpg
389.262	0.514	Blank	Blank	52.82	n/a	4	11	10	n/a	90	n/a	1	n/a	n/a	n/a	n/a	418.028	n/a
389.792	0.497	neutral	Picture	52.306	n/a	4	11	11	n/a	91	24	1	n/a	n/a	n/a	n/a	418.558	BM05NES.jpg
390.29	0.514	Blank	Blank	51.792	n/a	4	11	11	n/a	91	n/a	1	n/a	n/a	n/a	n/a	419.056	n/a
390.82	0.497	neutral	Picture	51.278	n/a	4	11	12	n/a	92	34	1	n/a	n/a	n/a	n/a	419.586	AM22NES.jpg
391.317	0.514	Blank	Blank	50.764	n/a	4	11	12	n/a	92	n/a	1	n/a	n/a	n/a	n/a	420.084	n/a
391.848	0.497	neutral	Picture	50.25	n/a	4	11	13	n/a	93	23	1	n/a	n/a	n/a	n/a	420.614	AM04NES.jpg
392.345	0.514	Blank	Blank	49.736	n/a	4	11	13	n/a	93	n/a	1	n/a	n/a	n/a	n/a	421.111	n/a
392.876	0.497	neutral	Picture	49.222	n/a	4	11	14	n/a	94	15	1	n/a	n/a	n/a	n/a	421.642	AF25NES.jpg
393.373	0.514	Blank	Blank	48.708	n/a	4	11	14	n/a	94	n/a	1	n/a	n/a	n/a	n/a	422.139	n/a
393.904	0.497	neutral	Picture	48.194	n/a	4	11	15	n/a	95	37	1	n/a	n/a	n/a	n/a	422.67	BM25NES.jpg
394.401	0.514	Blank	Blank	47.68	n/a	4	11	15	n/a	95	n/a	1	n/a	n/a	n/a	n/a	423.167	n/a
394.932	0.497	neutral	Picture	47.166	n/a	4	11	16	n/a	96	32	1	n/a	n/a	n/a	n/a	423.698	AM14NES.jpg
395.429	0.514	Blank	Blank	46.652	n/a	4	11	16	n/a	96	n/a	1	n/a	n/a	n/a	n/a	424.195	n/a
395.96	0.497	neutral	Picture	46.138	n/a	4	11	17	n/a	97	3	1	n/a	n/a	n/a	n/a	424.726	BF04NES.jpg
396.457	0.514	Blank	Blank	45.624	n/a	4	11	17	n/a	97	n/a	1	n/a	n/a	n/a	n/a	425.223	n/a
396.987	0.497	neutral	Picture	45.111	n/a	4	11	18	n/a	98	16	1	n/a	n/a	n/a	n/a	425.753	AF26NES.jpg
397.485	0.514	Blank	Blank	44.596	n/a	4	11	18	n/a	98	n/a	1	n/a	n/a	n/a	n/a	426.251	n/a
398.015	0.497	neutral	Picture	44.083	n/a	4	11	19	n/a	99	27	1	n/a	n/a	n/a	n/a	426.781	BM08NES.jpg
398.513	0.514	Blank	Blank	43.569	n/a	4	11	19	n/a	99	n/a	1	n/a	n/a	n/a	n/a	427.279	n/a
399.043	0.497	neutral	Picture	43.055	n/a	4	11	20	n/a	100	28	1	n/a	n/a	n/a	n/a	427.809	AM09NES.jpg
399.541	0.514	Blank	Blank	42.541	n/a	4	11	20	n/a	100	n/a	1	n/a	n/a	n/a	n/a	428.307	n/a
400.071	10.014	ITI	Fixation+	32.511	n/a	4	n/a	n/a	n/a	n/a	n/a	n/a	n/a	n/a	n/a	n/a	428.837	n/a
410.101	0.497	happy	Picture	31.997	n/a	4	12	1	n/a	101	81	3	n/a	n/a	n/a	n/a	438.867	AF01ANS.jpg
410.599	0.514	Blank	Blank	31.483	n/a	4	12	1	n/a	101	n/a	3	n/a	n/a	n/a	n/a	439.365	n/a
411.129	0.497	happy	Picture	30.969	n/a	4	12	2	n/a	102	120	3	n/a	n/a	n/a	n/a	439.895	AM35ANS.jpg
411.626	0.514	Blank	Blank	30.455	n/a	4	12	2	n/a	102	n/a	3	n/a	n/a	n/a	n/a	440.392	n/a
412.157	0.497	happy	Picture	29.941	n/a	4	12	3	n/a	103	114	3	n/a	n/a	n/a	n/a	440.923	AM22ANS.jpg
412.654	0.514	Blank	Blank	29.427	n/a	4	12	3	n/a	103	n/a	3	n/a	n/a	n/a	n/a	441.42	n/a
413.185	0.497	happy	Picture	28.913	n/a	4	12	4	n/a	104	109	3	n/a	n/a	n/a	n/a	441.951	AM10ANS.jpg
413.682	0.514	Blank	Blank	28.399	n/a	4	12	4	n/a	104	n/a	3	n/a	n/a	n/a	n/a	442.448	n/a
414.213	0.497	happy	Picture	27.885	n/a	4	12	5	n/a	105	96	3	n/a	n/a	n/a	n/a	442.979	AF26ANS.jpg
414.71	0.514	Blank	Blank	27.371	n/a	4	12	5	n/a	105	n/a	3	n/a	n/a	n/a	n/a	443.476	n/a
415.241	0.497	happy	Picture	26.857	n/a	4	12	6	n/a	106	82	3	n/a	n/a	n/a	n/a	444.007	AF03ANS.jpg
415.738	0.514	Blank	Blank	26.343	n/a	4	12	6	n/a	106	n/a	3	n/a	n/a	n/a	n/a	444.504	n/a
416.268	0.497	happy	Picture	25.829	n/a	4	12	7	n/a	107	97	3	n/a	n/a	n/a	n/a	445.034	BF28ANS.jpg
416.766	0.514	Blank	Blank	25.316	n/a	4	12	7	n/a	107	n/a	3	n/a	n/a	n/a	n/a	445.532	n/a
417.296	0.497	happy	Picture	24.801	n/a	4	12	8	n/a	108	115	3	n/a	n/a	n/a	n/a	446.062	AM23ANS.jpg
417.794	0.514	Blank	Blank	24.288	n/a	4	12	8	n/a	108	n/a	3	n/a	n/a	n/a	n/a	446.56	n/a
418.324	0.497	happy	Picture	23.774	n/a	4	12	9	n/a	109	91	3	n/a	n/a	n/a	n/a	447.09	AF20ANS.jpg
418.822	0.514	Blank	Blank	23.26	n/a	4	12	9	n/a	109	n/a	3	n/a	n/a	n/a	n/a	447.588	n/a
419.352	0.497	happy	Picture	22.746	n/a	4	12	10	n/a	110	87	3	n/a	n/a	n/a	n/a	448.118	BF11ANS.jpg
419.849	0.514	Blank	Blank	22.232	n/a	4	12	10	n/a	110	n/a	3	n/a	n/a	n/a	n/a	448.615	n/a
420.38	0.497	happy	Picture	21.718	n/a	4	12	11	n/a	111	85	3	n/a	n/a	n/a	n/a	449.146	BF07ANS.jpg
420.877	0.514	Blank	Blank	21.204	n/a	4	12	11	n/a	111	n/a	3	n/a	n/a	n/a	n/a	449.643	n/a
421.408	0.497	happy	Picture	20.69	n/a	4	12	12	n/a	112	110	3	n/a	n/a	n/a	n/a	450.174	AM11ANS.jpg
421.905	0.514	Blank	Blank	20.176	n/a	4	12	12	n/a	112	n/a	3	n/a	n/a	n/a	n/a	450.671	n/a
422.436	0.497	happy	Picture	19.662	n/a	4	12	13	n/a	113	111	3	n/a	n/a	n/a	n/a	451.202	BM12ANS.jpg
422.933	0.514	Blank	Blank	19.148	n/a	4	12	13	n/a	113	n/a	3	n/a	n/a	n/a	n/a	451.699	n/a
423.464	0.497	happy	Picture	18.634	n/a	4	12	14	n/a	114	103	3	n/a	n/a	n/a	n/a	452.23	AM04ANS.jpg
423.961	0.514	Blank	Blank	18.12	n/a	4	12	14	n/a	114	n/a	3	n/a	n/a	n/a	n/a	452.727	n/a
424.492	0.497	happy	Picture	17.606	n/a	4	12	15	n/a	115	101	3	n/a	n/a	n/a	n/a	453.258	AM01ANS.jpg
424.989	0.514	Blank	Blank	17.092	n/a	4	12	15	n/a	115	n/a	3	n/a	n/a	n/a	n/a	453.755	n/a
425.519	0.497	happy	Picture	16.579	n/a	4	12	16	n/a	116	104	3	n/a	n/a	n/a	n/a	454.286	BM05ANS.jpg
426.017	0.514	Blank	Blank	16.065	n/a	4	12	16	n/a	116	n/a	3	n/a	n/a	n/a	n/a	454.783	n/a
426.547	0.497	happy	Picture	15.551	n/a	4	12	17	n/a	117	107	3	n/a	n/a	n/a	n/a	455.313	BM08ANS.jpg
427.045	0.514	Blank	Blank	15.037	n/a	4	12	17	n/a	117	n/a	3	n/a	n/a	n/a	n/a	455.811	n/a
427.575	0.497	happy	Picture	14.523	n/a	4	12	18	n/a	118	98	3	n/a	n/a	n/a	n/a	456.341	BF29ANS.jpg
428.073	0.514	Blank	Blank	14.009	n/a	4	12	18	n/a	118	n/a	3	n/a	n/a	n/a	n/a	456.839	n/a
428.603	0.497	happy	Picture	13.495	n/a	4	12	19	n/a	119	99	3	n/a	n/a	n/a	n/a	457.369	AF31ANS.jpg
429.1	0.514	Blank	Blank	12.981	n/a	4	12	19	n/a	119	n/a	3	n/a	n/a	n/a	n/a	457.866	n/a
429.631	0.497	happy	Picture	12.467	n/a	4	12	20	n/a	120	108	3	n/a	n/a	n/a	n/a	458.397	AM09ANS.jpg
430.128	0.514	Blank	Blank	11.953	n/a	4	12	20	n/a	120	n/a	3	n/a	n/a	n/a	n/a	458.894	n/a
430.659	10.014	ITI	Fixation+	1.923	n/a	4	n/a	n/a	n/a	n/a	n/a	n/a	n/a	n/a	n/a	n/a	459.425	n/a
442.595	n/a	ConfirmRating	Rate	n/a	1.906	4	n/a	n/a	0	n/a	n/a	n/a	2	Happy	52	51	471.361	n/a
446.711	n/a	ConfirmRating	Rate	n/a	4.111	4	n/a	n/a	1	n/a	n/a	n/a	3	Happy	34	48	475.477	n/a
