onset	duration	trial_type	event_type	time_until_response	response_time	trial_number	block_num_within_trial	image_seq_num_within_block	question_seq_num_within_block	image_seq_num	picture_number	condition	question_type	block_type	rating	rating_computed	onset_uncorrected	KDEV_imagefile
0.011	10.014	ITI	Fixation+	103.656	n/a	1	n/a	n/a	n/a	n/a	n/a	n/a	n/a	n/a	n/a	n/a	29.406	n/a
10.041	0.497	angry	Picture	103.142	n/a	1	1	1	n/a	1	108	3	n/a	n/a	n/a	n/a	39.436	AM09ANS.jpg
10.539	0.514	Blank	Blank	102.628	n/a	1	1	1	n/a	1	n/a	3	n/a	n/a	n/a	n/a	39.933	n/a
11.069	0.497	angry	Picture	102.114	n/a	1	1	2	n/a	2	99	3	n/a	n/a	n/a	n/a	40.464	AF31ANS.jpg
11.567	0.514	Blank	Blank	101.6	n/a	1	1	2	n/a	2	n/a	3	n/a	n/a	n/a	n/a	40.961	n/a
12.097	0.497	angry	Picture	101.086	n/a	1	1	3	n/a	3	98	3	n/a	n/a	n/a	n/a	41.492	BF29ANS.jpg
12.594	0.514	Blank	Blank	100.573	n/a	1	1	3	n/a	3	n/a	3	n/a	n/a	n/a	n/a	41.989	n/a
13.125	0.497	angry	Picture	100.059	n/a	1	1	4	n/a	4	107	3	n/a	n/a	n/a	n/a	42.52	BM08ANS.jpg
13.622	0.514	Blank	Blank	99.545	n/a	1	1	4	n/a	4	n/a	3	n/a	n/a	n/a	n/a	43.017	n/a
14.153	0.497	angry	Picture	99.031	n/a	1	1	5	n/a	5	104	3	n/a	n/a	n/a	n/a	43.547	BM05ANS.jpg
14.65	0.514	Blank	Blank	98.517	n/a	1	1	5	n/a	5	n/a	3	n/a	n/a	n/a	n/a	44.045	n/a
15.181	0.497	angry	Picture	98.003	n/a	1	1	6	n/a	6	101	3	n/a	n/a	n/a	n/a	44.575	AM01ANS.jpg
15.678	0.514	Blank	Blank	97.489	n/a	1	1	6	n/a	6	n/a	3	n/a	n/a	n/a	n/a	45.073	n/a
16.209	0.497	angry	Picture	96.975	n/a	1	1	7	n/a	7	103	3	n/a	n/a	n/a	n/a	45.603	AM04ANS.jpg
16.706	0.514	Blank	Blank	96.461	n/a	1	1	7	n/a	7	n/a	3	n/a	n/a	n/a	n/a	46.1	n/a
17.237	0.497	angry	Picture	95.947	n/a	1	1	8	n/a	8	111	3	n/a	n/a	n/a	n/a	46.631	BM12ANS.jpg
17.734	0.514	Blank	Blank	95.433	n/a	1	1	8	n/a	8	n/a	3	n/a	n/a	n/a	n/a	47.128	n/a
18.264	0.497	angry	Picture	94.919	n/a	1	1	9	n/a	9	110	3	n/a	n/a	n/a	n/a	47.659	AM11ANS.jpg
18.762	0.514	Blank	Blank	94.405	n/a	1	1	9	n/a	9	n/a	3	n/a	n/a	n/a	n/a	48.156	n/a
19.292	0.497	angry	Picture	93.891	n/a	1	1	10	n/a	10	85	3	n/a	n/a	n/a	n/a	48.687	BF07ANS.jpg
19.79	0.514	Blank	Blank	93.377	n/a	1	1	10	n/a	10	n/a	3	n/a	n/a	n/a	n/a	49.184	n/a
20.32	0.497	angry	Picture	92.863	n/a	1	1	11	n/a	11	87	3	n/a	n/a	n/a	n/a	49.715	BF11ANS.jpg
20.818	0.514	Blank	Blank	92.349	n/a	1	1	11	n/a	11	n/a	3	n/a	n/a	n/a	n/a	50.212	n/a
21.348	0.497	angry	Picture	91.835	n/a	1	1	12	n/a	12	91	3	n/a	n/a	n/a	n/a	50.743	AF20ANS.jpg
21.846	0.514	Blank	Blank	91.322	n/a	1	1	12	n/a	12	n/a	3	n/a	n/a	n/a	n/a	51.24	n/a
22.376	0.497	angry	Picture	90.808	n/a	1	1	13	n/a	13	115	3	n/a	n/a	n/a	n/a	51.77	AM23ANS.jpg
22.873	0.514	Blank	Blank	90.294	n/a	1	1	13	n/a	13	n/a	3	n/a	n/a	n/a	n/a	52.268	n/a
23.404	0.497	angry	Picture	89.78	n/a	1	1	14	n/a	14	97	3	n/a	n/a	n/a	n/a	52.798	BF28ANS.jpg
23.901	0.514	Blank	Blank	89.266	n/a	1	1	14	n/a	14	n/a	3	n/a	n/a	n/a	n/a	53.296	n/a
24.432	0.497	angry	Picture	88.752	n/a	1	1	15	n/a	15	82	3	n/a	n/a	n/a	n/a	53.826	AF03ANS.jpg
24.929	0.514	Blank	Blank	88.238	n/a	1	1	15	n/a	15	n/a	3	n/a	n/a	n/a	n/a	54.324	n/a
25.46	0.497	angry	Picture	87.724	n/a	1	1	16	n/a	16	96	3	n/a	n/a	n/a	n/a	54.854	AF26ANS.jpg
25.957	0.514	Blank	Blank	87.21	n/a	1	1	16	n/a	16	n/a	3	n/a	n/a	n/a	n/a	55.352	n/a
26.488	0.497	angry	Picture	86.696	n/a	1	1	17	n/a	17	109	3	n/a	n/a	n/a	n/a	55.882	AM10ANS.jpg
26.985	0.514	Blank	Blank	86.182	n/a	1	1	17	n/a	17	n/a	3	n/a	n/a	n/a	n/a	56.379	n/a
27.515	0.497	angry	Picture	85.668	n/a	1	1	18	n/a	18	114	3	n/a	n/a	n/a	n/a	56.91	AM22ANS.jpg
28.013	0.514	Blank	Blank	85.154	n/a	1	1	18	n/a	18	n/a	3	n/a	n/a	n/a	n/a	57.407	n/a
28.543	0.497	angry	Picture	84.64	n/a	1	1	19	n/a	19	120	3	n/a	n/a	n/a	n/a	57.938	AM35ANS.jpg
29.041	0.514	Blank	Blank	84.126	n/a	1	1	19	n/a	19	n/a	3	n/a	n/a	n/a	n/a	58.435	n/a
29.571	0.497	angry	Picture	83.612	n/a	1	1	20	n/a	20	81	3	n/a	n/a	n/a	n/a	58.966	AF01ANS.jpg
30.069	0.514	Blank	Blank	83.098	n/a	1	1	20	n/a	20	n/a	3	n/a	n/a	n/a	n/a	59.463	n/a
30.599	10.014	ITI	Fixation+	73.068	n/a	1	n/a	n/a	n/a	n/a	n/a	n/a	n/a	n/a	n/a	n/a	59.994	n/a
40.629	0.497	neutral	Picture	72.554	n/a	1	2	1	n/a	21	28	1	n/a	n/a	n/a	n/a	70.024	AM09NES.jpg
41.127	0.514	Blank	Blank	72.04	n/a	1	2	1	n/a	21	n/a	1	n/a	n/a	n/a	n/a	70.521	n/a
41.657	0.497	neutral	Picture	71.526	n/a	1	2	2	n/a	22	27	1	n/a	n/a	n/a	n/a	71.052	BM08NES.jpg
42.155	0.514	Blank	Blank	71.012	n/a	1	2	2	n/a	22	n/a	1	n/a	n/a	n/a	n/a	71.549	n/a
42.685	0.497	neutral	Picture	70.498	n/a	1	2	3	n/a	23	16	1	n/a	n/a	n/a	n/a	72.08	AF26NES.jpg
43.182	0.514	Blank	Blank	69.985	n/a	1	2	3	n/a	23	n/a	1	n/a	n/a	n/a	n/a	72.577	n/a
43.713	0.497	neutral	Picture	69.471	n/a	1	2	4	n/a	24	3	1	n/a	n/a	n/a	n/a	73.108	BF04NES.jpg
44.21	0.514	Blank	Blank	68.957	n/a	1	2	4	n/a	24	n/a	1	n/a	n/a	n/a	n/a	73.605	n/a
44.741	0.497	neutral	Picture	68.443	n/a	1	2	5	n/a	25	32	1	n/a	n/a	n/a	n/a	74.135	AM14NES.jpg
45.238	0.514	Blank	Blank	67.929	n/a	1	2	5	n/a	25	n/a	1	n/a	n/a	n/a	n/a	74.633	n/a
45.769	0.497	neutral	Picture	67.415	n/a	1	2	6	n/a	26	37	1	n/a	n/a	n/a	n/a	75.163	BM25NES.jpg
46.266	0.514	Blank	Blank	66.901	n/a	1	2	6	n/a	26	n/a	1	n/a	n/a	n/a	n/a	75.661	n/a
46.797	0.497	neutral	Picture	66.387	n/a	1	2	7	n/a	27	15	1	n/a	n/a	n/a	n/a	76.191	AF25NES.jpg
47.294	0.514	Blank	Blank	65.873	n/a	1	2	7	n/a	27	n/a	1	n/a	n/a	n/a	n/a	76.689	n/a
47.825	0.497	neutral	Picture	65.359	n/a	1	2	8	n/a	28	23	1	n/a	n/a	n/a	n/a	77.219	AM04NES.jpg
48.322	0.514	Blank	Blank	64.845	n/a	1	2	8	n/a	28	n/a	1	n/a	n/a	n/a	n/a	77.716	n/a
48.852	0.497	neutral	Picture	64.331	n/a	1	2	9	n/a	29	34	1	n/a	n/a	n/a	n/a	78.247	AM22NES.jpg
49.35	0.514	Blank	Blank	63.817	n/a	1	2	9	n/a	29	n/a	1	n/a	n/a	n/a	n/a	78.744	n/a
49.88	0.497	neutral	Picture	63.303	n/a	1	2	10	n/a	30	24	1	n/a	n/a	n/a	n/a	79.275	BM05NES.jpg
50.378	0.514	Blank	Blank	62.789	n/a	1	2	10	n/a	30	n/a	1	n/a	n/a	n/a	n/a	79.772	n/a
50.908	0.497	neutral	Picture	62.275	n/a	1	2	11	n/a	31	12	1	n/a	n/a	n/a	n/a	80.303	AF21NES.jpg
51.406	0.514	Blank	Blank	61.761	n/a	1	2	11	n/a	31	n/a	1	n/a	n/a	n/a	n/a	80.8	n/a
51.936	0.497	neutral	Picture	61.247	n/a	1	2	12	n/a	32	6	1	n/a	n/a	n/a	n/a	81.331	AF09NES.jpg
52.434	0.514	Blank	Blank	60.733	n/a	1	2	12	n/a	32	n/a	1	n/a	n/a	n/a	n/a	81.828	n/a
52.964	0.497	neutral	Picture	60.22	n/a	1	2	13	n/a	33	17	1	n/a	n/a	n/a	n/a	82.359	BF28NES.jpg
53.461	0.514	Blank	Blank	59.706	n/a	1	2	13	n/a	33	n/a	1	n/a	n/a	n/a	n/a	82.856	n/a
53.992	0.497	neutral	Picture	59.192	n/a	1	2	14	n/a	34	2	1	n/a	n/a	n/a	n/a	83.386	AF03NES.jpg
54.489	0.514	Blank	Blank	58.678	n/a	1	2	14	n/a	34	n/a	1	n/a	n/a	n/a	n/a	83.884	n/a
55.02	0.497	neutral	Picture	58.164	n/a	1	2	15	n/a	35	9	1	n/a	n/a	n/a	n/a	84.414	AF17NES.jpg
55.517	0.514	Blank	Blank	57.65	n/a	1	2	15	n/a	35	n/a	1	n/a	n/a	n/a	n/a	84.912	n/a
56.048	0.497	neutral	Picture	57.136	n/a	1	2	16	n/a	36	25	1	n/a	n/a	n/a	n/a	85.442	BM06NES.jpg
56.545	0.514	Blank	Blank	56.622	n/a	1	2	16	n/a	36	n/a	1	n/a	n/a	n/a	n/a	85.94	n/a
57.076	0.497	neutral	Picture	56.108	n/a	1	2	17	n/a	37	8	1	n/a	n/a	n/a	n/a	86.47	AF14NES.jpg
57.573	0.514	Blank	Blank	55.594	n/a	1	2	17	n/a	37	n/a	1	n/a	n/a	n/a	n/a	86.968	n/a
58.104	0.497	neutral	Picture	55.08	n/a	1	2	18	n/a	38	19	1	n/a	n/a	n/a	n/a	87.498	AF31NES.jpg
58.601	0.514	Blank	Blank	54.566	n/a	1	2	18	n/a	38	n/a	1	n/a	n/a	n/a	n/a	87.995	n/a
59.131	0.497	neutral	Picture	54.052	n/a	1	2	19	n/a	39	14	1	n/a	n/a	n/a	n/a	88.526	AF23NES.jpg
59.629	0.514	Blank	Blank	53.538	n/a	1	2	19	n/a	39	n/a	1	n/a	n/a	n/a	n/a	89.023	n/a
60.159	0.497	neutral	Picture	53.024	n/a	1	2	20	n/a	40	4	1	n/a	n/a	n/a	n/a	89.554	AF05NES.jpg
60.657	0.514	Blank	Blank	52.51	n/a	1	2	20	n/a	40	n/a	1	n/a	n/a	n/a	n/a	90.051	n/a
61.187	10.014	ITI	Fixation+	42.48	n/a	1	n/a	n/a	n/a	n/a	n/a	n/a	n/a	n/a	n/a	n/a	90.582	n/a
71.217	0.497	angry	Picture	41.966	n/a	1	3	1	n/a	41	84	3	n/a	n/a	n/a	n/a	100.612	AF05ANS.jpg
71.715	0.514	Blank	Blank	41.452	n/a	1	3	1	n/a	41	n/a	3	n/a	n/a	n/a	n/a	101.109	n/a
72.245	0.497	angry	Picture	40.938	n/a	1	3	2	n/a	42	92	3	n/a	n/a	n/a	n/a	101.64	AF21ANS.jpg
72.743	0.514	Blank	Blank	40.424	n/a	1	3	2	n/a	42	n/a	3	n/a	n/a	n/a	n/a	102.137	n/a
73.273	0.497	angry	Picture	39.91	n/a	1	3	3	n/a	43	86	3	n/a	n/a	n/a	n/a	102.668	AF09ANS.jpg
73.77	0.514	Blank	Blank	39.396	n/a	1	3	3	n/a	43	n/a	3	n/a	n/a	n/a	n/a	103.165	n/a
74.301	0.497	angry	Picture	38.883	n/a	1	3	4	n/a	44	93	3	n/a	n/a	n/a	n/a	103.696	BF22ANS.jpg
74.798	0.514	Blank	Blank	38.369	n/a	1	3	4	n/a	44	n/a	3	n/a	n/a	n/a	n/a	104.193	n/a
75.329	0.497	angry	Picture	37.855	n/a	1	3	5	n/a	45	88	3	n/a	n/a	n/a	n/a	104.723	AF14ANS.jpg
75.826	0.514	Blank	Blank	37.341	n/a	1	3	5	n/a	45	n/a	3	n/a	n/a	n/a	n/a	105.221	n/a
76.357	0.497	angry	Picture	36.827	n/a	1	3	6	n/a	46	113	3	n/a	n/a	n/a	n/a	105.751	AM21ANS.jpg
76.854	0.514	Blank	Blank	36.313	n/a	1	3	6	n/a	46	n/a	3	n/a	n/a	n/a	n/a	106.249	n/a
77.385	0.497	angry	Picture	35.799	n/a	1	3	7	n/a	47	95	3	n/a	n/a	n/a	n/a	106.779	AF25ANS.jpg
77.882	0.514	Blank	Blank	35.285	n/a	1	3	7	n/a	47	n/a	3	n/a	n/a	n/a	n/a	107.277	n/a
78.413	0.497	angry	Picture	34.771	n/a	1	3	8	n/a	48	102	3	n/a	n/a	n/a	n/a	107.807	BM03ANS.jpg
78.91	0.514	Blank	Blank	34.257	n/a	1	3	8	n/a	48	n/a	3	n/a	n/a	n/a	n/a	108.305	n/a
79.44	0.497	angry	Picture	33.743	n/a	1	3	9	n/a	49	112	3	n/a	n/a	n/a	n/a	108.835	AM14ANS.jpg
79.938	0.514	Blank	Blank	33.229	n/a	1	3	9	n/a	49	n/a	3	n/a	n/a	n/a	n/a	109.332	n/a
80.468	0.497	angry	Picture	32.715	n/a	1	3	10	n/a	50	83	3	n/a	n/a	n/a	n/a	109.863	BF04ANS.jpg
80.966	0.514	Blank	Blank	32.201	n/a	1	3	10	n/a	50	n/a	3	n/a	n/a	n/a	n/a	110.36	n/a
81.496	0.497	angry	Picture	31.687	n/a	1	3	11	n/a	51	90	3	n/a	n/a	n/a	n/a	110.891	AF18ANS.jpg
81.994	0.514	Blank	Blank	31.173	n/a	1	3	11	n/a	51	n/a	3	n/a	n/a	n/a	n/a	111.388	n/a
82.524	0.497	angry	Picture	30.659	n/a	1	3	12	n/a	52	117	3	n/a	n/a	n/a	n/a	111.919	BM25ANS.jpg
83.022	0.514	Blank	Blank	30.145	n/a	1	3	12	n/a	52	n/a	3	n/a	n/a	n/a	n/a	112.416	n/a
83.552	0.497	angry	Picture	29.632	n/a	1	3	13	n/a	53	94	3	n/a	n/a	n/a	n/a	112.947	AF23ANS.jpg
84.049	0.514	Blank	Blank	29.118	n/a	1	3	13	n/a	53	n/a	3	n/a	n/a	n/a	n/a	113.444	n/a
84.58	0.497	angry	Picture	28.604	n/a	1	3	14	n/a	54	106	3	n/a	n/a	n/a	n/a	113.975	AM07ANS.jpg
85.077	0.514	Blank	Blank	28.09	n/a	1	3	14	n/a	54	n/a	3	n/a	n/a	n/a	n/a	114.472	n/a
85.608	0.497	angry	Picture	27.576	n/a	1	3	15	n/a	55	105	3	n/a	n/a	n/a	n/a	115.002	BM06ANS.jpg
86.105	0.514	Blank	Blank	27.062	n/a	1	3	15	n/a	55	n/a	3	n/a	n/a	n/a	n/a	115.5	n/a
86.636	0.497	angry	Picture	26.548	n/a	1	3	16	n/a	56	116	3	n/a	n/a	n/a	n/a	116.03	BM24ANS.jpg
87.133	0.514	Blank	Blank	26.034	n/a	1	3	16	n/a	56	n/a	3	n/a	n/a	n/a	n/a	116.528	n/a
87.664	0.497	angry	Picture	25.52	n/a	1	3	17	n/a	57	89	3	n/a	n/a	n/a	n/a	117.058	AF17ANS.jpg
88.161	0.514	Blank	Blank	25.006	n/a	1	3	17	n/a	57	n/a	3	n/a	n/a	n/a	n/a	117.555	n/a
88.691	0.497	angry	Picture	24.492	n/a	1	3	18	n/a	58	118	3	n/a	n/a	n/a	n/a	118.086	BM26ANS.jpg
89.189	0.514	Blank	Blank	23.978	n/a	1	3	18	n/a	58	n/a	3	n/a	n/a	n/a	n/a	118.583	n/a
89.719	0.497	angry	Picture	23.464	n/a	1	3	19	n/a	59	100	3	n/a	n/a	n/a	n/a	119.114	AF32ANS.jpg
90.217	0.514	Blank	Blank	22.95	n/a	1	3	19	n/a	59	n/a	3	n/a	n/a	n/a	n/a	119.611	n/a
90.747	0.497	angry	Picture	22.436	n/a	1	3	20	n/a	60	119	3	n/a	n/a	n/a	n/a	120.142	BM28ANS.jpg
91.245	0.514	Blank	Blank	21.922	n/a	1	3	20	n/a	60	n/a	3	n/a	n/a	n/a	n/a	120.639	n/a
91.775	10.014	ITI	Fixation+	11.892	n/a	1	n/a	n/a	n/a	n/a	n/a	n/a	n/a	n/a	n/a	n/a	121.17	n/a
113.681	n/a	ConfirmRating	Rate	n/a	11.871	1	n/a	n/a	0	n/a	n/a	n/a	2	Angry	36	50	143.075	n/a
122.359	n/a	ConfirmRating	Rate	n/a	8.654	1	n/a	n/a	1	n/a	n/a	n/a	3	Angry	69	51	151.753	n/a
122.38	10.014	ITI	Fixation+	98.352	n/a	2	n/a	n/a	n/a	n/a	n/a	n/a	n/a	n/a	n/a	n/a	151.774	n/a
132.41	0.497	happy	Picture	97.838	n/a	2	4	1	n/a	61	79	2	n/a	n/a	n/a	n/a	161.804	BM28HAS.jpg
132.907	0.514	Blank	Blank	97.324	n/a	2	4	1	n/a	61	n/a	2	n/a	n/a	n/a	n/a	162.302	n/a
133.438	0.497	happy	Picture	96.81	n/a	2	4	2	n/a	62	61	2	n/a	n/a	n/a	n/a	162.832	AM01HAS.jpg
133.935	0.514	Blank	Blank	96.296	n/a	2	4	2	n/a	62	n/a	2	n/a	n/a	n/a	n/a	163.33	n/a
134.466	0.497	happy	Picture	95.782	n/a	2	4	3	n/a	63	57	2	n/a	n/a	n/a	n/a	163.86	BF28HAS.jpg
134.963	0.514	Blank	Blank	95.269	n/a	2	4	3	n/a	63	n/a	2	n/a	n/a	n/a	n/a	164.358	n/a
135.494	0.497	happy	Picture	94.755	n/a	2	4	4	n/a	64	77	2	n/a	n/a	n/a	n/a	164.888	BM25HAS.jpg
135.991	0.514	Blank	Blank	94.241	n/a	2	4	4	n/a	64	n/a	2	n/a	n/a	n/a	n/a	165.386	n/a
136.522	0.497	happy	Picture	93.727	n/a	2	4	5	n/a	65	47	2	n/a	n/a	n/a	n/a	165.916	BF11HAS.jpg
137.019	0.514	Blank	Blank	93.213	n/a	2	4	5	n/a	65	n/a	2	n/a	n/a	n/a	n/a	166.413	n/a
137.549	0.497	happy	Picture	92.699	n/a	2	4	6	n/a	66	50	2	n/a	n/a	n/a	n/a	166.944	AF18HAS.jpg
138.047	0.514	Blank	Blank	92.185	n/a	2	4	6	n/a	66	n/a	2	n/a	n/a	n/a	n/a	167.441	n/a
138.577	0.497	happy	Picture	91.671	n/a	2	4	7	n/a	67	78	2	n/a	n/a	n/a	n/a	167.972	BM26HAS.jpg
139.075	0.514	Blank	Blank	91.157	n/a	2	4	7	n/a	67	n/a	2	n/a	n/a	n/a	n/a	168.469	n/a
139.605	0.497	happy	Picture	90.643	n/a	2	4	8	n/a	68	45	2	n/a	n/a	n/a	n/a	169.0	BF07HAS.jpg
140.103	0.514	Blank	Blank	90.129	n/a	2	4	8	n/a	68	n/a	2	n/a	n/a	n/a	n/a	169.497	n/a
140.633	0.497	happy	Picture	89.615	n/a	2	4	9	n/a	69	56	2	n/a	n/a	n/a	n/a	170.028	AF26HAS.jpg
141.131	0.514	Blank	Blank	89.101	n/a	2	4	9	n/a	69	n/a	2	n/a	n/a	n/a	n/a	170.525	n/a
141.661	0.497	happy	Picture	88.587	n/a	2	4	10	n/a	70	65	2	n/a	n/a	n/a	n/a	171.055	BM06HAS.jpg
142.158	0.514	Blank	Blank	88.073	n/a	2	4	10	n/a	70	n/a	2	n/a	n/a	n/a	n/a	171.553	n/a
142.689	0.497	happy	Picture	87.559	n/a	2	4	11	n/a	71	73	2	n/a	n/a	n/a	n/a	172.083	AM21HAS.jpg
143.186	0.514	Blank	Blank	87.045	n/a	2	4	11	n/a	71	n/a	2	n/a	n/a	n/a	n/a	172.581	n/a
143.717	0.497	happy	Picture	86.531	n/a	2	4	12	n/a	72	41	2	n/a	n/a	n/a	n/a	173.111	AF01HAS.jpg
144.214	0.514	Blank	Blank	86.018	n/a	2	4	12	n/a	72	n/a	2	n/a	n/a	n/a	n/a	173.609	n/a
144.745	0.497	happy	Picture	85.504	n/a	2	4	13	n/a	73	59	2	n/a	n/a	n/a	n/a	174.139	AF31HAS.jpg
145.242	0.514	Blank	Blank	84.99	n/a	2	4	13	n/a	73	n/a	2	n/a	n/a	n/a	n/a	174.637	n/a
145.773	0.497	happy	Picture	84.476	n/a	2	4	14	n/a	74	64	2	n/a	n/a	n/a	n/a	175.167	BM05HAS.jpg
146.27	0.514	Blank	Blank	83.962	n/a	2	4	14	n/a	74	n/a	2	n/a	n/a	n/a	n/a	175.665	n/a
146.8	0.497	happy	Picture	83.448	n/a	2	4	15	n/a	75	68	2	n/a	n/a	n/a	n/a	176.195	AM09HAS.jpg
147.298	0.514	Blank	Blank	82.934	n/a	2	4	15	n/a	75	n/a	2	n/a	n/a	n/a	n/a	176.692	n/a
147.828	0.497	happy	Picture	82.42	n/a	2	4	16	n/a	76	54	2	n/a	n/a	n/a	n/a	177.223	AF23HAS.jpg
148.326	0.514	Blank	Blank	81.906	n/a	2	4	16	n/a	76	n/a	2	n/a	n/a	n/a	n/a	177.72	n/a
148.856	0.497	happy	Picture	81.392	n/a	2	4	17	n/a	77	53	2	n/a	n/a	n/a	n/a	178.251	BF22HAS.jpg
149.354	0.514	Blank	Blank	80.878	n/a	2	4	17	n/a	77	n/a	2	n/a	n/a	n/a	n/a	178.748	n/a
149.884	0.497	happy	Picture	80.364	n/a	2	4	18	n/a	78	44	2	n/a	n/a	n/a	n/a	179.279	AF05HAS.jpg
150.382	0.514	Blank	Blank	79.85	n/a	2	4	18	n/a	78	n/a	2	n/a	n/a	n/a	n/a	179.776	n/a
150.912	0.497	happy	Picture	79.336	n/a	2	4	19	n/a	79	52	2	n/a	n/a	n/a	n/a	180.306	AF21HAS.jpg
151.409	0.514	Blank	Blank	78.822	n/a	2	4	19	n/a	79	n/a	2	n/a	n/a	n/a	n/a	180.804	n/a
151.94	0.497	happy	Picture	78.308	n/a	2	4	20	n/a	80	62	2	n/a	n/a	n/a	n/a	181.334	BM03HAS.jpg
152.437	0.514	Blank	Blank	77.794	n/a	2	4	20	n/a	80	n/a	2	n/a	n/a	n/a	n/a	181.832	n/a
152.968	10.014	ITI	Fixation+	67.764	n/a	2	n/a	n/a	n/a	n/a	n/a	n/a	n/a	n/a	n/a	n/a	182.362	n/a
162.998	0.497	neutral	Picture	67.25	n/a	2	5	1	n/a	81	23	1	n/a	n/a	n/a	n/a	192.393	AM04NES.jpg
163.495	0.514	Blank	Blank	66.736	n/a	2	5	1	n/a	81	n/a	1	n/a	n/a	n/a	n/a	192.89	n/a
164.026	0.497	neutral	Picture	66.222	n/a	2	5	2	n/a	82	29	1	n/a	n/a	n/a	n/a	193.42	AM10NES.jpg
164.523	0.514	Blank	Blank	65.708	n/a	2	5	2	n/a	82	n/a	1	n/a	n/a	n/a	n/a	193.918	n/a
165.054	0.497	neutral	Picture	65.195	n/a	2	5	3	n/a	83	24	1	n/a	n/a	n/a	n/a	194.448	BM05NES.jpg
165.551	0.514	Blank	Blank	64.681	n/a	2	5	3	n/a	83	n/a	1	n/a	n/a	n/a	n/a	194.946	n/a
166.082	0.497	neutral	Picture	64.167	n/a	2	5	4	n/a	84	12	1	n/a	n/a	n/a	n/a	195.476	AF21NES.jpg
166.579	0.514	Blank	Blank	63.653	n/a	2	5	4	n/a	84	n/a	1	n/a	n/a	n/a	n/a	195.974	n/a
167.11	0.497	neutral	Picture	63.139	n/a	2	5	5	n/a	85	13	1	n/a	n/a	n/a	n/a	196.504	BF22NES.jpg
167.607	0.514	Blank	Blank	62.625	n/a	2	5	5	n/a	85	n/a	1	n/a	n/a	n/a	n/a	197.001	n/a
168.138	0.497	neutral	Picture	62.111	n/a	2	5	6	n/a	86	17	1	n/a	n/a	n/a	n/a	197.532	BF28NES.jpg
168.635	0.514	Blank	Blank	61.597	n/a	2	5	6	n/a	86	n/a	1	n/a	n/a	n/a	n/a	198.029	n/a
169.165	0.497	neutral	Picture	61.083	n/a	2	5	7	n/a	87	4	1	n/a	n/a	n/a	n/a	198.56	AF05NES.jpg
169.663	0.514	Blank	Blank	60.569	n/a	2	5	7	n/a	87	n/a	1	n/a	n/a	n/a	n/a	199.057	n/a
170.193	0.497	neutral	Picture	60.055	n/a	2	5	8	n/a	88	11	1	n/a	n/a	n/a	n/a	199.588	AF20NES.jpg
170.691	0.514	Blank	Blank	59.541	n/a	2	5	8	n/a	88	n/a	1	n/a	n/a	n/a	n/a	200.085	n/a
171.221	0.497	neutral	Picture	59.027	n/a	2	5	9	n/a	89	22	1	n/a	n/a	n/a	n/a	200.616	BM03NES.jpg
171.719	0.514	Blank	Blank	58.513	n/a	2	5	9	n/a	89	n/a	1	n/a	n/a	n/a	n/a	201.113	n/a
172.249	0.497	neutral	Picture	57.999	n/a	2	5	10	n/a	90	15	1	n/a	n/a	n/a	n/a	201.644	AF25NES.jpg
172.746	0.514	Blank	Blank	57.485	n/a	2	5	10	n/a	90	n/a	1	n/a	n/a	n/a	n/a	202.141	n/a
173.277	0.497	neutral	Picture	56.971	n/a	2	5	11	n/a	91	19	1	n/a	n/a	n/a	n/a	202.672	AF31NES.jpg
173.774	0.514	Blank	Blank	56.457	n/a	2	5	11	n/a	91	n/a	1	n/a	n/a	n/a	n/a	203.169	n/a
174.305	0.497	neutral	Picture	55.944	n/a	2	5	12	n/a	92	9	1	n/a	n/a	n/a	n/a	203.699	AF17NES.jpg
174.802	0.514	Blank	Blank	55.429	n/a	2	5	12	n/a	92	n/a	1	n/a	n/a	n/a	n/a	204.197	n/a
175.333	0.497	neutral	Picture	54.916	n/a	2	5	13	n/a	93	14	1	n/a	n/a	n/a	n/a	204.727	AF23NES.jpg
175.83	0.514	Blank	Blank	54.402	n/a	2	5	13	n/a	93	n/a	1	n/a	n/a	n/a	n/a	205.225	n/a
176.361	0.497	neutral	Picture	53.888	n/a	2	5	14	n/a	94	36	1	n/a	n/a	n/a	n/a	205.755	BM24NES.jpg
176.858	0.514	Blank	Blank	53.374	n/a	2	5	14	n/a	94	n/a	1	n/a	n/a	n/a	n/a	206.252	n/a
177.388	0.497	neutral	Picture	52.86	n/a	2	5	15	n/a	95	34	1	n/a	n/a	n/a	n/a	206.783	AM22NES.jpg
177.886	0.514	Blank	Blank	52.346	n/a	2	5	15	n/a	95	n/a	1	n/a	n/a	n/a	n/a	207.28	n/a
178.416	0.497	neutral	Picture	51.832	n/a	2	5	16	n/a	96	10	1	n/a	n/a	n/a	n/a	207.811	AF18NES.jpg
178.914	0.514	Blank	Blank	51.318	n/a	2	5	16	n/a	96	n/a	1	n/a	n/a	n/a	n/a	208.308	n/a
179.444	0.497	neutral	Picture	50.804	n/a	2	5	17	n/a	97	5	1	n/a	n/a	n/a	n/a	208.839	BF07NES.jpg
179.942	0.514	Blank	Blank	50.29	n/a	2	5	17	n/a	97	n/a	1	n/a	n/a	n/a	n/a	209.336	n/a
180.472	0.497	neutral	Picture	49.776	n/a	2	5	18	n/a	98	25	1	n/a	n/a	n/a	n/a	209.867	BM06NES.jpg
180.97	0.514	Blank	Blank	49.262	n/a	2	5	18	n/a	98	n/a	1	n/a	n/a	n/a	n/a	210.364	n/a
181.5	0.497	neutral	Picture	48.748	n/a	2	5	19	n/a	99	39	1	n/a	n/a	n/a	n/a	210.895	AM28NES.jpg
181.997	0.514	Blank	Blank	48.234	n/a	2	5	19	n/a	99	n/a	1	n/a	n/a	n/a	n/a	211.392	n/a
182.528	0.497	neutral	Picture	47.72	n/a	2	5	20	n/a	100	33	1	n/a	n/a	n/a	n/a	211.923	AM21NES.jpg
183.025	0.514	Blank	Blank	47.206	n/a	2	5	20	n/a	100	n/a	1	n/a	n/a	n/a	n/a	212.42	n/a
183.556	10.014	ITI	Fixation+	37.176	n/a	2	n/a	n/a	n/a	n/a	n/a	n/a	n/a	n/a	n/a	n/a	212.95	n/a
193.586	0.497	happy	Picture	36.662	n/a	2	6	1	n/a	101	74	2	n/a	n/a	n/a	n/a	222.981	AM22HAS.jpg
194.083	0.514	Blank	Blank	36.148	n/a	2	6	1	n/a	101	n/a	2	n/a	n/a	n/a	n/a	223.478	n/a
194.614	0.497	happy	Picture	35.634	n/a	2	6	2	n/a	102	76	2	n/a	n/a	n/a	n/a	224.008	BM24HAS.jpg
195.111	0.514	Blank	Blank	35.12	n/a	2	6	2	n/a	102	n/a	2	n/a	n/a	n/a	n/a	224.506	n/a
195.642	0.497	happy	Picture	34.607	n/a	2	6	3	n/a	103	80	2	n/a	n/a	n/a	n/a	225.036	BM35HAS.jpg
196.139	0.514	Blank	Blank	34.092	n/a	2	6	3	n/a	103	n/a	2	n/a	n/a	n/a	n/a	225.534	n/a
196.67	0.497	happy	Picture	33.579	n/a	2	6	4	n/a	104	75	2	n/a	n/a	n/a	n/a	226.064	AM23HAS.jpg
197.167	0.514	Blank	Blank	33.065	n/a	2	6	4	n/a	104	n/a	2	n/a	n/a	n/a	n/a	226.562	n/a
197.698	0.497	happy	Picture	32.551	n/a	2	6	5	n/a	105	49	2	n/a	n/a	n/a	n/a	227.092	AF17HAS.jpg
198.195	0.514	Blank	Blank	32.037	n/a	2	6	5	n/a	105	n/a	2	n/a	n/a	n/a	n/a	227.589	n/a
198.726	0.497	happy	Picture	31.523	n/a	2	6	6	n/a	106	43	2	n/a	n/a	n/a	n/a	228.12	BF04HAS.jpg
199.223	0.514	Blank	Blank	31.009	n/a	2	6	6	n/a	106	n/a	2	n/a	n/a	n/a	n/a	228.617	n/a
199.753	0.497	happy	Picture	30.495	n/a	2	6	7	n/a	107	70	2	n/a	n/a	n/a	n/a	229.148	BM11HAS.jpg
200.251	0.514	Blank	Blank	29.981	n/a	2	6	7	n/a	107	n/a	2	n/a	n/a	n/a	n/a	229.645	n/a
200.781	0.497	happy	Picture	29.467	n/a	2	6	8	n/a	108	66	2	n/a	n/a	n/a	n/a	230.176	BM07HAS.jpg
201.279	0.514	Blank	Blank	28.953	n/a	2	6	8	n/a	108	n/a	2	n/a	n/a	n/a	n/a	230.673	n/a
201.809	0.497	happy	Picture	28.439	n/a	2	6	9	n/a	109	48	2	n/a	n/a	n/a	n/a	231.204	AF14HAS.jpg
202.307	0.514	Blank	Blank	27.925	n/a	2	6	9	n/a	109	n/a	2	n/a	n/a	n/a	n/a	231.701	n/a
202.837	0.497	happy	Picture	27.411	n/a	2	6	10	n/a	110	58	2	n/a	n/a	n/a	n/a	232.232	BF29HAS.jpg
203.335	0.514	Blank	Blank	26.897	n/a	2	6	10	n/a	110	n/a	2	n/a	n/a	n/a	n/a	232.729	n/a
203.865	0.497	happy	Picture	26.383	n/a	2	6	11	n/a	111	63	2	n/a	n/a	n/a	n/a	233.26	AM04HAS.jpg
204.362	0.514	Blank	Blank	25.869	n/a	2	6	11	n/a	111	n/a	2	n/a	n/a	n/a	n/a	233.757	n/a
204.893	0.497	happy	Picture	25.356	n/a	2	6	12	n/a	112	72	2	n/a	n/a	n/a	n/a	234.287	AM14HAS.jpg
205.39	0.514	Blank	Blank	24.841	n/a	2	6	12	n/a	112	n/a	2	n/a	n/a	n/a	n/a	234.785	n/a
205.921	0.497	happy	Picture	24.328	n/a	2	6	13	n/a	113	55	2	n/a	n/a	n/a	n/a	235.315	AF25HAS.jpg
206.418	0.514	Blank	Blank	23.814	n/a	2	6	13	n/a	113	n/a	2	n/a	n/a	n/a	n/a	235.813	n/a
206.949	0.497	happy	Picture	23.3	n/a	2	6	14	n/a	114	42	2	n/a	n/a	n/a	n/a	236.343	AF03HAS.jpg
207.446	0.514	Blank	Blank	22.786	n/a	2	6	14	n/a	114	n/a	2	n/a	n/a	n/a	n/a	236.84	n/a
207.977	0.497	happy	Picture	22.272	n/a	2	6	15	n/a	115	60	2	n/a	n/a	n/a	n/a	237.371	AF32HAS.jpg
208.474	0.514	Blank	Blank	21.758	n/a	2	6	15	n/a	115	n/a	2	n/a	n/a	n/a	n/a	237.868	n/a
209.004	0.497	happy	Picture	21.244	n/a	2	6	16	n/a	116	67	2	n/a	n/a	n/a	n/a	238.399	BM08HAS.jpg
209.502	0.514	Blank	Blank	20.73	n/a	2	6	16	n/a	116	n/a	2	n/a	n/a	n/a	n/a	238.896	n/a
210.032	0.497	happy	Picture	20.216	n/a	2	6	17	n/a	117	51	2	n/a	n/a	n/a	n/a	239.427	AF20HAS.jpg
210.53	0.514	Blank	Blank	19.702	n/a	2	6	17	n/a	117	n/a	2	n/a	n/a	n/a	n/a	239.924	n/a
211.06	0.497	happy	Picture	19.188	n/a	2	6	18	n/a	118	71	2	n/a	n/a	n/a	n/a	240.455	BM12HAS.jpg
211.558	0.514	Blank	Blank	18.674	n/a	2	6	18	n/a	118	n/a	2	n/a	n/a	n/a	n/a	240.952	n/a
212.088	0.497	happy	Picture	18.16	n/a	2	6	19	n/a	119	69	2	n/a	n/a	n/a	n/a	241.483	AM10HAS.jpg
212.585	0.514	Blank	Blank	17.646	n/a	2	6	19	n/a	119	n/a	2	n/a	n/a	n/a	n/a	241.98	n/a
213.116	0.497	happy	Picture	17.132	n/a	2	6	20	n/a	120	46	2	n/a	n/a	n/a	n/a	242.511	AF09HAS.jpg
213.613	0.514	Blank	Blank	16.618	n/a	2	6	20	n/a	120	n/a	2	n/a	n/a	n/a	n/a	243.008	n/a
214.144	10.014	ITI	Fixation+	6.588	n/a	2	n/a	n/a	n/a	n/a	n/a	n/a	n/a	n/a	n/a	n/a	243.538	n/a
230.746	n/a	ConfirmRating	Rate	n/a	6.582	2	n/a	n/a	0	n/a	n/a	n/a	2	Happy	97	53	260.14	n/a
237.875	n/a	ConfirmRating	Rate	n/a	7.112	2	n/a	n/a	1	n/a	n/a	n/a	3	Happy	5	47	267.269	n/a
237.901	15.004	Rest	Picture	n/a	n/a	n/a	n/a	n/a	n/a	n/a	n/a	n/a	0	n/a	0	0	267.296	n/a
252.922	10.014	ITI	Fixation+	103.21	n/a	3	n/a	n/a	n/a	n/a	n/a	n/a	n/a	n/a	n/a	n/a	282.316	n/a
262.952	0.497	angry	Picture	102.696	n/a	3	7	1	n/a	1	108	3	n/a	n/a	n/a	n/a	292.347	AM09ANS.jpg
263.45	0.514	Blank	Blank	102.182	n/a	3	7	1	n/a	1	n/a	3	n/a	n/a	n/a	n/a	292.844	n/a
263.98	0.497	angry	Picture	101.668	n/a	3	7	2	n/a	2	99	3	n/a	n/a	n/a	n/a	293.375	AF31ANS.jpg
264.477	0.514	Blank	Blank	101.154	n/a	3	7	2	n/a	2	n/a	3	n/a	n/a	n/a	n/a	293.872	n/a
265.008	0.497	angry	Picture	100.64	n/a	3	7	3	n/a	3	98	3	n/a	n/a	n/a	n/a	294.402	BF29ANS.jpg
265.505	0.514	Blank	Blank	100.126	n/a	3	7	3	n/a	3	n/a	3	n/a	n/a	n/a	n/a	294.9	n/a
266.036	0.497	angry	Picture	99.612	n/a	3	7	4	n/a	4	107	3	n/a	n/a	n/a	n/a	295.43	BM08ANS.jpg
266.533	0.514	Blank	Blank	99.098	n/a	3	7	4	n/a	4	n/a	3	n/a	n/a	n/a	n/a	295.928	n/a
267.064	0.497	angry	Picture	98.584	n/a	3	7	5	n/a	5	104	3	n/a	n/a	n/a	n/a	296.458	BM05ANS.jpg
267.561	0.514	Blank	Blank	98.07	n/a	3	7	5	n/a	5	n/a	3	n/a	n/a	n/a	n/a	296.955	n/a
268.092	0.497	angry	Picture	97.556	n/a	3	7	6	n/a	6	101	3	n/a	n/a	n/a	n/a	297.486	AM01ANS.jpg
268.589	0.514	Blank	Blank	97.042	n/a	3	7	6	n/a	6	n/a	3	n/a	n/a	n/a	n/a	297.983	n/a
269.12	0.497	angry	Picture	96.529	n/a	3	7	7	n/a	7	103	3	n/a	n/a	n/a	n/a	298.514	AM04ANS.jpg
269.617	0.514	Blank	Blank	96.014	n/a	3	7	7	n/a	7	n/a	3	n/a	n/a	n/a	n/a	299.011	n/a
270.147	0.497	angry	Picture	95.501	n/a	3	7	8	n/a	8	111	3	n/a	n/a	n/a	n/a	299.542	BM12ANS.jpg
270.645	0.514	Blank	Blank	94.987	n/a	3	7	8	n/a	8	n/a	3	n/a	n/a	n/a	n/a	300.039	n/a
271.175	0.497	angry	Picture	94.473	n/a	3	7	9	n/a	9	110	3	n/a	n/a	n/a	n/a	300.57	AM11ANS.jpg
271.673	0.514	Blank	Blank	93.959	n/a	3	7	9	n/a	9	n/a	3	n/a	n/a	n/a	n/a	301.067	n/a
272.203	0.497	angry	Picture	93.445	n/a	3	7	10	n/a	10	85	3	n/a	n/a	n/a	n/a	301.598	BF07ANS.jpg
272.701	0.514	Blank	Blank	92.931	n/a	3	7	10	n/a	10	n/a	3	n/a	n/a	n/a	n/a	302.095	n/a
273.231	0.497	angry	Picture	92.417	n/a	3	7	11	n/a	11	87	3	n/a	n/a	n/a	n/a	302.625	BF11ANS.jpg
273.728	0.514	Blank	Blank	91.903	n/a	3	7	11	n/a	11	n/a	3	n/a	n/a	n/a	n/a	303.123	n/a
274.259	0.497	angry	Picture	91.389	n/a	3	7	12	n/a	12	91	3	n/a	n/a	n/a	n/a	303.653	AF20ANS.jpg
274.756	0.514	Blank	Blank	90.875	n/a	3	7	12	n/a	12	n/a	3	n/a	n/a	n/a	n/a	304.151	n/a
275.287	0.497	angry	Picture	90.361	n/a	3	7	13	n/a	13	115	3	n/a	n/a	n/a	n/a	304.681	AM23ANS.jpg
275.784	0.514	Blank	Blank	89.847	n/a	3	7	13	n/a	13	n/a	3	n/a	n/a	n/a	n/a	305.179	n/a
276.315	0.497	angry	Picture	89.333	n/a	3	7	14	n/a	14	97	3	n/a	n/a	n/a	n/a	305.709	BF28ANS.jpg
276.812	0.514	Blank	Blank	88.819	n/a	3	7	14	n/a	14	n/a	3	n/a	n/a	n/a	n/a	306.207	n/a
277.343	0.497	angry	Picture	88.305	n/a	3	7	15	n/a	15	82	3	n/a	n/a	n/a	n/a	306.737	AF03ANS.jpg
277.84	0.514	Blank	Blank	87.791	n/a	3	7	15	n/a	15	n/a	3	n/a	n/a	n/a	n/a	307.234	n/a
278.37	0.497	angry	Picture	87.278	n/a	3	7	16	n/a	16	96	3	n/a	n/a	n/a	n/a	307.765	AF26ANS.jpg
278.868	0.514	Blank	Blank	86.764	n/a	3	7	16	n/a	16	n/a	3	n/a	n/a	n/a	n/a	308.262	n/a
279.398	0.497	angry	Picture	86.25	n/a	3	7	17	n/a	17	109	3	n/a	n/a	n/a	n/a	308.793	AM10ANS.jpg
279.896	0.514	Blank	Blank	85.736	n/a	3	7	17	n/a	17	n/a	3	n/a	n/a	n/a	n/a	309.29	n/a
280.426	0.497	angry	Picture	85.222	n/a	3	7	18	n/a	18	114	3	n/a	n/a	n/a	n/a	309.821	AM22ANS.jpg
280.924	0.514	Blank	Blank	84.708	n/a	3	7	18	n/a	18	n/a	3	n/a	n/a	n/a	n/a	310.318	n/a
281.454	0.497	angry	Picture	84.194	n/a	3	7	19	n/a	19	120	3	n/a	n/a	n/a	n/a	310.849	AM35ANS.jpg
281.952	0.514	Blank	Blank	83.68	n/a	3	7	19	n/a	19	n/a	3	n/a	n/a	n/a	n/a	311.346	n/a
282.482	0.497	angry	Picture	83.166	n/a	3	7	20	n/a	20	81	3	n/a	n/a	n/a	n/a	311.877	AF01ANS.jpg
282.979	0.514	Blank	Blank	82.652	n/a	3	7	20	n/a	20	n/a	3	n/a	n/a	n/a	n/a	312.374	n/a
283.51	10.014	ITI	Fixation+	72.622	n/a	3	n/a	n/a	n/a	n/a	n/a	n/a	n/a	n/a	n/a	n/a	312.904	n/a
293.54	0.497	neutral	Picture	72.108	n/a	3	8	1	n/a	21	28	1	n/a	n/a	n/a	n/a	322.935	AM09NES.jpg
294.038	0.514	Blank	Blank	71.594	n/a	3	8	1	n/a	21	n/a	1	n/a	n/a	n/a	n/a	323.432	n/a
294.568	0.497	neutral	Picture	71.08	n/a	3	8	2	n/a	22	27	1	n/a	n/a	n/a	n/a	323.962	BM08NES.jpg
295.065	0.514	Blank	Blank	70.566	n/a	3	8	2	n/a	22	n/a	1	n/a	n/a	n/a	n/a	324.46	n/a
295.596	0.497	neutral	Picture	70.052	n/a	3	8	3	n/a	23	16	1	n/a	n/a	n/a	n/a	324.99	AF26NES.jpg
296.093	0.514	Blank	Blank	69.538	n/a	3	8	3	n/a	23	n/a	1	n/a	n/a	n/a	n/a	325.488	n/a
296.624	0.497	neutral	Picture	69.024	n/a	3	8	4	n/a	24	3	1	n/a	n/a	n/a	n/a	326.018	BF04NES.jpg
297.121	0.514	Blank	Blank	68.51	n/a	3	8	4	n/a	24	n/a	1	n/a	n/a	n/a	n/a	326.516	n/a
297.652	0.497	neutral	Picture	67.996	n/a	3	8	5	n/a	25	32	1	n/a	n/a	n/a	n/a	327.046	AM14NES.jpg
298.149	0.514	Blank	Blank	67.482	n/a	3	8	5	n/a	25	n/a	1	n/a	n/a	n/a	n/a	327.544	n/a
298.68	0.497	neutral	Picture	66.968	n/a	3	8	6	n/a	26	37	1	n/a	n/a	n/a	n/a	328.074	BM25NES.jpg
299.177	0.514	Blank	Blank	66.454	n/a	3	8	6	n/a	26	n/a	1	n/a	n/a	n/a	n/a	328.572	n/a
299.707	0.497	neutral	Picture	65.94	n/a	3	8	7	n/a	27	15	1	n/a	n/a	n/a	n/a	329.102	AF25NES.jpg
300.205	0.514	Blank	Blank	65.427	n/a	3	8	7	n/a	27	n/a	1	n/a	n/a	n/a	n/a	329.599	n/a
300.735	0.497	neutral	Picture	64.913	n/a	3	8	8	n/a	28	23	1	n/a	n/a	n/a	n/a	330.13	AM04NES.jpg
301.233	0.514	Blank	Blank	64.399	n/a	3	8	8	n/a	28	n/a	1	n/a	n/a	n/a	n/a	330.627	n/a
301.763	0.497	neutral	Picture	63.885	n/a	3	8	9	n/a	29	34	1	n/a	n/a	n/a	n/a	331.158	AM22NES.jpg
302.261	0.514	Blank	Blank	63.371	n/a	3	8	9	n/a	29	n/a	1	n/a	n/a	n/a	n/a	331.655	n/a
302.791	0.497	neutral	Picture	62.857	n/a	3	8	10	n/a	30	24	1	n/a	n/a	n/a	n/a	332.186	BM05NES.jpg
303.288	0.514	Blank	Blank	62.343	n/a	3	8	10	n/a	30	n/a	1	n/a	n/a	n/a	n/a	332.683	n/a
303.819	0.497	neutral	Picture	61.829	n/a	3	8	11	n/a	31	12	1	n/a	n/a	n/a	n/a	333.214	AF21NES.jpg
304.316	0.514	Blank	Blank	61.315	n/a	3	8	11	n/a	31	n/a	1	n/a	n/a	n/a	n/a	333.711	n/a
304.847	0.497	neutral	Picture	60.801	n/a	3	8	12	n/a	32	6	1	n/a	n/a	n/a	n/a	334.241	AF09NES.jpg
305.344	0.514	Blank	Blank	60.287	n/a	3	8	12	n/a	32	n/a	1	n/a	n/a	n/a	n/a	334.739	n/a
305.875	0.497	neutral	Picture	59.773	n/a	3	8	13	n/a	33	17	1	n/a	n/a	n/a	n/a	335.269	BF28NES.jpg
306.372	0.514	Blank	Blank	59.259	n/a	3	8	13	n/a	33	n/a	1	n/a	n/a	n/a	n/a	335.767	n/a
306.903	0.497	neutral	Picture	58.745	n/a	3	8	14	n/a	34	2	1	n/a	n/a	n/a	n/a	336.297	AF03NES.jpg
307.4	0.514	Blank	Blank	58.231	n/a	3	8	14	n/a	34	n/a	1	n/a	n/a	n/a	n/a	336.795	n/a
307.931	0.497	neutral	Picture	57.717	n/a	3	8	15	n/a	35	9	1	n/a	n/a	n/a	n/a	337.325	AF17NES.jpg
308.428	0.514	Blank	Blank	57.203	n/a	3	8	15	n/a	35	n/a	1	n/a	n/a	n/a	n/a	337.822	n/a
308.959	0.497	neutral	Picture	56.689	n/a	3	8	16	n/a	36	25	1	n/a	n/a	n/a	n/a	338.353	BM06NES.jpg
309.456	0.514	Blank	Blank	56.176	n/a	3	8	16	n/a	36	n/a	1	n/a	n/a	n/a	n/a	338.85	n/a
309.986	0.497	neutral	Picture	55.661	n/a	3	8	17	n/a	37	8	1	n/a	n/a	n/a	n/a	339.381	AF14NES.jpg
310.484	0.514	Blank	Blank	55.148	n/a	3	8	17	n/a	37	n/a	1	n/a	n/a	n/a	n/a	339.878	n/a
311.014	0.497	neutral	Picture	54.634	n/a	3	8	18	n/a	38	19	1	n/a	n/a	n/a	n/a	340.409	AF31NES.jpg
311.512	0.514	Blank	Blank	54.12	n/a	3	8	18	n/a	38	n/a	1	n/a	n/a	n/a	n/a	340.906	n/a
312.042	0.497	neutral	Picture	53.606	n/a	3	8	19	n/a	39	14	1	n/a	n/a	n/a	n/a	341.437	AF23NES.jpg
312.54	0.514	Blank	Blank	53.092	n/a	3	8	19	n/a	39	n/a	1	n/a	n/a	n/a	n/a	341.934	n/a
313.07	0.497	neutral	Picture	52.578	n/a	3	8	20	n/a	40	4	1	n/a	n/a	n/a	n/a	342.465	AF05NES.jpg
313.567	0.514	Blank	Blank	52.064	n/a	3	8	20	n/a	40	n/a	1	n/a	n/a	n/a	n/a	342.962	n/a
314.098	10.014	ITI	Fixation+	42.034	n/a	3	n/a	n/a	n/a	n/a	n/a	n/a	n/a	n/a	n/a	n/a	343.493	n/a
324.128	0.497	angry	Picture	41.52	n/a	3	9	1	n/a	41	84	3	n/a	n/a	n/a	n/a	353.523	AF05ANS.jpg
324.625	0.514	Blank	Blank	41.006	n/a	3	9	1	n/a	41	n/a	3	n/a	n/a	n/a	n/a	354.02	n/a
325.156	0.497	angry	Picture	40.492	n/a	3	9	2	n/a	42	92	3	n/a	n/a	n/a	n/a	354.551	AF21ANS.jpg
325.653	0.514	Blank	Blank	39.978	n/a	3	9	2	n/a	42	n/a	3	n/a	n/a	n/a	n/a	355.048	n/a
326.184	0.497	angry	Picture	39.464	n/a	3	9	3	n/a	43	86	3	n/a	n/a	n/a	n/a	355.579	AF09ANS.jpg
326.681	0.514	Blank	Blank	38.95	n/a	3	9	3	n/a	43	n/a	3	n/a	n/a	n/a	n/a	356.076	n/a
327.212	0.497	angry	Picture	38.436	n/a	3	9	4	n/a	44	93	3	n/a	n/a	n/a	n/a	356.606	BF22ANS.jpg
327.709	0.514	Blank	Blank	37.922	n/a	3	9	4	n/a	44	n/a	3	n/a	n/a	n/a	n/a	357.104	n/a
328.24	0.497	angry	Picture	37.408	n/a	3	9	5	n/a	45	88	3	n/a	n/a	n/a	n/a	357.634	AF14ANS.jpg
328.737	0.514	Blank	Blank	36.894	n/a	3	9	5	n/a	45	n/a	3	n/a	n/a	n/a	n/a	358.132	n/a
329.268	0.497	angry	Picture	36.38	n/a	3	9	6	n/a	46	113	3	n/a	n/a	n/a	n/a	358.662	AM21ANS.jpg
329.765	0.514	Blank	Blank	35.866	n/a	3	9	6	n/a	46	n/a	3	n/a	n/a	n/a	n/a	359.159	n/a
330.296	0.497	angry	Picture	35.352	n/a	3	9	7	n/a	47	95	3	n/a	n/a	n/a	n/a	359.69	AF25ANS.jpg
330.793	0.514	Blank	Blank	34.839	n/a	3	9	7	n/a	47	n/a	3	n/a	n/a	n/a	n/a	360.187	n/a
331.323	0.497	angry	Picture	34.325	n/a	3	9	8	n/a	48	102	3	n/a	n/a	n/a	n/a	360.718	BM03ANS.jpg
331.821	0.514	Blank	Blank	33.811	n/a	3	9	8	n/a	48	n/a	3	n/a	n/a	n/a	n/a	361.215	n/a
332.351	0.497	angry	Picture	33.297	n/a	3	9	9	n/a	49	112	3	n/a	n/a	n/a	n/a	361.746	AM14ANS.jpg
332.849	0.514	Blank	Blank	32.783	n/a	3	9	9	n/a	49	n/a	3	n/a	n/a	n/a	n/a	362.243	n/a
333.379	0.497	angry	Picture	32.269	n/a	3	9	10	n/a	50	83	3	n/a	n/a	n/a	n/a	362.774	BF04ANS.jpg
333.877	0.514	Blank	Blank	31.755	n/a	3	9	10	n/a	50	n/a	3	n/a	n/a	n/a	n/a	363.271	n/a
334.407	0.497	angry	Picture	31.241	n/a	3	9	11	n/a	51	90	3	n/a	n/a	n/a	n/a	363.802	AF18ANS.jpg
334.904	0.514	Blank	Blank	30.727	n/a	3	9	11	n/a	51	n/a	3	n/a	n/a	n/a	n/a	364.299	n/a
335.435	0.497	angry	Picture	30.213	n/a	3	9	12	n/a	52	117	3	n/a	n/a	n/a	n/a	364.829	BM25ANS.jpg
335.932	0.514	Blank	Blank	29.699	n/a	3	9	12	n/a	52	n/a	3	n/a	n/a	n/a	n/a	365.327	n/a
336.463	0.497	angry	Picture	29.185	n/a	3	9	13	n/a	53	94	3	n/a	n/a	n/a	n/a	365.857	AF23ANS.jpg
336.96	0.514	Blank	Blank	28.671	n/a	3	9	13	n/a	53	n/a	3	n/a	n/a	n/a	n/a	366.355	n/a
337.491	0.497	angry	Picture	28.157	n/a	3	9	14	n/a	54	106	3	n/a	n/a	n/a	n/a	366.885	AM07ANS.jpg
337.988	0.514	Blank	Blank	27.643	n/a	3	9	14	n/a	54	n/a	3	n/a	n/a	n/a	n/a	367.383	n/a
338.519	0.497	angry	Picture	27.129	n/a	3	9	15	n/a	55	105	3	n/a	n/a	n/a	n/a	367.913	BM06ANS.jpg
339.016	0.514	Blank	Blank	26.615	n/a	3	9	15	n/a	55	n/a	3	n/a	n/a	n/a	n/a	368.411	n/a
339.546	0.497	angry	Picture	26.101	n/a	3	9	16	n/a	56	116	3	n/a	n/a	n/a	n/a	368.941	BM24ANS.jpg
340.044	0.514	Blank	Blank	25.588	n/a	3	9	16	n/a	56	n/a	3	n/a	n/a	n/a	n/a	369.438	n/a
340.574	0.497	angry	Picture	25.073	n/a	3	9	17	n/a	57	89	3	n/a	n/a	n/a	n/a	369.969	AF17ANS.jpg
341.072	0.514	Blank	Blank	24.56	n/a	3	9	17	n/a	57	n/a	3	n/a	n/a	n/a	n/a	370.466	n/a
341.602	0.497	angry	Picture	24.046	n/a	3	9	18	n/a	58	118	3	n/a	n/a	n/a	n/a	370.997	BM26ANS.jpg
342.1	0.514	Blank	Blank	23.532	n/a	3	9	18	n/a	58	n/a	3	n/a	n/a	n/a	n/a	371.494	n/a
342.63	0.497	angry	Picture	23.018	n/a	3	9	19	n/a	59	100	3	n/a	n/a	n/a	n/a	372.025	AF32ANS.jpg
343.128	0.514	Blank	Blank	22.504	n/a	3	9	19	n/a	59	n/a	3	n/a	n/a	n/a	n/a	372.522	n/a
343.658	0.497	angry	Picture	21.99	n/a	3	9	20	n/a	60	119	3	n/a	n/a	n/a	n/a	373.053	BM28ANS.jpg
344.156	0.514	Blank	Blank	21.476	n/a	3	9	20	n/a	60	n/a	3	n/a	n/a	n/a	n/a	373.55	n/a
344.686	10.014	ITI	Fixation+	11.446	n/a	3	n/a	n/a	n/a	n/a	n/a	n/a	n/a	n/a	n/a	n/a	374.08	n/a
366.145	n/a	ConfirmRating	Rate	n/a	11.44	3	n/a	n/a	0	n/a	n/a	n/a	2	Angry	29	49	395.54	n/a
385.707	n/a	ConfirmRating	Rate	n/a	19.547	3	n/a	n/a	1	n/a	n/a	n/a	3	Angry	64	51	415.101	n/a
385.735	10.014	ITI	Fixation+	99.995	n/a	4	n/a	n/a	n/a	n/a	n/a	n/a	n/a	n/a	n/a	n/a	415.13	n/a
395.766	0.497	happy	Picture	99.481	n/a	4	10	1	n/a	61	79	2	n/a	n/a	n/a	n/a	425.16	BM28HAS.jpg
396.263	0.514	Blank	Blank	98.967	n/a	4	10	1	n/a	61	n/a	2	n/a	n/a	n/a	n/a	425.657	n/a
396.793	0.497	happy	Picture	98.453	n/a	4	10	2	n/a	62	61	2	n/a	n/a	n/a	n/a	426.188	AM01HAS.jpg
397.291	0.514	Blank	Blank	97.939	n/a	4	10	2	n/a	62	n/a	2	n/a	n/a	n/a	n/a	426.685	n/a
397.821	0.497	happy	Picture	97.425	n/a	4	10	3	n/a	63	57	2	n/a	n/a	n/a	n/a	427.216	BF28HAS.jpg
398.319	0.514	Blank	Blank	96.911	n/a	4	10	3	n/a	63	n/a	2	n/a	n/a	n/a	n/a	427.713	n/a
398.849	0.497	happy	Picture	96.397	n/a	4	10	4	n/a	64	77	2	n/a	n/a	n/a	n/a	428.244	BM25HAS.jpg
399.346	0.514	Blank	Blank	95.883	n/a	4	10	4	n/a	64	n/a	2	n/a	n/a	n/a	n/a	428.741	n/a
399.877	0.497	happy	Picture	95.37	n/a	4	10	5	n/a	65	47	2	n/a	n/a	n/a	n/a	429.272	BF11HAS.jpg
400.374	0.514	Blank	Blank	94.856	n/a	4	10	5	n/a	65	n/a	2	n/a	n/a	n/a	n/a	429.769	n/a
400.905	0.497	happy	Picture	94.342	n/a	4	10	6	n/a	66	50	2	n/a	n/a	n/a	n/a	430.3	AF18HAS.jpg
401.402	0.514	Blank	Blank	93.828	n/a	4	10	6	n/a	66	n/a	2	n/a	n/a	n/a	n/a	430.797	n/a
401.933	0.497	happy	Picture	93.314	n/a	4	10	7	n/a	67	78	2	n/a	n/a	n/a	n/a	431.327	BM26HAS.jpg
402.43	0.514	Blank	Blank	92.8	n/a	4	10	7	n/a	67	n/a	2	n/a	n/a	n/a	n/a	431.825	n/a
402.961	0.497	happy	Picture	92.286	n/a	4	10	8	n/a	68	45	2	n/a	n/a	n/a	n/a	432.355	BF07HAS.jpg
403.458	0.514	Blank	Blank	91.772	n/a	4	10	8	n/a	68	n/a	2	n/a	n/a	n/a	n/a	432.853	n/a
403.989	0.497	happy	Picture	91.258	n/a	4	10	9	n/a	69	56	2	n/a	n/a	n/a	n/a	433.383	AF26HAS.jpg
404.486	0.514	Blank	Blank	90.744	n/a	4	10	9	n/a	69	n/a	2	n/a	n/a	n/a	n/a	433.88	n/a
405.017	0.497	happy	Picture	90.23	n/a	4	10	10	n/a	70	65	2	n/a	n/a	n/a	n/a	434.411	BM06HAS.jpg
405.514	0.514	Blank	Blank	89.716	n/a	4	10	10	n/a	70	n/a	2	n/a	n/a	n/a	n/a	434.908	n/a
406.044	0.497	happy	Picture	89.202	n/a	4	10	11	n/a	71	73	2	n/a	n/a	n/a	n/a	435.439	AM21HAS.jpg
406.542	0.514	Blank	Blank	88.688	n/a	4	10	11	n/a	71	n/a	2	n/a	n/a	n/a	n/a	435.936	n/a
407.072	0.497	happy	Picture	88.174	n/a	4	10	12	n/a	72	41	2	n/a	n/a	n/a	n/a	436.467	AF01HAS.jpg
407.57	0.514	Blank	Blank	87.66	n/a	4	10	12	n/a	72	n/a	2	n/a	n/a	n/a	n/a	436.964	n/a
408.1	0.497	happy	Picture	87.146	n/a	4	10	13	n/a	73	59	2	n/a	n/a	n/a	n/a	437.495	AF31HAS.jpg
408.598	0.514	Blank	Blank	86.632	n/a	4	10	13	n/a	73	n/a	2	n/a	n/a	n/a	n/a	437.992	n/a
409.128	0.497	happy	Picture	86.118	n/a	4	10	14	n/a	74	64	2	n/a	n/a	n/a	n/a	438.523	BM05HAS.jpg
409.625	0.514	Blank	Blank	85.605	n/a	4	10	14	n/a	74	n/a	2	n/a	n/a	n/a	n/a	439.02	n/a
410.156	0.497	happy	Picture	85.091	n/a	4	10	15	n/a	75	68	2	n/a	n/a	n/a	n/a	439.55	AM09HAS.jpg
410.653	0.514	Blank	Blank	84.577	n/a	4	10	15	n/a	75	n/a	2	n/a	n/a	n/a	n/a	440.048	n/a
411.184	0.497	happy	Picture	84.063	n/a	4	10	16	n/a	76	54	2	n/a	n/a	n/a	n/a	440.578	AF23HAS.jpg
411.681	0.514	Blank	Blank	83.549	n/a	4	10	16	n/a	76	n/a	2	n/a	n/a	n/a	n/a	441.076	n/a
412.212	0.497	happy	Picture	83.035	n/a	4	10	17	n/a	77	53	2	n/a	n/a	n/a	n/a	441.606	BF22HAS.jpg
412.709	0.514	Blank	Blank	82.521	n/a	4	10	17	n/a	77	n/a	2	n/a	n/a	n/a	n/a	442.104	n/a
413.24	0.497	happy	Picture	82.007	n/a	4	10	18	n/a	78	44	2	n/a	n/a	n/a	n/a	442.634	AF05HAS.jpg
413.737	0.514	Blank	Blank	81.493	n/a	4	10	18	n/a	78	n/a	2	n/a	n/a	n/a	n/a	443.132	n/a
414.267	0.497	happy	Picture	80.979	n/a	4	10	19	n/a	79	52	2	n/a	n/a	n/a	n/a	443.662	AF21HAS.jpg
414.765	0.514	Blank	Blank	80.465	n/a	4	10	19	n/a	79	n/a	2	n/a	n/a	n/a	n/a	444.159	n/a
415.295	0.497	happy	Picture	79.951	n/a	4	10	20	n/a	80	62	2	n/a	n/a	n/a	n/a	444.69	BM03HAS.jpg
415.793	0.514	Blank	Blank	79.437	n/a	4	10	20	n/a	80	n/a	2	n/a	n/a	n/a	n/a	445.187	n/a
416.323	10.014	ITI	Fixation+	69.407	n/a	4	n/a	n/a	n/a	n/a	n/a	n/a	n/a	n/a	n/a	n/a	445.718	n/a
426.353	0.497	neutral	Picture	68.893	n/a	4	11	1	n/a	81	23	1	n/a	n/a	n/a	n/a	455.748	AM04NES.jpg
426.851	0.514	Blank	Blank	68.379	n/a	4	11	1	n/a	81	n/a	1	n/a	n/a	n/a	n/a	456.245	n/a
427.381	0.497	neutral	Picture	67.865	n/a	4	11	2	n/a	82	29	1	n/a	n/a	n/a	n/a	456.776	AM10NES.jpg
427.879	0.514	Blank	Blank	67.351	n/a	4	11	2	n/a	82	n/a	1	n/a	n/a	n/a	n/a	457.273	n/a
428.409	0.497	neutral	Picture	66.837	n/a	4	11	3	n/a	83	24	1	n/a	n/a	n/a	n/a	457.804	BM05NES.jpg
428.907	0.514	Blank	Blank	66.323	n/a	4	11	3	n/a	83	n/a	1	n/a	n/a	n/a	n/a	458.301	n/a
429.437	0.497	neutral	Picture	65.809	n/a	4	11	4	n/a	84	12	1	n/a	n/a	n/a	n/a	458.832	AF21NES.jpg
429.935	0.514	Blank	Blank	65.295	n/a	4	11	4	n/a	84	n/a	1	n/a	n/a	n/a	n/a	459.329	n/a
430.465	0.497	neutral	Picture	64.781	n/a	4	11	5	n/a	85	13	1	n/a	n/a	n/a	n/a	459.86	BF22NES.jpg
430.963	0.514	Blank	Blank	64.268	n/a	4	11	5	n/a	85	n/a	1	n/a	n/a	n/a	n/a	460.357	n/a
431.493	0.497	neutral	Picture	63.754	n/a	4	11	6	n/a	86	17	1	n/a	n/a	n/a	n/a	460.887	BF28NES.jpg
431.99	0.514	Blank	Blank	63.24	n/a	4	11	6	n/a	86	n/a	1	n/a	n/a	n/a	n/a	461.385	n/a
432.521	0.497	neutral	Picture	62.726	n/a	4	11	7	n/a	87	4	1	n/a	n/a	n/a	n/a	461.915	AF05NES.jpg
433.018	0.514	Blank	Blank	62.212	n/a	4	11	7	n/a	87	n/a	1	n/a	n/a	n/a	n/a	462.413	n/a
433.549	0.497	neutral	Picture	61.698	n/a	4	11	8	n/a	88	11	1	n/a	n/a	n/a	n/a	462.943	AF20NES.jpg
434.046	0.514	Blank	Blank	61.184	n/a	4	11	8	n/a	88	n/a	1	n/a	n/a	n/a	n/a	463.441	n/a
434.577	0.497	neutral	Picture	60.67	n/a	4	11	9	n/a	89	22	1	n/a	n/a	n/a	n/a	463.971	BM03NES.jpg
435.074	0.514	Blank	Blank	60.156	n/a	4	11	9	n/a	89	n/a	1	n/a	n/a	n/a	n/a	464.469	n/a
435.605	0.497	neutral	Picture	59.642	n/a	4	11	10	n/a	90	15	1	n/a	n/a	n/a	n/a	464.999	AF25NES.jpg
436.102	0.514	Blank	Blank	59.128	n/a	4	11	10	n/a	90	n/a	1	n/a	n/a	n/a	n/a	465.496	n/a
436.632	0.497	neutral	Picture	58.614	n/a	4	11	11	n/a	91	19	1	n/a	n/a	n/a	n/a	466.027	AF31NES.jpg
437.13	0.514	Blank	Blank	58.1	n/a	4	11	11	n/a	91	n/a	1	n/a	n/a	n/a	n/a	466.524	n/a
437.66	0.497	neutral	Picture	57.586	n/a	4	11	12	n/a	92	9	1	n/a	n/a	n/a	n/a	467.055	AF17NES.jpg
438.158	0.514	Blank	Blank	57.072	n/a	4	11	12	n/a	92	n/a	1	n/a	n/a	n/a	n/a	467.552	n/a
438.688	0.497	neutral	Picture	56.558	n/a	4	11	13	n/a	93	14	1	n/a	n/a	n/a	n/a	468.083	AF23NES.jpg
439.186	0.514	Blank	Blank	56.044	n/a	4	11	13	n/a	93	n/a	1	n/a	n/a	n/a	n/a	468.58	n/a
439.716	0.497	neutral	Picture	55.53	n/a	4	11	14	n/a	94	36	1	n/a	n/a	n/a	n/a	469.111	BM24NES.jpg
440.214	0.514	Blank	Blank	55.017	n/a	4	11	14	n/a	94	n/a	1	n/a	n/a	n/a	n/a	469.608	n/a
440.744	0.497	neutral	Picture	54.502	n/a	4	11	15	n/a	95	34	1	n/a	n/a	n/a	n/a	470.139	AM22NES.jpg
441.241	0.514	Blank	Blank	53.989	n/a	4	11	15	n/a	95	n/a	1	n/a	n/a	n/a	n/a	470.636	n/a
441.772	0.497	neutral	Picture	53.475	n/a	4	11	16	n/a	96	10	1	n/a	n/a	n/a	n/a	471.166	AF18NES.jpg
442.269	0.514	Blank	Blank	52.961	n/a	4	11	16	n/a	96	n/a	1	n/a	n/a	n/a	n/a	471.664	n/a
442.8	0.497	neutral	Picture	52.447	n/a	4	11	17	n/a	97	5	1	n/a	n/a	n/a	n/a	472.194	BF07NES.jpg
443.297	0.514	Blank	Blank	51.933	n/a	4	11	17	n/a	97	n/a	1	n/a	n/a	n/a	n/a	472.692	n/a
443.828	0.497	neutral	Picture	51.419	n/a	4	11	18	n/a	98	25	1	n/a	n/a	n/a	n/a	473.222	BM06NES.jpg
444.325	0.514	Blank	Blank	50.905	n/a	4	11	18	n/a	98	n/a	1	n/a	n/a	n/a	n/a	473.719	n/a
444.856	0.497	neutral	Picture	50.391	n/a	4	11	19	n/a	99	39	1	n/a	n/a	n/a	n/a	474.25	AM28NES.jpg
445.353	0.514	Blank	Blank	49.877	n/a	4	11	19	n/a	99	n/a	1	n/a	n/a	n/a	n/a	474.747	n/a
445.884	0.497	neutral	Picture	49.363	n/a	4	11	20	n/a	100	33	1	n/a	n/a	n/a	n/a	475.278	AM21NES.jpg
446.381	0.514	Blank	Blank	48.849	n/a	4	11	20	n/a	100	n/a	1	n/a	n/a	n/a	n/a	475.775	n/a
446.911	10.014	ITI	Fixation+	38.819	n/a	4	n/a	n/a	n/a	n/a	n/a	n/a	n/a	n/a	n/a	n/a	476.306	n/a
456.942	0.497	happy	Picture	38.305	n/a	4	12	1	n/a	101	74	2	n/a	n/a	n/a	n/a	486.336	AM22HAS.jpg
457.439	0.514	Blank	Blank	37.791	n/a	4	12	1	n/a	101	n/a	2	n/a	n/a	n/a	n/a	486.833	n/a
457.969	0.497	happy	Picture	37.277	n/a	4	12	2	n/a	102	76	2	n/a	n/a	n/a	n/a	487.364	BM24HAS.jpg
458.467	0.514	Blank	Blank	36.763	n/a	4	12	2	n/a	102	n/a	2	n/a	n/a	n/a	n/a	487.861	n/a
458.997	0.497	happy	Picture	36.249	n/a	4	12	3	n/a	103	80	2	n/a	n/a	n/a	n/a	488.392	BM35HAS.jpg
459.495	0.514	Blank	Blank	35.735	n/a	4	12	3	n/a	103	n/a	2	n/a	n/a	n/a	n/a	488.889	n/a
460.025	0.497	happy	Picture	35.221	n/a	4	12	4	n/a	104	75	2	n/a	n/a	n/a	n/a	489.42	AM23HAS.jpg
460.523	0.514	Blank	Blank	34.707	n/a	4	12	4	n/a	104	n/a	2	n/a	n/a	n/a	n/a	489.917	n/a
461.053	0.497	happy	Picture	34.193	n/a	4	12	5	n/a	105	49	2	n/a	n/a	n/a	n/a	490.448	AF17HAS.jpg
461.55	0.514	Blank	Blank	33.679	n/a	4	12	5	n/a	105	n/a	2	n/a	n/a	n/a	n/a	490.945	n/a
462.081	0.497	happy	Picture	33.166	n/a	4	12	6	n/a	106	43	2	n/a	n/a	n/a	n/a	491.476	BF04HAS.jpg
462.578	0.514	Blank	Blank	32.652	n/a	4	12	6	n/a	106	n/a	2	n/a	n/a	n/a	n/a	491.973	n/a
463.109	0.497	happy	Picture	32.138	n/a	4	12	7	n/a	107	70	2	n/a	n/a	n/a	n/a	492.503	BM11HAS.jpg
463.606	0.514	Blank	Blank	31.624	n/a	4	12	7	n/a	107	n/a	2	n/a	n/a	n/a	n/a	493.001	n/a
464.137	0.497	happy	Picture	31.11	n/a	4	12	8	n/a	108	66	2	n/a	n/a	n/a	n/a	493.531	BM07HAS.jpg
464.634	0.514	Blank	Blank	30.596	n/a	4	12	8	n/a	108	n/a	2	n/a	n/a	n/a	n/a	494.029	n/a
465.165	0.497	happy	Picture	30.082	n/a	4	12	9	n/a	109	48	2	n/a	n/a	n/a	n/a	494.559	AF14HAS.jpg
465.662	0.514	Blank	Blank	29.568	n/a	4	12	9	n/a	109	n/a	2	n/a	n/a	n/a	n/a	495.056	n/a
466.193	0.497	happy	Picture	29.054	n/a	4	12	10	n/a	110	58	2	n/a	n/a	n/a	n/a	495.587	BF29HAS.jpg
466.69	0.514	Blank	Blank	28.54	n/a	4	12	10	n/a	110	n/a	2	n/a	n/a	n/a	n/a	496.084	n/a
467.221	0.497	happy	Picture	28.026	n/a	4	12	11	n/a	111	63	2	n/a	n/a	n/a	n/a	496.615	AM04HAS.jpg
467.718	0.514	Blank	Blank	27.512	n/a	4	12	11	n/a	111	n/a	2	n/a	n/a	n/a	n/a	497.112	n/a
468.248	0.497	happy	Picture	26.998	n/a	4	12	12	n/a	112	72	2	n/a	n/a	n/a	n/a	497.643	AM14HAS.jpg
468.746	0.514	Blank	Blank	26.484	n/a	4	12	12	n/a	112	n/a	2	n/a	n/a	n/a	n/a	498.14	n/a
469.276	0.497	happy	Picture	25.97	n/a	4	12	13	n/a	113	55	2	n/a	n/a	n/a	n/a	498.671	AF25HAS.jpg
469.774	0.514	Blank	Blank	25.456	n/a	4	12	13	n/a	113	n/a	2	n/a	n/a	n/a	n/a	499.168	n/a
470.304	0.497	happy	Picture	24.942	n/a	4	12	14	n/a	114	42	2	n/a	n/a	n/a	n/a	499.699	AF03HAS.jpg
470.802	0.514	Blank	Blank	24.428	n/a	4	12	14	n/a	114	n/a	2	n/a	n/a	n/a	n/a	500.196	n/a
471.332	0.497	happy	Picture	23.915	n/a	4	12	15	n/a	115	60	2	n/a	n/a	n/a	n/a	500.726	AF32HAS.jpg
471.829	0.514	Blank	Blank	23.401	n/a	4	12	15	n/a	115	n/a	2	n/a	n/a	n/a	n/a	501.224	n/a
472.36	0.497	happy	Picture	22.887	n/a	4	12	16	n/a	116	67	2	n/a	n/a	n/a	n/a	501.754	BM08HAS.jpg
472.857	0.514	Blank	Blank	22.373	n/a	4	12	16	n/a	116	n/a	2	n/a	n/a	n/a	n/a	502.252	n/a
473.388	0.497	happy	Picture	21.859	n/a	4	12	17	n/a	117	51	2	n/a	n/a	n/a	n/a	502.782	AF20HAS.jpg
473.885	0.514	Blank	Blank	21.345	n/a	4	12	17	n/a	117	n/a	2	n/a	n/a	n/a	n/a	503.28	n/a
474.416	0.497	happy	Picture	20.831	n/a	4	12	18	n/a	118	71	2	n/a	n/a	n/a	n/a	503.81	BM12HAS.jpg
474.913	0.514	Blank	Blank	20.317	n/a	4	12	18	n/a	118	n/a	2	n/a	n/a	n/a	n/a	504.308	n/a
475.444	0.497	happy	Picture	19.803	n/a	4	12	19	n/a	119	69	2	n/a	n/a	n/a	n/a	504.838	AM10HAS.jpg
475.941	0.514	Blank	Blank	19.289	n/a	4	12	19	n/a	119	n/a	2	n/a	n/a	n/a	n/a	505.336	n/a
476.471	0.497	happy	Picture	18.775	n/a	4	12	20	n/a	120	46	2	n/a	n/a	n/a	n/a	505.866	AF09HAS.jpg
476.969	0.514	Blank	Blank	18.261	n/a	4	12	20	n/a	120	n/a	2	n/a	n/a	n/a	n/a	506.363	n/a
477.499	10.014	ITI	Fixation+	8.231	n/a	4	n/a	n/a	n/a	n/a	n/a	n/a	n/a	n/a	n/a	n/a	506.894	n/a
495.744	n/a	ConfirmRating	Rate	n/a	8.223	4	n/a	n/a	0	n/a	n/a	n/a	2	Happy	81	52	525.138	n/a
503.969	n/a	ConfirmRating	Rate	n/a	8.207	4	n/a	n/a	1	n/a	n/a	n/a	3	Happy	2	47	533.363	n/a
