onset	duration	trial_type	trial_number	event_type	cue_to_participant	stimulus_type	time_until_response	rated_success_of_regulation	onset_uncorrected
0.015	10.014	Instruction	-1	Picture	Instruction	n/a	n/a	n/a	29.289
10.045	5.007	ITI	0	Picture	Fixation+	1	14.423	n/a	39.319
15.069	2.006	Cue	0	Picture	Maintain	1	12.4	n/a	44.343
17.075	4.99	Pic	0	Picture	IAPS_26	1	7.41	n/a	46.349
22.065	2.006	Blank	0	Picture	BLANK	1	5.404	n/a	51.339
29.475	n/a	ConfirmRating	0	Response	n/a	1	n/a	0	58.749
29.492	6.002	ITI	1	Picture	Fixation+	2	14.055	n/a	58.766
35.51	2.006	Cue	1	Picture	Enhance	2	12.032	n/a	64.784
37.516	4.99	Pic	1	Picture	IAPS_36	2	7.042	n/a	66.79
42.506	2.006	Blank	1	Picture	BLANK	2	5.036	n/a	71.78
49.548	n/a	ConfirmRating	1	Response	n/a	2	n/a	5	78.822
49.569	4.012	ITI	2	Picture	Fixation+	3	10.872	n/a	78.843
53.597	2.006	Cue	2	Picture	Suppress	3	8.849	n/a	82.871
55.603	4.99	Pic	2	Picture	IAPS_01	3	3.859	n/a	84.877
60.594	2.006	Blank	2	Picture	BLANK	3	1.853	n/a	89.868
64.453	n/a	ConfirmRating	2	Response	n/a	3	n/a	0	93.727
64.473	5.007	ITI	3	Picture	Fixation+	4	11.617	n/a	93.747
69.496	2.006	Cue	3	Picture	Maintain	4	9.594	n/a	98.77
71.502	4.99	Pic	3	Picture	IAPS_46	4	4.604	n/a	100.776
76.493	2.006	Blank	3	Picture	BLANK	4	2.598	n/a	105.767
81.097	n/a	ConfirmRating	3	Response	n/a	4	n/a	5	110.371
81.118	5.007	ITI	4	Picture	Fixation+	4	13.138	n/a	110.392
86.141	2.006	Cue	4	Picture	Maintain	4	11.116	n/a	115.415
88.147	4.99	Pic	4	Picture	IAPS_49	4	6.126	n/a	117.421
93.138	2.006	Blank	4	Picture	BLANK	4	4.119	n/a	122.412
99.263	n/a	ConfirmRating	4	Response	n/a	4	n/a	5	128.537
99.288	6.002	ITI	5	Picture	Fixation+	2	15.702	n/a	128.562
105.306	2.006	Cue	5	Picture	Enhance	2	13.679	n/a	134.58
107.312	4.99	Pic	5	Picture	IAPS_37	2	8.689	n/a	136.586
112.303	2.006	Blank	5	Picture	BLANK	2	6.683	n/a	141.577
120.992	n/a	ConfirmRating	5	Response	n/a	2	n/a	5	150.266
121.023	4.012	ITI	6	Picture	Fixation+	1	10.955	n/a	150.297
125.052	2.006	Cue	6	Picture	Maintain	1	8.933	n/a	154.326
127.058	4.99	Pic	6	Picture	IAPS_27	1	3.942	n/a	156.332
132.048	2.006	Blank	6	Picture	BLANK	1	1.936	n/a	161.322
135.99	n/a	ConfirmRating	6	Response	n/a	1	n/a	0	165.264
136.01	6.002	ITI	7	Picture	Fixation+	3	13.405	n/a	165.284
142.028	2.006	Cue	7	Picture	Suppress	3	11.383	n/a	171.302
144.034	4.99	Pic	7	Picture	IAPS_02	3	6.392	n/a	173.308
149.024	2.006	Blank	7	Picture	BLANK	3	4.386	n/a	178.298
155.417	n/a	ConfirmRating	7	Response	n/a	3	n/a	6	184.691
155.44	5.007	ITI	8	Picture	Fixation+	4	10.594	n/a	184.714
160.464	2.006	Cue	8	Picture	Maintain	4	8.572	n/a	189.738
162.47	4.99	Pic	8	Picture	IAPS_52	4	3.582	n/a	191.744
167.46	2.006	Blank	8	Picture	BLANK	4	1.576	n/a	196.734
171.041	n/a	ConfirmRating	8	Response	n/a	4	n/a	5	200.315
171.074	6.002	ITI	9	Picture	Fixation+	1	10.391	n/a	200.348
177.092	2.006	Cue	9	Picture	Maintain	1	8.368	n/a	206.366
179.098	4.99	Pic	9	Picture	IAPS_28	1	3.378	n/a	208.372
184.088	2.006	Blank	9	Picture	BLANK	1	1.372	n/a	213.362
187.466	n/a	ConfirmRating	9	Response	n/a	1	n/a	3	216.74
187.487	5.007	ITI	10	Picture	Fixation+	2	12.108	n/a	216.761
192.51	2.006	Cue	10	Picture	Enhance	2	10.085	n/a	221.784
194.516	4.99	Pic	10	Picture	IAPS_38	2	5.095	n/a	223.79
199.506	2.006	Blank	10	Picture	BLANK	2	3.089	n/a	228.78
204.602	n/a	ConfirmRating	10	Response	n/a	2	n/a	5	233.876
204.629	4.012	ITI	11	Picture	Fixation+	3	11.393	n/a	233.903
208.658	2.006	Cue	11	Picture	Suppress	3	9.37	n/a	237.932
210.664	4.99	Pic	11	Picture	IAPS_03	3	4.38	n/a	239.938
215.654	2.006	Blank	11	Picture	BLANK	3	2.374	n/a	244.928
220.034	n/a	ConfirmRating	11	Response	n/a	3	n/a	5	249.308
220.064	6.002	ITI	12	Picture	Fixation+	2	10.978	n/a	249.338
226.082	2.006	Cue	12	Picture	Enhance	2	8.955	n/a	255.356
228.088	4.99	Pic	12	Picture	IAPS_39	2	3.965	n/a	257.362
233.078	2.006	Blank	12	Picture	BLANK	2	1.959	n/a	262.352
237.043	n/a	ConfirmRating	12	Response	n/a	2	n/a	0	266.317
237.074	5.007	ITI	13	Picture	Fixation+	1	12.493	n/a	266.348
242.097	2.006	Cue	13	Picture	Maintain	1	10.47	n/a	271.371
244.103	4.99	Pic	13	Picture	IAPS_29	1	5.48	n/a	273.377
249.093	2.006	Blank	13	Picture	BLANK	1	3.474	n/a	278.367
254.574	n/a	ConfirmRating	13	Response	n/a	1	n/a	5	283.848
254.597	4.012	ITI	14	Picture	Fixation+	4	11.242	n/a	283.871
258.626	2.006	Cue	14	Picture	Maintain	4	9.219	n/a	287.9
260.632	4.99	Pic	14	Picture	IAPS_55	4	4.229	n/a	289.906
265.622	2.006	Blank	14	Picture	BLANK	4	2.223	n/a	294.896
269.851	n/a	ConfirmRating	14	Response	n/a	4	n/a	5	299.125
269.883	5.007	ITI	15	Picture	Fixation+	3	10.704	n/a	299.157
274.906	2.006	Cue	15	Picture	Suppress	3	8.682	n/a	304.18
276.912	4.99	Pic	15	Picture	IAPS_04	3	3.691	n/a	306.186
281.902	2.006	Blank	15	Picture	BLANK	3	1.685	n/a	311.176
285.594	n/a	ConfirmRating	15	Response	n/a	3	n/a	3	314.868
285.616	6.002	ITI	16	Picture	Fixation+	2	10.948	n/a	314.89
291.634	2.006	Cue	16	Picture	Enhance	2	8.925	n/a	320.908
293.64	4.99	Pic	16	Picture	IAPS_40	2	3.935	n/a	322.914
298.63	2.006	Blank	16	Picture	BLANK	2	1.929	n/a	327.904
302.565	n/a	ConfirmRating	16	Response	n/a	2	n/a	6	331.839
302.593	6.002	ITI	17	Picture	Fixation+	1	9.595	n/a	331.867
308.611	2.006	Cue	17	Picture	Maintain	1	7.572	n/a	337.885
310.617	4.99	Pic	17	Picture	IAPS_30	1	2.582	n/a	339.891
315.607	2.006	Blank	17	Picture	BLANK	1	0.576	n/a	344.881
318.189	n/a	ConfirmRating	17	Response	n/a	1	n/a	0	347.463
318.21	4.012	ITI	18	Picture	Fixation+	3	9.968	n/a	347.484
322.238	2.006	Cue	18	Picture	Suppress	3	7.945	n/a	351.512
324.245	4.99	Pic	18	Picture	IAPS_05	3	2.955	n/a	353.519
329.235	2.006	Blank	18	Picture	BLANK	3	0.949	n/a	358.509
332.19	n/a	ConfirmRating	18	Response	n/a	3	n/a	3	361.464
332.219	5.007	ITI	19	Picture	Fixation+	4	10.849	n/a	361.493
337.242	2.006	Cue	19	Picture	Maintain	4	8.826	n/a	366.516
339.248	4.99	Pic	19	Picture	IAPS_58	4	3.836	n/a	368.522
344.238	2.006	Blank	19	Picture	BLANK	4	1.83	n/a	373.512
348.075	n/a	ConfirmRating	19	Response	n/a	4	n/a	6	377.349
348.101	6.002	ITI	20	Picture	Fixation+	4	12.973	n/a	377.375
354.119	2.006	Cue	20	Picture	Maintain	4	10.951	n/a	383.393
356.125	4.99	Pic	20	Picture	IAPS_47	4	5.961	n/a	385.399
361.115	2.006	Blank	20	Picture	BLANK	4	3.955	n/a	390.389
367.076	n/a	ConfirmRating	20	Response	n/a	4	n/a	5	396.35
367.1	5.007	ITI	21	Picture	Fixation+	3	10.705	n/a	396.374
372.124	2.006	Cue	21	Picture	Suppress	3	8.682	n/a	401.398
374.13	4.99	Pic	21	Picture	IAPS_06	3	3.692	n/a	403.404
379.12	2.006	Blank	21	Picture	BLANK	3	1.686	n/a	408.394
382.812	n/a	ConfirmRating	21	Response	n/a	3	n/a	0	412.086
382.834	4.012	ITI	22	Picture	Fixation+	1	10.25	n/a	412.108
386.862	2.006	Cue	22	Picture	Maintain	1	8.227	n/a	416.136
388.868	4.99	Pic	22	Picture	IAPS_16	1	3.237	n/a	418.142
393.858	2.006	Blank	22	Picture	BLANK	1	1.231	n/a	423.132
397.095	n/a	ConfirmRating	22	Response	n/a	1	n/a	5	426.369
397.124	4.012	ITI	23	Picture	Fixation+	2	10.798	n/a	426.398
401.153	2.006	Cue	23	Picture	Enhance	2	8.775	n/a	430.427
403.159	4.99	Pic	23	Picture	IAPS_41	2	3.785	n/a	432.433
408.149	2.006	Blank	23	Picture	BLANK	2	1.779	n/a	437.423
411.934	n/a	ConfirmRating	23	Response	n/a	2	n/a	5	441.208
411.962	5.007	ITI	24	Picture	Fixation+	1	11.105	n/a	441.236
416.986	2.006	Cue	24	Picture	Maintain	1	9.082	n/a	446.26
418.992	4.99	Pic	24	Picture	IAPS_17	1	4.092	n/a	448.266
423.982	2.006	Blank	24	Picture	BLANK	1	2.086	n/a	453.256
428.074	n/a	ConfirmRating	24	Response	n/a	1	n/a	6	457.348
428.093	4.012	ITI	25	Picture	Fixation+	2	10.113	n/a	457.367
432.122	2.006	Cue	25	Picture	Enhance	2	8.09	n/a	461.396
434.128	4.99	Pic	25	Picture	IAPS_42	2	3.1	n/a	463.402
439.118	2.006	Blank	25	Picture	BLANK	2	1.094	n/a	468.392
442.218	n/a	ConfirmRating	25	Response	n/a	2	n/a	5	471.492
442.235	6.002	ITI	26	Picture	Fixation+	4	12.307	n/a	471.509
448.253	2.006	Cue	26	Picture	Maintain	4	10.284	n/a	477.527
450.259	4.99	Pic	26	Picture	IAPS_50	4	5.294	n/a	479.533
455.249	2.006	Blank	26	Picture	BLANK	4	3.288	n/a	484.523
460.543	n/a	ConfirmRating	26	Response	n/a	4	n/a	5	489.817
460.571	5.007	ITI	27	Picture	Fixation+	3	10.147	n/a	489.845
465.594	2.006	Cue	27	Picture	Suppress	3	8.124	n/a	494.868
467.6	4.99	Pic	27	Picture	IAPS_07	3	3.134	n/a	496.874
472.591	2.006	Blank	27	Picture	BLANK	3	1.128	n/a	501.865
475.725	n/a	ConfirmRating	27	Response	n/a	3	n/a	3	504.999
475.757	5.007	ITI	28	Picture	Fixation+	2	12.68	n/a	505.031
480.78	2.006	Cue	28	Picture	Enhance	2	10.658	n/a	510.054
482.786	4.99	Pic	28	Picture	IAPS_43	2	5.668	n/a	512.06
487.777	2.006	Blank	28	Picture	BLANK	2	3.662	n/a	517.051
493.444	n/a	ConfirmRating	28	Response	n/a	2	n/a	6	522.718
493.463	4.012	ITI	29	Picture	Fixation+	3	10.774	n/a	522.737
497.492	2.006	Cue	29	Picture	Suppress	3	8.751	n/a	526.766
499.498	4.99	Pic	29	Picture	IAPS_08	3	3.761	n/a	528.772
504.488	2.006	Blank	29	Picture	BLANK	3	1.755	n/a	533.762
508.249	n/a	ConfirmRating	29	Response	n/a	3	n/a	3	537.523
508.268	15.004	Rest	29	Picture	Rest	n/a	-15.023	n/a	537.542
523.288	5.007	ITI	30	Picture	Fixation+	4	9.635	n/a	552.562
528.311	2.006	Cue	30	Picture	Maintain	4	7.613	n/a	557.585
530.317	4.99	Pic	30	Picture	IAPS_53	4	2.623	n/a	559.591
535.308	2.006	Blank	30	Picture	BLANK	4	0.617	n/a	564.582
537.93	n/a	ConfirmRating	30	Response	n/a	4	n/a	0	567.204
537.96	6.002	ITI	31	Picture	Fixation+	1	11.711	n/a	567.234
543.978	2.006	Cue	31	Picture	Maintain	1	9.689	n/a	573.252
545.984	4.99	Pic	31	Picture	IAPS_18	1	4.698	n/a	575.258
550.975	2.006	Blank	31	Picture	BLANK	1	2.692	n/a	580.249
555.673	n/a	ConfirmRating	31	Response	n/a	1	n/a	5	584.947
555.699	4.012	ITI	32	Picture	Fixation+	3	9.956	n/a	584.973
559.728	2.006	Cue	32	Picture	Suppress	3	7.933	n/a	589.002
561.734	4.99	Pic	32	Picture	IAPS_09	3	2.943	n/a	591.008
566.724	2.006	Blank	32	Picture	BLANK	3	0.937	n/a	595.998
569.668	n/a	ConfirmRating	32	Response	n/a	3	n/a	3	598.942
569.692	5.007	ITI	33	Picture	Fixation+	1	10.176	n/a	598.966
574.715	2.006	Cue	33	Picture	Maintain	1	8.153	n/a	603.989
576.721	4.99	Pic	33	Picture	IAPS_19	1	3.163	n/a	605.995
581.711	2.006	Blank	33	Picture	BLANK	1	1.157	n/a	610.985
584.874	n/a	ConfirmRating	33	Response	n/a	1	n/a	2	614.148
584.894	4.012	ITI	34	Picture	Fixation+	2	10.781	n/a	614.168
588.923	2.006	Cue	34	Picture	Enhance	2	8.759	n/a	618.197
590.929	4.99	Pic	34	Picture	IAPS_44	2	3.769	n/a	620.203
595.919	2.006	Blank	34	Picture	BLANK	2	1.763	n/a	625.193
599.688	n/a	ConfirmRating	34	Response	n/a	2	n/a	5	628.962
599.716	6.002	ITI	35	Picture	Fixation+	4	10.479	n/a	628.99
605.734	2.006	Cue	35	Picture	Maintain	4	8.457	n/a	635.008
607.74	4.99	Pic	35	Picture	IAPS_56	4	3.466	n/a	637.014
612.73	2.006	Blank	35	Picture	BLANK	4	1.46	n/a	642.004
616.197	n/a	ConfirmRating	35	Response	n/a	4	n/a	5	645.471
616.228	5.007	ITI	36	Picture	Fixation+	3	10.253	n/a	645.502
621.251	2.006	Cue	36	Picture	Suppress	3	8.231	n/a	650.525
623.258	4.99	Pic	36	Picture	IAPS_10	3	3.24	n/a	652.532
628.248	2.006	Blank	36	Picture	BLANK	3	1.235	n/a	657.522
631.488	n/a	ConfirmRating	36	Response	n/a	3	n/a	0	660.762
631.514	6.002	ITI	37	Picture	Fixation+	4	10.482	n/a	660.788
637.532	2.006	Cue	37	Picture	Maintain	4	8.459	n/a	666.806
639.538	4.99	Pic	37	Picture	IAPS_59	4	3.469	n/a	668.812
644.528	2.006	Blank	37	Picture	BLANK	4	1.463	n/a	673.802
647.997	n/a	ConfirmRating	37	Response	n/a	4	n/a	6	677.271
648.026	5.007	ITI	38	Picture	Fixation+	2	11.736	n/a	677.3
653.049	2.006	Cue	38	Picture	Enhance	2	9.713	n/a	682.323
655.056	4.99	Pic	38	Picture	IAPS_45	2	4.723	n/a	684.33
660.046	2.006	Blank	38	Picture	BLANK	2	2.717	n/a	689.32
664.768	n/a	ConfirmRating	38	Response	n/a	2	n/a	5	694.042
664.787	4.012	ITI	39	Picture	Fixation+	1	11.324	n/a	694.061
668.816	2.006	Cue	39	Picture	Maintain	1	9.301	n/a	698.09
670.822	4.99	Pic	39	Picture	IAPS_20	1	4.311	n/a	700.096
675.812	2.006	Blank	39	Picture	BLANK	1	2.305	n/a	705.086
680.123	n/a	ConfirmRating	39	Response	n/a	1	n/a	3	709.397
680.156	6.002	ITI	40	Picture	Fixation+	4	10.545	n/a	709.43
686.174	2.006	Cue	40	Picture	Maintain	4	8.522	n/a	715.448
688.18	4.99	Pic	40	Picture	IAPS_48	4	3.532	n/a	717.454
693.17	2.006	Blank	40	Picture	BLANK	4	1.526	n/a	722.444
696.702	n/a	ConfirmRating	40	Response	n/a	4	n/a	5	725.976
696.734	5.007	ITI	41	Picture	Fixation+	3	10.398	n/a	726.008
701.758	2.006	Cue	41	Picture	Suppress	3	8.376	n/a	731.032
703.764	4.99	Pic	41	Picture	IAPS_11	3	3.386	n/a	733.038
708.754	2.006	Blank	41	Picture	BLANK	3	1.38	n/a	738.028
712.139	n/a	ConfirmRating	41	Response	n/a	3	n/a	3	741.413
712.169	6.002	ITI	42	Picture	Fixation+	2	10.677	n/a	741.443
718.187	2.006	Cue	42	Picture	Enhance	2	8.654	n/a	747.461
720.193	4.99	Pic	42	Picture	IAPS_31	2	3.664	n/a	749.467
725.183	2.006	Blank	42	Picture	BLANK	2	1.658	n/a	754.457
728.847	n/a	ConfirmRating	42	Response	n/a	2	n/a	5	758.121
728.864	4.012	ITI	43	Picture	Fixation+	1	9.689	n/a	758.138
732.892	2.006	Cue	43	Picture	Maintain	1	7.666	n/a	762.166
734.898	4.99	Pic	43	Picture	IAPS_21	1	2.676	n/a	764.172
739.889	2.006	Blank	43	Picture	BLANK	1	0.67	n/a	769.163
742.565	n/a	ConfirmRating	43	Response	n/a	1	n/a	0	771.839
742.591	5.007	ITI	44	Picture	Fixation+	2	9.492	n/a	771.865
747.614	2.006	Cue	44	Picture	Enhance	2	7.469	n/a	776.888
749.62	4.99	Pic	44	Picture	IAPS_32	2	2.479	n/a	778.894
754.61	2.006	Blank	44	Picture	BLANK	2	0.473	n/a	783.884
757.089	n/a	ConfirmRating	44	Response	n/a	2	n/a	0	786.363
757.114	5.007	ITI	45	Picture	Fixation+	4	10.088	n/a	786.388
762.137	2.006	Cue	45	Picture	Maintain	4	8.066	n/a	791.411
764.143	4.99	Pic	45	Picture	IAPS_51	4	3.076	n/a	793.417
769.133	2.006	Blank	45	Picture	BLANK	4	1.07	n/a	798.407
772.209	n/a	ConfirmRating	45	Response	n/a	4	n/a	5	801.483
772.234	4.012	ITI	46	Picture	Fixation+	3	10.155	n/a	801.508
776.262	2.006	Cue	46	Picture	Suppress	3	8.133	n/a	805.536
778.268	4.99	Pic	46	Picture	IAPS_12	3	3.142	n/a	807.542
783.258	2.006	Blank	46	Picture	BLANK	3	1.136	n/a	812.532
786.401	n/a	ConfirmRating	46	Response	n/a	3	n/a	3	815.675
786.425	5.007	ITI	47	Picture	Fixation+	1	13.255	n/a	815.699
791.448	2.006	Cue	47	Picture	Maintain	1	11.232	n/a	820.722
793.454	4.99	Pic	47	Picture	IAPS_22	1	6.242	n/a	822.728
798.444	2.006	Blank	47	Picture	BLANK	1	4.236	n/a	827.718
804.686	n/a	ConfirmRating	47	Response	n/a	1	n/a	5	833.96
804.711	4.012	ITI	48	Picture	Fixation+	3	11.126	n/a	833.985
808.74	2.006	Cue	48	Picture	Suppress	3	9.103	n/a	838.014
810.746	4.99	Pic	48	Picture	IAPS_13	3	4.113	n/a	840.02
815.736	2.006	Blank	48	Picture	BLANK	3	2.107	n/a	845.01
819.849	n/a	ConfirmRating	48	Response	n/a	3	n/a	2	849.123
819.881	5.007	ITI	49	Picture	Fixation+	4	11.217	n/a	849.155
824.904	2.006	Cue	49	Picture	Maintain	4	9.195	n/a	854.178
826.91	4.99	Pic	49	Picture	IAPS_54	4	4.204	n/a	856.184
831.9	2.006	Blank	49	Picture	BLANK	4	2.198	n/a	861.174
836.105	n/a	ConfirmRating	49	Response	n/a	4	n/a	6	865.379
836.128	5.007	ITI	50	Picture	Fixation+	1	10.863	n/a	865.402
841.151	2.006	Cue	50	Picture	Maintain	1	8.84	n/a	870.425
843.157	4.99	Pic	50	Picture	IAPS_23	1	3.85	n/a	872.431
848.147	2.006	Blank	50	Picture	BLANK	1	1.844	n/a	877.421
851.997	n/a	ConfirmRating	50	Response	n/a	1	n/a	0	881.271
852.027	4.012	ITI	51	Picture	Fixation+	2	10.108	n/a	881.301
856.055	2.006	Cue	51	Picture	Enhance	2	8.086	n/a	885.329
858.061	4.99	Pic	51	Picture	IAPS_33	2	3.095	n/a	887.335
863.052	2.006	Blank	51	Picture	BLANK	2	1.089	n/a	892.326
866.147	n/a	ConfirmRating	51	Response	n/a	2	n/a	5	895.421
866.168	5.007	ITI	52	Picture	Fixation+	1	9.84	n/a	895.442
871.192	2.006	Cue	52	Picture	Maintain	1	7.818	n/a	900.466
873.198	4.99	Pic	52	Picture	IAPS_24	1	2.828	n/a	902.472
878.188	2.006	Blank	52	Picture	BLANK	1	0.822	n/a	907.462
881.015	n/a	ConfirmRating	52	Response	n/a	1	n/a	3	910.289
881.039	5.007	ITI	53	Picture	Fixation+	4	10.406	n/a	910.313
886.063	2.006	Cue	53	Picture	Maintain	4	8.383	n/a	915.337
888.069	4.99	Pic	53	Picture	IAPS_57	4	3.393	n/a	917.343
893.059	2.006	Blank	53	Picture	BLANK	4	1.387	n/a	922.333
896.452	n/a	ConfirmRating	53	Response	n/a	4	n/a	6	925.726
896.474	6.002	ITI	54	Picture	Fixation+	3	13.203	n/a	925.748
902.492	2.006	Cue	54	Picture	Suppress	3	11.181	n/a	931.766
904.498	4.99	Pic	54	Picture	IAPS_14	3	6.19	n/a	933.772
909.489	2.006	Blank	54	Picture	BLANK	3	4.184	n/a	938.763
915.679	n/a	ConfirmRating	54	Response	n/a	3	n/a	0	944.953
915.706	5.007	ITI	55	Picture	Fixation+	2	9.76	n/a	944.98
920.729	2.006	Cue	55	Picture	Enhance	2	7.738	n/a	950.003
922.735	4.99	Pic	55	Picture	IAPS_34	2	2.748	n/a	952.009
927.725	2.006	Blank	55	Picture	BLANK	2	0.741	n/a	956.999
930.472	n/a	ConfirmRating	55	Response	n/a	2	n/a	0	959.746
930.494	5.007	ITI	56	Picture	Fixation+	1	11.448	n/a	959.768
935.517	2.006	Cue	56	Picture	Maintain	1	9.425	n/a	964.791
937.523	4.99	Pic	56	Picture	IAPS_25	1	4.435	n/a	966.797
942.513	2.006	Blank	56	Picture	BLANK	1	2.429	n/a	971.787
946.948	n/a	ConfirmRating	56	Response	n/a	1	n/a	0	976.222
946.973	6.001	ITI	57	Picture	Fixation+	3	9.837	n/a	976.247
952.991	2.006	Cue	57	Picture	Suppress	3	7.815	n/a	982.265
954.997	4.99	Pic	57	Picture	IAPS_15	3	2.825	n/a	984.271
959.987	2.006	Blank	57	Picture	BLANK	3	0.819	n/a	989.261
962.812	n/a	ConfirmRating	57	Response	n/a	3	n/a	3	992.086
962.839	4.012	ITI	58	Picture	Fixation+	4	9.689	n/a	992.113
966.867	2.006	Cue	58	Picture	Maintain	4	7.666	n/a	996.141
968.873	4.99	Pic	58	Picture	IAPS_60	4	2.676	n/a	998.147
973.864	2.006	Blank	58	Picture	BLANK	4	0.67	n/a	1003.138
976.539	n/a	ConfirmRating	58	Response	n/a	4	n/a	0	1005.813
976.566	6.002	ITI	59	Picture	Fixation+	2	10.623	n/a	1005.84
982.584	2.006	Cue	59	Picture	Enhance	2	8.6	n/a	1011.858
984.59	4.99	Pic	59	Picture	IAPS_35	2	3.61	n/a	1013.864
989.58	2.006	Blank	59	Picture	BLANK	2	1.604	n/a	1018.854
993.19	n/a	ConfirmRating	59	Response	n/a	2	n/a	3	1022.464
