onset	duration	trial_type	event_type	time_until_response	response_time	trial_number	block_num_within_trial	image_seq_num_within_block	question_seq_num_within_block	image_seq_num	picture_number	condition	question_type	block_type	rating	rating_computed	onset_uncorrected	KDEV_imagefile
0.016	10.014	ITI	Fixation+	100.328	n/a	1	n/a	n/a	n/a	n/a	n/a	n/a	n/a	n/a	n/a	n/a	29.637	n/a
10.046	0.497	angry	Picture	99.814	n/a	1	1	1	n/a	1	108	3	n/a	n/a	n/a	n/a	39.667	AM09ANS.jpg
10.543	0.514	Blank	Blank	99.3	n/a	1	1	1	n/a	1	n/a	3	n/a	n/a	n/a	n/a	40.165	n/a
11.074	0.497	angry	Picture	98.786	n/a	1	1	2	n/a	2	99	3	n/a	n/a	n/a	n/a	40.695	AF31ANS.jpg
11.571	0.514	Blank	Blank	98.273	n/a	1	1	2	n/a	2	n/a	3	n/a	n/a	n/a	n/a	41.193	n/a
12.102	0.497	angry	Picture	97.759	n/a	1	1	3	n/a	3	98	3	n/a	n/a	n/a	n/a	41.723	BF29ANS.jpg
12.599	0.514	Blank	Blank	97.245	n/a	1	1	3	n/a	3	n/a	3	n/a	n/a	n/a	n/a	42.221	n/a
13.13	0.497	angry	Picture	96.731	n/a	1	1	4	n/a	4	107	3	n/a	n/a	n/a	n/a	42.751	BM08ANS.jpg
13.627	0.514	Blank	Blank	96.217	n/a	1	1	4	n/a	4	n/a	3	n/a	n/a	n/a	n/a	43.248	n/a
14.157	0.497	angry	Picture	95.703	n/a	1	1	5	n/a	5	104	3	n/a	n/a	n/a	n/a	43.779	BM05ANS.jpg
14.655	0.514	Blank	Blank	95.189	n/a	1	1	5	n/a	5	n/a	3	n/a	n/a	n/a	n/a	44.276	n/a
15.185	0.497	angry	Picture	94.675	n/a	1	1	6	n/a	6	101	3	n/a	n/a	n/a	n/a	44.807	AM01ANS.jpg
15.683	0.514	Blank	Blank	94.161	n/a	1	1	6	n/a	6	n/a	3	n/a	n/a	n/a	n/a	45.304	n/a
16.213	0.497	angry	Picture	93.647	n/a	1	1	7	n/a	7	103	3	n/a	n/a	n/a	n/a	45.835	AM04ANS.jpg
16.711	0.514	Blank	Blank	93.133	n/a	1	1	7	n/a	7	n/a	3	n/a	n/a	n/a	n/a	46.332	n/a
17.241	0.497	angry	Picture	92.619	n/a	1	1	8	n/a	8	111	3	n/a	n/a	n/a	n/a	46.863	BM12ANS.jpg
17.738	0.514	Blank	Blank	92.105	n/a	1	1	8	n/a	8	n/a	3	n/a	n/a	n/a	n/a	47.36	n/a
18.269	0.497	angry	Picture	91.591	n/a	1	1	9	n/a	9	110	3	n/a	n/a	n/a	n/a	47.891	AM11ANS.jpg
18.766	0.514	Blank	Blank	91.077	n/a	1	1	9	n/a	9	n/a	3	n/a	n/a	n/a	n/a	48.388	n/a
19.297	0.497	angry	Picture	90.563	n/a	1	1	10	n/a	10	85	3	n/a	n/a	n/a	n/a	48.918	BF07ANS.jpg
19.794	0.514	Blank	Blank	90.05	n/a	1	1	10	n/a	10	n/a	3	n/a	n/a	n/a	n/a	49.416	n/a
20.325	0.497	angry	Picture	89.536	n/a	1	1	11	n/a	11	87	3	n/a	n/a	n/a	n/a	49.946	BF11ANS.jpg
20.822	0.514	Blank	Blank	89.022	n/a	1	1	11	n/a	11	n/a	3	n/a	n/a	n/a	n/a	50.444	n/a
21.353	0.497	angry	Picture	88.508	n/a	1	1	12	n/a	12	91	3	n/a	n/a	n/a	n/a	50.974	AF20ANS.jpg
21.85	0.514	Blank	Blank	87.994	n/a	1	1	12	n/a	12	n/a	3	n/a	n/a	n/a	n/a	51.471	n/a
22.381	0.497	angry	Picture	87.48	n/a	1	1	13	n/a	13	115	3	n/a	n/a	n/a	n/a	52.002	AM23ANS.jpg
22.878	0.514	Blank	Blank	86.966	n/a	1	1	13	n/a	13	n/a	3	n/a	n/a	n/a	n/a	52.499	n/a
23.408	0.497	angry	Picture	86.452	n/a	1	1	14	n/a	14	97	3	n/a	n/a	n/a	n/a	53.03	BF28ANS.jpg
23.906	0.514	Blank	Blank	85.938	n/a	1	1	14	n/a	14	n/a	3	n/a	n/a	n/a	n/a	53.527	n/a
24.436	0.497	angry	Picture	85.424	n/a	1	1	15	n/a	15	82	3	n/a	n/a	n/a	n/a	54.058	AF03ANS.jpg
24.934	0.514	Blank	Blank	84.91	n/a	1	1	15	n/a	15	n/a	3	n/a	n/a	n/a	n/a	54.555	n/a
25.464	0.497	angry	Picture	84.396	n/a	1	1	16	n/a	16	96	3	n/a	n/a	n/a	n/a	55.086	AF26ANS.jpg
25.961	0.514	Blank	Blank	83.882	n/a	1	1	16	n/a	16	n/a	3	n/a	n/a	n/a	n/a	55.583	n/a
26.492	0.497	angry	Picture	83.368	n/a	1	1	17	n/a	17	109	3	n/a	n/a	n/a	n/a	56.114	AM10ANS.jpg
26.989	0.514	Blank	Blank	82.854	n/a	1	1	17	n/a	17	n/a	3	n/a	n/a	n/a	n/a	56.611	n/a
27.52	0.497	angry	Picture	82.34	n/a	1	1	18	n/a	18	114	3	n/a	n/a	n/a	n/a	57.141	AM22ANS.jpg
28.017	0.514	Blank	Blank	81.826	n/a	1	1	18	n/a	18	n/a	3	n/a	n/a	n/a	n/a	57.639	n/a
28.548	0.497	angry	Picture	81.313	n/a	1	1	19	n/a	19	120	3	n/a	n/a	n/a	n/a	58.169	AM35ANS.jpg
29.045	0.514	Blank	Blank	80.799	n/a	1	1	19	n/a	19	n/a	3	n/a	n/a	n/a	n/a	58.667	n/a
29.576	0.497	angry	Picture	80.285	n/a	1	1	20	n/a	20	81	3	n/a	n/a	n/a	n/a	59.197	AF01ANS.jpg
30.073	0.514	Blank	Blank	79.771	n/a	1	1	20	n/a	20	n/a	3	n/a	n/a	n/a	n/a	59.694	n/a
30.604	10.014	ITI	Fixation+	69.741	n/a	1	n/a	n/a	n/a	n/a	n/a	n/a	n/a	n/a	n/a	n/a	60.225	n/a
40.634	0.497	neutral	Picture	69.227	n/a	1	2	1	n/a	21	28	1	n/a	n/a	n/a	n/a	70.255	AM09NES.jpg
41.131	0.514	Blank	Blank	68.713	n/a	1	2	1	n/a	21	n/a	1	n/a	n/a	n/a	n/a	70.752	n/a
41.662	0.497	neutral	Picture	68.199	n/a	1	2	2	n/a	22	27	1	n/a	n/a	n/a	n/a	71.283	BM08NES.jpg
42.159	0.514	Blank	Blank	67.685	n/a	1	2	2	n/a	22	n/a	1	n/a	n/a	n/a	n/a	71.78	n/a
42.689	0.497	neutral	Picture	67.171	n/a	1	2	3	n/a	23	16	1	n/a	n/a	n/a	n/a	72.311	AF26NES.jpg
43.187	0.514	Blank	Blank	66.657	n/a	1	2	3	n/a	23	n/a	1	n/a	n/a	n/a	n/a	72.808	n/a
43.717	0.497	neutral	Picture	66.143	n/a	1	2	4	n/a	24	3	1	n/a	n/a	n/a	n/a	73.339	BF04NES.jpg
44.215	0.514	Blank	Blank	65.629	n/a	1	2	4	n/a	24	n/a	1	n/a	n/a	n/a	n/a	73.836	n/a
44.745	0.497	neutral	Picture	65.115	n/a	1	2	5	n/a	25	32	1	n/a	n/a	n/a	n/a	74.367	AM14NES.jpg
45.243	0.514	Blank	Blank	64.601	n/a	1	2	5	n/a	25	n/a	1	n/a	n/a	n/a	n/a	74.864	n/a
45.773	0.497	neutral	Picture	64.087	n/a	1	2	6	n/a	26	37	1	n/a	n/a	n/a	n/a	75.394	BM25NES.jpg
46.27	0.514	Blank	Blank	63.573	n/a	1	2	6	n/a	26	n/a	1	n/a	n/a	n/a	n/a	75.892	n/a
46.801	0.497	neutral	Picture	63.059	n/a	1	2	7	n/a	27	15	1	n/a	n/a	n/a	n/a	76.422	AF25NES.jpg
47.298	0.514	Blank	Blank	62.545	n/a	1	2	7	n/a	27	n/a	1	n/a	n/a	n/a	n/a	76.92	n/a
47.829	0.497	neutral	Picture	62.032	n/a	1	2	8	n/a	28	23	1	n/a	n/a	n/a	n/a	77.45	AM04NES.jpg
48.326	0.514	Blank	Blank	61.518	n/a	1	2	8	n/a	28	n/a	1	n/a	n/a	n/a	n/a	77.948	n/a
48.857	0.497	neutral	Picture	61.004	n/a	1	2	9	n/a	29	34	1	n/a	n/a	n/a	n/a	78.478	AM22NES.jpg
49.354	0.514	Blank	Blank	60.49	n/a	1	2	9	n/a	29	n/a	1	n/a	n/a	n/a	n/a	78.975	n/a
49.885	0.497	neutral	Picture	59.976	n/a	1	2	10	n/a	30	24	1	n/a	n/a	n/a	n/a	79.506	BM05NES.jpg
50.382	0.514	Blank	Blank	59.462	n/a	1	2	10	n/a	30	n/a	1	n/a	n/a	n/a	n/a	80.003	n/a
50.912	0.497	neutral	Picture	58.948	n/a	1	2	11	n/a	31	12	1	n/a	n/a	n/a	n/a	80.534	AF21NES.jpg
51.41	0.514	Blank	Blank	58.434	n/a	1	2	11	n/a	31	n/a	1	n/a	n/a	n/a	n/a	81.031	n/a
51.94	0.497	neutral	Picture	57.92	n/a	1	2	12	n/a	32	6	1	n/a	n/a	n/a	n/a	81.562	AF09NES.jpg
52.438	0.514	Blank	Blank	57.406	n/a	1	2	12	n/a	32	n/a	1	n/a	n/a	n/a	n/a	82.059	n/a
52.968	0.497	neutral	Picture	56.892	n/a	1	2	13	n/a	33	17	1	n/a	n/a	n/a	n/a	82.59	BF28NES.jpg
53.466	0.514	Blank	Blank	56.378	n/a	1	2	13	n/a	33	n/a	1	n/a	n/a	n/a	n/a	83.087	n/a
53.996	0.497	neutral	Picture	55.864	n/a	1	2	14	n/a	34	2	1	n/a	n/a	n/a	n/a	83.618	AF03NES.jpg
54.493	0.514	Blank	Blank	55.35	n/a	1	2	14	n/a	34	n/a	1	n/a	n/a	n/a	n/a	84.115	n/a
55.024	0.497	neutral	Picture	54.836	n/a	1	2	15	n/a	35	9	1	n/a	n/a	n/a	n/a	84.645	AF17NES.jpg
55.521	0.514	Blank	Blank	54.322	n/a	1	2	15	n/a	35	n/a	1	n/a	n/a	n/a	n/a	85.143	n/a
56.052	0.497	neutral	Picture	53.809	n/a	1	2	16	n/a	36	25	1	n/a	n/a	n/a	n/a	85.673	BM06NES.jpg
56.549	0.514	Blank	Blank	53.295	n/a	1	2	16	n/a	36	n/a	1	n/a	n/a	n/a	n/a	86.171	n/a
57.08	0.497	neutral	Picture	52.781	n/a	1	2	17	n/a	37	8	1	n/a	n/a	n/a	n/a	86.701	AF14NES.jpg
57.577	0.514	Blank	Blank	52.267	n/a	1	2	17	n/a	37	n/a	1	n/a	n/a	n/a	n/a	87.198	n/a
58.108	0.497	neutral	Picture	51.753	n/a	1	2	18	n/a	38	19	1	n/a	n/a	n/a	n/a	87.729	AF31NES.jpg
58.605	0.514	Blank	Blank	51.239	n/a	1	2	18	n/a	38	n/a	1	n/a	n/a	n/a	n/a	88.226	n/a
59.135	0.497	neutral	Picture	50.725	n/a	1	2	19	n/a	39	14	1	n/a	n/a	n/a	n/a	88.757	AF23NES.jpg
59.633	0.514	Blank	Blank	50.211	n/a	1	2	19	n/a	39	n/a	1	n/a	n/a	n/a	n/a	89.254	n/a
60.163	0.497	neutral	Picture	49.697	n/a	1	2	20	n/a	40	4	1	n/a	n/a	n/a	n/a	89.785	AF05NES.jpg
60.661	0.514	Blank	Blank	49.183	n/a	1	2	20	n/a	40	n/a	1	n/a	n/a	n/a	n/a	90.282	n/a
61.191	10.014	ITI	Fixation+	39.153	n/a	1	n/a	n/a	n/a	n/a	n/a	n/a	n/a	n/a	n/a	n/a	90.813	n/a
71.221	0.497	angry	Picture	38.639	n/a	1	3	1	n/a	41	84	3	n/a	n/a	n/a	n/a	100.843	AF05ANS.jpg
71.719	0.514	Blank	Blank	38.125	n/a	1	3	1	n/a	41	n/a	3	n/a	n/a	n/a	n/a	101.34	n/a
72.249	0.497	angry	Picture	37.611	n/a	1	3	2	n/a	42	92	3	n/a	n/a	n/a	n/a	101.871	AF21ANS.jpg
72.746	0.514	Blank	Blank	37.097	n/a	1	3	2	n/a	42	n/a	3	n/a	n/a	n/a	n/a	102.368	n/a
73.277	0.497	angry	Picture	36.583	n/a	1	3	3	n/a	43	86	3	n/a	n/a	n/a	n/a	102.898	AF09ANS.jpg
73.774	0.514	Blank	Blank	36.069	n/a	1	3	3	n/a	43	n/a	3	n/a	n/a	n/a	n/a	103.396	n/a
74.305	0.497	angry	Picture	35.555	n/a	1	3	4	n/a	44	93	3	n/a	n/a	n/a	n/a	103.926	BF22ANS.jpg
74.802	0.514	Blank	Blank	35.041	n/a	1	3	4	n/a	44	n/a	3	n/a	n/a	n/a	n/a	104.424	n/a
75.333	0.497	angry	Picture	34.528	n/a	1	3	5	n/a	45	88	3	n/a	n/a	n/a	n/a	104.954	AF14ANS.jpg
75.83	0.514	Blank	Blank	34.014	n/a	1	3	5	n/a	45	n/a	3	n/a	n/a	n/a	n/a	105.452	n/a
76.361	0.497	angry	Picture	33.5	n/a	1	3	6	n/a	46	113	3	n/a	n/a	n/a	n/a	105.982	AM21ANS.jpg
76.858	0.514	Blank	Blank	32.986	n/a	1	3	6	n/a	46	n/a	3	n/a	n/a	n/a	n/a	106.48	n/a
77.389	0.497	angry	Picture	32.472	n/a	1	3	7	n/a	47	95	3	n/a	n/a	n/a	n/a	107.01	AF25ANS.jpg
77.886	0.514	Blank	Blank	31.958	n/a	1	3	7	n/a	47	n/a	3	n/a	n/a	n/a	n/a	107.507	n/a
78.416	0.497	angry	Picture	31.444	n/a	1	3	8	n/a	48	102	3	n/a	n/a	n/a	n/a	108.038	BM03ANS.jpg
78.914	0.514	Blank	Blank	30.93	n/a	1	3	8	n/a	48	n/a	3	n/a	n/a	n/a	n/a	108.535	n/a
79.444	0.497	angry	Picture	30.416	n/a	1	3	9	n/a	49	112	3	n/a	n/a	n/a	n/a	109.066	AM14ANS.jpg
79.942	0.514	Blank	Blank	29.902	n/a	1	3	9	n/a	49	n/a	3	n/a	n/a	n/a	n/a	109.563	n/a
80.472	0.497	angry	Picture	29.388	n/a	1	3	10	n/a	50	83	3	n/a	n/a	n/a	n/a	110.094	BF04ANS.jpg
80.969	0.514	Blank	Blank	28.874	n/a	1	3	10	n/a	50	n/a	3	n/a	n/a	n/a	n/a	110.591	n/a
81.5	0.497	angry	Picture	28.36	n/a	1	3	11	n/a	51	90	3	n/a	n/a	n/a	n/a	111.122	AF18ANS.jpg
81.997	0.514	Blank	Blank	27.846	n/a	1	3	11	n/a	51	n/a	3	n/a	n/a	n/a	n/a	111.619	n/a
82.528	0.497	angry	Picture	27.332	n/a	1	3	12	n/a	52	117	3	n/a	n/a	n/a	n/a	112.149	BM25ANS.jpg
83.025	0.514	Blank	Blank	26.818	n/a	1	3	12	n/a	52	n/a	3	n/a	n/a	n/a	n/a	112.647	n/a
83.556	0.497	angry	Picture	26.304	n/a	1	3	13	n/a	53	94	3	n/a	n/a	n/a	n/a	113.177	AF23ANS.jpg
84.053	0.514	Blank	Blank	25.791	n/a	1	3	13	n/a	53	n/a	3	n/a	n/a	n/a	n/a	113.675	n/a
84.584	0.497	angry	Picture	25.277	n/a	1	3	14	n/a	54	106	3	n/a	n/a	n/a	n/a	114.205	AM07ANS.jpg
85.081	0.514	Blank	Blank	24.763	n/a	1	3	14	n/a	54	n/a	3	n/a	n/a	n/a	n/a	114.703	n/a
85.612	0.497	angry	Picture	24.249	n/a	1	3	15	n/a	55	105	3	n/a	n/a	n/a	n/a	115.233	BM06ANS.jpg
86.109	0.514	Blank	Blank	23.735	n/a	1	3	15	n/a	55	n/a	3	n/a	n/a	n/a	n/a	115.73	n/a
86.639	0.497	angry	Picture	23.221	n/a	1	3	16	n/a	56	116	3	n/a	n/a	n/a	n/a	116.261	BM24ANS.jpg
87.137	0.514	Blank	Blank	22.707	n/a	1	3	16	n/a	56	n/a	3	n/a	n/a	n/a	n/a	116.758	n/a
87.667	0.497	angry	Picture	22.193	n/a	1	3	17	n/a	57	89	3	n/a	n/a	n/a	n/a	117.289	AF17ANS.jpg
88.165	0.514	Blank	Blank	21.679	n/a	1	3	17	n/a	57	n/a	3	n/a	n/a	n/a	n/a	117.786	n/a
88.695	0.497	angry	Picture	21.165	n/a	1	3	18	n/a	58	118	3	n/a	n/a	n/a	n/a	118.317	BM26ANS.jpg
89.193	0.514	Blank	Blank	20.651	n/a	1	3	18	n/a	58	n/a	3	n/a	n/a	n/a	n/a	118.814	n/a
89.723	0.497	angry	Picture	20.137	n/a	1	3	19	n/a	59	100	3	n/a	n/a	n/a	n/a	119.345	AF32ANS.jpg
90.22	0.514	Blank	Blank	19.623	n/a	1	3	19	n/a	59	n/a	3	n/a	n/a	n/a	n/a	119.842	n/a
90.751	0.497	angry	Picture	19.109	n/a	1	3	20	n/a	60	119	3	n/a	n/a	n/a	n/a	120.373	BM28ANS.jpg
91.248	0.514	Blank	Blank	18.595	n/a	1	3	20	n/a	60	n/a	3	n/a	n/a	n/a	n/a	120.87	n/a
91.779	10.014	ITI	Fixation+	8.565	n/a	1	n/a	n/a	n/a	n/a	n/a	n/a	n/a	n/a	n/a	n/a	121.4	n/a
110.358	n/a	ConfirmRating	Rate	n/a	8.555	1	n/a	n/a	0	n/a	n/a	n/a	2	Angry	36	49	139.979	n/a
117.992	n/a	ConfirmRating	Rate	n/a	7.626	1	n/a	n/a	1	n/a	n/a	n/a	3	Angry	50	50	147.613	n/a
118.023	10.014	ITI	Fixation+	99.742	n/a	2	n/a	n/a	n/a	n/a	n/a	n/a	n/a	n/a	n/a	n/a	147.644	n/a
128.053	0.497	happy	Picture	99.228	n/a	2	4	1	n/a	61	79	2	n/a	n/a	n/a	n/a	157.674	BM28HAS.jpg
128.55	0.514	Blank	Blank	98.714	n/a	2	4	1	n/a	61	n/a	2	n/a	n/a	n/a	n/a	158.172	n/a
129.081	0.497	happy	Picture	98.2	n/a	2	4	2	n/a	62	61	2	n/a	n/a	n/a	n/a	158.702	AM01HAS.jpg
129.578	0.514	Blank	Blank	97.686	n/a	2	4	2	n/a	62	n/a	2	n/a	n/a	n/a	n/a	159.2	n/a
130.109	0.497	happy	Picture	97.172	n/a	2	4	3	n/a	63	57	2	n/a	n/a	n/a	n/a	159.73	BF28HAS.jpg
130.606	0.514	Blank	Blank	96.658	n/a	2	4	3	n/a	63	n/a	2	n/a	n/a	n/a	n/a	160.228	n/a
131.137	0.497	happy	Picture	96.144	n/a	2	4	4	n/a	64	77	2	n/a	n/a	n/a	n/a	160.758	BM25HAS.jpg
131.634	0.514	Blank	Blank	95.63	n/a	2	4	4	n/a	64	n/a	2	n/a	n/a	n/a	n/a	161.256	n/a
132.165	0.497	happy	Picture	95.116	n/a	2	4	5	n/a	65	47	2	n/a	n/a	n/a	n/a	161.786	BF11HAS.jpg
132.662	0.514	Blank	Blank	94.602	n/a	2	4	5	n/a	65	n/a	2	n/a	n/a	n/a	n/a	162.283	n/a
133.192	0.497	happy	Picture	94.088	n/a	2	4	6	n/a	66	50	2	n/a	n/a	n/a	n/a	162.814	AF18HAS.jpg
133.69	0.514	Blank	Blank	93.574	n/a	2	4	6	n/a	66	n/a	2	n/a	n/a	n/a	n/a	163.311	n/a
134.22	0.497	happy	Picture	93.061	n/a	2	4	7	n/a	67	78	2	n/a	n/a	n/a	n/a	163.842	BM26HAS.jpg
134.718	0.514	Blank	Blank	92.547	n/a	2	4	7	n/a	67	n/a	2	n/a	n/a	n/a	n/a	164.339	n/a
135.248	0.497	happy	Picture	92.033	n/a	2	4	8	n/a	68	45	2	n/a	n/a	n/a	n/a	164.87	BF07HAS.jpg
135.745	0.514	Blank	Blank	91.519	n/a	2	4	8	n/a	68	n/a	2	n/a	n/a	n/a	n/a	165.367	n/a
136.276	0.497	happy	Picture	91.005	n/a	2	4	9	n/a	69	56	2	n/a	n/a	n/a	n/a	165.898	AF26HAS.jpg
136.773	0.514	Blank	Blank	90.491	n/a	2	4	9	n/a	69	n/a	2	n/a	n/a	n/a	n/a	166.395	n/a
137.304	0.497	happy	Picture	89.977	n/a	2	4	10	n/a	70	65	2	n/a	n/a	n/a	n/a	166.925	BM06HAS.jpg
137.801	0.514	Blank	Blank	89.463	n/a	2	4	10	n/a	70	n/a	2	n/a	n/a	n/a	n/a	167.423	n/a
138.332	0.497	happy	Picture	88.949	n/a	2	4	11	n/a	71	73	2	n/a	n/a	n/a	n/a	167.953	AM21HAS.jpg
138.829	0.514	Blank	Blank	88.435	n/a	2	4	11	n/a	71	n/a	2	n/a	n/a	n/a	n/a	168.451	n/a
139.36	0.497	happy	Picture	87.921	n/a	2	4	12	n/a	72	41	2	n/a	n/a	n/a	n/a	168.981	AF01HAS.jpg
139.857	0.514	Blank	Blank	87.407	n/a	2	4	12	n/a	72	n/a	2	n/a	n/a	n/a	n/a	169.478	n/a
140.387	0.497	happy	Picture	86.893	n/a	2	4	13	n/a	73	59	2	n/a	n/a	n/a	n/a	170.009	AF31HAS.jpg
140.885	0.514	Blank	Blank	86.379	n/a	2	4	13	n/a	73	n/a	2	n/a	n/a	n/a	n/a	170.506	n/a
141.415	0.497	happy	Picture	85.865	n/a	2	4	14	n/a	74	64	2	n/a	n/a	n/a	n/a	171.037	BM05HAS.jpg
141.913	0.514	Blank	Blank	85.351	n/a	2	4	14	n/a	74	n/a	2	n/a	n/a	n/a	n/a	171.534	n/a
142.443	0.497	happy	Picture	84.837	n/a	2	4	15	n/a	75	68	2	n/a	n/a	n/a	n/a	172.065	AM09HAS.jpg
142.941	0.514	Blank	Blank	84.324	n/a	2	4	15	n/a	75	n/a	2	n/a	n/a	n/a	n/a	172.562	n/a
143.471	0.497	happy	Picture	83.81	n/a	2	4	16	n/a	76	54	2	n/a	n/a	n/a	n/a	173.093	AF23HAS.jpg
143.969	0.514	Blank	Blank	83.296	n/a	2	4	16	n/a	76	n/a	2	n/a	n/a	n/a	n/a	173.59	n/a
144.499	0.497	happy	Picture	82.782	n/a	2	4	17	n/a	77	53	2	n/a	n/a	n/a	n/a	174.12	BF22HAS.jpg
144.996	0.514	Blank	Blank	82.268	n/a	2	4	17	n/a	77	n/a	2	n/a	n/a	n/a	n/a	174.618	n/a
145.527	0.497	happy	Picture	81.754	n/a	2	4	18	n/a	78	44	2	n/a	n/a	n/a	n/a	175.148	AF05HAS.jpg
146.024	0.514	Blank	Blank	81.24	n/a	2	4	18	n/a	78	n/a	2	n/a	n/a	n/a	n/a	175.646	n/a
146.555	0.497	happy	Picture	80.726	n/a	2	4	19	n/a	79	52	2	n/a	n/a	n/a	n/a	176.176	AF21HAS.jpg
147.052	0.514	Blank	Blank	80.212	n/a	2	4	19	n/a	79	n/a	2	n/a	n/a	n/a	n/a	176.674	n/a
147.583	0.497	happy	Picture	79.698	n/a	2	4	20	n/a	80	62	2	n/a	n/a	n/a	n/a	177.204	BM03HAS.jpg
148.08	0.514	Blank	Blank	79.184	n/a	2	4	20	n/a	80	n/a	2	n/a	n/a	n/a	n/a	177.702	n/a
148.611	10.014	ITI	Fixation+	69.154	n/a	2	n/a	n/a	n/a	n/a	n/a	n/a	n/a	n/a	n/a	n/a	178.232	n/a
158.641	0.497	neutral	Picture	68.64	n/a	2	5	1	n/a	81	23	1	n/a	n/a	n/a	n/a	188.262	AM04NES.jpg
159.138	0.514	Blank	Blank	68.126	n/a	2	5	1	n/a	81	n/a	1	n/a	n/a	n/a	n/a	188.76	n/a
159.668	0.497	neutral	Picture	67.612	n/a	2	5	2	n/a	82	29	1	n/a	n/a	n/a	n/a	189.29	AM10NES.jpg
160.166	0.514	Blank	Blank	67.098	n/a	2	5	2	n/a	82	n/a	1	n/a	n/a	n/a	n/a	189.787	n/a
160.696	0.497	neutral	Picture	66.584	n/a	2	5	3	n/a	83	24	1	n/a	n/a	n/a	n/a	190.318	BM05NES.jpg
161.194	0.514	Blank	Blank	66.07	n/a	2	5	3	n/a	83	n/a	1	n/a	n/a	n/a	n/a	190.815	n/a
161.724	0.497	neutral	Picture	65.556	n/a	2	5	4	n/a	84	12	1	n/a	n/a	n/a	n/a	191.346	AF21NES.jpg
162.222	0.514	Blank	Blank	65.043	n/a	2	5	4	n/a	84	n/a	1	n/a	n/a	n/a	n/a	191.843	n/a
162.752	0.497	neutral	Picture	64.529	n/a	2	5	5	n/a	85	13	1	n/a	n/a	n/a	n/a	192.374	BF22NES.jpg
163.25	0.514	Blank	Blank	64.015	n/a	2	5	5	n/a	85	n/a	1	n/a	n/a	n/a	n/a	192.871	n/a
163.78	0.497	neutral	Picture	63.501	n/a	2	5	6	n/a	86	17	1	n/a	n/a	n/a	n/a	193.402	BF28NES.jpg
164.277	0.514	Blank	Blank	62.987	n/a	2	5	6	n/a	86	n/a	1	n/a	n/a	n/a	n/a	193.899	n/a
164.808	0.497	neutral	Picture	62.473	n/a	2	5	7	n/a	87	4	1	n/a	n/a	n/a	n/a	194.429	AF05NES.jpg
165.305	0.514	Blank	Blank	61.959	n/a	2	5	7	n/a	87	n/a	1	n/a	n/a	n/a	n/a	194.927	n/a
165.836	0.497	neutral	Picture	61.445	n/a	2	5	8	n/a	88	11	1	n/a	n/a	n/a	n/a	195.457	AF20NES.jpg
166.333	0.514	Blank	Blank	60.931	n/a	2	5	8	n/a	88	n/a	1	n/a	n/a	n/a	n/a	195.955	n/a
166.864	0.497	neutral	Picture	60.417	n/a	2	5	9	n/a	89	22	1	n/a	n/a	n/a	n/a	196.485	BM03NES.jpg
167.361	0.514	Blank	Blank	59.903	n/a	2	5	9	n/a	89	n/a	1	n/a	n/a	n/a	n/a	196.982	n/a
167.892	0.497	neutral	Picture	59.389	n/a	2	5	10	n/a	90	15	1	n/a	n/a	n/a	n/a	197.513	AF25NES.jpg
168.389	0.514	Blank	Blank	58.875	n/a	2	5	10	n/a	90	n/a	1	n/a	n/a	n/a	n/a	198.01	n/a
168.919	0.497	neutral	Picture	58.361	n/a	2	5	11	n/a	91	19	1	n/a	n/a	n/a	n/a	198.541	AF31NES.jpg
169.417	0.514	Blank	Blank	57.847	n/a	2	5	11	n/a	91	n/a	1	n/a	n/a	n/a	n/a	199.038	n/a
169.947	0.497	neutral	Picture	57.333	n/a	2	5	12	n/a	92	9	1	n/a	n/a	n/a	n/a	199.569	AF17NES.jpg
170.445	0.514	Blank	Blank	56.82	n/a	2	5	12	n/a	92	n/a	1	n/a	n/a	n/a	n/a	200.066	n/a
170.975	0.497	neutral	Picture	56.306	n/a	2	5	13	n/a	93	14	1	n/a	n/a	n/a	n/a	200.597	AF23NES.jpg
171.473	0.514	Blank	Blank	55.792	n/a	2	5	13	n/a	93	n/a	1	n/a	n/a	n/a	n/a	201.094	n/a
172.003	0.497	neutral	Picture	55.278	n/a	2	5	14	n/a	94	36	1	n/a	n/a	n/a	n/a	201.625	BM24NES.jpg
172.5	0.514	Blank	Blank	54.764	n/a	2	5	14	n/a	94	n/a	1	n/a	n/a	n/a	n/a	202.122	n/a
173.031	0.497	neutral	Picture	54.25	n/a	2	5	15	n/a	95	34	1	n/a	n/a	n/a	n/a	202.653	AM22NES.jpg
173.528	0.514	Blank	Blank	53.736	n/a	2	5	15	n/a	95	n/a	1	n/a	n/a	n/a	n/a	203.15	n/a
174.059	0.497	neutral	Picture	53.222	n/a	2	5	16	n/a	96	10	1	n/a	n/a	n/a	n/a	203.68	AF18NES.jpg
174.556	0.514	Blank	Blank	52.708	n/a	2	5	16	n/a	96	n/a	1	n/a	n/a	n/a	n/a	204.178	n/a
175.087	0.497	neutral	Picture	52.194	n/a	2	5	17	n/a	97	5	1	n/a	n/a	n/a	n/a	204.708	BF07NES.jpg
175.584	0.514	Blank	Blank	51.68	n/a	2	5	17	n/a	97	n/a	1	n/a	n/a	n/a	n/a	205.206	n/a
176.115	0.497	neutral	Picture	51.166	n/a	2	5	18	n/a	98	25	1	n/a	n/a	n/a	n/a	205.736	BM06NES.jpg
176.612	0.514	Blank	Blank	50.652	n/a	2	5	18	n/a	98	n/a	1	n/a	n/a	n/a	n/a	206.233	n/a
177.143	0.497	neutral	Picture	50.138	n/a	2	5	19	n/a	99	39	1	n/a	n/a	n/a	n/a	206.764	AM28NES.jpg
177.64	0.514	Blank	Blank	49.624	n/a	2	5	19	n/a	99	n/a	1	n/a	n/a	n/a	n/a	207.261	n/a
178.17	0.497	neutral	Picture	49.11	n/a	2	5	20	n/a	100	33	1	n/a	n/a	n/a	n/a	207.792	AM21NES.jpg
178.668	0.514	Blank	Blank	48.597	n/a	2	5	20	n/a	100	n/a	1	n/a	n/a	n/a	n/a	208.289	n/a
179.198	10.014	ITI	Fixation+	38.566	n/a	2	n/a	n/a	n/a	n/a	n/a	n/a	n/a	n/a	n/a	n/a	208.82	n/a
189.228	0.497	happy	Picture	38.052	n/a	2	6	1	n/a	101	74	2	n/a	n/a	n/a	n/a	218.85	AM22HAS.jpg
189.726	0.514	Blank	Blank	37.539	n/a	2	6	1	n/a	101	n/a	2	n/a	n/a	n/a	n/a	219.347	n/a
190.256	0.497	happy	Picture	37.025	n/a	2	6	2	n/a	102	76	2	n/a	n/a	n/a	n/a	219.878	BM24HAS.jpg
190.754	0.514	Blank	Blank	36.511	n/a	2	6	2	n/a	102	n/a	2	n/a	n/a	n/a	n/a	220.375	n/a
191.284	0.497	happy	Picture	35.997	n/a	2	6	3	n/a	103	80	2	n/a	n/a	n/a	n/a	220.906	BM35HAS.jpg
191.781	0.514	Blank	Blank	35.483	n/a	2	6	3	n/a	103	n/a	2	n/a	n/a	n/a	n/a	221.403	n/a
192.312	0.497	happy	Picture	34.969	n/a	2	6	4	n/a	104	75	2	n/a	n/a	n/a	n/a	221.934	AM23HAS.jpg
192.809	0.514	Blank	Blank	34.455	n/a	2	6	4	n/a	104	n/a	2	n/a	n/a	n/a	n/a	222.431	n/a
193.34	0.497	happy	Picture	33.941	n/a	2	6	5	n/a	105	49	2	n/a	n/a	n/a	n/a	222.961	AF17HAS.jpg
193.837	0.514	Blank	Blank	33.427	n/a	2	6	5	n/a	105	n/a	2	n/a	n/a	n/a	n/a	223.459	n/a
194.368	0.497	happy	Picture	32.913	n/a	2	6	6	n/a	106	43	2	n/a	n/a	n/a	n/a	223.989	BF04HAS.jpg
194.865	0.514	Blank	Blank	32.399	n/a	2	6	6	n/a	106	n/a	2	n/a	n/a	n/a	n/a	224.487	n/a
195.396	0.497	happy	Picture	31.885	n/a	2	6	7	n/a	107	70	2	n/a	n/a	n/a	n/a	225.017	BM11HAS.jpg
195.893	0.514	Blank	Blank	31.371	n/a	2	6	7	n/a	107	n/a	2	n/a	n/a	n/a	n/a	225.514	n/a
196.423	0.497	happy	Picture	30.857	n/a	2	6	8	n/a	108	66	2	n/a	n/a	n/a	n/a	226.045	BM07HAS.jpg
196.921	0.514	Blank	Blank	30.343	n/a	2	6	8	n/a	108	n/a	2	n/a	n/a	n/a	n/a	226.542	n/a
197.451	0.497	happy	Picture	29.829	n/a	2	6	9	n/a	109	48	2	n/a	n/a	n/a	n/a	227.073	AF14HAS.jpg
197.949	0.514	Blank	Blank	29.315	n/a	2	6	9	n/a	109	n/a	2	n/a	n/a	n/a	n/a	227.57	n/a
198.479	0.497	happy	Picture	28.802	n/a	2	6	10	n/a	110	58	2	n/a	n/a	n/a	n/a	228.101	BF29HAS.jpg
198.977	0.514	Blank	Blank	28.288	n/a	2	6	10	n/a	110	n/a	2	n/a	n/a	n/a	n/a	228.598	n/a
199.507	0.497	happy	Picture	27.774	n/a	2	6	11	n/a	111	63	2	n/a	n/a	n/a	n/a	229.129	AM04HAS.jpg
200.005	0.514	Blank	Blank	27.26	n/a	2	6	11	n/a	111	n/a	2	n/a	n/a	n/a	n/a	229.626	n/a
200.535	0.497	happy	Picture	26.746	n/a	2	6	12	n/a	112	72	2	n/a	n/a	n/a	n/a	230.156	AM14HAS.jpg
201.032	0.514	Blank	Blank	26.232	n/a	2	6	12	n/a	112	n/a	2	n/a	n/a	n/a	n/a	230.654	n/a
201.563	0.497	happy	Picture	25.718	n/a	2	6	13	n/a	113	55	2	n/a	n/a	n/a	n/a	231.184	AF25HAS.jpg
202.06	0.514	Blank	Blank	25.204	n/a	2	6	13	n/a	113	n/a	2	n/a	n/a	n/a	n/a	231.682	n/a
202.591	0.497	happy	Picture	24.69	n/a	2	6	14	n/a	114	42	2	n/a	n/a	n/a	n/a	232.212	AF03HAS.jpg
203.088	0.514	Blank	Blank	24.176	n/a	2	6	14	n/a	114	n/a	2	n/a	n/a	n/a	n/a	232.71	n/a
203.619	0.497	happy	Picture	23.662	n/a	2	6	15	n/a	115	60	2	n/a	n/a	n/a	n/a	233.24	AF32HAS.jpg
204.116	0.514	Blank	Blank	23.148	n/a	2	6	15	n/a	115	n/a	2	n/a	n/a	n/a	n/a	233.738	n/a
204.647	0.497	happy	Picture	22.634	n/a	2	6	16	n/a	116	67	2	n/a	n/a	n/a	n/a	234.268	BM08HAS.jpg
205.144	0.514	Blank	Blank	22.12	n/a	2	6	16	n/a	116	n/a	2	n/a	n/a	n/a	n/a	234.765	n/a
205.674	0.497	happy	Picture	21.606	n/a	2	6	17	n/a	117	51	2	n/a	n/a	n/a	n/a	235.296	AF20HAS.jpg
206.172	0.514	Blank	Blank	21.092	n/a	2	6	17	n/a	117	n/a	2	n/a	n/a	n/a	n/a	235.793	n/a
206.702	0.497	happy	Picture	20.579	n/a	2	6	18	n/a	118	71	2	n/a	n/a	n/a	n/a	236.324	BM12HAS.jpg
207.2	0.514	Blank	Blank	20.065	n/a	2	6	18	n/a	118	n/a	2	n/a	n/a	n/a	n/a	236.821	n/a
207.73	0.497	happy	Picture	19.551	n/a	2	6	19	n/a	119	69	2	n/a	n/a	n/a	n/a	237.352	AM10HAS.jpg
208.227	0.514	Blank	Blank	19.037	n/a	2	6	19	n/a	119	n/a	2	n/a	n/a	n/a	n/a	237.849	n/a
208.758	0.497	happy	Picture	18.523	n/a	2	6	20	n/a	120	46	2	n/a	n/a	n/a	n/a	238.38	AF09HAS.jpg
209.255	0.514	Blank	Blank	18.009	n/a	2	6	20	n/a	120	n/a	2	n/a	n/a	n/a	n/a	238.877	n/a
209.786	10.014	ITI	Fixation+	7.979	n/a	2	n/a	n/a	n/a	n/a	n/a	n/a	n/a	n/a	n/a	n/a	239.407	n/a
227.778	n/a	ConfirmRating	Rate	n/a	7.974	2	n/a	n/a	0	n/a	n/a	n/a	2	Happy	64	51	257.4	n/a
234.547	n/a	ConfirmRating	Rate	n/a	6.748	2	n/a	n/a	1	n/a	n/a	n/a	3	Happy	20	48	264.168	n/a
234.571	15.004	Rest	Picture	n/a	n/a	n/a	n/a	n/a	n/a	n/a	n/a	n/a	0	n/a	0	0	264.192	n/a
249.591	10.014	ITI	Fixation+	95.825	n/a	3	n/a	n/a	n/a	n/a	n/a	n/a	n/a	n/a	n/a	n/a	279.213	n/a
259.621	0.497	angry	Picture	95.311	n/a	3	7	1	n/a	1	108	3	n/a	n/a	n/a	n/a	289.243	AM09ANS.jpg
260.119	0.514	Blank	Blank	94.798	n/a	3	7	1	n/a	1	n/a	3	n/a	n/a	n/a	n/a	289.74	n/a
260.649	0.497	angry	Picture	94.283	n/a	3	7	2	n/a	2	99	3	n/a	n/a	n/a	n/a	290.271	AF31ANS.jpg
261.147	0.514	Blank	Blank	93.77	n/a	3	7	2	n/a	2	n/a	3	n/a	n/a	n/a	n/a	290.768	n/a
261.677	0.497	angry	Picture	93.256	n/a	3	7	3	n/a	3	98	3	n/a	n/a	n/a	n/a	291.299	BF29ANS.jpg
262.174	0.514	Blank	Blank	92.742	n/a	3	7	3	n/a	3	n/a	3	n/a	n/a	n/a	n/a	291.796	n/a
262.705	0.497	angry	Picture	92.228	n/a	3	7	4	n/a	4	107	3	n/a	n/a	n/a	n/a	292.327	BM08ANS.jpg
263.202	0.514	Blank	Blank	91.714	n/a	3	7	4	n/a	4	n/a	3	n/a	n/a	n/a	n/a	292.824	n/a
263.733	0.497	angry	Picture	91.2	n/a	3	7	5	n/a	5	104	3	n/a	n/a	n/a	n/a	293.354	BM05ANS.jpg
264.23	0.514	Blank	Blank	90.686	n/a	3	7	5	n/a	5	n/a	3	n/a	n/a	n/a	n/a	293.852	n/a
264.761	0.497	angry	Picture	90.172	n/a	3	7	6	n/a	6	101	3	n/a	n/a	n/a	n/a	294.382	AM01ANS.jpg
265.258	0.514	Blank	Blank	89.658	n/a	3	7	6	n/a	6	n/a	3	n/a	n/a	n/a	n/a	294.88	n/a
265.789	0.497	angry	Picture	89.144	n/a	3	7	7	n/a	7	103	3	n/a	n/a	n/a	n/a	295.41	AM04ANS.jpg
266.286	0.514	Blank	Blank	88.63	n/a	3	7	7	n/a	7	n/a	3	n/a	n/a	n/a	n/a	295.908	n/a
266.817	0.497	angry	Picture	88.116	n/a	3	7	8	n/a	8	111	3	n/a	n/a	n/a	n/a	296.438	BM12ANS.jpg
267.314	0.514	Blank	Blank	87.602	n/a	3	7	8	n/a	8	n/a	3	n/a	n/a	n/a	n/a	296.935	n/a
267.844	0.497	angry	Picture	87.088	n/a	3	7	9	n/a	9	110	3	n/a	n/a	n/a	n/a	297.466	AM11ANS.jpg
268.342	0.514	Blank	Blank	86.575	n/a	3	7	9	n/a	9	n/a	3	n/a	n/a	n/a	n/a	297.963	n/a
268.872	0.497	angry	Picture	86.06	n/a	3	7	10	n/a	10	85	3	n/a	n/a	n/a	n/a	298.494	BF07ANS.jpg
269.37	0.514	Blank	Blank	85.547	n/a	3	7	10	n/a	10	n/a	3	n/a	n/a	n/a	n/a	298.991	n/a
269.9	0.497	angry	Picture	85.033	n/a	3	7	11	n/a	11	87	3	n/a	n/a	n/a	n/a	299.522	BF11ANS.jpg
270.398	0.514	Blank	Blank	84.519	n/a	3	7	11	n/a	11	n/a	3	n/a	n/a	n/a	n/a	300.019	n/a
270.928	0.497	angry	Picture	84.005	n/a	3	7	12	n/a	12	91	3	n/a	n/a	n/a	n/a	300.55	AF20ANS.jpg
271.425	0.514	Blank	Blank	83.491	n/a	3	7	12	n/a	12	n/a	3	n/a	n/a	n/a	n/a	301.047	n/a
271.956	0.497	angry	Picture	82.977	n/a	3	7	13	n/a	13	115	3	n/a	n/a	n/a	n/a	301.577	AM23ANS.jpg
272.453	0.514	Blank	Blank	82.463	n/a	3	7	13	n/a	13	n/a	3	n/a	n/a	n/a	n/a	302.075	n/a
272.984	0.497	angry	Picture	81.949	n/a	3	7	14	n/a	14	97	3	n/a	n/a	n/a	n/a	302.605	BF28ANS.jpg
273.481	0.514	Blank	Blank	81.435	n/a	3	7	14	n/a	14	n/a	3	n/a	n/a	n/a	n/a	303.103	n/a
274.012	0.497	angry	Picture	80.921	n/a	3	7	15	n/a	15	82	3	n/a	n/a	n/a	n/a	303.633	AF03ANS.jpg
274.509	0.514	Blank	Blank	80.407	n/a	3	7	15	n/a	15	n/a	3	n/a	n/a	n/a	n/a	304.131	n/a
275.04	0.497	angry	Picture	79.893	n/a	3	7	16	n/a	16	96	3	n/a	n/a	n/a	n/a	304.661	AF26ANS.jpg
275.537	0.514	Blank	Blank	79.379	n/a	3	7	16	n/a	16	n/a	3	n/a	n/a	n/a	n/a	305.158	n/a
276.067	0.497	angry	Picture	78.865	n/a	3	7	17	n/a	17	109	3	n/a	n/a	n/a	n/a	305.689	AM10ANS.jpg
276.565	0.514	Blank	Blank	78.351	n/a	3	7	17	n/a	17	n/a	3	n/a	n/a	n/a	n/a	306.186	n/a
277.095	0.497	angry	Picture	77.837	n/a	3	7	18	n/a	18	114	3	n/a	n/a	n/a	n/a	306.717	AM22ANS.jpg
277.593	0.514	Blank	Blank	77.324	n/a	3	7	18	n/a	18	n/a	3	n/a	n/a	n/a	n/a	307.214	n/a
278.123	0.497	angry	Picture	76.81	n/a	3	7	19	n/a	19	120	3	n/a	n/a	n/a	n/a	307.745	AM35ANS.jpg
278.621	0.514	Blank	Blank	76.296	n/a	3	7	19	n/a	19	n/a	3	n/a	n/a	n/a	n/a	308.242	n/a
279.151	0.497	angry	Picture	75.782	n/a	3	7	20	n/a	20	81	3	n/a	n/a	n/a	n/a	308.773	AF01ANS.jpg
279.648	0.514	Blank	Blank	75.268	n/a	3	7	20	n/a	20	n/a	3	n/a	n/a	n/a	n/a	309.27	n/a
280.179	10.014	ITI	Fixation+	65.238	n/a	3	n/a	n/a	n/a	n/a	n/a	n/a	n/a	n/a	n/a	n/a	309.8	n/a
290.209	0.497	neutral	Picture	64.724	n/a	3	8	1	n/a	21	28	1	n/a	n/a	n/a	n/a	319.831	AM09NES.jpg
290.706	0.514	Blank	Blank	64.21	n/a	3	8	1	n/a	21	n/a	1	n/a	n/a	n/a	n/a	320.328	n/a
291.237	0.497	neutral	Picture	63.696	n/a	3	8	2	n/a	22	27	1	n/a	n/a	n/a	n/a	320.858	BM08NES.jpg
291.734	0.514	Blank	Blank	63.182	n/a	3	8	2	n/a	22	n/a	1	n/a	n/a	n/a	n/a	321.356	n/a
292.265	0.497	neutral	Picture	62.668	n/a	3	8	3	n/a	23	16	1	n/a	n/a	n/a	n/a	321.886	AF26NES.jpg
292.762	0.514	Blank	Blank	62.154	n/a	3	8	3	n/a	23	n/a	1	n/a	n/a	n/a	n/a	322.384	n/a
293.293	0.497	neutral	Picture	61.64	n/a	3	8	4	n/a	24	3	1	n/a	n/a	n/a	n/a	322.914	BF04NES.jpg
293.79	0.514	Blank	Blank	61.126	n/a	3	8	4	n/a	24	n/a	1	n/a	n/a	n/a	n/a	323.412	n/a
294.321	0.497	neutral	Picture	60.612	n/a	3	8	5	n/a	25	32	1	n/a	n/a	n/a	n/a	323.942	AM14NES.jpg
294.818	0.514	Blank	Blank	60.098	n/a	3	8	5	n/a	25	n/a	1	n/a	n/a	n/a	n/a	324.44	n/a
295.349	0.497	neutral	Picture	59.584	n/a	3	8	6	n/a	26	37	1	n/a	n/a	n/a	n/a	324.97	BM25NES.jpg
295.846	0.514	Blank	Blank	59.07	n/a	3	8	6	n/a	26	n/a	1	n/a	n/a	n/a	n/a	325.467	n/a
296.376	0.497	neutral	Picture	58.556	n/a	3	8	7	n/a	27	15	1	n/a	n/a	n/a	n/a	325.998	AF25NES.jpg
296.874	0.514	Blank	Blank	58.043	n/a	3	8	7	n/a	27	n/a	1	n/a	n/a	n/a	n/a	326.495	n/a
297.404	0.497	neutral	Picture	57.529	n/a	3	8	8	n/a	28	23	1	n/a	n/a	n/a	n/a	327.026	AM04NES.jpg
297.902	0.514	Blank	Blank	57.015	n/a	3	8	8	n/a	28	n/a	1	n/a	n/a	n/a	n/a	327.523	n/a
298.432	0.497	neutral	Picture	56.501	n/a	3	8	9	n/a	29	34	1	n/a	n/a	n/a	n/a	328.054	AM22NES.jpg
298.929	0.514	Blank	Blank	55.987	n/a	3	8	9	n/a	29	n/a	1	n/a	n/a	n/a	n/a	328.551	n/a
299.46	0.497	neutral	Picture	55.473	n/a	3	8	10	n/a	30	24	1	n/a	n/a	n/a	n/a	329.082	BM05NES.jpg
299.957	0.514	Blank	Blank	54.959	n/a	3	8	10	n/a	30	n/a	1	n/a	n/a	n/a	n/a	329.579	n/a
300.488	0.497	neutral	Picture	54.445	n/a	3	8	11	n/a	31	12	1	n/a	n/a	n/a	n/a	330.109	AF21NES.jpg
300.985	0.514	Blank	Blank	53.931	n/a	3	8	11	n/a	31	n/a	1	n/a	n/a	n/a	n/a	330.607	n/a
301.516	0.497	neutral	Picture	53.417	n/a	3	8	12	n/a	32	6	1	n/a	n/a	n/a	n/a	331.137	AF09NES.jpg
302.013	0.514	Blank	Blank	52.903	n/a	3	8	12	n/a	32	n/a	1	n/a	n/a	n/a	n/a	331.635	n/a
302.544	0.497	neutral	Picture	52.389	n/a	3	8	13	n/a	33	17	1	n/a	n/a	n/a	n/a	332.165	BF28NES.jpg
303.041	0.514	Blank	Blank	51.875	n/a	3	8	13	n/a	33	n/a	1	n/a	n/a	n/a	n/a	332.663	n/a
303.571	0.497	neutral	Picture	51.361	n/a	3	8	14	n/a	34	2	1	n/a	n/a	n/a	n/a	333.193	AF03NES.jpg
304.069	0.514	Blank	Blank	50.847	n/a	3	8	14	n/a	34	n/a	1	n/a	n/a	n/a	n/a	333.69	n/a
304.599	0.497	neutral	Picture	50.334	n/a	3	8	15	n/a	35	9	1	n/a	n/a	n/a	n/a	334.221	AF17NES.jpg
305.097	0.514	Blank	Blank	49.819	n/a	3	8	15	n/a	35	n/a	1	n/a	n/a	n/a	n/a	334.718	n/a
305.627	0.497	neutral	Picture	49.306	n/a	3	8	16	n/a	36	25	1	n/a	n/a	n/a	n/a	335.249	BM06NES.jpg
306.125	0.514	Blank	Blank	48.792	n/a	3	8	16	n/a	36	n/a	1	n/a	n/a	n/a	n/a	335.746	n/a
306.655	0.497	neutral	Picture	48.278	n/a	3	8	17	n/a	37	8	1	n/a	n/a	n/a	n/a	336.277	AF14NES.jpg
307.152	0.514	Blank	Blank	47.764	n/a	3	8	17	n/a	37	n/a	1	n/a	n/a	n/a	n/a	336.774	n/a
307.683	0.497	neutral	Picture	47.25	n/a	3	8	18	n/a	38	19	1	n/a	n/a	n/a	n/a	337.305	AF31NES.jpg
308.18	0.514	Blank	Blank	46.736	n/a	3	8	18	n/a	38	n/a	1	n/a	n/a	n/a	n/a	337.802	n/a
308.711	0.497	neutral	Picture	46.222	n/a	3	8	19	n/a	39	14	1	n/a	n/a	n/a	n/a	338.332	AF23NES.jpg
309.208	0.514	Blank	Blank	45.708	n/a	3	8	19	n/a	39	n/a	1	n/a	n/a	n/a	n/a	338.83	n/a
309.739	0.497	neutral	Picture	45.194	n/a	3	8	20	n/a	40	4	1	n/a	n/a	n/a	n/a	339.36	AF05NES.jpg
310.236	0.514	Blank	Blank	44.68	n/a	3	8	20	n/a	40	n/a	1	n/a	n/a	n/a	n/a	339.858	n/a
310.767	10.014	ITI	Fixation+	34.65	n/a	3	n/a	n/a	n/a	n/a	n/a	n/a	n/a	n/a	n/a	n/a	340.388	n/a
320.797	0.497	angry	Picture	34.136	n/a	3	9	1	n/a	41	84	3	n/a	n/a	n/a	n/a	350.418	AF05ANS.jpg
321.294	0.514	Blank	Blank	33.622	n/a	3	9	1	n/a	41	n/a	3	n/a	n/a	n/a	n/a	350.916	n/a
321.825	0.497	angry	Picture	33.108	n/a	3	9	2	n/a	42	92	3	n/a	n/a	n/a	n/a	351.446	AF21ANS.jpg
322.322	0.514	Blank	Blank	32.594	n/a	3	9	2	n/a	42	n/a	3	n/a	n/a	n/a	n/a	351.943	n/a
322.852	0.497	angry	Picture	32.08	n/a	3	9	3	n/a	43	86	3	n/a	n/a	n/a	n/a	352.474	AF09ANS.jpg
323.35	0.514	Blank	Blank	31.566	n/a	3	9	3	n/a	43	n/a	3	n/a	n/a	n/a	n/a	352.971	n/a
323.88	0.497	angry	Picture	31.053	n/a	3	9	4	n/a	44	93	3	n/a	n/a	n/a	n/a	353.502	BF22ANS.jpg
324.378	0.514	Blank	Blank	30.538	n/a	3	9	4	n/a	44	n/a	3	n/a	n/a	n/a	n/a	353.999	n/a
324.908	0.497	angry	Picture	30.025	n/a	3	9	5	n/a	45	88	3	n/a	n/a	n/a	n/a	354.53	AF14ANS.jpg
325.406	0.514	Blank	Blank	29.511	n/a	3	9	5	n/a	45	n/a	3	n/a	n/a	n/a	n/a	355.027	n/a
325.936	0.497	angry	Picture	28.997	n/a	3	9	6	n/a	46	113	3	n/a	n/a	n/a	n/a	355.558	AM21ANS.jpg
326.433	0.514	Blank	Blank	28.483	n/a	3	9	6	n/a	46	n/a	3	n/a	n/a	n/a	n/a	356.055	n/a
326.964	0.497	angry	Picture	27.969	n/a	3	9	7	n/a	47	95	3	n/a	n/a	n/a	n/a	356.586	AF25ANS.jpg
327.461	0.514	Blank	Blank	27.455	n/a	3	9	7	n/a	47	n/a	3	n/a	n/a	n/a	n/a	357.083	n/a
327.992	0.497	angry	Picture	26.941	n/a	3	9	8	n/a	48	102	3	n/a	n/a	n/a	n/a	357.613	BM03ANS.jpg
328.489	0.514	Blank	Blank	26.427	n/a	3	9	8	n/a	48	n/a	3	n/a	n/a	n/a	n/a	358.111	n/a
329.02	0.497	angry	Picture	25.913	n/a	3	9	9	n/a	49	112	3	n/a	n/a	n/a	n/a	358.641	AM14ANS.jpg
329.517	0.514	Blank	Blank	25.399	n/a	3	9	9	n/a	49	n/a	3	n/a	n/a	n/a	n/a	359.139	n/a
330.048	0.497	angry	Picture	24.885	n/a	3	9	10	n/a	50	83	3	n/a	n/a	n/a	n/a	359.669	BF04ANS.jpg
330.545	0.514	Blank	Blank	24.371	n/a	3	9	10	n/a	50	n/a	3	n/a	n/a	n/a	n/a	360.166	n/a
331.075	0.497	angry	Picture	23.857	n/a	3	9	11	n/a	51	90	3	n/a	n/a	n/a	n/a	360.697	AF18ANS.jpg
331.573	0.514	Blank	Blank	23.343	n/a	3	9	11	n/a	51	n/a	3	n/a	n/a	n/a	n/a	361.194	n/a
332.103	0.497	angry	Picture	22.829	n/a	3	9	12	n/a	52	117	3	n/a	n/a	n/a	n/a	361.725	BM25ANS.jpg
332.601	0.514	Blank	Blank	22.315	n/a	3	9	12	n/a	52	n/a	3	n/a	n/a	n/a	n/a	362.222	n/a
333.131	0.497	angry	Picture	21.802	n/a	3	9	13	n/a	53	94	3	n/a	n/a	n/a	n/a	362.753	AF23ANS.jpg
333.629	0.514	Blank	Blank	21.288	n/a	3	9	13	n/a	53	n/a	3	n/a	n/a	n/a	n/a	363.25	n/a
334.159	0.497	angry	Picture	20.774	n/a	3	9	14	n/a	54	106	3	n/a	n/a	n/a	n/a	363.781	AM07ANS.jpg
334.656	0.514	Blank	Blank	20.26	n/a	3	9	14	n/a	54	n/a	3	n/a	n/a	n/a	n/a	364.278	n/a
335.187	0.497	angry	Picture	19.746	n/a	3	9	15	n/a	55	105	3	n/a	n/a	n/a	n/a	364.808	BM06ANS.jpg
335.684	0.514	Blank	Blank	19.232	n/a	3	9	15	n/a	55	n/a	3	n/a	n/a	n/a	n/a	365.306	n/a
336.215	0.497	angry	Picture	18.718	n/a	3	9	16	n/a	56	116	3	n/a	n/a	n/a	n/a	365.836	BM24ANS.jpg
336.712	0.514	Blank	Blank	18.204	n/a	3	9	16	n/a	56	n/a	3	n/a	n/a	n/a	n/a	366.334	n/a
337.243	0.497	angry	Picture	17.69	n/a	3	9	17	n/a	57	89	3	n/a	n/a	n/a	n/a	366.864	AF17ANS.jpg
337.74	0.514	Blank	Blank	17.176	n/a	3	9	17	n/a	57	n/a	3	n/a	n/a	n/a	n/a	367.362	n/a
338.271	0.497	angry	Picture	16.662	n/a	3	9	18	n/a	58	118	3	n/a	n/a	n/a	n/a	367.892	BM26ANS.jpg
338.768	0.514	Blank	Blank	16.148	n/a	3	9	18	n/a	58	n/a	3	n/a	n/a	n/a	n/a	368.389	n/a
339.299	0.497	angry	Picture	15.634	n/a	3	9	19	n/a	59	100	3	n/a	n/a	n/a	n/a	368.92	AF32ANS.jpg
339.796	0.514	Blank	Blank	15.12	n/a	3	9	19	n/a	59	n/a	3	n/a	n/a	n/a	n/a	369.417	n/a
340.326	0.497	angry	Picture	14.606	n/a	3	9	20	n/a	60	119	3	n/a	n/a	n/a	n/a	369.948	BM28ANS.jpg
340.824	0.514	Blank	Blank	14.093	n/a	3	9	20	n/a	60	n/a	3	n/a	n/a	n/a	n/a	370.445	n/a
341.354	10.014	ITI	Fixation+	4.062	n/a	3	n/a	n/a	n/a	n/a	n/a	n/a	n/a	n/a	n/a	n/a	370.976	n/a
355.43	n/a	ConfirmRating	Rate	n/a	4.062	3	n/a	n/a	0	n/a	n/a	n/a	2	Angry	50	50	385.052	n/a
360.572	n/a	ConfirmRating	Rate	n/a	5.123	3	n/a	n/a	1	n/a	n/a	n/a	3	Angry	31	49	390.193	n/a
360.602	10.014	ITI	Fixation+	96.369	n/a	4	n/a	n/a	n/a	n/a	n/a	n/a	n/a	n/a	n/a	n/a	390.224	n/a
370.632	0.497	happy	Picture	95.855	n/a	4	10	1	n/a	61	79	2	n/a	n/a	n/a	n/a	400.254	BM28HAS.jpg
371.13	0.514	Blank	Blank	95.341	n/a	4	10	1	n/a	61	n/a	2	n/a	n/a	n/a	n/a	400.751	n/a
371.66	0.497	happy	Picture	94.827	n/a	4	10	2	n/a	62	61	2	n/a	n/a	n/a	n/a	401.282	AM01HAS.jpg
372.157	0.514	Blank	Blank	94.313	n/a	4	10	2	n/a	62	n/a	2	n/a	n/a	n/a	n/a	401.779	n/a
372.688	0.497	happy	Picture	93.799	n/a	4	10	3	n/a	63	57	2	n/a	n/a	n/a	n/a	402.31	BF28HAS.jpg
373.185	0.514	Blank	Blank	93.285	n/a	4	10	3	n/a	63	n/a	2	n/a	n/a	n/a	n/a	402.807	n/a
373.716	0.497	happy	Picture	92.771	n/a	4	10	4	n/a	64	77	2	n/a	n/a	n/a	n/a	403.337	BM25HAS.jpg
374.213	0.514	Blank	Blank	92.258	n/a	4	10	4	n/a	64	n/a	2	n/a	n/a	n/a	n/a	403.835	n/a
374.744	0.497	happy	Picture	91.744	n/a	4	10	5	n/a	65	47	2	n/a	n/a	n/a	n/a	404.365	BF11HAS.jpg
375.241	0.514	Blank	Blank	91.23	n/a	4	10	5	n/a	65	n/a	2	n/a	n/a	n/a	n/a	404.863	n/a
375.772	0.497	happy	Picture	90.716	n/a	4	10	6	n/a	66	50	2	n/a	n/a	n/a	n/a	405.393	AF18HAS.jpg
376.269	0.514	Blank	Blank	90.202	n/a	4	10	6	n/a	66	n/a	2	n/a	n/a	n/a	n/a	405.89	n/a
376.799	0.497	happy	Picture	89.688	n/a	4	10	7	n/a	67	78	2	n/a	n/a	n/a	n/a	406.421	BM26HAS.jpg
377.297	0.514	Blank	Blank	89.174	n/a	4	10	7	n/a	67	n/a	2	n/a	n/a	n/a	n/a	406.918	n/a
377.827	0.497	happy	Picture	88.66	n/a	4	10	8	n/a	68	45	2	n/a	n/a	n/a	n/a	407.449	BF07HAS.jpg
378.325	0.514	Blank	Blank	88.146	n/a	4	10	8	n/a	68	n/a	2	n/a	n/a	n/a	n/a	407.946	n/a
378.855	0.497	happy	Picture	87.632	n/a	4	10	9	n/a	69	56	2	n/a	n/a	n/a	n/a	408.477	AF26HAS.jpg
379.353	0.514	Blank	Blank	87.118	n/a	4	10	9	n/a	69	n/a	2	n/a	n/a	n/a	n/a	408.974	n/a
379.883	0.497	happy	Picture	86.604	n/a	4	10	10	n/a	70	65	2	n/a	n/a	n/a	n/a	409.505	BM06HAS.jpg
380.38	0.514	Blank	Blank	86.09	n/a	4	10	10	n/a	70	n/a	2	n/a	n/a	n/a	n/a	410.002	n/a
380.911	0.497	happy	Picture	85.576	n/a	4	10	11	n/a	71	73	2	n/a	n/a	n/a	n/a	410.533	AM21HAS.jpg
381.408	0.514	Blank	Blank	85.062	n/a	4	10	11	n/a	71	n/a	2	n/a	n/a	n/a	n/a	411.03	n/a
381.939	0.497	happy	Picture	84.548	n/a	4	10	12	n/a	72	41	2	n/a	n/a	n/a	n/a	411.56	AF01HAS.jpg
382.436	0.514	Blank	Blank	84.035	n/a	4	10	12	n/a	72	n/a	2	n/a	n/a	n/a	n/a	412.058	n/a
382.967	0.497	happy	Picture	83.52	n/a	4	10	13	n/a	73	59	2	n/a	n/a	n/a	n/a	412.588	AF31HAS.jpg
383.464	0.514	Blank	Blank	83.007	n/a	4	10	13	n/a	73	n/a	2	n/a	n/a	n/a	n/a	413.086	n/a
383.995	0.497	happy	Picture	82.493	n/a	4	10	14	n/a	74	64	2	n/a	n/a	n/a	n/a	413.616	BM05HAS.jpg
384.492	0.514	Blank	Blank	81.979	n/a	4	10	14	n/a	74	n/a	2	n/a	n/a	n/a	n/a	414.113	n/a
385.023	0.497	happy	Picture	81.465	n/a	4	10	15	n/a	75	68	2	n/a	n/a	n/a	n/a	414.644	AM09HAS.jpg
385.52	0.514	Blank	Blank	80.951	n/a	4	10	15	n/a	75	n/a	2	n/a	n/a	n/a	n/a	415.141	n/a
386.05	0.497	happy	Picture	80.437	n/a	4	10	16	n/a	76	54	2	n/a	n/a	n/a	n/a	415.672	AF23HAS.jpg
386.548	0.514	Blank	Blank	79.923	n/a	4	10	16	n/a	76	n/a	2	n/a	n/a	n/a	n/a	416.169	n/a
387.078	0.497	happy	Picture	79.409	n/a	4	10	17	n/a	77	53	2	n/a	n/a	n/a	n/a	416.7	BF22HAS.jpg
387.576	0.514	Blank	Blank	78.895	n/a	4	10	17	n/a	77	n/a	2	n/a	n/a	n/a	n/a	417.197	n/a
388.106	0.497	happy	Picture	78.381	n/a	4	10	18	n/a	78	44	2	n/a	n/a	n/a	n/a	417.728	AF05HAS.jpg
388.604	0.514	Blank	Blank	77.867	n/a	4	10	18	n/a	78	n/a	2	n/a	n/a	n/a	n/a	418.225	n/a
389.134	0.497	happy	Picture	77.353	n/a	4	10	19	n/a	79	52	2	n/a	n/a	n/a	n/a	418.756	AF21HAS.jpg
389.631	0.514	Blank	Blank	76.839	n/a	4	10	19	n/a	79	n/a	2	n/a	n/a	n/a	n/a	419.253	n/a
390.162	0.497	happy	Picture	76.325	n/a	4	10	20	n/a	80	62	2	n/a	n/a	n/a	n/a	419.783	BM03HAS.jpg
390.659	0.514	Blank	Blank	75.812	n/a	4	10	20	n/a	80	n/a	2	n/a	n/a	n/a	n/a	420.281	n/a
391.19	10.014	ITI	Fixation+	65.781	n/a	4	n/a	n/a	n/a	n/a	n/a	n/a	n/a	n/a	n/a	n/a	420.811	n/a
401.22	0.497	neutral	Picture	65.267	n/a	4	11	1	n/a	81	23	1	n/a	n/a	n/a	n/a	430.841	AM04NES.jpg
401.717	0.514	Blank	Blank	64.754	n/a	4	11	1	n/a	81	n/a	1	n/a	n/a	n/a	n/a	431.339	n/a
402.248	0.497	neutral	Picture	64.239	n/a	4	11	2	n/a	82	29	1	n/a	n/a	n/a	n/a	431.869	AM10NES.jpg
402.745	0.514	Blank	Blank	63.726	n/a	4	11	2	n/a	82	n/a	1	n/a	n/a	n/a	n/a	432.367	n/a
403.276	0.497	neutral	Picture	63.212	n/a	4	11	3	n/a	83	24	1	n/a	n/a	n/a	n/a	432.897	BM05NES.jpg
403.773	0.514	Blank	Blank	62.698	n/a	4	11	3	n/a	83	n/a	1	n/a	n/a	n/a	n/a	433.394	n/a
404.304	0.497	neutral	Picture	62.184	n/a	4	11	4	n/a	84	12	1	n/a	n/a	n/a	n/a	433.925	AF21NES.jpg
404.801	0.514	Blank	Blank	61.67	n/a	4	11	4	n/a	84	n/a	1	n/a	n/a	n/a	n/a	434.422	n/a
405.331	0.497	neutral	Picture	61.156	n/a	4	11	5	n/a	85	13	1	n/a	n/a	n/a	n/a	434.953	BF22NES.jpg
405.829	0.514	Blank	Blank	60.642	n/a	4	11	5	n/a	85	n/a	1	n/a	n/a	n/a	n/a	435.45	n/a
406.359	0.497	neutral	Picture	60.128	n/a	4	11	6	n/a	86	17	1	n/a	n/a	n/a	n/a	435.981	BF28NES.jpg
406.857	0.514	Blank	Blank	59.614	n/a	4	11	6	n/a	86	n/a	1	n/a	n/a	n/a	n/a	436.478	n/a
407.387	0.497	neutral	Picture	59.1	n/a	4	11	7	n/a	87	4	1	n/a	n/a	n/a	n/a	437.009	AF05NES.jpg
407.885	0.514	Blank	Blank	58.586	n/a	4	11	7	n/a	87	n/a	1	n/a	n/a	n/a	n/a	437.506	n/a
408.415	0.497	neutral	Picture	58.072	n/a	4	11	8	n/a	88	11	1	n/a	n/a	n/a	n/a	438.037	AF20NES.jpg
408.912	0.514	Blank	Blank	57.558	n/a	4	11	8	n/a	88	n/a	1	n/a	n/a	n/a	n/a	438.534	n/a
409.443	0.497	neutral	Picture	57.044	n/a	4	11	9	n/a	89	22	1	n/a	n/a	n/a	n/a	439.065	BM03NES.jpg
409.94	0.514	Blank	Blank	56.53	n/a	4	11	9	n/a	89	n/a	1	n/a	n/a	n/a	n/a	439.562	n/a
410.471	0.497	neutral	Picture	56.016	n/a	4	11	10	n/a	90	15	1	n/a	n/a	n/a	n/a	440.092	AF25NES.jpg
410.968	0.514	Blank	Blank	55.503	n/a	4	11	10	n/a	90	n/a	1	n/a	n/a	n/a	n/a	440.59	n/a
411.499	0.497	neutral	Picture	54.989	n/a	4	11	11	n/a	91	19	1	n/a	n/a	n/a	n/a	441.12	AF31NES.jpg
411.996	0.514	Blank	Blank	54.475	n/a	4	11	11	n/a	91	n/a	1	n/a	n/a	n/a	n/a	441.618	n/a
412.527	0.497	neutral	Picture	53.961	n/a	4	11	12	n/a	92	9	1	n/a	n/a	n/a	n/a	442.148	AF17NES.jpg
413.024	0.514	Blank	Blank	53.447	n/a	4	11	12	n/a	92	n/a	1	n/a	n/a	n/a	n/a	442.645	n/a
413.554	0.497	neutral	Picture	52.933	n/a	4	11	13	n/a	93	14	1	n/a	n/a	n/a	n/a	443.176	AF23NES.jpg
414.052	0.514	Blank	Blank	52.419	n/a	4	11	13	n/a	93	n/a	1	n/a	n/a	n/a	n/a	443.673	n/a
414.582	0.497	neutral	Picture	51.905	n/a	4	11	14	n/a	94	36	1	n/a	n/a	n/a	n/a	444.204	BM24NES.jpg
415.08	0.514	Blank	Blank	51.391	n/a	4	11	14	n/a	94	n/a	1	n/a	n/a	n/a	n/a	444.701	n/a
415.61	0.497	neutral	Picture	50.877	n/a	4	11	15	n/a	95	34	1	n/a	n/a	n/a	n/a	445.232	AM22NES.jpg
416.108	0.514	Blank	Blank	50.363	n/a	4	11	15	n/a	95	n/a	1	n/a	n/a	n/a	n/a	445.729	n/a
416.638	0.497	neutral	Picture	49.849	n/a	4	11	16	n/a	96	10	1	n/a	n/a	n/a	n/a	446.26	AF18NES.jpg
417.135	0.514	Blank	Blank	49.335	n/a	4	11	16	n/a	96	n/a	1	n/a	n/a	n/a	n/a	446.757	n/a
417.666	0.497	neutral	Picture	48.821	n/a	4	11	17	n/a	97	5	1	n/a	n/a	n/a	n/a	447.288	BF07NES.jpg
418.163	0.514	Blank	Blank	48.307	n/a	4	11	17	n/a	97	n/a	1	n/a	n/a	n/a	n/a	447.785	n/a
418.694	0.497	neutral	Picture	47.793	n/a	4	11	18	n/a	98	25	1	n/a	n/a	n/a	n/a	448.315	BM06NES.jpg
419.191	0.514	Blank	Blank	47.279	n/a	4	11	18	n/a	98	n/a	1	n/a	n/a	n/a	n/a	448.813	n/a
419.722	0.497	neutral	Picture	46.766	n/a	4	11	19	n/a	99	39	1	n/a	n/a	n/a	n/a	449.343	AM28NES.jpg
420.219	0.514	Blank	Blank	46.252	n/a	4	11	19	n/a	99	n/a	1	n/a	n/a	n/a	n/a	449.841	n/a
420.75	0.497	neutral	Picture	45.738	n/a	4	11	20	n/a	100	33	1	n/a	n/a	n/a	n/a	450.371	AM21NES.jpg
421.247	0.514	Blank	Blank	45.224	n/a	4	11	20	n/a	100	n/a	1	n/a	n/a	n/a	n/a	450.868	n/a
421.777	10.014	ITI	Fixation+	35.194	n/a	4	n/a	n/a	n/a	n/a	n/a	n/a	n/a	n/a	n/a	n/a	451.399	n/a
431.808	0.497	happy	Picture	34.68	n/a	4	12	1	n/a	101	74	2	n/a	n/a	n/a	n/a	461.429	AM22HAS.jpg
432.305	0.514	Blank	Blank	34.166	n/a	4	12	1	n/a	101	n/a	2	n/a	n/a	n/a	n/a	461.926	n/a
432.835	0.497	happy	Picture	33.652	n/a	4	12	2	n/a	102	76	2	n/a	n/a	n/a	n/a	462.457	BM24HAS.jpg
433.333	0.514	Blank	Blank	33.138	n/a	4	12	2	n/a	102	n/a	2	n/a	n/a	n/a	n/a	462.954	n/a
433.863	0.497	happy	Picture	32.624	n/a	4	12	3	n/a	103	80	2	n/a	n/a	n/a	n/a	463.485	BM35HAS.jpg
434.361	0.514	Blank	Blank	32.11	n/a	4	12	3	n/a	103	n/a	2	n/a	n/a	n/a	n/a	463.982	n/a
434.891	0.497	happy	Picture	31.596	n/a	4	12	4	n/a	104	75	2	n/a	n/a	n/a	n/a	464.513	AM23HAS.jpg
435.389	0.514	Blank	Blank	31.082	n/a	4	12	4	n/a	104	n/a	2	n/a	n/a	n/a	n/a	465.01	n/a
435.919	0.497	happy	Picture	30.568	n/a	4	12	5	n/a	105	49	2	n/a	n/a	n/a	n/a	465.541	AF17HAS.jpg
436.416	0.514	Blank	Blank	30.054	n/a	4	12	5	n/a	105	n/a	2	n/a	n/a	n/a	n/a	466.038	n/a
436.947	0.497	happy	Picture	29.54	n/a	4	12	6	n/a	106	43	2	n/a	n/a	n/a	n/a	466.568	BF04HAS.jpg
437.444	0.514	Blank	Blank	29.026	n/a	4	12	6	n/a	106	n/a	2	n/a	n/a	n/a	n/a	467.066	n/a
437.975	0.497	happy	Picture	28.512	n/a	4	12	7	n/a	107	70	2	n/a	n/a	n/a	n/a	467.596	BM11HAS.jpg
438.472	0.514	Blank	Blank	27.998	n/a	4	12	7	n/a	107	n/a	2	n/a	n/a	n/a	n/a	468.094	n/a
439.003	0.497	happy	Picture	27.485	n/a	4	12	8	n/a	108	66	2	n/a	n/a	n/a	n/a	468.624	BM07HAS.jpg
439.5	0.514	Blank	Blank	26.971	n/a	4	12	8	n/a	108	n/a	2	n/a	n/a	n/a	n/a	469.122	n/a
440.031	0.497	happy	Picture	26.457	n/a	4	12	9	n/a	109	48	2	n/a	n/a	n/a	n/a	469.652	AF14HAS.jpg
440.528	0.514	Blank	Blank	25.943	n/a	4	12	9	n/a	109	n/a	2	n/a	n/a	n/a	n/a	470.149	n/a
441.058	0.497	happy	Picture	25.429	n/a	4	12	10	n/a	110	58	2	n/a	n/a	n/a	n/a	470.68	BF29HAS.jpg
441.556	0.514	Blank	Blank	24.915	n/a	4	12	10	n/a	110	n/a	2	n/a	n/a	n/a	n/a	471.177	n/a
442.086	0.497	happy	Picture	24.401	n/a	4	12	11	n/a	111	63	2	n/a	n/a	n/a	n/a	471.708	AM04HAS.jpg
442.584	0.514	Blank	Blank	23.887	n/a	4	12	11	n/a	111	n/a	2	n/a	n/a	n/a	n/a	472.205	n/a
443.114	0.497	happy	Picture	23.373	n/a	4	12	12	n/a	112	72	2	n/a	n/a	n/a	n/a	472.736	AM14HAS.jpg
443.612	0.514	Blank	Blank	22.859	n/a	4	12	12	n/a	112	n/a	2	n/a	n/a	n/a	n/a	473.233	n/a
444.142	0.497	happy	Picture	22.345	n/a	4	12	13	n/a	113	55	2	n/a	n/a	n/a	n/a	473.764	AF25HAS.jpg
444.639	0.514	Blank	Blank	21.831	n/a	4	12	13	n/a	113	n/a	2	n/a	n/a	n/a	n/a	474.261	n/a
445.17	0.497	happy	Picture	21.317	n/a	4	12	14	n/a	114	42	2	n/a	n/a	n/a	n/a	474.791	AF03HAS.jpg
445.667	0.514	Blank	Blank	20.803	n/a	4	12	14	n/a	114	n/a	2	n/a	n/a	n/a	n/a	475.289	n/a
446.198	0.497	happy	Picture	20.289	n/a	4	12	15	n/a	115	60	2	n/a	n/a	n/a	n/a	475.819	AF32HAS.jpg
446.695	0.514	Blank	Blank	19.776	n/a	4	12	15	n/a	115	n/a	2	n/a	n/a	n/a	n/a	476.317	n/a
447.226	0.497	happy	Picture	19.262	n/a	4	12	16	n/a	116	67	2	n/a	n/a	n/a	n/a	476.847	BM08HAS.jpg
447.723	0.514	Blank	Blank	18.748	n/a	4	12	16	n/a	116	n/a	2	n/a	n/a	n/a	n/a	477.345	n/a
448.254	0.497	happy	Picture	18.234	n/a	4	12	17	n/a	117	51	2	n/a	n/a	n/a	n/a	477.875	AF20HAS.jpg
448.751	0.514	Blank	Blank	17.72	n/a	4	12	17	n/a	117	n/a	2	n/a	n/a	n/a	n/a	478.373	n/a
449.281	0.497	happy	Picture	17.206	n/a	4	12	18	n/a	118	71	2	n/a	n/a	n/a	n/a	478.903	BM12HAS.jpg
449.779	0.514	Blank	Blank	16.692	n/a	4	12	18	n/a	118	n/a	2	n/a	n/a	n/a	n/a	479.4	n/a
450.309	0.497	happy	Picture	16.178	n/a	4	12	19	n/a	119	69	2	n/a	n/a	n/a	n/a	479.931	AM10HAS.jpg
450.807	0.514	Blank	Blank	15.664	n/a	4	12	19	n/a	119	n/a	2	n/a	n/a	n/a	n/a	480.428	n/a
451.337	0.497	happy	Picture	15.15	n/a	4	12	20	n/a	120	46	2	n/a	n/a	n/a	n/a	480.959	AF09HAS.jpg
451.835	0.514	Blank	Blank	14.636	n/a	4	12	20	n/a	120	n/a	2	n/a	n/a	n/a	n/a	481.456	n/a
452.365	10.014	ITI	Fixation+	4.606	n/a	4	n/a	n/a	n/a	n/a	n/a	n/a	n/a	n/a	n/a	n/a	481.987	n/a
466.985	n/a	ConfirmRating	Rate	n/a	4.593	4	n/a	n/a	0	n/a	n/a	n/a	2	Happy	59	51	496.606	n/a
470.908	n/a	ConfirmRating	Rate	n/a	3.913	4	n/a	n/a	1	n/a	n/a	n/a	3	Happy	30	48	500.529	n/a
