onset	duration	trial_type	event_type	time_until_response	response_time	trial_number	block_num_within_trial	image_seq_num_within_block	question_seq_num_within_block	image_seq_num	picture_number	condition	question_type	block_type	rating	rating_computed	onset_uncorrected	KDEV_imagefile
0.014	10.014	ITI	Fixation+	99.717	n/a	1	n/a	n/a	n/a	n/a	n/a	n/a	n/a	n/a	n/a	n/a	32.141	n/a
10.044	0.497	happy	Picture	99.203	n/a	1	1	1	n/a	1	46	2	n/a	n/a	n/a	n/a	42.171	AF09HAS.jpg
10.541	0.514	Blank	Blank	98.689	n/a	1	1	1	n/a	1	n/a	2	n/a	n/a	n/a	n/a	42.668	n/a
11.072	0.497	happy	Picture	98.175	n/a	1	1	2	n/a	2	69	2	n/a	n/a	n/a	n/a	43.199	AM10HAS.jpg
11.569	0.514	Blank	Blank	97.661	n/a	1	1	2	n/a	2	n/a	2	n/a	n/a	n/a	n/a	43.696	n/a
12.1	0.497	happy	Picture	97.147	n/a	1	1	3	n/a	3	71	2	n/a	n/a	n/a	n/a	44.227	BM12HAS.jpg
12.597	0.514	Blank	Blank	96.633	n/a	1	1	3	n/a	3	n/a	2	n/a	n/a	n/a	n/a	44.724	n/a
13.128	0.497	happy	Picture	96.119	n/a	1	1	4	n/a	4	51	2	n/a	n/a	n/a	n/a	45.255	AF20HAS.jpg
13.625	0.514	Blank	Blank	95.605	n/a	1	1	4	n/a	4	n/a	2	n/a	n/a	n/a	n/a	45.752	n/a
14.156	0.497	happy	Picture	95.091	n/a	1	1	5	n/a	5	67	2	n/a	n/a	n/a	n/a	46.282	BM08HAS.jpg
14.653	0.514	Blank	Blank	94.577	n/a	1	1	5	n/a	5	n/a	2	n/a	n/a	n/a	n/a	46.78	n/a
15.184	0.497	happy	Picture	94.063	n/a	1	1	6	n/a	6	60	2	n/a	n/a	n/a	n/a	47.31	AF32HAS.jpg
15.681	0.514	Blank	Blank	93.549	n/a	1	1	6	n/a	6	n/a	2	n/a	n/a	n/a	n/a	47.808	n/a
16.211	0.497	happy	Picture	93.036	n/a	1	1	7	n/a	7	42	2	n/a	n/a	n/a	n/a	48.338	AF03HAS.jpg
16.709	0.514	Blank	Blank	92.522	n/a	1	1	7	n/a	7	n/a	2	n/a	n/a	n/a	n/a	48.836	n/a
17.239	0.497	happy	Picture	92.008	n/a	1	1	8	n/a	8	55	2	n/a	n/a	n/a	n/a	49.366	AF25HAS.jpg
17.737	0.514	Blank	Blank	91.494	n/a	1	1	8	n/a	8	n/a	2	n/a	n/a	n/a	n/a	49.864	n/a
18.267	0.497	happy	Picture	90.98	n/a	1	1	9	n/a	9	72	2	n/a	n/a	n/a	n/a	50.394	AM14HAS.jpg
18.765	0.514	Blank	Blank	90.466	n/a	1	1	9	n/a	9	n/a	2	n/a	n/a	n/a	n/a	50.891	n/a
19.295	0.497	happy	Picture	89.952	n/a	1	1	10	n/a	10	63	2	n/a	n/a	n/a	n/a	51.422	AM04HAS.jpg
19.792	0.514	Blank	Blank	89.438	n/a	1	1	10	n/a	10	n/a	2	n/a	n/a	n/a	n/a	51.919	n/a
20.323	0.497	happy	Picture	88.924	n/a	1	1	11	n/a	11	58	2	n/a	n/a	n/a	n/a	52.45	BF29HAS.jpg
20.82	0.514	Blank	Blank	88.41	n/a	1	1	11	n/a	11	n/a	2	n/a	n/a	n/a	n/a	52.947	n/a
21.351	0.497	happy	Picture	87.896	n/a	1	1	12	n/a	12	48	2	n/a	n/a	n/a	n/a	53.478	AF14HAS.jpg
21.848	0.514	Blank	Blank	87.382	n/a	1	1	12	n/a	12	n/a	2	n/a	n/a	n/a	n/a	53.975	n/a
22.379	0.497	happy	Picture	86.868	n/a	1	1	13	n/a	13	66	2	n/a	n/a	n/a	n/a	54.506	BM07HAS.jpg
22.876	0.514	Blank	Blank	86.354	n/a	1	1	13	n/a	13	n/a	2	n/a	n/a	n/a	n/a	55.003	n/a
23.407	0.497	happy	Picture	85.84	n/a	1	1	14	n/a	14	70	2	n/a	n/a	n/a	n/a	55.533	BM11HAS.jpg
23.904	0.514	Blank	Blank	85.326	n/a	1	1	14	n/a	14	n/a	2	n/a	n/a	n/a	n/a	56.031	n/a
24.434	0.497	happy	Picture	84.812	n/a	1	1	15	n/a	15	43	2	n/a	n/a	n/a	n/a	56.561	BF04HAS.jpg
24.932	0.514	Blank	Blank	84.299	n/a	1	1	15	n/a	15	n/a	2	n/a	n/a	n/a	n/a	57.059	n/a
25.462	0.497	happy	Picture	83.785	n/a	1	1	16	n/a	16	49	2	n/a	n/a	n/a	n/a	57.589	AF17HAS.jpg
25.96	0.514	Blank	Blank	83.271	n/a	1	1	16	n/a	16	n/a	2	n/a	n/a	n/a	n/a	58.087	n/a
26.49	0.497	happy	Picture	82.757	n/a	1	1	17	n/a	17	75	2	n/a	n/a	n/a	n/a	58.617	AM23HAS.jpg
26.988	0.514	Blank	Blank	82.243	n/a	1	1	17	n/a	17	n/a	2	n/a	n/a	n/a	n/a	59.114	n/a
27.518	0.497	happy	Picture	81.729	n/a	1	1	18	n/a	18	80	2	n/a	n/a	n/a	n/a	59.645	BM35HAS.jpg
28.015	0.514	Blank	Blank	81.215	n/a	1	1	18	n/a	18	n/a	2	n/a	n/a	n/a	n/a	60.142	n/a
28.546	0.497	happy	Picture	80.701	n/a	1	1	19	n/a	19	76	2	n/a	n/a	n/a	n/a	60.673	BM24HAS.jpg
29.043	0.514	Blank	Blank	80.187	n/a	1	1	19	n/a	19	n/a	2	n/a	n/a	n/a	n/a	61.17	n/a
29.574	0.497	happy	Picture	79.673	n/a	1	1	20	n/a	20	74	2	n/a	n/a	n/a	n/a	61.701	AM22HAS.jpg
30.071	0.514	Blank	Blank	79.159	n/a	1	1	20	n/a	20	n/a	2	n/a	n/a	n/a	n/a	62.198	n/a
30.602	10.014	ITI	Fixation+	69.129	n/a	1	n/a	n/a	n/a	n/a	n/a	n/a	n/a	n/a	n/a	n/a	62.729	n/a
40.632	0.497	neutral	Picture	68.615	n/a	1	2	1	n/a	21	33	1	n/a	n/a	n/a	n/a	72.759	AM21NES.jpg
41.129	0.514	Blank	Blank	68.101	n/a	1	2	1	n/a	21	n/a	1	n/a	n/a	n/a	n/a	73.256	n/a
41.66	0.497	neutral	Picture	67.587	n/a	1	2	2	n/a	22	39	1	n/a	n/a	n/a	n/a	73.787	AM28NES.jpg
42.157	0.514	Blank	Blank	67.073	n/a	1	2	2	n/a	22	n/a	1	n/a	n/a	n/a	n/a	74.284	n/a
42.688	0.497	neutral	Picture	66.559	n/a	1	2	3	n/a	23	25	1	n/a	n/a	n/a	n/a	74.814	BM06NES.jpg
43.185	0.514	Blank	Blank	66.045	n/a	1	2	3	n/a	23	n/a	1	n/a	n/a	n/a	n/a	75.312	n/a
43.716	0.497	neutral	Picture	65.531	n/a	1	2	4	n/a	24	5	1	n/a	n/a	n/a	n/a	75.842	BF07NES.jpg
44.213	0.514	Blank	Blank	65.017	n/a	1	2	4	n/a	24	n/a	1	n/a	n/a	n/a	n/a	76.34	n/a
44.743	0.497	neutral	Picture	64.504	n/a	1	2	5	n/a	25	10	1	n/a	n/a	n/a	n/a	76.87	AF18NES.jpg
45.241	0.514	Blank	Blank	63.99	n/a	1	2	5	n/a	25	n/a	1	n/a	n/a	n/a	n/a	77.368	n/a
45.771	0.497	neutral	Picture	63.476	n/a	1	2	6	n/a	26	34	1	n/a	n/a	n/a	n/a	77.898	AM22NES.jpg
46.269	0.514	Blank	Blank	62.962	n/a	1	2	6	n/a	26	n/a	1	n/a	n/a	n/a	n/a	78.395	n/a
46.799	0.497	neutral	Picture	62.448	n/a	1	2	7	n/a	27	36	1	n/a	n/a	n/a	n/a	78.926	BM24NES.jpg
47.297	0.514	Blank	Blank	61.934	n/a	1	2	7	n/a	27	n/a	1	n/a	n/a	n/a	n/a	79.423	n/a
47.827	0.497	neutral	Picture	61.42	n/a	1	2	8	n/a	28	14	1	n/a	n/a	n/a	n/a	79.954	AF23NES.jpg
48.324	0.514	Blank	Blank	60.906	n/a	1	2	8	n/a	28	n/a	1	n/a	n/a	n/a	n/a	80.451	n/a
48.855	0.497	neutral	Picture	60.392	n/a	1	2	9	n/a	29	9	1	n/a	n/a	n/a	n/a	80.982	AF17NES.jpg
49.352	0.514	Blank	Blank	59.878	n/a	1	2	9	n/a	29	n/a	1	n/a	n/a	n/a	n/a	81.479	n/a
49.883	0.497	neutral	Picture	59.364	n/a	1	2	10	n/a	30	19	1	n/a	n/a	n/a	n/a	82.01	AF31NES.jpg
50.38	0.514	Blank	Blank	58.85	n/a	1	2	10	n/a	30	n/a	1	n/a	n/a	n/a	n/a	82.507	n/a
50.911	0.497	neutral	Picture	58.336	n/a	1	2	11	n/a	31	15	1	n/a	n/a	n/a	n/a	83.038	AF25NES.jpg
51.408	0.514	Blank	Blank	57.822	n/a	1	2	11	n/a	31	n/a	1	n/a	n/a	n/a	n/a	83.535	n/a
51.939	0.497	neutral	Picture	57.308	n/a	1	2	12	n/a	32	22	1	n/a	n/a	n/a	n/a	84.066	BM03NES.jpg
52.436	0.514	Blank	Blank	56.794	n/a	1	2	12	n/a	32	n/a	1	n/a	n/a	n/a	n/a	84.563	n/a
52.966	0.497	neutral	Picture	56.28	n/a	1	2	13	n/a	33	11	1	n/a	n/a	n/a	n/a	85.093	AF20NES.jpg
53.464	0.514	Blank	Blank	55.767	n/a	1	2	13	n/a	33	n/a	1	n/a	n/a	n/a	n/a	85.591	n/a
53.994	0.497	neutral	Picture	55.253	n/a	1	2	14	n/a	34	4	1	n/a	n/a	n/a	n/a	86.121	AF05NES.jpg
54.492	0.514	Blank	Blank	54.739	n/a	1	2	14	n/a	34	n/a	1	n/a	n/a	n/a	n/a	86.619	n/a
55.022	0.497	neutral	Picture	54.225	n/a	1	2	15	n/a	35	17	1	n/a	n/a	n/a	n/a	87.149	BF28NES.jpg
55.52	0.514	Blank	Blank	53.711	n/a	1	2	15	n/a	35	n/a	1	n/a	n/a	n/a	n/a	87.647	n/a
56.05	0.497	neutral	Picture	53.197	n/a	1	2	16	n/a	36	13	1	n/a	n/a	n/a	n/a	88.177	BF22NES.jpg
56.547	0.514	Blank	Blank	52.683	n/a	1	2	16	n/a	36	n/a	1	n/a	n/a	n/a	n/a	88.674	n/a
57.078	0.497	neutral	Picture	52.169	n/a	1	2	17	n/a	37	12	1	n/a	n/a	n/a	n/a	89.205	AF21NES.jpg
57.575	0.514	Blank	Blank	51.655	n/a	1	2	17	n/a	37	n/a	1	n/a	n/a	n/a	n/a	89.702	n/a
58.106	0.497	neutral	Picture	51.141	n/a	1	2	18	n/a	38	24	1	n/a	n/a	n/a	n/a	90.233	BM05NES.jpg
58.603	0.514	Blank	Blank	50.627	n/a	1	2	18	n/a	38	n/a	1	n/a	n/a	n/a	n/a	90.73	n/a
59.134	0.497	neutral	Picture	50.113	n/a	1	2	19	n/a	39	29	1	n/a	n/a	n/a	n/a	91.261	AM10NES.jpg
59.631	0.514	Blank	Blank	49.599	n/a	1	2	19	n/a	39	n/a	1	n/a	n/a	n/a	n/a	91.758	n/a
60.162	0.497	neutral	Picture	49.085	n/a	1	2	20	n/a	40	23	1	n/a	n/a	n/a	n/a	92.288	AM04NES.jpg
60.659	0.514	Blank	Blank	48.571	n/a	1	2	20	n/a	40	n/a	1	n/a	n/a	n/a	n/a	92.786	n/a
61.19	10.014	ITI	Fixation+	38.541	n/a	1	n/a	n/a	n/a	n/a	n/a	n/a	n/a	n/a	n/a	n/a	93.316	n/a
71.22	0.497	happy	Picture	38.027	n/a	1	3	1	n/a	41	62	2	n/a	n/a	n/a	n/a	103.347	BM03HAS.jpg
71.717	0.514	Blank	Blank	37.513	n/a	1	3	1	n/a	41	n/a	2	n/a	n/a	n/a	n/a	103.844	n/a
72.248	0.497	happy	Picture	36.999	n/a	1	3	2	n/a	42	52	2	n/a	n/a	n/a	n/a	104.374	AF21HAS.jpg
72.745	0.514	Blank	Blank	36.485	n/a	1	3	2	n/a	42	n/a	2	n/a	n/a	n/a	n/a	104.872	n/a
73.275	0.497	happy	Picture	35.971	n/a	1	3	3	n/a	43	44	2	n/a	n/a	n/a	n/a	105.402	AF05HAS.jpg
73.773	0.514	Blank	Blank	35.458	n/a	1	3	3	n/a	43	n/a	2	n/a	n/a	n/a	n/a	105.9	n/a
74.303	0.497	happy	Picture	34.944	n/a	1	3	4	n/a	44	53	2	n/a	n/a	n/a	n/a	106.43	BF22HAS.jpg
74.801	0.514	Blank	Blank	34.43	n/a	1	3	4	n/a	44	n/a	2	n/a	n/a	n/a	n/a	106.927	n/a
75.331	0.497	happy	Picture	33.916	n/a	1	3	5	n/a	45	54	2	n/a	n/a	n/a	n/a	107.458	AF23HAS.jpg
75.829	0.514	Blank	Blank	33.402	n/a	1	3	5	n/a	45	n/a	2	n/a	n/a	n/a	n/a	107.955	n/a
76.359	0.497	happy	Picture	32.888	n/a	1	3	6	n/a	46	68	2	n/a	n/a	n/a	n/a	108.486	AM09HAS.jpg
76.856	0.514	Blank	Blank	32.374	n/a	1	3	6	n/a	46	n/a	2	n/a	n/a	n/a	n/a	108.983	n/a
77.387	0.497	happy	Picture	31.86	n/a	1	3	7	n/a	47	64	2	n/a	n/a	n/a	n/a	109.514	BM05HAS.jpg
77.884	0.514	Blank	Blank	31.346	n/a	1	3	7	n/a	47	n/a	2	n/a	n/a	n/a	n/a	110.011	n/a
78.415	0.497	happy	Picture	30.832	n/a	1	3	8	n/a	48	59	2	n/a	n/a	n/a	n/a	110.542	AF31HAS.jpg
78.912	0.514	Blank	Blank	30.318	n/a	1	3	8	n/a	48	n/a	2	n/a	n/a	n/a	n/a	111.039	n/a
79.443	0.497	happy	Picture	29.804	n/a	1	3	9	n/a	49	41	2	n/a	n/a	n/a	n/a	111.57	AF01HAS.jpg
79.94	0.514	Blank	Blank	29.29	n/a	1	3	9	n/a	49	n/a	2	n/a	n/a	n/a	n/a	112.067	n/a
80.471	0.497	happy	Picture	28.776	n/a	1	3	10	n/a	50	73	2	n/a	n/a	n/a	n/a	112.597	AM21HAS.jpg
80.968	0.514	Blank	Blank	28.262	n/a	1	3	10	n/a	50	n/a	2	n/a	n/a	n/a	n/a	113.095	n/a
81.498	0.497	happy	Picture	27.748	n/a	1	3	11	n/a	51	65	2	n/a	n/a	n/a	n/a	113.625	BM06HAS.jpg
81.996	0.514	Blank	Blank	27.234	n/a	1	3	11	n/a	51	n/a	2	n/a	n/a	n/a	n/a	114.123	n/a
82.526	0.497	happy	Picture	26.721	n/a	1	3	12	n/a	52	56	2	n/a	n/a	n/a	n/a	114.653	AF26HAS.jpg
83.024	0.514	Blank	Blank	26.207	n/a	1	3	12	n/a	52	n/a	2	n/a	n/a	n/a	n/a	115.151	n/a
83.554	0.497	happy	Picture	25.693	n/a	1	3	13	n/a	53	45	2	n/a	n/a	n/a	n/a	115.681	BF07HAS.jpg
84.052	0.514	Blank	Blank	25.179	n/a	1	3	13	n/a	53	n/a	2	n/a	n/a	n/a	n/a	116.178	n/a
84.582	0.497	happy	Picture	24.665	n/a	1	3	14	n/a	54	78	2	n/a	n/a	n/a	n/a	116.709	BM26HAS.jpg
85.08	0.514	Blank	Blank	24.151	n/a	1	3	14	n/a	54	n/a	2	n/a	n/a	n/a	n/a	117.206	n/a
85.61	0.497	happy	Picture	23.637	n/a	1	3	15	n/a	55	50	2	n/a	n/a	n/a	n/a	117.737	AF18HAS.jpg
86.107	0.514	Blank	Blank	23.123	n/a	1	3	15	n/a	55	n/a	2	n/a	n/a	n/a	n/a	118.234	n/a
86.638	0.497	happy	Picture	22.609	n/a	1	3	16	n/a	56	47	2	n/a	n/a	n/a	n/a	118.765	BF11HAS.jpg
87.135	0.514	Blank	Blank	22.095	n/a	1	3	16	n/a	56	n/a	2	n/a	n/a	n/a	n/a	119.262	n/a
87.666	0.497	happy	Picture	21.581	n/a	1	3	17	n/a	57	77	2	n/a	n/a	n/a	n/a	119.793	BM25HAS.jpg
88.163	0.514	Blank	Blank	21.067	n/a	1	3	17	n/a	57	n/a	2	n/a	n/a	n/a	n/a	120.29	n/a
88.694	0.497	happy	Picture	20.553	n/a	1	3	18	n/a	58	57	2	n/a	n/a	n/a	n/a	120.82	BF28HAS.jpg
89.191	0.514	Blank	Blank	20.039	n/a	1	3	18	n/a	58	n/a	2	n/a	n/a	n/a	n/a	121.318	n/a
89.722	0.497	happy	Picture	19.525	n/a	1	3	19	n/a	59	61	2	n/a	n/a	n/a	n/a	121.848	AM01HAS.jpg
90.219	0.514	Blank	Blank	19.011	n/a	1	3	19	n/a	59	n/a	2	n/a	n/a	n/a	n/a	122.346	n/a
90.749	0.497	happy	Picture	18.497	n/a	1	3	20	n/a	60	79	2	n/a	n/a	n/a	n/a	122.876	BM28HAS.jpg
91.247	0.514	Blank	Blank	17.984	n/a	1	3	20	n/a	60	n/a	2	n/a	n/a	n/a	n/a	123.374	n/a
91.777	10.014	ITI	Fixation+	7.953	n/a	1	n/a	n/a	n/a	n/a	n/a	n/a	n/a	n/a	n/a	n/a	123.904	n/a
109.744	n/a	ConfirmRating	Rate	n/a	7.941	1	n/a	n/a	0	n/a	n/a	n/a	2	Happy	81	52	141.871	n/a
117.494	n/a	ConfirmRating	Rate	n/a	7.742	1	n/a	n/a	1	n/a	n/a	n/a	3	Happy	0	46	149.621	n/a
117.524	10.014	ITI	Fixation+	99.389	n/a	2	n/a	n/a	n/a	n/a	n/a	n/a	n/a	n/a	n/a	n/a	149.651	n/a
127.554	0.497	angry	Picture	98.875	n/a	2	4	1	n/a	61	119	3	n/a	n/a	n/a	n/a	159.681	BM28ANS.jpg
128.052	0.514	Blank	Blank	98.362	n/a	2	4	1	n/a	61	n/a	3	n/a	n/a	n/a	n/a	160.179	n/a
128.582	0.497	angry	Picture	97.848	n/a	2	4	2	n/a	62	100	3	n/a	n/a	n/a	n/a	160.709	AF32ANS.jpg
129.079	0.514	Blank	Blank	97.334	n/a	2	4	2	n/a	62	n/a	3	n/a	n/a	n/a	n/a	161.206	n/a
129.61	0.497	angry	Picture	96.82	n/a	2	4	3	n/a	63	118	3	n/a	n/a	n/a	n/a	161.737	BM26ANS.jpg
130.107	0.514	Blank	Blank	96.306	n/a	2	4	3	n/a	63	n/a	3	n/a	n/a	n/a	n/a	162.234	n/a
130.638	0.497	angry	Picture	95.792	n/a	2	4	4	n/a	64	89	3	n/a	n/a	n/a	n/a	162.765	AF17ANS.jpg
131.135	0.514	Blank	Blank	95.278	n/a	2	4	4	n/a	64	n/a	3	n/a	n/a	n/a	n/a	163.262	n/a
131.666	0.497	angry	Picture	94.764	n/a	2	4	5	n/a	65	116	3	n/a	n/a	n/a	n/a	163.793	BM24ANS.jpg
132.163	0.514	Blank	Blank	94.25	n/a	2	4	5	n/a	65	n/a	3	n/a	n/a	n/a	n/a	164.29	n/a
132.694	0.497	angry	Picture	93.736	n/a	2	4	6	n/a	66	105	3	n/a	n/a	n/a	n/a	164.821	BM06ANS.jpg
133.191	0.514	Blank	Blank	93.222	n/a	2	4	6	n/a	66	n/a	3	n/a	n/a	n/a	n/a	165.318	n/a
133.722	0.497	angry	Picture	92.708	n/a	2	4	7	n/a	67	106	3	n/a	n/a	n/a	n/a	165.848	AM07ANS.jpg
134.219	0.514	Blank	Blank	92.194	n/a	2	4	7	n/a	67	n/a	3	n/a	n/a	n/a	n/a	166.346	n/a
134.749	0.497	angry	Picture	91.68	n/a	2	4	8	n/a	68	94	3	n/a	n/a	n/a	n/a	166.876	AF23ANS.jpg
135.247	0.514	Blank	Blank	91.166	n/a	2	4	8	n/a	68	n/a	3	n/a	n/a	n/a	n/a	167.374	n/a
135.777	0.497	angry	Picture	90.652	n/a	2	4	9	n/a	69	117	3	n/a	n/a	n/a	n/a	167.904	BM25ANS.jpg
136.275	0.514	Blank	Blank	90.138	n/a	2	4	9	n/a	69	n/a	3	n/a	n/a	n/a	n/a	168.401	n/a
136.805	0.497	angry	Picture	89.625	n/a	2	4	10	n/a	70	90	3	n/a	n/a	n/a	n/a	168.932	AF18ANS.jpg
137.303	0.514	Blank	Blank	89.111	n/a	2	4	10	n/a	70	n/a	3	n/a	n/a	n/a	n/a	169.429	n/a
137.833	0.497	angry	Picture	88.597	n/a	2	4	11	n/a	71	83	3	n/a	n/a	n/a	n/a	169.96	BF04ANS.jpg
138.331	0.514	Blank	Blank	88.083	n/a	2	4	11	n/a	71	n/a	3	n/a	n/a	n/a	n/a	170.457	n/a
138.861	0.497	angry	Picture	87.569	n/a	2	4	12	n/a	72	112	3	n/a	n/a	n/a	n/a	170.988	AM14ANS.jpg
139.358	0.514	Blank	Blank	87.055	n/a	2	4	12	n/a	72	n/a	3	n/a	n/a	n/a	n/a	171.485	n/a
139.889	0.497	angry	Picture	86.541	n/a	2	4	13	n/a	73	102	3	n/a	n/a	n/a	n/a	172.016	BM03ANS.jpg
140.386	0.514	Blank	Blank	86.027	n/a	2	4	13	n/a	73	n/a	3	n/a	n/a	n/a	n/a	172.513	n/a
140.917	0.497	angry	Picture	85.513	n/a	2	4	14	n/a	74	95	3	n/a	n/a	n/a	n/a	173.044	AF25ANS.jpg
141.414	0.514	Blank	Blank	84.999	n/a	2	4	14	n/a	74	n/a	3	n/a	n/a	n/a	n/a	173.541	n/a
141.945	0.497	angry	Picture	84.485	n/a	2	4	15	n/a	75	113	3	n/a	n/a	n/a	n/a	174.071	AM21ANS.jpg
142.442	0.514	Blank	Blank	83.971	n/a	2	4	15	n/a	75	n/a	3	n/a	n/a	n/a	n/a	174.569	n/a
142.972	0.497	angry	Picture	83.457	n/a	2	4	16	n/a	76	88	3	n/a	n/a	n/a	n/a	175.099	AF14ANS.jpg
143.47	0.514	Blank	Blank	82.943	n/a	2	4	16	n/a	76	n/a	3	n/a	n/a	n/a	n/a	175.597	n/a
144.0	0.497	angry	Picture	82.429	n/a	2	4	17	n/a	77	93	3	n/a	n/a	n/a	n/a	176.127	BF22ANS.jpg
144.498	0.514	Blank	Blank	81.915	n/a	2	4	17	n/a	77	n/a	3	n/a	n/a	n/a	n/a	176.625	n/a
145.028	0.497	angry	Picture	81.401	n/a	2	4	18	n/a	78	86	3	n/a	n/a	n/a	n/a	177.155	AF09ANS.jpg
145.526	0.514	Blank	Blank	80.888	n/a	2	4	18	n/a	78	n/a	3	n/a	n/a	n/a	n/a	177.653	n/a
146.056	0.497	angry	Picture	80.374	n/a	2	4	19	n/a	79	92	3	n/a	n/a	n/a	n/a	178.183	AF21ANS.jpg
146.553	0.514	Blank	Blank	79.86	n/a	2	4	19	n/a	79	n/a	3	n/a	n/a	n/a	n/a	178.68	n/a
147.084	0.497	angry	Picture	79.346	n/a	2	4	20	n/a	80	84	3	n/a	n/a	n/a	n/a	179.211	AF05ANS.jpg
147.581	0.514	Blank	Blank	78.832	n/a	2	4	20	n/a	80	n/a	3	n/a	n/a	n/a	n/a	179.708	n/a
148.112	10.014	ITI	Fixation+	68.802	n/a	2	n/a	n/a	n/a	n/a	n/a	n/a	n/a	n/a	n/a	n/a	180.239	n/a
158.142	0.497	neutral	Picture	68.288	n/a	2	5	1	n/a	81	4	1	n/a	n/a	n/a	n/a	190.269	AF05NES.jpg
158.639	0.514	Blank	Blank	67.774	n/a	2	5	1	n/a	81	n/a	1	n/a	n/a	n/a	n/a	190.766	n/a
159.17	0.497	neutral	Picture	67.26	n/a	2	5	2	n/a	82	14	1	n/a	n/a	n/a	n/a	191.297	AF23NES.jpg
159.667	0.514	Blank	Blank	66.746	n/a	2	5	2	n/a	82	n/a	1	n/a	n/a	n/a	n/a	191.794	n/a
160.198	0.497	neutral	Picture	66.232	n/a	2	5	3	n/a	83	19	1	n/a	n/a	n/a	n/a	192.325	AF31NES.jpg
160.695	0.514	Blank	Blank	65.718	n/a	2	5	3	n/a	83	n/a	1	n/a	n/a	n/a	n/a	192.822	n/a
161.226	0.497	neutral	Picture	65.204	n/a	2	5	4	n/a	84	8	1	n/a	n/a	n/a	n/a	193.352	AF14NES.jpg
161.723	0.514	Blank	Blank	64.69	n/a	2	5	4	n/a	84	n/a	1	n/a	n/a	n/a	n/a	193.85	n/a
162.254	0.497	neutral	Picture	64.176	n/a	2	5	5	n/a	85	25	1	n/a	n/a	n/a	n/a	194.38	BM06NES.jpg
162.751	0.514	Blank	Blank	63.662	n/a	2	5	5	n/a	85	n/a	1	n/a	n/a	n/a	n/a	194.878	n/a
163.281	0.497	neutral	Picture	63.148	n/a	2	5	6	n/a	86	9	1	n/a	n/a	n/a	n/a	195.408	AF17NES.jpg
163.779	0.514	Blank	Blank	62.634	n/a	2	5	6	n/a	86	n/a	1	n/a	n/a	n/a	n/a	195.906	n/a
164.309	0.497	neutral	Picture	62.12	n/a	2	5	7	n/a	87	2	1	n/a	n/a	n/a	n/a	196.436	AF03NES.jpg
164.807	0.514	Blank	Blank	61.606	n/a	2	5	7	n/a	87	n/a	1	n/a	n/a	n/a	n/a	196.934	n/a
165.337	0.497	neutral	Picture	61.093	n/a	2	5	8	n/a	88	17	1	n/a	n/a	n/a	n/a	197.464	BF28NES.jpg
165.835	0.514	Blank	Blank	60.579	n/a	2	5	8	n/a	88	n/a	1	n/a	n/a	n/a	n/a	197.961	n/a
166.365	0.497	neutral	Picture	60.065	n/a	2	5	9	n/a	89	6	1	n/a	n/a	n/a	n/a	198.492	AF09NES.jpg
166.862	0.514	Blank	Blank	59.551	n/a	2	5	9	n/a	89	n/a	1	n/a	n/a	n/a	n/a	198.989	n/a
167.393	0.497	neutral	Picture	59.037	n/a	2	5	10	n/a	90	12	1	n/a	n/a	n/a	n/a	199.52	AF21NES.jpg
167.89	0.514	Blank	Blank	58.523	n/a	2	5	10	n/a	90	n/a	1	n/a	n/a	n/a	n/a	200.017	n/a
168.421	0.497	neutral	Picture	58.009	n/a	2	5	11	n/a	91	24	1	n/a	n/a	n/a	n/a	200.548	BM05NES.jpg
168.918	0.514	Blank	Blank	57.495	n/a	2	5	11	n/a	91	n/a	1	n/a	n/a	n/a	n/a	201.045	n/a
169.449	0.497	neutral	Picture	56.981	n/a	2	5	12	n/a	92	34	1	n/a	n/a	n/a	n/a	201.576	AM22NES.jpg
169.946	0.514	Blank	Blank	56.467	n/a	2	5	12	n/a	92	n/a	1	n/a	n/a	n/a	n/a	202.073	n/a
170.477	0.497	neutral	Picture	55.953	n/a	2	5	13	n/a	93	23	1	n/a	n/a	n/a	n/a	202.603	AM04NES.jpg
170.974	0.514	Blank	Blank	55.439	n/a	2	5	13	n/a	93	n/a	1	n/a	n/a	n/a	n/a	203.101	n/a
171.505	0.497	neutral	Picture	54.925	n/a	2	5	14	n/a	94	15	1	n/a	n/a	n/a	n/a	203.631	AF25NES.jpg
172.002	0.514	Blank	Blank	54.411	n/a	2	5	14	n/a	94	n/a	1	n/a	n/a	n/a	n/a	204.129	n/a
172.532	0.497	neutral	Picture	53.897	n/a	2	5	15	n/a	95	37	1	n/a	n/a	n/a	n/a	204.659	BM25NES.jpg
173.03	0.514	Blank	Blank	53.383	n/a	2	5	15	n/a	95	n/a	1	n/a	n/a	n/a	n/a	205.157	n/a
173.56	0.497	neutral	Picture	52.869	n/a	2	5	16	n/a	96	32	1	n/a	n/a	n/a	n/a	205.687	AM14NES.jpg
174.058	0.514	Blank	Blank	52.356	n/a	2	5	16	n/a	96	n/a	1	n/a	n/a	n/a	n/a	206.185	n/a
174.588	0.497	neutral	Picture	51.842	n/a	2	5	17	n/a	97	3	1	n/a	n/a	n/a	n/a	206.715	BF04NES.jpg
175.085	0.514	Blank	Blank	51.328	n/a	2	5	17	n/a	97	n/a	1	n/a	n/a	n/a	n/a	207.212	n/a
175.616	0.497	neutral	Picture	50.814	n/a	2	5	18	n/a	98	16	1	n/a	n/a	n/a	n/a	207.743	AF26NES.jpg
176.113	0.514	Blank	Blank	50.3	n/a	2	5	18	n/a	98	n/a	1	n/a	n/a	n/a	n/a	208.24	n/a
176.644	0.497	neutral	Picture	49.786	n/a	2	5	19	n/a	99	27	1	n/a	n/a	n/a	n/a	208.771	BM08NES.jpg
177.141	0.514	Blank	Blank	49.272	n/a	2	5	19	n/a	99	n/a	1	n/a	n/a	n/a	n/a	209.268	n/a
177.672	0.497	neutral	Picture	48.758	n/a	2	5	20	n/a	100	28	1	n/a	n/a	n/a	n/a	209.799	AM09NES.jpg
178.169	0.514	Blank	Blank	48.244	n/a	2	5	20	n/a	100	n/a	1	n/a	n/a	n/a	n/a	210.296	n/a
178.7	10.014	ITI	Fixation+	38.214	n/a	2	n/a	n/a	n/a	n/a	n/a	n/a	n/a	n/a	n/a	n/a	210.827	n/a
188.73	0.497	angry	Picture	37.7	n/a	2	6	1	n/a	101	81	3	n/a	n/a	n/a	n/a	220.857	AF01ANS.jpg
189.227	0.514	Blank	Blank	37.186	n/a	2	6	1	n/a	101	n/a	3	n/a	n/a	n/a	n/a	221.354	n/a
189.758	0.497	angry	Picture	36.672	n/a	2	6	2	n/a	102	120	3	n/a	n/a	n/a	n/a	221.885	AM35ANS.jpg
190.255	0.514	Blank	Blank	36.158	n/a	2	6	2	n/a	102	n/a	3	n/a	n/a	n/a	n/a	222.382	n/a
190.786	0.497	angry	Picture	35.644	n/a	2	6	3	n/a	103	114	3	n/a	n/a	n/a	n/a	222.912	AM22ANS.jpg
191.283	0.514	Blank	Blank	35.13	n/a	2	6	3	n/a	103	n/a	3	n/a	n/a	n/a	n/a	223.41	n/a
191.814	0.497	angry	Picture	34.616	n/a	2	6	4	n/a	104	109	3	n/a	n/a	n/a	n/a	223.94	AM10ANS.jpg
192.311	0.514	Blank	Blank	34.102	n/a	2	6	4	n/a	104	n/a	3	n/a	n/a	n/a	n/a	224.438	n/a
192.841	0.497	angry	Picture	33.588	n/a	2	6	5	n/a	105	96	3	n/a	n/a	n/a	n/a	224.968	AF26ANS.jpg
193.339	0.514	Blank	Blank	33.074	n/a	2	6	5	n/a	105	n/a	3	n/a	n/a	n/a	n/a	225.465	n/a
193.869	0.497	angry	Picture	32.561	n/a	2	6	6	n/a	106	82	3	n/a	n/a	n/a	n/a	225.996	AF03ANS.jpg
194.367	0.514	Blank	Blank	32.047	n/a	2	6	6	n/a	106	n/a	3	n/a	n/a	n/a	n/a	226.493	n/a
194.897	0.497	angry	Picture	31.533	n/a	2	6	7	n/a	107	97	3	n/a	n/a	n/a	n/a	227.024	BF28ANS.jpg
195.394	0.514	Blank	Blank	31.019	n/a	2	6	7	n/a	107	n/a	3	n/a	n/a	n/a	n/a	227.521	n/a
195.925	0.497	angry	Picture	30.505	n/a	2	6	8	n/a	108	115	3	n/a	n/a	n/a	n/a	228.052	AM23ANS.jpg
196.422	0.514	Blank	Blank	29.991	n/a	2	6	8	n/a	108	n/a	3	n/a	n/a	n/a	n/a	228.549	n/a
196.953	0.497	angry	Picture	29.477	n/a	2	6	9	n/a	109	91	3	n/a	n/a	n/a	n/a	229.08	AF20ANS.jpg
197.45	0.514	Blank	Blank	28.963	n/a	2	6	9	n/a	109	n/a	3	n/a	n/a	n/a	n/a	229.577	n/a
197.981	0.497	angry	Picture	28.449	n/a	2	6	10	n/a	110	87	3	n/a	n/a	n/a	n/a	230.108	BF11ANS.jpg
198.478	0.514	Blank	Blank	27.935	n/a	2	6	10	n/a	110	n/a	3	n/a	n/a	n/a	n/a	230.605	n/a
199.009	0.497	angry	Picture	27.421	n/a	2	6	11	n/a	111	85	3	n/a	n/a	n/a	n/a	231.136	BF07ANS.jpg
199.506	0.514	Blank	Blank	26.907	n/a	2	6	11	n/a	111	n/a	3	n/a	n/a	n/a	n/a	231.633	n/a
200.037	0.497	angry	Picture	26.393	n/a	2	6	12	n/a	112	110	3	n/a	n/a	n/a	n/a	232.163	AM11ANS.jpg
200.534	0.514	Blank	Blank	25.879	n/a	2	6	12	n/a	112	n/a	3	n/a	n/a	n/a	n/a	232.661	n/a
201.064	0.497	angry	Picture	25.365	n/a	2	6	13	n/a	113	111	3	n/a	n/a	n/a	n/a	233.191	BM12ANS.jpg
201.562	0.514	Blank	Blank	24.851	n/a	2	6	13	n/a	113	n/a	3	n/a	n/a	n/a	n/a	233.689	n/a
202.092	0.497	angry	Picture	24.337	n/a	2	6	14	n/a	114	103	3	n/a	n/a	n/a	n/a	234.219	AM04ANS.jpg
202.59	0.514	Blank	Blank	23.824	n/a	2	6	14	n/a	114	n/a	3	n/a	n/a	n/a	n/a	234.716	n/a
203.12	0.497	angry	Picture	23.31	n/a	2	6	15	n/a	115	101	3	n/a	n/a	n/a	n/a	235.247	AM01ANS.jpg
203.618	0.514	Blank	Blank	22.796	n/a	2	6	15	n/a	115	n/a	3	n/a	n/a	n/a	n/a	235.744	n/a
204.148	0.497	angry	Picture	22.282	n/a	2	6	16	n/a	116	104	3	n/a	n/a	n/a	n/a	236.275	BM05ANS.jpg
204.645	0.514	Blank	Blank	21.768	n/a	2	6	16	n/a	116	n/a	3	n/a	n/a	n/a	n/a	236.772	n/a
205.176	0.497	angry	Picture	21.254	n/a	2	6	17	n/a	117	107	3	n/a	n/a	n/a	n/a	237.303	BM08ANS.jpg
205.673	0.514	Blank	Blank	20.74	n/a	2	6	17	n/a	117	n/a	3	n/a	n/a	n/a	n/a	237.8	n/a
206.204	0.497	angry	Picture	20.226	n/a	2	6	18	n/a	118	98	3	n/a	n/a	n/a	n/a	238.331	BF29ANS.jpg
206.701	0.514	Blank	Blank	19.712	n/a	2	6	18	n/a	118	n/a	3	n/a	n/a	n/a	n/a	238.828	n/a
207.232	0.497	angry	Picture	19.198	n/a	2	6	19	n/a	119	99	3	n/a	n/a	n/a	n/a	239.358	AF31ANS.jpg
207.729	0.514	Blank	Blank	18.684	n/a	2	6	19	n/a	119	n/a	3	n/a	n/a	n/a	n/a	239.856	n/a
208.26	0.497	angry	Picture	18.17	n/a	2	6	20	n/a	120	108	3	n/a	n/a	n/a	n/a	240.386	AM09ANS.jpg
208.757	0.514	Blank	Blank	17.656	n/a	2	6	20	n/a	120	n/a	3	n/a	n/a	n/a	n/a	240.884	n/a
209.287	10.014	ITI	Fixation+	7.626	n/a	2	n/a	n/a	n/a	n/a	n/a	n/a	n/a	n/a	n/a	n/a	241.414	n/a
226.927	n/a	ConfirmRating	Rate	n/a	7.61	2	n/a	n/a	0	n/a	n/a	n/a	2	Angry	46	50	259.054	n/a
238.079	n/a	ConfirmRating	Rate	n/a	11.141	2	n/a	n/a	1	n/a	n/a	n/a	3	Angry	17	48	270.206	n/a
238.101	15.004	Rest	Picture	n/a	n/a	n/a	n/a	n/a	n/a	n/a	n/a	n/a	0	n/a	0	0	270.228	n/a
253.122	10.014	ITI	Fixation+	98.712	n/a	3	n/a	n/a	n/a	n/a	n/a	n/a	n/a	n/a	n/a	n/a	285.248	n/a
263.152	0.497	happy	Picture	98.197	n/a	3	7	1	n/a	1	46	2	n/a	n/a	n/a	n/a	295.279	AF09HAS.jpg
263.649	0.514	Blank	Blank	97.684	n/a	3	7	1	n/a	1	n/a	2	n/a	n/a	n/a	n/a	295.776	n/a
264.18	0.497	happy	Picture	97.17	n/a	3	7	2	n/a	2	69	2	n/a	n/a	n/a	n/a	296.307	AM10HAS.jpg
264.677	0.514	Blank	Blank	96.656	n/a	3	7	2	n/a	2	n/a	2	n/a	n/a	n/a	n/a	296.804	n/a
265.208	0.497	happy	Picture	96.142	n/a	3	7	3	n/a	3	71	2	n/a	n/a	n/a	n/a	297.334	BM12HAS.jpg
265.705	0.514	Blank	Blank	95.628	n/a	3	7	3	n/a	3	n/a	2	n/a	n/a	n/a	n/a	297.832	n/a
266.236	0.497	happy	Picture	95.114	n/a	3	7	4	n/a	4	51	2	n/a	n/a	n/a	n/a	298.362	AF20HAS.jpg
266.733	0.514	Blank	Blank	94.6	n/a	3	7	4	n/a	4	n/a	2	n/a	n/a	n/a	n/a	298.86	n/a
267.263	0.497	happy	Picture	94.086	n/a	3	7	5	n/a	5	67	2	n/a	n/a	n/a	n/a	299.39	BM08HAS.jpg
267.761	0.514	Blank	Blank	93.572	n/a	3	7	5	n/a	5	n/a	2	n/a	n/a	n/a	n/a	299.887	n/a
268.291	0.497	happy	Picture	93.058	n/a	3	7	6	n/a	6	60	2	n/a	n/a	n/a	n/a	300.418	AF32HAS.jpg
268.789	0.514	Blank	Blank	92.544	n/a	3	7	6	n/a	6	n/a	2	n/a	n/a	n/a	n/a	300.915	n/a
269.319	0.497	happy	Picture	92.03	n/a	3	7	7	n/a	7	42	2	n/a	n/a	n/a	n/a	301.446	AF03HAS.jpg
269.817	0.514	Blank	Blank	91.516	n/a	3	7	7	n/a	7	n/a	2	n/a	n/a	n/a	n/a	301.943	n/a
270.347	0.497	happy	Picture	91.002	n/a	3	7	8	n/a	8	55	2	n/a	n/a	n/a	n/a	302.474	AF25HAS.jpg
270.844	0.514	Blank	Blank	90.488	n/a	3	7	8	n/a	8	n/a	2	n/a	n/a	n/a	n/a	302.971	n/a
271.375	0.497	happy	Picture	89.974	n/a	3	7	9	n/a	9	72	2	n/a	n/a	n/a	n/a	303.502	AM14HAS.jpg
271.872	0.514	Blank	Blank	89.46	n/a	3	7	9	n/a	9	n/a	2	n/a	n/a	n/a	n/a	303.999	n/a
272.403	0.497	happy	Picture	88.947	n/a	3	7	10	n/a	10	63	2	n/a	n/a	n/a	n/a	304.53	AM04HAS.jpg
272.9	0.514	Blank	Blank	88.433	n/a	3	7	10	n/a	10	n/a	2	n/a	n/a	n/a	n/a	305.027	n/a
273.431	0.497	happy	Picture	87.919	n/a	3	7	11	n/a	11	58	2	n/a	n/a	n/a	n/a	305.557	BF29HAS.jpg
273.928	0.514	Blank	Blank	87.405	n/a	3	7	11	n/a	11	n/a	2	n/a	n/a	n/a	n/a	306.055	n/a
274.459	0.497	happy	Picture	86.891	n/a	3	7	12	n/a	12	48	2	n/a	n/a	n/a	n/a	306.585	AF14HAS.jpg
274.956	0.514	Blank	Blank	86.377	n/a	3	7	12	n/a	12	n/a	2	n/a	n/a	n/a	n/a	307.083	n/a
275.486	0.497	happy	Picture	85.863	n/a	3	7	13	n/a	13	66	2	n/a	n/a	n/a	n/a	307.613	BM07HAS.jpg
275.984	0.514	Blank	Blank	85.349	n/a	3	7	13	n/a	13	n/a	2	n/a	n/a	n/a	n/a	308.111	n/a
276.514	0.497	happy	Picture	84.835	n/a	3	7	14	n/a	14	70	2	n/a	n/a	n/a	n/a	308.641	BM11HAS.jpg
277.012	0.514	Blank	Blank	84.321	n/a	3	7	14	n/a	14	n/a	2	n/a	n/a	n/a	n/a	309.139	n/a
277.542	0.497	happy	Picture	83.807	n/a	3	7	15	n/a	15	43	2	n/a	n/a	n/a	n/a	309.669	BF04HAS.jpg
278.039	0.514	Blank	Blank	83.293	n/a	3	7	15	n/a	15	n/a	2	n/a	n/a	n/a	n/a	310.166	n/a
278.57	0.497	happy	Picture	82.779	n/a	3	7	16	n/a	16	49	2	n/a	n/a	n/a	n/a	310.697	AF17HAS.jpg
279.067	0.514	Blank	Blank	82.265	n/a	3	7	16	n/a	16	n/a	2	n/a	n/a	n/a	n/a	311.194	n/a
279.598	0.497	happy	Picture	81.751	n/a	3	7	17	n/a	17	75	2	n/a	n/a	n/a	n/a	311.725	AM23HAS.jpg
280.095	0.514	Blank	Blank	81.238	n/a	3	7	17	n/a	17	n/a	2	n/a	n/a	n/a	n/a	312.222	n/a
280.626	0.497	happy	Picture	80.724	n/a	3	7	18	n/a	18	80	2	n/a	n/a	n/a	n/a	312.753	BM35HAS.jpg
281.123	0.514	Blank	Blank	80.21	n/a	3	7	18	n/a	18	n/a	2	n/a	n/a	n/a	n/a	313.25	n/a
281.654	0.497	happy	Picture	79.696	n/a	3	7	19	n/a	19	76	2	n/a	n/a	n/a	n/a	313.781	BM24HAS.jpg
282.151	0.514	Blank	Blank	79.182	n/a	3	7	19	n/a	19	n/a	2	n/a	n/a	n/a	n/a	314.278	n/a
282.682	0.497	happy	Picture	78.668	n/a	3	7	20	n/a	20	74	2	n/a	n/a	n/a	n/a	314.808	AM22HAS.jpg
283.179	0.514	Blank	Blank	78.154	n/a	3	7	20	n/a	20	n/a	2	n/a	n/a	n/a	n/a	315.306	n/a
283.709	10.014	ITI	Fixation+	68.124	n/a	3	n/a	n/a	n/a	n/a	n/a	n/a	n/a	n/a	n/a	n/a	315.836	n/a
293.74	0.497	neutral	Picture	67.61	n/a	3	8	1	n/a	21	33	1	n/a	n/a	n/a	n/a	325.866	AM21NES.jpg
294.237	0.514	Blank	Blank	67.096	n/a	3	8	1	n/a	21	n/a	1	n/a	n/a	n/a	n/a	326.364	n/a
294.767	0.497	neutral	Picture	66.582	n/a	3	8	2	n/a	22	39	1	n/a	n/a	n/a	n/a	326.894	AM28NES.jpg
295.265	0.514	Blank	Blank	66.068	n/a	3	8	2	n/a	22	n/a	1	n/a	n/a	n/a	n/a	327.392	n/a
295.795	0.497	neutral	Picture	65.554	n/a	3	8	3	n/a	23	25	1	n/a	n/a	n/a	n/a	327.922	BM06NES.jpg
296.293	0.514	Blank	Blank	65.04	n/a	3	8	3	n/a	23	n/a	1	n/a	n/a	n/a	n/a	328.42	n/a
296.823	0.497	neutral	Picture	64.526	n/a	3	8	4	n/a	24	5	1	n/a	n/a	n/a	n/a	328.95	BF07NES.jpg
297.321	0.514	Blank	Blank	64.012	n/a	3	8	4	n/a	24	n/a	1	n/a	n/a	n/a	n/a	329.447	n/a
297.851	0.497	neutral	Picture	63.498	n/a	3	8	5	n/a	25	10	1	n/a	n/a	n/a	n/a	329.978	AF18NES.jpg
298.349	0.514	Blank	Blank	62.984	n/a	3	8	5	n/a	25	n/a	1	n/a	n/a	n/a	n/a	330.475	n/a
298.879	0.497	neutral	Picture	62.47	n/a	3	8	6	n/a	26	34	1	n/a	n/a	n/a	n/a	331.006	AM22NES.jpg
299.376	0.514	Blank	Blank	61.956	n/a	3	8	6	n/a	26	n/a	1	n/a	n/a	n/a	n/a	331.503	n/a
299.907	0.497	neutral	Picture	61.442	n/a	3	8	7	n/a	27	36	1	n/a	n/a	n/a	n/a	332.034	BM24NES.jpg
300.404	0.514	Blank	Blank	60.929	n/a	3	8	7	n/a	27	n/a	1	n/a	n/a	n/a	n/a	332.531	n/a
300.935	0.497	neutral	Picture	60.415	n/a	3	8	8	n/a	28	14	1	n/a	n/a	n/a	n/a	333.062	AF23NES.jpg
301.432	0.514	Blank	Blank	59.901	n/a	3	8	8	n/a	28	n/a	1	n/a	n/a	n/a	n/a	333.559	n/a
301.963	0.497	neutral	Picture	59.387	n/a	3	8	9	n/a	29	9	1	n/a	n/a	n/a	n/a	334.089	AF17NES.jpg
302.46	0.514	Blank	Blank	58.873	n/a	3	8	9	n/a	29	n/a	1	n/a	n/a	n/a	n/a	334.587	n/a
302.99	0.497	neutral	Picture	58.359	n/a	3	8	10	n/a	30	19	1	n/a	n/a	n/a	n/a	335.117	AF31NES.jpg
303.488	0.514	Blank	Blank	57.845	n/a	3	8	10	n/a	30	n/a	1	n/a	n/a	n/a	n/a	335.615	n/a
304.018	0.497	neutral	Picture	57.331	n/a	3	8	11	n/a	31	15	1	n/a	n/a	n/a	n/a	336.145	AF25NES.jpg
304.516	0.514	Blank	Blank	56.817	n/a	3	8	11	n/a	31	n/a	1	n/a	n/a	n/a	n/a	336.643	n/a
305.046	0.497	neutral	Picture	56.303	n/a	3	8	12	n/a	32	22	1	n/a	n/a	n/a	n/a	337.173	BM03NES.jpg
305.544	0.514	Blank	Blank	55.789	n/a	3	8	12	n/a	32	n/a	1	n/a	n/a	n/a	n/a	337.671	n/a
306.074	0.497	neutral	Picture	55.275	n/a	3	8	13	n/a	33	11	1	n/a	n/a	n/a	n/a	338.201	AF20NES.jpg
306.572	0.514	Blank	Blank	54.761	n/a	3	8	13	n/a	33	n/a	1	n/a	n/a	n/a	n/a	338.698	n/a
307.102	0.497	neutral	Picture	54.247	n/a	3	8	14	n/a	34	4	1	n/a	n/a	n/a	n/a	339.229	AF05NES.jpg
307.599	0.514	Blank	Blank	53.733	n/a	3	8	14	n/a	34	n/a	1	n/a	n/a	n/a	n/a	339.726	n/a
308.13	0.497	neutral	Picture	53.219	n/a	3	8	15	n/a	35	17	1	n/a	n/a	n/a	n/a	340.257	BF28NES.jpg
308.627	0.514	Blank	Blank	52.706	n/a	3	8	15	n/a	35	n/a	1	n/a	n/a	n/a	n/a	340.754	n/a
309.158	0.497	neutral	Picture	52.191	n/a	3	8	16	n/a	36	13	1	n/a	n/a	n/a	n/a	341.285	BF22NES.jpg
309.655	0.514	Blank	Blank	51.678	n/a	3	8	16	n/a	36	n/a	1	n/a	n/a	n/a	n/a	341.782	n/a
310.186	0.497	neutral	Picture	51.164	n/a	3	8	17	n/a	37	12	1	n/a	n/a	n/a	n/a	342.313	AF21NES.jpg
310.683	0.514	Blank	Blank	50.65	n/a	3	8	17	n/a	37	n/a	1	n/a	n/a	n/a	n/a	342.81	n/a
311.214	0.497	neutral	Picture	50.136	n/a	3	8	18	n/a	38	24	1	n/a	n/a	n/a	n/a	343.34	BM05NES.jpg
311.711	0.514	Blank	Blank	49.622	n/a	3	8	18	n/a	38	n/a	1	n/a	n/a	n/a	n/a	343.838	n/a
312.241	0.497	neutral	Picture	49.108	n/a	3	8	19	n/a	39	29	1	n/a	n/a	n/a	n/a	344.368	AM10NES.jpg
312.739	0.514	Blank	Blank	48.594	n/a	3	8	19	n/a	39	n/a	1	n/a	n/a	n/a	n/a	344.866	n/a
313.269	0.497	neutral	Picture	48.08	n/a	3	8	20	n/a	40	23	1	n/a	n/a	n/a	n/a	345.396	AM04NES.jpg
313.767	0.514	Blank	Blank	47.566	n/a	3	8	20	n/a	40	n/a	1	n/a	n/a	n/a	n/a	345.894	n/a
314.297	10.014	ITI	Fixation+	37.536	n/a	3	n/a	n/a	n/a	n/a	n/a	n/a	n/a	n/a	n/a	n/a	346.424	n/a
324.327	0.497	happy	Picture	37.022	n/a	3	9	1	n/a	41	62	2	n/a	n/a	n/a	n/a	356.454	BM03HAS.jpg
324.825	0.514	Blank	Blank	36.508	n/a	3	9	1	n/a	41	n/a	2	n/a	n/a	n/a	n/a	356.952	n/a
325.355	0.497	happy	Picture	35.994	n/a	3	9	2	n/a	42	52	2	n/a	n/a	n/a	n/a	357.482	AF21HAS.jpg
325.853	0.514	Blank	Blank	35.48	n/a	3	9	2	n/a	42	n/a	2	n/a	n/a	n/a	n/a	357.979	n/a
326.383	0.497	happy	Picture	34.966	n/a	3	9	3	n/a	43	44	2	n/a	n/a	n/a	n/a	358.51	AF05HAS.jpg
326.88	0.514	Blank	Blank	34.452	n/a	3	9	3	n/a	43	n/a	2	n/a	n/a	n/a	n/a	359.007	n/a
327.411	0.497	happy	Picture	33.938	n/a	3	9	4	n/a	44	53	2	n/a	n/a	n/a	n/a	359.538	BF22HAS.jpg
327.908	0.514	Blank	Blank	33.424	n/a	3	9	4	n/a	44	n/a	2	n/a	n/a	n/a	n/a	360.035	n/a
328.439	0.497	happy	Picture	32.91	n/a	3	9	5	n/a	45	54	2	n/a	n/a	n/a	n/a	360.566	AF23HAS.jpg
328.936	0.514	Blank	Blank	32.397	n/a	3	9	5	n/a	45	n/a	2	n/a	n/a	n/a	n/a	361.063	n/a
329.467	0.497	happy	Picture	31.883	n/a	3	9	6	n/a	46	68	2	n/a	n/a	n/a	n/a	361.594	AM09HAS.jpg
329.964	0.514	Blank	Blank	31.369	n/a	3	9	6	n/a	46	n/a	2	n/a	n/a	n/a	n/a	362.091	n/a
330.495	0.497	happy	Picture	30.855	n/a	3	9	7	n/a	47	64	2	n/a	n/a	n/a	n/a	362.622	BM05HAS.jpg
330.992	0.514	Blank	Blank	30.341	n/a	3	9	7	n/a	47	n/a	2	n/a	n/a	n/a	n/a	363.119	n/a
331.523	0.497	happy	Picture	29.827	n/a	3	9	8	n/a	48	59	2	n/a	n/a	n/a	n/a	363.649	AF31HAS.jpg
332.02	0.514	Blank	Blank	29.313	n/a	3	9	8	n/a	48	n/a	2	n/a	n/a	n/a	n/a	364.147	n/a
332.55	0.497	happy	Picture	28.799	n/a	3	9	9	n/a	49	41	2	n/a	n/a	n/a	n/a	364.677	AF01HAS.jpg
333.048	0.514	Blank	Blank	28.285	n/a	3	9	9	n/a	49	n/a	2	n/a	n/a	n/a	n/a	365.175	n/a
333.578	0.497	happy	Picture	27.771	n/a	3	9	10	n/a	50	73	2	n/a	n/a	n/a	n/a	365.705	AM21HAS.jpg
334.076	0.514	Blank	Blank	27.257	n/a	3	9	10	n/a	50	n/a	2	n/a	n/a	n/a	n/a	366.202	n/a
334.606	0.497	happy	Picture	26.743	n/a	3	9	11	n/a	51	65	2	n/a	n/a	n/a	n/a	366.733	BM06HAS.jpg
335.104	0.514	Blank	Blank	26.229	n/a	3	9	11	n/a	51	n/a	2	n/a	n/a	n/a	n/a	367.23	n/a
335.634	0.497	happy	Picture	25.715	n/a	3	9	12	n/a	52	56	2	n/a	n/a	n/a	n/a	367.761	AF26HAS.jpg
336.131	0.514	Blank	Blank	25.201	n/a	3	9	12	n/a	52	n/a	2	n/a	n/a	n/a	n/a	368.258	n/a
336.662	0.497	happy	Picture	24.687	n/a	3	9	13	n/a	53	45	2	n/a	n/a	n/a	n/a	368.789	BF07HAS.jpg
337.159	0.514	Blank	Blank	24.173	n/a	3	9	13	n/a	53	n/a	2	n/a	n/a	n/a	n/a	369.286	n/a
337.69	0.497	happy	Picture	23.659	n/a	3	9	14	n/a	54	78	2	n/a	n/a	n/a	n/a	369.817	BM26HAS.jpg
338.187	0.514	Blank	Blank	23.146	n/a	3	9	14	n/a	54	n/a	2	n/a	n/a	n/a	n/a	370.314	n/a
338.718	0.497	happy	Picture	22.632	n/a	3	9	15	n/a	55	50	2	n/a	n/a	n/a	n/a	370.844	AF18HAS.jpg
339.215	0.514	Blank	Blank	22.118	n/a	3	9	15	n/a	55	n/a	2	n/a	n/a	n/a	n/a	371.342	n/a
339.746	0.497	happy	Picture	21.604	n/a	3	9	16	n/a	56	47	2	n/a	n/a	n/a	n/a	371.872	BF11HAS.jpg
340.243	0.514	Blank	Blank	21.09	n/a	3	9	16	n/a	56	n/a	2	n/a	n/a	n/a	n/a	372.37	n/a
340.774	0.497	happy	Picture	20.576	n/a	3	9	17	n/a	57	77	2	n/a	n/a	n/a	n/a	372.9	BM25HAS.jpg
341.271	0.514	Blank	Blank	20.062	n/a	3	9	17	n/a	57	n/a	2	n/a	n/a	n/a	n/a	373.398	n/a
341.801	0.497	happy	Picture	19.548	n/a	3	9	18	n/a	58	57	2	n/a	n/a	n/a	n/a	373.928	BF28HAS.jpg
342.299	0.514	Blank	Blank	19.034	n/a	3	9	18	n/a	58	n/a	2	n/a	n/a	n/a	n/a	374.425	n/a
342.829	0.497	happy	Picture	18.52	n/a	3	9	19	n/a	59	61	2	n/a	n/a	n/a	n/a	374.956	AM01HAS.jpg
343.327	0.514	Blank	Blank	18.006	n/a	3	9	19	n/a	59	n/a	2	n/a	n/a	n/a	n/a	375.453	n/a
343.857	0.497	happy	Picture	17.492	n/a	3	9	20	n/a	60	79	2	n/a	n/a	n/a	n/a	375.984	BM28HAS.jpg
344.354	0.514	Blank	Blank	16.978	n/a	3	9	20	n/a	60	n/a	2	n/a	n/a	n/a	n/a	376.481	n/a
344.885	10.014	ITI	Fixation+	6.948	n/a	3	n/a	n/a	n/a	n/a	n/a	n/a	n/a	n/a	n/a	n/a	377.012	n/a
361.847	n/a	ConfirmRating	Rate	n/a	6.946	3	n/a	n/a	0	n/a	n/a	n/a	2	Happy	56	51	393.974	n/a
368.087	n/a	ConfirmRating	Rate	n/a	6.217	3	n/a	n/a	1	n/a	n/a	n/a	3	Happy	16	46	400.213	n/a
368.112	10.014	ITI	Fixation+	101.683	n/a	4	n/a	n/a	n/a	n/a	n/a	n/a	n/a	n/a	n/a	n/a	400.239	n/a
378.142	0.497	angry	Picture	101.169	n/a	4	10	1	n/a	61	119	3	n/a	n/a	n/a	n/a	410.269	BM28ANS.jpg
378.639	0.514	Blank	Blank	100.655	n/a	4	10	1	n/a	61	n/a	3	n/a	n/a	n/a	n/a	410.766	n/a
379.17	0.497	angry	Picture	100.141	n/a	4	10	2	n/a	62	100	3	n/a	n/a	n/a	n/a	411.297	AF32ANS.jpg
379.667	0.514	Blank	Blank	99.627	n/a	4	10	2	n/a	62	n/a	3	n/a	n/a	n/a	n/a	411.794	n/a
380.198	0.497	angry	Picture	99.113	n/a	4	10	3	n/a	63	118	3	n/a	n/a	n/a	n/a	412.325	BM26ANS.jpg
380.695	0.514	Blank	Blank	98.6	n/a	4	10	3	n/a	63	n/a	3	n/a	n/a	n/a	n/a	412.822	n/a
381.226	0.497	angry	Picture	98.086	n/a	4	10	4	n/a	64	89	3	n/a	n/a	n/a	n/a	413.352	AF17ANS.jpg
381.723	0.514	Blank	Blank	97.572	n/a	4	10	4	n/a	64	n/a	3	n/a	n/a	n/a	n/a	413.85	n/a
382.253	0.497	angry	Picture	97.058	n/a	4	10	5	n/a	65	116	3	n/a	n/a	n/a	n/a	414.38	BM24ANS.jpg
382.751	0.514	Blank	Blank	96.544	n/a	4	10	5	n/a	65	n/a	3	n/a	n/a	n/a	n/a	414.878	n/a
383.281	0.497	angry	Picture	96.03	n/a	4	10	6	n/a	66	105	3	n/a	n/a	n/a	n/a	415.408	BM06ANS.jpg
383.779	0.514	Blank	Blank	95.516	n/a	4	10	6	n/a	66	n/a	3	n/a	n/a	n/a	n/a	415.906	n/a
384.309	0.497	angry	Picture	95.002	n/a	4	10	7	n/a	67	106	3	n/a	n/a	n/a	n/a	416.436	AM07ANS.jpg
384.807	0.514	Blank	Blank	94.488	n/a	4	10	7	n/a	67	n/a	3	n/a	n/a	n/a	n/a	416.933	n/a
385.337	0.497	angry	Picture	93.974	n/a	4	10	8	n/a	68	94	3	n/a	n/a	n/a	n/a	417.464	AF23ANS.jpg
385.834	0.514	Blank	Blank	93.46	n/a	4	10	8	n/a	68	n/a	3	n/a	n/a	n/a	n/a	417.961	n/a
386.365	0.497	angry	Picture	92.946	n/a	4	10	9	n/a	69	117	3	n/a	n/a	n/a	n/a	418.492	BM25ANS.jpg
386.862	0.514	Blank	Blank	92.432	n/a	4	10	9	n/a	69	n/a	3	n/a	n/a	n/a	n/a	418.989	n/a
387.393	0.497	angry	Picture	91.918	n/a	4	10	10	n/a	70	90	3	n/a	n/a	n/a	n/a	419.52	AF18ANS.jpg
387.89	0.514	Blank	Blank	91.404	n/a	4	10	10	n/a	70	n/a	3	n/a	n/a	n/a	n/a	420.017	n/a
388.421	0.497	angry	Picture	90.89	n/a	4	10	11	n/a	71	83	3	n/a	n/a	n/a	n/a	420.548	BF04ANS.jpg
388.918	0.514	Blank	Blank	90.377	n/a	4	10	11	n/a	71	n/a	3	n/a	n/a	n/a	n/a	421.045	n/a
389.449	0.497	angry	Picture	89.863	n/a	4	10	12	n/a	72	112	3	n/a	n/a	n/a	n/a	421.575	AM14ANS.jpg
389.946	0.514	Blank	Blank	89.349	n/a	4	10	12	n/a	72	n/a	3	n/a	n/a	n/a	n/a	422.073	n/a
390.477	0.497	angry	Picture	88.835	n/a	4	10	13	n/a	73	102	3	n/a	n/a	n/a	n/a	422.603	BM03ANS.jpg
390.974	0.514	Blank	Blank	88.321	n/a	4	10	13	n/a	73	n/a	3	n/a	n/a	n/a	n/a	423.101	n/a
391.504	0.497	angry	Picture	87.807	n/a	4	10	14	n/a	74	95	3	n/a	n/a	n/a	n/a	423.631	AF25ANS.jpg
392.002	0.514	Blank	Blank	87.293	n/a	4	10	14	n/a	74	n/a	3	n/a	n/a	n/a	n/a	424.129	n/a
392.532	0.497	angry	Picture	86.779	n/a	4	10	15	n/a	75	113	3	n/a	n/a	n/a	n/a	424.659	AM21ANS.jpg
393.03	0.514	Blank	Blank	86.265	n/a	4	10	15	n/a	75	n/a	3	n/a	n/a	n/a	n/a	425.156	n/a
393.56	0.497	angry	Picture	85.751	n/a	4	10	16	n/a	76	88	3	n/a	n/a	n/a	n/a	425.687	AF14ANS.jpg
394.058	0.514	Blank	Blank	85.237	n/a	4	10	16	n/a	76	n/a	3	n/a	n/a	n/a	n/a	426.184	n/a
394.588	0.497	angry	Picture	84.723	n/a	4	10	17	n/a	77	93	3	n/a	n/a	n/a	n/a	426.715	BF22ANS.jpg
395.085	0.514	Blank	Blank	84.209	n/a	4	10	17	n/a	77	n/a	3	n/a	n/a	n/a	n/a	427.212	n/a
395.616	0.497	angry	Picture	83.695	n/a	4	10	18	n/a	78	86	3	n/a	n/a	n/a	n/a	427.743	AF09ANS.jpg
396.113	0.514	Blank	Blank	83.181	n/a	4	10	18	n/a	78	n/a	3	n/a	n/a	n/a	n/a	428.24	n/a
396.644	0.497	angry	Picture	82.667	n/a	4	10	19	n/a	79	92	3	n/a	n/a	n/a	n/a	428.771	AF21ANS.jpg
397.141	0.514	Blank	Blank	82.153	n/a	4	10	19	n/a	79	n/a	3	n/a	n/a	n/a	n/a	429.268	n/a
397.672	0.497	angry	Picture	81.639	n/a	4	10	20	n/a	80	84	3	n/a	n/a	n/a	n/a	429.798	AF05ANS.jpg
398.169	0.514	Blank	Blank	81.126	n/a	4	10	20	n/a	80	n/a	3	n/a	n/a	n/a	n/a	430.296	n/a
398.7	10.014	ITI	Fixation+	71.095	n/a	4	n/a	n/a	n/a	n/a	n/a	n/a	n/a	n/a	n/a	n/a	430.826	n/a
408.73	0.497	neutral	Picture	70.582	n/a	4	11	1	n/a	81	4	1	n/a	n/a	n/a	n/a	440.856	AF05NES.jpg
409.227	0.514	Blank	Blank	70.067	n/a	4	11	1	n/a	81	n/a	1	n/a	n/a	n/a	n/a	441.354	n/a
409.758	0.497	neutral	Picture	69.554	n/a	4	11	2	n/a	82	14	1	n/a	n/a	n/a	n/a	441.884	AF23NES.jpg
410.255	0.514	Blank	Blank	69.04	n/a	4	11	2	n/a	82	n/a	1	n/a	n/a	n/a	n/a	442.382	n/a
410.786	0.497	neutral	Picture	68.526	n/a	4	11	3	n/a	83	19	1	n/a	n/a	n/a	n/a	442.912	AF31NES.jpg
411.283	0.514	Blank	Blank	68.012	n/a	4	11	3	n/a	83	n/a	1	n/a	n/a	n/a	n/a	443.41	n/a
411.813	0.497	neutral	Picture	67.498	n/a	4	11	4	n/a	84	8	1	n/a	n/a	n/a	n/a	443.94	AF14NES.jpg
412.311	0.514	Blank	Blank	66.984	n/a	4	11	4	n/a	84	n/a	1	n/a	n/a	n/a	n/a	444.438	n/a
412.841	0.497	neutral	Picture	66.47	n/a	4	11	5	n/a	85	25	1	n/a	n/a	n/a	n/a	444.968	BM06NES.jpg
413.339	0.514	Blank	Blank	65.956	n/a	4	11	5	n/a	85	n/a	1	n/a	n/a	n/a	n/a	445.465	n/a
413.869	0.497	neutral	Picture	65.442	n/a	4	11	6	n/a	86	9	1	n/a	n/a	n/a	n/a	445.996	AF17NES.jpg
414.366	0.514	Blank	Blank	64.928	n/a	4	11	6	n/a	86	n/a	1	n/a	n/a	n/a	n/a	446.493	n/a
414.897	0.497	neutral	Picture	64.414	n/a	4	11	7	n/a	87	2	1	n/a	n/a	n/a	n/a	447.024	AF03NES.jpg
415.394	0.514	Blank	Blank	63.9	n/a	4	11	7	n/a	87	n/a	1	n/a	n/a	n/a	n/a	447.521	n/a
415.925	0.497	neutral	Picture	63.386	n/a	4	11	8	n/a	88	17	1	n/a	n/a	n/a	n/a	448.052	BF28NES.jpg
416.422	0.514	Blank	Blank	62.872	n/a	4	11	8	n/a	88	n/a	1	n/a	n/a	n/a	n/a	448.549	n/a
416.953	0.497	neutral	Picture	62.358	n/a	4	11	9	n/a	89	6	1	n/a	n/a	n/a	n/a	449.08	AF09NES.jpg
417.45	0.514	Blank	Blank	61.845	n/a	4	11	9	n/a	89	n/a	1	n/a	n/a	n/a	n/a	449.577	n/a
417.981	0.497	neutral	Picture	61.33	n/a	4	11	10	n/a	90	12	1	n/a	n/a	n/a	n/a	450.108	AF21NES.jpg
418.478	0.514	Blank	Blank	60.817	n/a	4	11	10	n/a	90	n/a	1	n/a	n/a	n/a	n/a	450.605	n/a
419.009	0.497	neutral	Picture	60.303	n/a	4	11	11	n/a	91	24	1	n/a	n/a	n/a	n/a	451.135	BM05NES.jpg
419.506	0.514	Blank	Blank	59.789	n/a	4	11	11	n/a	91	n/a	1	n/a	n/a	n/a	n/a	451.633	n/a
420.036	0.497	neutral	Picture	59.275	n/a	4	11	12	n/a	92	34	1	n/a	n/a	n/a	n/a	452.163	AM22NES.jpg
420.534	0.514	Blank	Blank	58.761	n/a	4	11	12	n/a	92	n/a	1	n/a	n/a	n/a	n/a	452.661	n/a
421.064	0.497	neutral	Picture	58.247	n/a	4	11	13	n/a	93	23	1	n/a	n/a	n/a	n/a	453.191	AM04NES.jpg
421.562	0.514	Blank	Blank	57.733	n/a	4	11	13	n/a	93	n/a	1	n/a	n/a	n/a	n/a	453.688	n/a
422.092	0.497	neutral	Picture	57.219	n/a	4	11	14	n/a	94	15	1	n/a	n/a	n/a	n/a	454.219	AF25NES.jpg
422.589	0.514	Blank	Blank	56.705	n/a	4	11	14	n/a	94	n/a	1	n/a	n/a	n/a	n/a	454.716	n/a
423.12	0.497	neutral	Picture	56.191	n/a	4	11	15	n/a	95	37	1	n/a	n/a	n/a	n/a	455.247	BM25NES.jpg
423.618	0.514	Blank	Blank	55.677	n/a	4	11	15	n/a	95	n/a	1	n/a	n/a	n/a	n/a	455.744	n/a
424.148	0.497	neutral	Picture	55.163	n/a	4	11	16	n/a	96	32	1	n/a	n/a	n/a	n/a	456.275	AM14NES.jpg
424.645	0.514	Blank	Blank	54.649	n/a	4	11	16	n/a	96	n/a	1	n/a	n/a	n/a	n/a	456.772	n/a
425.176	0.497	neutral	Picture	54.135	n/a	4	11	17	n/a	97	3	1	n/a	n/a	n/a	n/a	457.303	BF04NES.jpg
425.673	0.514	Blank	Blank	53.621	n/a	4	11	17	n/a	97	n/a	1	n/a	n/a	n/a	n/a	457.8	n/a
426.204	0.497	neutral	Picture	53.108	n/a	4	11	18	n/a	98	16	1	n/a	n/a	n/a	n/a	458.33	AF26NES.jpg
426.701	0.514	Blank	Blank	52.594	n/a	4	11	18	n/a	98	n/a	1	n/a	n/a	n/a	n/a	458.828	n/a
427.232	0.497	neutral	Picture	52.08	n/a	4	11	19	n/a	99	27	1	n/a	n/a	n/a	n/a	459.358	BM08NES.jpg
427.729	0.514	Blank	Blank	51.566	n/a	4	11	19	n/a	99	n/a	1	n/a	n/a	n/a	n/a	459.856	n/a
428.26	0.497	neutral	Picture	51.052	n/a	4	11	20	n/a	100	28	1	n/a	n/a	n/a	n/a	460.386	AM09NES.jpg
428.757	0.514	Blank	Blank	50.538	n/a	4	11	20	n/a	100	n/a	1	n/a	n/a	n/a	n/a	460.884	n/a
429.287	10.014	ITI	Fixation+	40.508	n/a	4	n/a	n/a	n/a	n/a	n/a	n/a	n/a	n/a	n/a	n/a	461.414	n/a
439.317	0.497	angry	Picture	39.994	n/a	4	12	1	n/a	101	81	3	n/a	n/a	n/a	n/a	471.444	AF01ANS.jpg
439.815	0.514	Blank	Blank	39.48	n/a	4	12	1	n/a	101	n/a	3	n/a	n/a	n/a	n/a	471.942	n/a
440.345	0.497	angry	Picture	38.966	n/a	4	12	2	n/a	102	120	3	n/a	n/a	n/a	n/a	472.472	AM35ANS.jpg
440.843	0.514	Blank	Blank	38.452	n/a	4	12	2	n/a	102	n/a	3	n/a	n/a	n/a	n/a	472.97	n/a
441.373	0.497	angry	Picture	37.938	n/a	4	12	3	n/a	103	114	3	n/a	n/a	n/a	n/a	473.5	AM22ANS.jpg
441.871	0.514	Blank	Blank	37.424	n/a	4	12	3	n/a	103	n/a	3	n/a	n/a	n/a	n/a	473.998	n/a
442.401	0.497	angry	Picture	36.91	n/a	4	12	4	n/a	104	109	3	n/a	n/a	n/a	n/a	474.528	AM10ANS.jpg
442.899	0.514	Blank	Blank	36.396	n/a	4	12	4	n/a	104	n/a	3	n/a	n/a	n/a	n/a	475.025	n/a
443.429	0.497	angry	Picture	35.882	n/a	4	12	5	n/a	105	96	3	n/a	n/a	n/a	n/a	475.556	AF26ANS.jpg
443.926	0.514	Blank	Blank	35.368	n/a	4	12	5	n/a	105	n/a	3	n/a	n/a	n/a	n/a	476.053	n/a
444.457	0.497	angry	Picture	34.854	n/a	4	12	6	n/a	106	82	3	n/a	n/a	n/a	n/a	476.584	AF03ANS.jpg
444.954	0.514	Blank	Blank	34.34	n/a	4	12	6	n/a	106	n/a	3	n/a	n/a	n/a	n/a	477.081	n/a
445.485	0.497	angry	Picture	33.826	n/a	4	12	7	n/a	107	97	3	n/a	n/a	n/a	n/a	477.612	BF28ANS.jpg
445.982	0.514	Blank	Blank	33.313	n/a	4	12	7	n/a	107	n/a	3	n/a	n/a	n/a	n/a	478.109	n/a
446.513	0.497	angry	Picture	32.798	n/a	4	12	8	n/a	108	115	3	n/a	n/a	n/a	n/a	478.639	AM23ANS.jpg
447.01	0.514	Blank	Blank	32.285	n/a	4	12	8	n/a	108	n/a	3	n/a	n/a	n/a	n/a	479.137	n/a
447.541	0.497	angry	Picture	31.771	n/a	4	12	9	n/a	109	91	3	n/a	n/a	n/a	n/a	479.667	AF20ANS.jpg
448.038	0.514	Blank	Blank	31.257	n/a	4	12	9	n/a	109	n/a	3	n/a	n/a	n/a	n/a	480.165	n/a
448.568	0.497	angry	Picture	30.743	n/a	4	12	10	n/a	110	87	3	n/a	n/a	n/a	n/a	480.695	BF11ANS.jpg
449.066	0.514	Blank	Blank	30.229	n/a	4	12	10	n/a	110	n/a	3	n/a	n/a	n/a	n/a	481.193	n/a
449.596	0.497	angry	Picture	29.715	n/a	4	12	11	n/a	111	85	3	n/a	n/a	n/a	n/a	481.723	BF07ANS.jpg
450.094	0.514	Blank	Blank	29.201	n/a	4	12	11	n/a	111	n/a	3	n/a	n/a	n/a	n/a	482.221	n/a
450.624	0.497	angry	Picture	28.687	n/a	4	12	12	n/a	112	110	3	n/a	n/a	n/a	n/a	482.751	AM11ANS.jpg
451.122	0.514	Blank	Blank	28.173	n/a	4	12	12	n/a	112	n/a	3	n/a	n/a	n/a	n/a	483.248	n/a
451.652	0.497	angry	Picture	27.659	n/a	4	12	13	n/a	113	111	3	n/a	n/a	n/a	n/a	483.779	BM12ANS.jpg
452.149	0.514	Blank	Blank	27.145	n/a	4	12	13	n/a	113	n/a	3	n/a	n/a	n/a	n/a	484.276	n/a
452.68	0.497	angry	Picture	26.631	n/a	4	12	14	n/a	114	103	3	n/a	n/a	n/a	n/a	484.807	AM04ANS.jpg
453.177	0.514	Blank	Blank	26.117	n/a	4	12	14	n/a	114	n/a	3	n/a	n/a	n/a	n/a	485.304	n/a
453.708	0.497	angry	Picture	25.603	n/a	4	12	15	n/a	115	101	3	n/a	n/a	n/a	n/a	485.835	AM01ANS.jpg
454.205	0.514	Blank	Blank	25.089	n/a	4	12	15	n/a	115	n/a	3	n/a	n/a	n/a	n/a	486.332	n/a
454.736	0.497	angry	Picture	24.576	n/a	4	12	16	n/a	116	104	3	n/a	n/a	n/a	n/a	486.863	BM05ANS.jpg
455.233	0.514	Blank	Blank	24.062	n/a	4	12	16	n/a	116	n/a	3	n/a	n/a	n/a	n/a	487.36	n/a
455.764	0.497	angry	Picture	23.548	n/a	4	12	17	n/a	117	107	3	n/a	n/a	n/a	n/a	487.89	BM08ANS.jpg
456.261	0.514	Blank	Blank	23.034	n/a	4	12	17	n/a	117	n/a	3	n/a	n/a	n/a	n/a	488.388	n/a
456.791	0.497	angry	Picture	22.52	n/a	4	12	18	n/a	118	98	3	n/a	n/a	n/a	n/a	488.918	BF29ANS.jpg
457.289	0.514	Blank	Blank	22.006	n/a	4	12	18	n/a	118	n/a	3	n/a	n/a	n/a	n/a	489.416	n/a
457.819	0.497	angry	Picture	21.492	n/a	4	12	19	n/a	119	99	3	n/a	n/a	n/a	n/a	489.946	AF31ANS.jpg
458.317	0.514	Blank	Blank	20.978	n/a	4	12	19	n/a	119	n/a	3	n/a	n/a	n/a	n/a	490.444	n/a
458.847	0.497	angry	Picture	20.464	n/a	4	12	20	n/a	120	108	3	n/a	n/a	n/a	n/a	490.974	AM09ANS.jpg
459.345	0.514	Blank	Blank	19.95	n/a	4	12	20	n/a	120	n/a	3	n/a	n/a	n/a	n/a	491.471	n/a
459.875	10.014	ITI	Fixation+	9.92	n/a	4	n/a	n/a	n/a	n/a	n/a	n/a	n/a	n/a	n/a	n/a	492.002	n/a
479.809	n/a	ConfirmRating	Rate	n/a	9.914	4	n/a	n/a	0	n/a	n/a	n/a	2	Angry	46	50	511.935	n/a
487.53	n/a	ConfirmRating	Rate	n/a	7.709	4	n/a	n/a	1	n/a	n/a	n/a	3	Angry	18	47	519.657	n/a
