onset	duration	trial_type	event_type	time_until_response	response_time	trial_number	block_num_within_trial	image_seq_num_within_block	question_seq_num_within_block	image_seq_num	picture_number	condition	question_type	block_type	rating	rating_computed	onset_uncorrected	KDEV_imagefile
0.018	10.014	ITI	Fixation+	110.29	n/a	1	n/a	n/a	n/a	n/a	n/a	n/a	n/a	n/a	n/a	n/a	27.764	n/a
10.048	0.497	angry	Picture	109.776	n/a	1	1	1	n/a	1	46	2	n/a	n/a	n/a	n/a	37.794	AF09HAS.jpg
10.546	0.514	Blank	Blank	109.262	n/a	1	1	1	n/a	1	n/a	2	n/a	n/a	n/a	n/a	38.292	n/a
11.076	0.497	angry	Picture	108.748	n/a	1	1	2	n/a	2	69	2	n/a	n/a	n/a	n/a	38.822	AM10HAS.jpg
11.573	0.514	Blank	Blank	108.234	n/a	1	1	2	n/a	2	n/a	2	n/a	n/a	n/a	n/a	39.32	n/a
12.104	0.497	angry	Picture	107.72	n/a	1	1	3	n/a	3	71	2	n/a	n/a	n/a	n/a	39.85	BM12HAS.jpg
12.601	0.514	Blank	Blank	107.206	n/a	1	1	3	n/a	3	n/a	2	n/a	n/a	n/a	n/a	40.348	n/a
13.132	0.497	angry	Picture	106.692	n/a	1	1	4	n/a	4	51	2	n/a	n/a	n/a	n/a	40.878	AF20HAS.jpg
13.629	0.514	Blank	Blank	106.178	n/a	1	1	4	n/a	4	n/a	2	n/a	n/a	n/a	n/a	41.376	n/a
14.16	0.497	angry	Picture	105.664	n/a	1	1	5	n/a	5	67	2	n/a	n/a	n/a	n/a	41.906	BM08HAS.jpg
14.657	0.514	Blank	Blank	105.15	n/a	1	1	5	n/a	5	n/a	2	n/a	n/a	n/a	n/a	42.403	n/a
15.188	0.497	angry	Picture	104.637	n/a	1	1	6	n/a	6	60	2	n/a	n/a	n/a	n/a	42.934	AF32HAS.jpg
15.685	0.514	Blank	Blank	104.123	n/a	1	1	6	n/a	6	n/a	2	n/a	n/a	n/a	n/a	43.431	n/a
16.215	0.497	angry	Picture	103.609	n/a	1	1	7	n/a	7	42	2	n/a	n/a	n/a	n/a	43.962	AF03HAS.jpg
16.713	0.514	Blank	Blank	103.095	n/a	1	1	7	n/a	7	n/a	2	n/a	n/a	n/a	n/a	44.459	n/a
17.243	0.497	angry	Picture	102.581	n/a	1	1	8	n/a	8	55	2	n/a	n/a	n/a	n/a	44.99	AF25HAS.jpg
17.741	0.514	Blank	Blank	102.067	n/a	1	1	8	n/a	8	n/a	2	n/a	n/a	n/a	n/a	45.487	n/a
18.271	0.497	angry	Picture	101.553	n/a	1	1	9	n/a	9	72	2	n/a	n/a	n/a	n/a	46.018	AM14HAS.jpg
18.769	0.514	Blank	Blank	101.039	n/a	1	1	9	n/a	9	n/a	2	n/a	n/a	n/a	n/a	46.515	n/a
19.299	0.497	angry	Picture	100.525	n/a	1	1	10	n/a	10	63	2	n/a	n/a	n/a	n/a	47.045	AM04HAS.jpg
19.797	0.514	Blank	Blank	100.011	n/a	1	1	10	n/a	10	n/a	2	n/a	n/a	n/a	n/a	47.543	n/a
20.327	0.497	angry	Picture	99.497	n/a	1	1	11	n/a	11	58	2	n/a	n/a	n/a	n/a	48.073	BF29HAS.jpg
20.824	0.514	Blank	Blank	98.983	n/a	1	1	11	n/a	11	n/a	2	n/a	n/a	n/a	n/a	48.571	n/a
21.355	0.497	angry	Picture	98.469	n/a	1	1	12	n/a	12	48	2	n/a	n/a	n/a	n/a	49.101	AF14HAS.jpg
21.852	0.514	Blank	Blank	97.955	n/a	1	1	12	n/a	12	n/a	2	n/a	n/a	n/a	n/a	49.599	n/a
22.383	0.497	angry	Picture	97.441	n/a	1	1	13	n/a	13	66	2	n/a	n/a	n/a	n/a	50.129	BM07HAS.jpg
22.88	0.514	Blank	Blank	96.927	n/a	1	1	13	n/a	13	n/a	2	n/a	n/a	n/a	n/a	50.627	n/a
23.411	0.497	angry	Picture	96.413	n/a	1	1	14	n/a	14	70	2	n/a	n/a	n/a	n/a	51.157	BM11HAS.jpg
23.908	0.514	Blank	Blank	95.899	n/a	1	1	14	n/a	14	n/a	2	n/a	n/a	n/a	n/a	51.654	n/a
24.439	0.497	angry	Picture	95.386	n/a	1	1	15	n/a	15	43	2	n/a	n/a	n/a	n/a	52.185	BF04HAS.jpg
24.936	0.514	Blank	Blank	94.871	n/a	1	1	15	n/a	15	n/a	2	n/a	n/a	n/a	n/a	52.682	n/a
25.467	0.497	angry	Picture	94.358	n/a	1	1	16	n/a	16	49	2	n/a	n/a	n/a	n/a	53.213	AF17HAS.jpg
25.964	0.514	Blank	Blank	93.844	n/a	1	1	16	n/a	16	n/a	2	n/a	n/a	n/a	n/a	53.71	n/a
26.494	0.497	angry	Picture	93.33	n/a	1	1	17	n/a	17	75	2	n/a	n/a	n/a	n/a	54.241	AM23HAS.jpg
26.992	0.514	Blank	Blank	92.816	n/a	1	1	17	n/a	17	n/a	2	n/a	n/a	n/a	n/a	54.738	n/a
27.522	0.497	angry	Picture	92.302	n/a	1	1	18	n/a	18	80	2	n/a	n/a	n/a	n/a	55.269	BM35HAS.jpg
28.02	0.514	Blank	Blank	91.788	n/a	1	1	18	n/a	18	n/a	2	n/a	n/a	n/a	n/a	55.766	n/a
28.55	0.497	angry	Picture	91.274	n/a	1	1	19	n/a	19	76	2	n/a	n/a	n/a	n/a	56.297	BM24HAS.jpg
29.048	0.514	Blank	Blank	90.76	n/a	1	1	19	n/a	19	n/a	2	n/a	n/a	n/a	n/a	56.794	n/a
29.578	0.497	angry	Picture	90.246	n/a	1	1	20	n/a	20	74	2	n/a	n/a	n/a	n/a	57.324	AM22HAS.jpg
30.076	0.514	Blank	Blank	89.732	n/a	1	1	20	n/a	20	n/a	2	n/a	n/a	n/a	n/a	57.822	n/a
30.606	10.014	ITI	Fixation+	79.702	n/a	1	n/a	n/a	n/a	n/a	n/a	n/a	n/a	n/a	n/a	n/a	58.352	n/a
40.636	0.497	neutral	Picture	79.188	n/a	1	2	1	n/a	21	33	1	n/a	n/a	n/a	n/a	68.382	AM21NES.jpg
41.134	0.514	Blank	Blank	78.674	n/a	1	2	1	n/a	21	n/a	1	n/a	n/a	n/a	n/a	68.88	n/a
41.664	0.497	neutral	Picture	78.16	n/a	1	2	2	n/a	22	39	1	n/a	n/a	n/a	n/a	69.41	AM28NES.jpg
42.161	0.514	Blank	Blank	77.646	n/a	1	2	2	n/a	22	n/a	1	n/a	n/a	n/a	n/a	69.908	n/a
42.692	0.497	neutral	Picture	77.132	n/a	1	2	3	n/a	23	25	1	n/a	n/a	n/a	n/a	70.438	BM06NES.jpg
43.189	0.514	Blank	Blank	76.618	n/a	1	2	3	n/a	23	n/a	1	n/a	n/a	n/a	n/a	70.936	n/a
43.72	0.497	neutral	Picture	76.104	n/a	1	2	4	n/a	24	5	1	n/a	n/a	n/a	n/a	71.466	BF07NES.jpg
44.217	0.514	Blank	Blank	75.59	n/a	1	2	4	n/a	24	n/a	1	n/a	n/a	n/a	n/a	71.964	n/a
44.748	0.497	neutral	Picture	75.076	n/a	1	2	5	n/a	25	10	1	n/a	n/a	n/a	n/a	72.494	AF18NES.jpg
45.245	0.514	Blank	Blank	74.562	n/a	1	2	5	n/a	25	n/a	1	n/a	n/a	n/a	n/a	72.992	n/a
45.776	0.497	neutral	Picture	74.048	n/a	1	2	6	n/a	26	34	1	n/a	n/a	n/a	n/a	73.522	AM22NES.jpg
46.273	0.514	Blank	Blank	73.535	n/a	1	2	6	n/a	26	n/a	1	n/a	n/a	n/a	n/a	74.019	n/a
46.804	0.497	neutral	Picture	73.021	n/a	1	2	7	n/a	27	36	1	n/a	n/a	n/a	n/a	74.55	BM24NES.jpg
47.301	0.514	Blank	Blank	72.507	n/a	1	2	7	n/a	27	n/a	1	n/a	n/a	n/a	n/a	75.047	n/a
47.831	0.497	neutral	Picture	71.993	n/a	1	2	8	n/a	28	14	1	n/a	n/a	n/a	n/a	75.578	AF23NES.jpg
48.329	0.514	Blank	Blank	71.479	n/a	1	2	8	n/a	28	n/a	1	n/a	n/a	n/a	n/a	76.075	n/a
48.859	0.497	neutral	Picture	70.965	n/a	1	2	9	n/a	29	9	1	n/a	n/a	n/a	n/a	76.606	AF17NES.jpg
49.357	0.514	Blank	Blank	70.451	n/a	1	2	9	n/a	29	n/a	1	n/a	n/a	n/a	n/a	77.103	n/a
49.887	0.497	neutral	Picture	69.937	n/a	1	2	10	n/a	30	19	1	n/a	n/a	n/a	n/a	77.633	AF31NES.jpg
50.385	0.514	Blank	Blank	69.423	n/a	1	2	10	n/a	30	n/a	1	n/a	n/a	n/a	n/a	78.131	n/a
50.915	0.497	neutral	Picture	68.909	n/a	1	2	11	n/a	31	15	1	n/a	n/a	n/a	n/a	78.661	AF25NES.jpg
51.412	0.514	Blank	Blank	68.395	n/a	1	2	11	n/a	31	n/a	1	n/a	n/a	n/a	n/a	79.159	n/a
51.943	0.497	neutral	Picture	67.881	n/a	1	2	12	n/a	32	22	1	n/a	n/a	n/a	n/a	79.689	BM03NES.jpg
52.44	0.514	Blank	Blank	67.367	n/a	1	2	12	n/a	32	n/a	1	n/a	n/a	n/a	n/a	80.187	n/a
52.971	0.497	neutral	Picture	66.853	n/a	1	2	13	n/a	33	11	1	n/a	n/a	n/a	n/a	80.717	AF20NES.jpg
53.468	0.514	Blank	Blank	66.339	n/a	1	2	13	n/a	33	n/a	1	n/a	n/a	n/a	n/a	81.215	n/a
53.999	0.497	neutral	Picture	65.825	n/a	1	2	14	n/a	34	4	1	n/a	n/a	n/a	n/a	81.745	AF05NES.jpg
54.496	0.514	Blank	Blank	65.311	n/a	1	2	14	n/a	34	n/a	1	n/a	n/a	n/a	n/a	82.243	n/a
55.027	0.497	neutral	Picture	64.797	n/a	1	2	15	n/a	35	17	1	n/a	n/a	n/a	n/a	82.773	BF28NES.jpg
55.524	0.514	Blank	Blank	64.284	n/a	1	2	15	n/a	35	n/a	1	n/a	n/a	n/a	n/a	83.27	n/a
56.055	0.497	neutral	Picture	63.77	n/a	1	2	16	n/a	36	13	1	n/a	n/a	n/a	n/a	83.801	BF22NES.jpg
56.552	0.514	Blank	Blank	63.256	n/a	1	2	16	n/a	36	n/a	1	n/a	n/a	n/a	n/a	84.298	n/a
57.082	0.497	neutral	Picture	62.742	n/a	1	2	17	n/a	37	12	1	n/a	n/a	n/a	n/a	84.829	AF21NES.jpg
57.58	0.514	Blank	Blank	62.228	n/a	1	2	17	n/a	37	n/a	1	n/a	n/a	n/a	n/a	85.326	n/a
58.11	0.497	neutral	Picture	61.714	n/a	1	2	18	n/a	38	24	1	n/a	n/a	n/a	n/a	85.857	BM05NES.jpg
58.608	0.514	Blank	Blank	61.2	n/a	1	2	18	n/a	38	n/a	1	n/a	n/a	n/a	n/a	86.354	n/a
59.138	0.497	neutral	Picture	60.686	n/a	1	2	19	n/a	39	29	1	n/a	n/a	n/a	n/a	86.885	AM10NES.jpg
59.636	0.514	Blank	Blank	60.172	n/a	1	2	19	n/a	39	n/a	1	n/a	n/a	n/a	n/a	87.382	n/a
60.166	0.497	neutral	Picture	59.658	n/a	1	2	20	n/a	40	23	1	n/a	n/a	n/a	n/a	87.912	AM04NES.jpg
60.663	0.514	Blank	Blank	59.144	n/a	1	2	20	n/a	40	n/a	1	n/a	n/a	n/a	n/a	88.41	n/a
61.194	10.014	ITI	Fixation+	49.114	n/a	1	n/a	n/a	n/a	n/a	n/a	n/a	n/a	n/a	n/a	n/a	88.94	n/a
71.224	0.497	angry	Picture	48.6	n/a	1	3	1	n/a	41	62	2	n/a	n/a	n/a	n/a	98.971	BM03HAS.jpg
71.722	0.514	Blank	Blank	48.086	n/a	1	3	1	n/a	41	n/a	2	n/a	n/a	n/a	n/a	99.468	n/a
72.252	0.497	angry	Picture	47.572	n/a	1	3	2	n/a	42	52	2	n/a	n/a	n/a	n/a	99.999	AF21HAS.jpg
72.749	0.514	Blank	Blank	47.058	n/a	1	3	2	n/a	42	n/a	2	n/a	n/a	n/a	n/a	100.496	n/a
73.28	0.497	angry	Picture	46.544	n/a	1	3	3	n/a	43	44	2	n/a	n/a	n/a	n/a	101.026	AF05HAS.jpg
73.777	0.514	Blank	Blank	46.03	n/a	1	3	3	n/a	43	n/a	2	n/a	n/a	n/a	n/a	101.524	n/a
74.308	0.497	angry	Picture	45.516	n/a	1	3	4	n/a	44	53	2	n/a	n/a	n/a	n/a	102.054	BF22HAS.jpg
74.805	0.514	Blank	Blank	45.002	n/a	1	3	4	n/a	44	n/a	2	n/a	n/a	n/a	n/a	102.552	n/a
75.336	0.497	angry	Picture	44.488	n/a	1	3	5	n/a	45	54	2	n/a	n/a	n/a	n/a	103.082	AF23HAS.jpg
75.833	0.514	Blank	Blank	43.974	n/a	1	3	5	n/a	45	n/a	2	n/a	n/a	n/a	n/a	103.579	n/a
76.364	0.497	angry	Picture	43.46	n/a	1	3	6	n/a	46	68	2	n/a	n/a	n/a	n/a	104.11	AM09HAS.jpg
76.861	0.514	Blank	Blank	42.947	n/a	1	3	6	n/a	46	n/a	2	n/a	n/a	n/a	n/a	104.607	n/a
77.392	0.497	angry	Picture	42.433	n/a	1	3	7	n/a	47	64	2	n/a	n/a	n/a	n/a	105.138	BM05HAS.jpg
77.889	0.514	Blank	Blank	41.919	n/a	1	3	7	n/a	47	n/a	2	n/a	n/a	n/a	n/a	105.635	n/a
78.419	0.497	angry	Picture	41.405	n/a	1	3	8	n/a	48	59	2	n/a	n/a	n/a	n/a	106.166	AF31HAS.jpg
78.917	0.514	Blank	Blank	40.891	n/a	1	3	8	n/a	48	n/a	2	n/a	n/a	n/a	n/a	106.663	n/a
79.447	0.497	angry	Picture	40.377	n/a	1	3	9	n/a	49	41	2	n/a	n/a	n/a	n/a	107.194	AF01HAS.jpg
79.945	0.514	Blank	Blank	39.863	n/a	1	3	9	n/a	49	n/a	2	n/a	n/a	n/a	n/a	107.691	n/a
80.475	0.497	angry	Picture	39.349	n/a	1	3	10	n/a	50	73	2	n/a	n/a	n/a	n/a	108.222	AM21HAS.jpg
80.973	0.514	Blank	Blank	38.835	n/a	1	3	10	n/a	50	n/a	2	n/a	n/a	n/a	n/a	108.719	n/a
81.503	0.497	angry	Picture	38.321	n/a	1	3	11	n/a	51	65	2	n/a	n/a	n/a	n/a	109.249	BM06HAS.jpg
82.0	0.514	Blank	Blank	37.807	n/a	1	3	11	n/a	51	n/a	2	n/a	n/a	n/a	n/a	109.747	n/a
82.531	0.497	angry	Picture	37.293	n/a	1	3	12	n/a	52	56	2	n/a	n/a	n/a	n/a	110.277	AF26HAS.jpg
83.028	0.514	Blank	Blank	36.779	n/a	1	3	12	n/a	52	n/a	2	n/a	n/a	n/a	n/a	110.775	n/a
83.559	0.497	angry	Picture	36.265	n/a	1	3	13	n/a	53	45	2	n/a	n/a	n/a	n/a	111.305	BF07HAS.jpg
84.056	0.514	Blank	Blank	35.751	n/a	1	3	13	n/a	53	n/a	2	n/a	n/a	n/a	n/a	111.803	n/a
84.587	0.497	angry	Picture	35.237	n/a	1	3	14	n/a	54	78	2	n/a	n/a	n/a	n/a	112.333	BM26HAS.jpg
85.084	0.514	Blank	Blank	34.723	n/a	1	3	14	n/a	54	n/a	2	n/a	n/a	n/a	n/a	112.831	n/a
85.615	0.497	angry	Picture	34.209	n/a	1	3	15	n/a	55	50	2	n/a	n/a	n/a	n/a	113.361	AF18HAS.jpg
86.112	0.514	Blank	Blank	33.695	n/a	1	3	15	n/a	55	n/a	2	n/a	n/a	n/a	n/a	113.858	n/a
86.643	0.497	angry	Picture	33.181	n/a	1	3	16	n/a	56	47	2	n/a	n/a	n/a	n/a	114.389	BF11HAS.jpg
87.14	0.514	Blank	Blank	32.668	n/a	1	3	16	n/a	56	n/a	2	n/a	n/a	n/a	n/a	114.886	n/a
87.67	0.497	angry	Picture	32.154	n/a	1	3	17	n/a	57	77	2	n/a	n/a	n/a	n/a	115.417	BM25HAS.jpg
88.168	0.514	Blank	Blank	31.64	n/a	1	3	17	n/a	57	n/a	2	n/a	n/a	n/a	n/a	115.914	n/a
88.698	0.497	angry	Picture	31.126	n/a	1	3	18	n/a	58	57	2	n/a	n/a	n/a	n/a	116.445	BF28HAS.jpg
89.196	0.514	Blank	Blank	30.612	n/a	1	3	18	n/a	58	n/a	2	n/a	n/a	n/a	n/a	116.942	n/a
89.726	0.497	angry	Picture	30.098	n/a	1	3	19	n/a	59	61	2	n/a	n/a	n/a	n/a	117.473	AM01HAS.jpg
90.224	0.514	Blank	Blank	29.584	n/a	1	3	19	n/a	59	n/a	2	n/a	n/a	n/a	n/a	117.97	n/a
90.754	0.497	angry	Picture	29.07	n/a	1	3	20	n/a	60	79	2	n/a	n/a	n/a	n/a	118.501	BM28HAS.jpg
91.251	0.514	Blank	Blank	28.556	n/a	1	3	20	n/a	60	n/a	2	n/a	n/a	n/a	n/a	118.998	n/a
91.782	10.014	ITI	Fixation+	18.526	n/a	1	n/a	n/a	n/a	n/a	n/a	n/a	n/a	n/a	n/a	n/a	119.528	n/a
120.322	n/a	ConfirmRating	Rate	n/a	18.519	1	n/a	n/a	0	n/a	n/a	n/a	2	Angry	16	46	148.068	n/a
144.075	n/a	ConfirmRating	Rate	n/a	23.741	1	n/a	n/a	1	n/a	n/a	n/a	3	Angry	0	44	171.821	n/a
144.105	10.014	ITI	Fixation+	103.022	n/a	2	n/a	n/a	n/a	n/a	n/a	n/a	n/a	n/a	n/a	n/a	171.851	n/a
154.135	0.497	happy	Picture	102.508	n/a	2	4	1	n/a	61	119	3	n/a	n/a	n/a	n/a	181.881	BM28ANS.jpg
154.633	0.514	Blank	Blank	101.994	n/a	2	4	1	n/a	61	n/a	3	n/a	n/a	n/a	n/a	182.379	n/a
155.163	0.497	happy	Picture	101.48	n/a	2	4	2	n/a	62	100	3	n/a	n/a	n/a	n/a	182.909	AF32ANS.jpg
155.661	0.514	Blank	Blank	100.967	n/a	2	4	2	n/a	62	n/a	3	n/a	n/a	n/a	n/a	183.407	n/a
156.191	0.497	happy	Picture	100.453	n/a	2	4	3	n/a	63	118	3	n/a	n/a	n/a	n/a	183.937	BM26ANS.jpg
156.688	0.514	Blank	Blank	99.939	n/a	2	4	3	n/a	63	n/a	3	n/a	n/a	n/a	n/a	184.435	n/a
157.219	0.497	happy	Picture	99.425	n/a	2	4	4	n/a	64	89	3	n/a	n/a	n/a	n/a	184.965	AF17ANS.jpg
157.716	0.514	Blank	Blank	98.911	n/a	2	4	4	n/a	64	n/a	3	n/a	n/a	n/a	n/a	185.463	n/a
158.247	0.497	happy	Picture	98.397	n/a	2	4	5	n/a	65	116	3	n/a	n/a	n/a	n/a	185.993	BM24ANS.jpg
158.744	0.514	Blank	Blank	97.883	n/a	2	4	5	n/a	65	n/a	3	n/a	n/a	n/a	n/a	186.49	n/a
159.275	0.497	happy	Picture	97.369	n/a	2	4	6	n/a	66	105	3	n/a	n/a	n/a	n/a	187.021	BM06ANS.jpg
159.772	0.514	Blank	Blank	96.855	n/a	2	4	6	n/a	66	n/a	3	n/a	n/a	n/a	n/a	187.518	n/a
160.303	0.497	happy	Picture	96.341	n/a	2	4	7	n/a	67	106	3	n/a	n/a	n/a	n/a	188.049	AM07ANS.jpg
160.8	0.514	Blank	Blank	95.827	n/a	2	4	7	n/a	67	n/a	3	n/a	n/a	n/a	n/a	188.546	n/a
161.331	0.497	happy	Picture	95.313	n/a	2	4	8	n/a	68	94	3	n/a	n/a	n/a	n/a	189.077	AF23ANS.jpg
161.828	0.514	Blank	Blank	94.799	n/a	2	4	8	n/a	68	n/a	3	n/a	n/a	n/a	n/a	189.574	n/a
162.358	0.497	happy	Picture	94.285	n/a	2	4	9	n/a	69	117	3	n/a	n/a	n/a	n/a	190.105	BM25ANS.jpg
162.856	0.514	Blank	Blank	93.771	n/a	2	4	9	n/a	69	n/a	3	n/a	n/a	n/a	n/a	190.602	n/a
163.386	0.497	happy	Picture	93.257	n/a	2	4	10	n/a	70	90	3	n/a	n/a	n/a	n/a	191.133	AF18ANS.jpg
163.884	0.514	Blank	Blank	92.743	n/a	2	4	10	n/a	70	n/a	3	n/a	n/a	n/a	n/a	191.63	n/a
164.414	0.497	happy	Picture	92.229	n/a	2	4	11	n/a	71	83	3	n/a	n/a	n/a	n/a	192.16	BF04ANS.jpg
164.912	0.514	Blank	Blank	91.716	n/a	2	4	11	n/a	71	n/a	3	n/a	n/a	n/a	n/a	192.658	n/a
165.442	0.497	happy	Picture	91.202	n/a	2	4	12	n/a	72	112	3	n/a	n/a	n/a	n/a	193.188	AM14ANS.jpg
165.939	0.514	Blank	Blank	90.688	n/a	2	4	12	n/a	72	n/a	3	n/a	n/a	n/a	n/a	193.686	n/a
166.47	0.497	happy	Picture	90.174	n/a	2	4	13	n/a	73	102	3	n/a	n/a	n/a	n/a	194.216	BM03ANS.jpg
166.967	0.514	Blank	Blank	89.66	n/a	2	4	13	n/a	73	n/a	3	n/a	n/a	n/a	n/a	194.714	n/a
167.498	0.497	happy	Picture	89.146	n/a	2	4	14	n/a	74	95	3	n/a	n/a	n/a	n/a	195.244	AF25ANS.jpg
167.995	0.514	Blank	Blank	88.632	n/a	2	4	14	n/a	74	n/a	3	n/a	n/a	n/a	n/a	195.742	n/a
168.526	0.497	happy	Picture	88.118	n/a	2	4	15	n/a	75	113	3	n/a	n/a	n/a	n/a	196.272	AM21ANS.jpg
169.023	0.514	Blank	Blank	87.604	n/a	2	4	15	n/a	75	n/a	3	n/a	n/a	n/a	n/a	196.769	n/a
169.554	0.497	happy	Picture	87.09	n/a	2	4	16	n/a	76	88	3	n/a	n/a	n/a	n/a	197.3	AF14ANS.jpg
170.051	0.514	Blank	Blank	86.576	n/a	2	4	16	n/a	76	n/a	3	n/a	n/a	n/a	n/a	197.797	n/a
170.582	0.497	happy	Picture	86.062	n/a	2	4	17	n/a	77	93	3	n/a	n/a	n/a	n/a	198.328	BF22ANS.jpg
171.079	0.514	Blank	Blank	85.548	n/a	2	4	17	n/a	77	n/a	3	n/a	n/a	n/a	n/a	198.825	n/a
171.609	0.497	happy	Picture	85.034	n/a	2	4	18	n/a	78	86	3	n/a	n/a	n/a	n/a	199.356	AF09ANS.jpg
172.107	0.514	Blank	Blank	84.52	n/a	2	4	18	n/a	78	n/a	3	n/a	n/a	n/a	n/a	199.853	n/a
172.637	0.497	happy	Picture	84.006	n/a	2	4	19	n/a	79	92	3	n/a	n/a	n/a	n/a	200.384	AF21ANS.jpg
173.135	0.514	Blank	Blank	83.492	n/a	2	4	19	n/a	79	n/a	3	n/a	n/a	n/a	n/a	200.881	n/a
173.665	0.497	happy	Picture	82.978	n/a	2	4	20	n/a	80	84	3	n/a	n/a	n/a	n/a	201.411	AF05ANS.jpg
174.163	0.514	Blank	Blank	82.464	n/a	2	4	20	n/a	80	n/a	3	n/a	n/a	n/a	n/a	201.909	n/a
174.693	10.014	ITI	Fixation+	72.434	n/a	2	n/a	n/a	n/a	n/a	n/a	n/a	n/a	n/a	n/a	n/a	202.439	n/a
184.723	0.497	neutral	Picture	71.92	n/a	2	5	1	n/a	81	4	1	n/a	n/a	n/a	n/a	212.47	AF05NES.jpg
185.221	0.514	Blank	Blank	71.406	n/a	2	5	1	n/a	81	n/a	1	n/a	n/a	n/a	n/a	212.967	n/a
185.751	0.497	neutral	Picture	70.892	n/a	2	5	2	n/a	82	14	1	n/a	n/a	n/a	n/a	213.498	AF23NES.jpg
186.249	0.514	Blank	Blank	70.378	n/a	2	5	2	n/a	82	n/a	1	n/a	n/a	n/a	n/a	213.995	n/a
186.779	0.497	neutral	Picture	69.865	n/a	2	5	3	n/a	83	19	1	n/a	n/a	n/a	n/a	214.525	AF31NES.jpg
187.276	0.514	Blank	Blank	69.351	n/a	2	5	3	n/a	83	n/a	1	n/a	n/a	n/a	n/a	215.023	n/a
187.807	0.497	neutral	Picture	68.837	n/a	2	5	4	n/a	84	8	1	n/a	n/a	n/a	n/a	215.553	AF14NES.jpg
188.304	0.514	Blank	Blank	68.323	n/a	2	5	4	n/a	84	n/a	1	n/a	n/a	n/a	n/a	216.051	n/a
188.835	0.497	neutral	Picture	67.809	n/a	2	5	5	n/a	85	25	1	n/a	n/a	n/a	n/a	216.581	BM06NES.jpg
189.332	0.514	Blank	Blank	67.295	n/a	2	5	5	n/a	85	n/a	1	n/a	n/a	n/a	n/a	217.078	n/a
189.863	0.497	neutral	Picture	66.781	n/a	2	5	6	n/a	86	9	1	n/a	n/a	n/a	n/a	217.609	AF17NES.jpg
190.36	0.514	Blank	Blank	66.267	n/a	2	5	6	n/a	86	n/a	1	n/a	n/a	n/a	n/a	218.106	n/a
190.891	0.497	neutral	Picture	65.753	n/a	2	5	7	n/a	87	2	1	n/a	n/a	n/a	n/a	218.637	AF03NES.jpg
191.388	0.514	Blank	Blank	65.239	n/a	2	5	7	n/a	87	n/a	1	n/a	n/a	n/a	n/a	219.134	n/a
191.919	0.497	neutral	Picture	64.725	n/a	2	5	8	n/a	88	17	1	n/a	n/a	n/a	n/a	219.665	BF28NES.jpg
192.416	0.514	Blank	Blank	64.211	n/a	2	5	8	n/a	88	n/a	1	n/a	n/a	n/a	n/a	220.162	n/a
192.946	0.497	neutral	Picture	63.697	n/a	2	5	9	n/a	89	6	1	n/a	n/a	n/a	n/a	220.693	AF09NES.jpg
193.444	0.514	Blank	Blank	63.183	n/a	2	5	9	n/a	89	n/a	1	n/a	n/a	n/a	n/a	221.19	n/a
193.974	0.497	neutral	Picture	62.669	n/a	2	5	10	n/a	90	12	1	n/a	n/a	n/a	n/a	221.721	AF21NES.jpg
194.472	0.514	Blank	Blank	62.155	n/a	2	5	10	n/a	90	n/a	1	n/a	n/a	n/a	n/a	222.218	n/a
195.002	0.497	neutral	Picture	61.641	n/a	2	5	11	n/a	91	24	1	n/a	n/a	n/a	n/a	222.749	BM05NES.jpg
195.5	0.514	Blank	Blank	61.127	n/a	2	5	11	n/a	91	n/a	1	n/a	n/a	n/a	n/a	223.246	n/a
196.03	0.497	neutral	Picture	60.614	n/a	2	5	12	n/a	92	34	1	n/a	n/a	n/a	n/a	223.776	AM22NES.jpg
196.527	0.514	Blank	Blank	60.1	n/a	2	5	12	n/a	92	n/a	1	n/a	n/a	n/a	n/a	224.274	n/a
197.058	0.497	neutral	Picture	59.586	n/a	2	5	13	n/a	93	23	1	n/a	n/a	n/a	n/a	224.804	AM04NES.jpg
197.555	0.514	Blank	Blank	59.072	n/a	2	5	13	n/a	93	n/a	1	n/a	n/a	n/a	n/a	225.302	n/a
198.086	0.497	neutral	Picture	58.558	n/a	2	5	14	n/a	94	15	1	n/a	n/a	n/a	n/a	225.832	AF25NES.jpg
198.583	0.514	Blank	Blank	58.044	n/a	2	5	14	n/a	94	n/a	1	n/a	n/a	n/a	n/a	226.329	n/a
199.114	0.497	neutral	Picture	57.53	n/a	2	5	15	n/a	95	37	1	n/a	n/a	n/a	n/a	226.86	BM25NES.jpg
199.611	0.514	Blank	Blank	57.016	n/a	2	5	15	n/a	95	n/a	1	n/a	n/a	n/a	n/a	227.357	n/a
200.142	0.497	neutral	Picture	56.502	n/a	2	5	16	n/a	96	32	1	n/a	n/a	n/a	n/a	227.888	AM14NES.jpg
200.639	0.514	Blank	Blank	55.988	n/a	2	5	16	n/a	96	n/a	1	n/a	n/a	n/a	n/a	228.385	n/a
201.169	0.497	neutral	Picture	55.474	n/a	2	5	17	n/a	97	3	1	n/a	n/a	n/a	n/a	228.916	BF04NES.jpg
201.667	0.514	Blank	Blank	54.96	n/a	2	5	17	n/a	97	n/a	1	n/a	n/a	n/a	n/a	229.413	n/a
202.197	0.497	neutral	Picture	54.446	n/a	2	5	18	n/a	98	16	1	n/a	n/a	n/a	n/a	229.944	AF26NES.jpg
202.695	0.514	Blank	Blank	53.932	n/a	2	5	18	n/a	98	n/a	1	n/a	n/a	n/a	n/a	230.441	n/a
203.225	0.497	neutral	Picture	53.418	n/a	2	5	19	n/a	99	27	1	n/a	n/a	n/a	n/a	230.972	BM08NES.jpg
203.723	0.514	Blank	Blank	52.904	n/a	2	5	19	n/a	99	n/a	1	n/a	n/a	n/a	n/a	231.469	n/a
204.253	0.497	neutral	Picture	52.39	n/a	2	5	20	n/a	100	28	1	n/a	n/a	n/a	n/a	232.0	AM09NES.jpg
204.751	0.514	Blank	Blank	51.876	n/a	2	5	20	n/a	100	n/a	1	n/a	n/a	n/a	n/a	232.497	n/a
205.281	10.014	ITI	Fixation+	41.846	n/a	2	n/a	n/a	n/a	n/a	n/a	n/a	n/a	n/a	n/a	n/a	233.027	n/a
215.311	0.497	happy	Picture	41.332	n/a	2	6	1	n/a	101	81	3	n/a	n/a	n/a	n/a	243.058	AF01ANS.jpg
215.809	0.514	Blank	Blank	40.818	n/a	2	6	1	n/a	101	n/a	3	n/a	n/a	n/a	n/a	243.555	n/a
216.339	0.497	happy	Picture	40.304	n/a	2	6	2	n/a	102	120	3	n/a	n/a	n/a	n/a	244.085	AM35ANS.jpg
216.837	0.514	Blank	Blank	39.79	n/a	2	6	2	n/a	102	n/a	3	n/a	n/a	n/a	n/a	244.583	n/a
217.367	0.497	happy	Picture	39.277	n/a	2	6	3	n/a	103	114	3	n/a	n/a	n/a	n/a	245.113	AM22ANS.jpg
217.864	0.514	Blank	Blank	38.763	n/a	2	6	3	n/a	103	n/a	3	n/a	n/a	n/a	n/a	245.611	n/a
218.395	0.497	happy	Picture	38.249	n/a	2	6	4	n/a	104	109	3	n/a	n/a	n/a	n/a	246.141	AM10ANS.jpg
218.892	0.514	Blank	Blank	37.735	n/a	2	6	4	n/a	104	n/a	3	n/a	n/a	n/a	n/a	246.639	n/a
219.423	0.497	happy	Picture	37.221	n/a	2	6	5	n/a	105	96	3	n/a	n/a	n/a	n/a	247.169	AF26ANS.jpg
219.92	0.514	Blank	Blank	36.707	n/a	2	6	5	n/a	105	n/a	3	n/a	n/a	n/a	n/a	247.667	n/a
220.451	0.497	happy	Picture	36.193	n/a	2	6	6	n/a	106	82	3	n/a	n/a	n/a	n/a	248.197	AF03ANS.jpg
220.948	0.514	Blank	Blank	35.679	n/a	2	6	6	n/a	106	n/a	3	n/a	n/a	n/a	n/a	248.694	n/a
221.479	0.497	happy	Picture	35.165	n/a	2	6	7	n/a	107	97	3	n/a	n/a	n/a	n/a	249.225	BF28ANS.jpg
221.976	0.514	Blank	Blank	34.651	n/a	2	6	7	n/a	107	n/a	3	n/a	n/a	n/a	n/a	249.722	n/a
222.507	0.497	happy	Picture	34.137	n/a	2	6	8	n/a	108	115	3	n/a	n/a	n/a	n/a	250.253	AM23ANS.jpg
223.004	0.514	Blank	Blank	33.623	n/a	2	6	8	n/a	108	n/a	3	n/a	n/a	n/a	n/a	250.75	n/a
223.534	0.497	happy	Picture	33.109	n/a	2	6	9	n/a	109	91	3	n/a	n/a	n/a	n/a	251.281	AF20ANS.jpg
224.032	0.514	Blank	Blank	32.595	n/a	2	6	9	n/a	109	n/a	3	n/a	n/a	n/a	n/a	251.778	n/a
224.562	0.497	happy	Picture	32.081	n/a	2	6	10	n/a	110	87	3	n/a	n/a	n/a	n/a	252.309	BF11ANS.jpg
225.06	0.514	Blank	Blank	31.567	n/a	2	6	10	n/a	110	n/a	3	n/a	n/a	n/a	n/a	252.806	n/a
225.59	0.497	happy	Picture	31.053	n/a	2	6	11	n/a	111	85	3	n/a	n/a	n/a	n/a	253.337	BF07ANS.jpg
226.088	0.514	Blank	Blank	30.539	n/a	2	6	11	n/a	111	n/a	3	n/a	n/a	n/a	n/a	253.834	n/a
226.618	0.497	happy	Picture	30.025	n/a	2	6	12	n/a	112	110	3	n/a	n/a	n/a	n/a	254.364	AM11ANS.jpg
227.115	0.514	Blank	Blank	29.512	n/a	2	6	12	n/a	112	n/a	3	n/a	n/a	n/a	n/a	254.862	n/a
227.646	0.497	happy	Picture	28.998	n/a	2	6	13	n/a	113	111	3	n/a	n/a	n/a	n/a	255.392	BM12ANS.jpg
228.143	0.514	Blank	Blank	28.484	n/a	2	6	13	n/a	113	n/a	3	n/a	n/a	n/a	n/a	255.89	n/a
228.674	0.497	happy	Picture	27.97	n/a	2	6	14	n/a	114	103	3	n/a	n/a	n/a	n/a	256.42	AM04ANS.jpg
229.171	0.514	Blank	Blank	27.456	n/a	2	6	14	n/a	114	n/a	3	n/a	n/a	n/a	n/a	256.918	n/a
229.702	0.497	happy	Picture	26.942	n/a	2	6	15	n/a	115	101	3	n/a	n/a	n/a	n/a	257.448	AM01ANS.jpg
230.199	0.514	Blank	Blank	26.428	n/a	2	6	15	n/a	115	n/a	3	n/a	n/a	n/a	n/a	257.945	n/a
230.73	0.497	happy	Picture	25.914	n/a	2	6	16	n/a	116	104	3	n/a	n/a	n/a	n/a	258.476	BM05ANS.jpg
231.227	0.514	Blank	Blank	25.4	n/a	2	6	16	n/a	116	n/a	3	n/a	n/a	n/a	n/a	258.973	n/a
231.758	0.497	happy	Picture	24.886	n/a	2	6	17	n/a	117	107	3	n/a	n/a	n/a	n/a	259.504	BM08ANS.jpg
232.255	0.514	Blank	Blank	24.372	n/a	2	6	17	n/a	117	n/a	3	n/a	n/a	n/a	n/a	260.001	n/a
232.785	0.497	happy	Picture	23.858	n/a	2	6	18	n/a	118	98	3	n/a	n/a	n/a	n/a	260.532	BF29ANS.jpg
233.283	0.514	Blank	Blank	23.344	n/a	2	6	18	n/a	118	n/a	3	n/a	n/a	n/a	n/a	261.029	n/a
233.813	0.497	happy	Picture	22.83	n/a	2	6	19	n/a	119	99	3	n/a	n/a	n/a	n/a	261.56	AF31ANS.jpg
234.311	0.514	Blank	Blank	22.316	n/a	2	6	19	n/a	119	n/a	3	n/a	n/a	n/a	n/a	262.057	n/a
234.841	0.497	happy	Picture	21.802	n/a	2	6	20	n/a	120	108	3	n/a	n/a	n/a	n/a	262.587	AM09ANS.jpg
235.339	0.514	Blank	Blank	21.288	n/a	2	6	20	n/a	120	n/a	3	n/a	n/a	n/a	n/a	263.085	n/a
235.869	10.014	ITI	Fixation+	11.258	n/a	2	n/a	n/a	n/a	n/a	n/a	n/a	n/a	n/a	n/a	n/a	263.615	n/a
257.141	n/a	ConfirmRating	Rate	n/a	11.257	2	n/a	n/a	0	n/a	n/a	n/a	2	Happy	60	51	284.887	n/a
262.306	n/a	ConfirmRating	Rate	n/a	5.139	2	n/a	n/a	1	n/a	n/a	n/a	3	Happy	0	42	290.052	n/a
262.329	15.004	Rest	Picture	n/a	n/a	n/a	n/a	n/a	n/a	n/a	n/a	n/a	0	n/a	0	0	290.075	n/a
277.349	10.014	ITI	Fixation+	96.976	n/a	3	n/a	n/a	n/a	n/a	n/a	n/a	n/a	n/a	n/a	n/a	305.096	n/a
287.38	0.497	angry	Picture	96.462	n/a	3	7	1	n/a	1	46	2	n/a	n/a	n/a	n/a	315.126	AF09HAS.jpg
287.877	0.514	Blank	Blank	95.948	n/a	3	7	1	n/a	1	n/a	2	n/a	n/a	n/a	n/a	315.623	n/a
288.408	0.497	angry	Picture	95.434	n/a	3	7	2	n/a	2	69	2	n/a	n/a	n/a	n/a	316.154	AM10HAS.jpg
288.905	0.514	Blank	Blank	94.92	n/a	3	7	2	n/a	2	n/a	2	n/a	n/a	n/a	n/a	316.651	n/a
289.435	0.497	angry	Picture	94.406	n/a	3	7	3	n/a	3	71	2	n/a	n/a	n/a	n/a	317.182	BM12HAS.jpg
289.933	0.514	Blank	Blank	93.892	n/a	3	7	3	n/a	3	n/a	2	n/a	n/a	n/a	n/a	317.679	n/a
290.463	0.497	angry	Picture	93.378	n/a	3	7	4	n/a	4	51	2	n/a	n/a	n/a	n/a	318.21	AF20HAS.jpg
290.961	0.514	Blank	Blank	92.864	n/a	3	7	4	n/a	4	n/a	2	n/a	n/a	n/a	n/a	318.707	n/a
291.491	0.497	angry	Picture	92.35	n/a	3	7	5	n/a	5	67	2	n/a	n/a	n/a	n/a	319.238	BM08HAS.jpg
291.989	0.514	Blank	Blank	91.836	n/a	3	7	5	n/a	5	n/a	2	n/a	n/a	n/a	n/a	319.735	n/a
292.519	0.497	angry	Picture	91.322	n/a	3	7	6	n/a	6	60	2	n/a	n/a	n/a	n/a	320.265	AF32HAS.jpg
293.017	0.514	Blank	Blank	90.808	n/a	3	7	6	n/a	6	n/a	2	n/a	n/a	n/a	n/a	320.763	n/a
293.547	0.497	angry	Picture	90.294	n/a	3	7	7	n/a	7	42	2	n/a	n/a	n/a	n/a	321.293	AF03HAS.jpg
294.044	0.514	Blank	Blank	89.78	n/a	3	7	7	n/a	7	n/a	2	n/a	n/a	n/a	n/a	321.791	n/a
294.575	0.497	angry	Picture	89.266	n/a	3	7	8	n/a	8	55	2	n/a	n/a	n/a	n/a	322.321	AF25HAS.jpg
295.072	0.514	Blank	Blank	88.752	n/a	3	7	8	n/a	8	n/a	2	n/a	n/a	n/a	n/a	322.819	n/a
295.603	0.497	angry	Picture	88.238	n/a	3	7	9	n/a	9	72	2	n/a	n/a	n/a	n/a	323.349	AM14HAS.jpg
296.1	0.514	Blank	Blank	87.725	n/a	3	7	9	n/a	9	n/a	2	n/a	n/a	n/a	n/a	323.846	n/a
296.631	0.497	angry	Picture	87.211	n/a	3	7	10	n/a	10	63	2	n/a	n/a	n/a	n/a	324.377	AM04HAS.jpg
297.128	0.514	Blank	Blank	86.697	n/a	3	7	10	n/a	10	n/a	2	n/a	n/a	n/a	n/a	324.874	n/a
297.659	0.497	angry	Picture	86.183	n/a	3	7	11	n/a	11	58	2	n/a	n/a	n/a	n/a	325.405	BF29HAS.jpg
298.156	0.514	Blank	Blank	85.669	n/a	3	7	11	n/a	11	n/a	2	n/a	n/a	n/a	n/a	325.902	n/a
298.686	0.497	angry	Picture	85.155	n/a	3	7	12	n/a	12	48	2	n/a	n/a	n/a	n/a	326.433	AF14HAS.jpg
299.184	0.514	Blank	Blank	84.641	n/a	3	7	12	n/a	12	n/a	2	n/a	n/a	n/a	n/a	326.93	n/a
299.714	0.497	angry	Picture	84.127	n/a	3	7	13	n/a	13	66	2	n/a	n/a	n/a	n/a	327.461	BM07HAS.jpg
300.212	0.514	Blank	Blank	83.613	n/a	3	7	13	n/a	13	n/a	2	n/a	n/a	n/a	n/a	327.958	n/a
300.742	0.497	angry	Picture	83.099	n/a	3	7	14	n/a	14	70	2	n/a	n/a	n/a	n/a	328.489	BM11HAS.jpg
301.24	0.514	Blank	Blank	82.585	n/a	3	7	14	n/a	14	n/a	2	n/a	n/a	n/a	n/a	328.986	n/a
301.77	0.497	angry	Picture	82.071	n/a	3	7	15	n/a	15	43	2	n/a	n/a	n/a	n/a	329.516	BF04HAS.jpg
302.267	0.514	Blank	Blank	81.557	n/a	3	7	15	n/a	15	n/a	2	n/a	n/a	n/a	n/a	330.014	n/a
302.798	0.497	angry	Picture	81.043	n/a	3	7	16	n/a	16	49	2	n/a	n/a	n/a	n/a	330.544	AF17HAS.jpg
303.295	0.514	Blank	Blank	80.529	n/a	3	7	16	n/a	16	n/a	2	n/a	n/a	n/a	n/a	331.042	n/a
303.826	0.497	angry	Picture	80.015	n/a	3	7	17	n/a	17	75	2	n/a	n/a	n/a	n/a	331.572	AM23HAS.jpg
304.323	0.514	Blank	Blank	79.502	n/a	3	7	17	n/a	17	n/a	2	n/a	n/a	n/a	n/a	332.07	n/a
304.854	0.497	angry	Picture	78.987	n/a	3	7	18	n/a	18	80	2	n/a	n/a	n/a	n/a	332.6	BM35HAS.jpg
305.351	0.514	Blank	Blank	78.474	n/a	3	7	18	n/a	18	n/a	2	n/a	n/a	n/a	n/a	333.098	n/a
305.882	0.497	angry	Picture	77.96	n/a	3	7	19	n/a	19	76	2	n/a	n/a	n/a	n/a	333.628	BM24HAS.jpg
306.379	0.514	Blank	Blank	77.446	n/a	3	7	19	n/a	19	n/a	2	n/a	n/a	n/a	n/a	334.125	n/a
306.91	0.497	angry	Picture	76.932	n/a	3	7	20	n/a	20	74	2	n/a	n/a	n/a	n/a	334.656	AM22HAS.jpg
307.407	0.514	Blank	Blank	76.418	n/a	3	7	20	n/a	20	n/a	2	n/a	n/a	n/a	n/a	335.153	n/a
307.938	10.014	ITI	Fixation+	66.388	n/a	3	n/a	n/a	n/a	n/a	n/a	n/a	n/a	n/a	n/a	n/a	335.684	n/a
317.968	0.497	neutral	Picture	65.874	n/a	3	8	1	n/a	21	33	1	n/a	n/a	n/a	n/a	345.714	AM21NES.jpg
318.465	0.514	Blank	Blank	65.36	n/a	3	8	1	n/a	21	n/a	1	n/a	n/a	n/a	n/a	346.211	n/a
318.996	0.497	neutral	Picture	64.846	n/a	3	8	2	n/a	22	39	1	n/a	n/a	n/a	n/a	346.742	AM28NES.jpg
319.493	0.514	Blank	Blank	64.332	n/a	3	8	2	n/a	22	n/a	1	n/a	n/a	n/a	n/a	347.239	n/a
320.023	0.497	neutral	Picture	63.818	n/a	3	8	3	n/a	23	25	1	n/a	n/a	n/a	n/a	347.77	BM06NES.jpg
320.521	0.514	Blank	Blank	63.304	n/a	3	8	3	n/a	23	n/a	1	n/a	n/a	n/a	n/a	348.267	n/a
321.051	0.497	neutral	Picture	62.79	n/a	3	8	4	n/a	24	5	1	n/a	n/a	n/a	n/a	348.798	BF07NES.jpg
321.549	0.514	Blank	Blank	62.276	n/a	3	8	4	n/a	24	n/a	1	n/a	n/a	n/a	n/a	349.295	n/a
322.079	0.497	neutral	Picture	61.762	n/a	3	8	5	n/a	25	10	1	n/a	n/a	n/a	n/a	349.826	AF18NES.jpg
322.577	0.514	Blank	Blank	61.248	n/a	3	8	5	n/a	25	n/a	1	n/a	n/a	n/a	n/a	350.323	n/a
323.107	0.497	neutral	Picture	60.734	n/a	3	8	6	n/a	26	34	1	n/a	n/a	n/a	n/a	350.853	AM22NES.jpg
323.604	0.514	Blank	Blank	60.22	n/a	3	8	6	n/a	26	n/a	1	n/a	n/a	n/a	n/a	351.351	n/a
324.135	0.497	neutral	Picture	59.706	n/a	3	8	7	n/a	27	36	1	n/a	n/a	n/a	n/a	351.881	BM24NES.jpg
324.632	0.514	Blank	Blank	59.192	n/a	3	8	7	n/a	27	n/a	1	n/a	n/a	n/a	n/a	352.379	n/a
325.163	0.497	neutral	Picture	58.678	n/a	3	8	8	n/a	28	14	1	n/a	n/a	n/a	n/a	352.909	AF23NES.jpg
325.66	0.514	Blank	Blank	58.164	n/a	3	8	8	n/a	28	n/a	1	n/a	n/a	n/a	n/a	353.407	n/a
326.191	0.497	neutral	Picture	57.65	n/a	3	8	9	n/a	29	9	1	n/a	n/a	n/a	n/a	353.937	AF17NES.jpg
326.688	0.514	Blank	Blank	57.137	n/a	3	8	9	n/a	29	n/a	1	n/a	n/a	n/a	n/a	354.435	n/a
327.219	0.497	neutral	Picture	56.623	n/a	3	8	10	n/a	30	19	1	n/a	n/a	n/a	n/a	354.965	AF31NES.jpg
327.716	0.514	Blank	Blank	56.109	n/a	3	8	10	n/a	30	n/a	1	n/a	n/a	n/a	n/a	355.462	n/a
328.247	0.497	neutral	Picture	55.595	n/a	3	8	11	n/a	31	15	1	n/a	n/a	n/a	n/a	355.993	AF25NES.jpg
328.744	0.514	Blank	Blank	55.081	n/a	3	8	11	n/a	31	n/a	1	n/a	n/a	n/a	n/a	356.49	n/a
329.274	0.497	neutral	Picture	54.567	n/a	3	8	12	n/a	32	22	1	n/a	n/a	n/a	n/a	357.021	BM03NES.jpg
329.772	0.514	Blank	Blank	54.053	n/a	3	8	12	n/a	32	n/a	1	n/a	n/a	n/a	n/a	357.518	n/a
330.302	0.497	neutral	Picture	53.539	n/a	3	8	13	n/a	33	11	1	n/a	n/a	n/a	n/a	358.049	AF20NES.jpg
330.8	0.514	Blank	Blank	53.025	n/a	3	8	13	n/a	33	n/a	1	n/a	n/a	n/a	n/a	358.546	n/a
331.33	0.497	neutral	Picture	52.511	n/a	3	8	14	n/a	34	4	1	n/a	n/a	n/a	n/a	359.077	AF05NES.jpg
331.828	0.514	Blank	Blank	51.997	n/a	3	8	14	n/a	34	n/a	1	n/a	n/a	n/a	n/a	359.574	n/a
332.358	0.497	neutral	Picture	51.483	n/a	3	8	15	n/a	35	17	1	n/a	n/a	n/a	n/a	360.104	BF28NES.jpg
332.856	0.514	Blank	Blank	50.969	n/a	3	8	15	n/a	35	n/a	1	n/a	n/a	n/a	n/a	360.602	n/a
333.386	0.497	neutral	Picture	50.455	n/a	3	8	16	n/a	36	13	1	n/a	n/a	n/a	n/a	361.132	BF22NES.jpg
333.883	0.514	Blank	Blank	49.941	n/a	3	8	16	n/a	36	n/a	1	n/a	n/a	n/a	n/a	361.63	n/a
334.414	0.497	neutral	Picture	49.427	n/a	3	8	17	n/a	37	12	1	n/a	n/a	n/a	n/a	362.16	AF21NES.jpg
334.911	0.514	Blank	Blank	48.913	n/a	3	8	17	n/a	37	n/a	1	n/a	n/a	n/a	n/a	362.658	n/a
335.442	0.497	neutral	Picture	48.399	n/a	3	8	18	n/a	38	24	1	n/a	n/a	n/a	n/a	363.188	BM05NES.jpg
335.939	0.514	Blank	Blank	47.885	n/a	3	8	18	n/a	38	n/a	1	n/a	n/a	n/a	n/a	363.685	n/a
336.47	0.497	neutral	Picture	47.372	n/a	3	8	19	n/a	39	29	1	n/a	n/a	n/a	n/a	364.216	AM10NES.jpg
336.967	0.514	Blank	Blank	46.858	n/a	3	8	19	n/a	39	n/a	1	n/a	n/a	n/a	n/a	364.713	n/a
337.498	0.497	neutral	Picture	46.344	n/a	3	8	20	n/a	40	23	1	n/a	n/a	n/a	n/a	365.244	AM04NES.jpg
337.995	0.514	Blank	Blank	45.83	n/a	3	8	20	n/a	40	n/a	1	n/a	n/a	n/a	n/a	365.741	n/a
338.525	10.014	ITI	Fixation+	35.8	n/a	3	n/a	n/a	n/a	n/a	n/a	n/a	n/a	n/a	n/a	n/a	366.272	n/a
348.556	0.497	angry	Picture	35.286	n/a	3	9	1	n/a	41	62	2	n/a	n/a	n/a	n/a	376.302	BM03HAS.jpg
349.053	0.514	Blank	Blank	34.772	n/a	3	9	1	n/a	41	n/a	2	n/a	n/a	n/a	n/a	376.799	n/a
349.584	0.497	angry	Picture	34.258	n/a	3	9	2	n/a	42	52	2	n/a	n/a	n/a	n/a	377.33	AF21HAS.jpg
350.081	0.514	Blank	Blank	33.744	n/a	3	9	2	n/a	42	n/a	2	n/a	n/a	n/a	n/a	377.827	n/a
350.611	0.497	angry	Picture	33.23	n/a	3	9	3	n/a	43	44	2	n/a	n/a	n/a	n/a	378.358	AF05HAS.jpg
351.109	0.514	Blank	Blank	32.716	n/a	3	9	3	n/a	43	n/a	2	n/a	n/a	n/a	n/a	378.855	n/a
351.639	0.497	angry	Picture	32.202	n/a	3	9	4	n/a	44	53	2	n/a	n/a	n/a	n/a	379.386	BF22HAS.jpg
352.137	0.514	Blank	Blank	31.688	n/a	3	9	4	n/a	44	n/a	2	n/a	n/a	n/a	n/a	379.883	n/a
352.667	0.497	angry	Picture	31.174	n/a	3	9	5	n/a	45	54	2	n/a	n/a	n/a	n/a	380.414	AF23HAS.jpg
353.165	0.514	Blank	Blank	30.66	n/a	3	9	5	n/a	45	n/a	2	n/a	n/a	n/a	n/a	380.911	n/a
353.695	0.497	angry	Picture	30.146	n/a	3	9	6	n/a	46	68	2	n/a	n/a	n/a	n/a	381.442	AM09HAS.jpg
354.193	0.514	Blank	Blank	29.632	n/a	3	9	6	n/a	46	n/a	2	n/a	n/a	n/a	n/a	381.939	n/a
354.723	0.497	angry	Picture	29.118	n/a	3	9	7	n/a	47	64	2	n/a	n/a	n/a	n/a	382.469	BM05HAS.jpg
355.22	0.514	Blank	Blank	28.604	n/a	3	9	7	n/a	47	n/a	2	n/a	n/a	n/a	n/a	382.967	n/a
355.751	0.497	angry	Picture	28.09	n/a	3	9	8	n/a	48	59	2	n/a	n/a	n/a	n/a	383.497	AF31HAS.jpg
356.248	0.514	Blank	Blank	27.576	n/a	3	9	8	n/a	48	n/a	2	n/a	n/a	n/a	n/a	383.995	n/a
356.779	0.497	angry	Picture	27.063	n/a	3	9	9	n/a	49	41	2	n/a	n/a	n/a	n/a	384.525	AF01HAS.jpg
357.276	0.514	Blank	Blank	26.548	n/a	3	9	9	n/a	49	n/a	2	n/a	n/a	n/a	n/a	385.022	n/a
357.807	0.497	angry	Picture	26.035	n/a	3	9	10	n/a	50	73	2	n/a	n/a	n/a	n/a	385.553	AM21HAS.jpg
358.304	0.514	Blank	Blank	25.521	n/a	3	9	10	n/a	50	n/a	2	n/a	n/a	n/a	n/a	386.05	n/a
358.835	0.497	angry	Picture	25.007	n/a	3	9	11	n/a	51	65	2	n/a	n/a	n/a	n/a	386.581	BM06HAS.jpg
359.332	0.514	Blank	Blank	24.493	n/a	3	9	11	n/a	51	n/a	2	n/a	n/a	n/a	n/a	387.078	n/a
359.862	0.497	angry	Picture	23.979	n/a	3	9	12	n/a	52	56	2	n/a	n/a	n/a	n/a	387.609	AF26HAS.jpg
360.36	0.514	Blank	Blank	23.465	n/a	3	9	12	n/a	52	n/a	2	n/a	n/a	n/a	n/a	388.106	n/a
360.89	0.497	angry	Picture	22.951	n/a	3	9	13	n/a	53	45	2	n/a	n/a	n/a	n/a	388.637	BF07HAS.jpg
361.388	0.514	Blank	Blank	22.437	n/a	3	9	13	n/a	53	n/a	2	n/a	n/a	n/a	n/a	389.134	n/a
361.918	0.497	angry	Picture	21.923	n/a	3	9	14	n/a	54	78	2	n/a	n/a	n/a	n/a	389.665	BM26HAS.jpg
362.416	0.514	Blank	Blank	21.409	n/a	3	9	14	n/a	54	n/a	2	n/a	n/a	n/a	n/a	390.162	n/a
362.946	0.497	angry	Picture	20.895	n/a	3	9	15	n/a	55	50	2	n/a	n/a	n/a	n/a	390.692	AF18HAS.jpg
363.444	0.514	Blank	Blank	20.381	n/a	3	9	15	n/a	55	n/a	2	n/a	n/a	n/a	n/a	391.19	n/a
363.974	0.497	angry	Picture	19.867	n/a	3	9	16	n/a	56	47	2	n/a	n/a	n/a	n/a	391.72	BF11HAS.jpg
364.471	0.514	Blank	Blank	19.353	n/a	3	9	16	n/a	56	n/a	2	n/a	n/a	n/a	n/a	392.218	n/a
365.002	0.497	angry	Picture	18.839	n/a	3	9	17	n/a	57	77	2	n/a	n/a	n/a	n/a	392.748	BM25HAS.jpg
365.499	0.514	Blank	Blank	18.325	n/a	3	9	17	n/a	57	n/a	2	n/a	n/a	n/a	n/a	393.246	n/a
366.03	0.497	angry	Picture	17.811	n/a	3	9	18	n/a	58	57	2	n/a	n/a	n/a	n/a	393.776	BF28HAS.jpg
366.527	0.514	Blank	Blank	17.297	n/a	3	9	18	n/a	58	n/a	2	n/a	n/a	n/a	n/a	394.274	n/a
367.058	0.497	angry	Picture	16.784	n/a	3	9	19	n/a	59	61	2	n/a	n/a	n/a	n/a	394.804	AM01HAS.jpg
367.555	0.514	Blank	Blank	16.27	n/a	3	9	19	n/a	59	n/a	2	n/a	n/a	n/a	n/a	395.301	n/a
368.086	0.497	angry	Picture	15.756	n/a	3	9	20	n/a	60	79	2	n/a	n/a	n/a	n/a	395.832	BM28HAS.jpg
368.583	0.514	Blank	Blank	15.242	n/a	3	9	20	n/a	60	n/a	2	n/a	n/a	n/a	n/a	396.329	n/a
369.113	10.014	ITI	Fixation+	5.211	n/a	3	n/a	n/a	n/a	n/a	n/a	n/a	n/a	n/a	n/a	n/a	396.86	n/a
384.339	n/a	ConfirmRating	Rate	n/a	5.205	3	n/a	n/a	0	n/a	n/a	n/a	2	Angry	50	50	412.085	n/a
388.222	n/a	ConfirmRating	Rate	n/a	3.863	3	n/a	n/a	1	n/a	n/a	n/a	3	Angry	0	42	415.968	n/a
388.246	10.014	ITI	Fixation+	97.155	n/a	4	n/a	n/a	n/a	n/a	n/a	n/a	n/a	n/a	n/a	n/a	415.992	n/a
398.276	0.497	happy	Picture	96.641	n/a	4	10	1	n/a	61	119	3	n/a	n/a	n/a	n/a	426.022	BM28ANS.jpg
398.773	0.514	Blank	Blank	96.127	n/a	4	10	1	n/a	61	n/a	3	n/a	n/a	n/a	n/a	426.519	n/a
399.304	0.497	happy	Picture	95.613	n/a	4	10	2	n/a	62	100	3	n/a	n/a	n/a	n/a	427.05	AF32ANS.jpg
399.801	0.514	Blank	Blank	95.099	n/a	4	10	2	n/a	62	n/a	3	n/a	n/a	n/a	n/a	427.547	n/a
400.332	0.497	happy	Picture	94.586	n/a	4	10	3	n/a	63	118	3	n/a	n/a	n/a	n/a	428.078	BM26ANS.jpg
400.829	0.514	Blank	Blank	94.072	n/a	4	10	3	n/a	63	n/a	3	n/a	n/a	n/a	n/a	428.575	n/a
401.359	0.497	happy	Picture	93.558	n/a	4	10	4	n/a	64	89	3	n/a	n/a	n/a	n/a	429.106	AF17ANS.jpg
401.857	0.514	Blank	Blank	93.044	n/a	4	10	4	n/a	64	n/a	3	n/a	n/a	n/a	n/a	429.603	n/a
402.387	0.497	happy	Picture	92.53	n/a	4	10	5	n/a	65	116	3	n/a	n/a	n/a	n/a	430.134	BM24ANS.jpg
402.885	0.514	Blank	Blank	92.016	n/a	4	10	5	n/a	65	n/a	3	n/a	n/a	n/a	n/a	430.631	n/a
403.415	0.497	happy	Picture	91.502	n/a	4	10	6	n/a	66	105	3	n/a	n/a	n/a	n/a	431.161	BM06ANS.jpg
403.913	0.514	Blank	Blank	90.988	n/a	4	10	6	n/a	66	n/a	3	n/a	n/a	n/a	n/a	431.659	n/a
404.443	0.497	happy	Picture	90.474	n/a	4	10	7	n/a	67	106	3	n/a	n/a	n/a	n/a	432.189	AM07ANS.jpg
404.94	0.514	Blank	Blank	89.96	n/a	4	10	7	n/a	67	n/a	3	n/a	n/a	n/a	n/a	432.687	n/a
405.471	0.497	happy	Picture	89.446	n/a	4	10	8	n/a	68	94	3	n/a	n/a	n/a	n/a	433.217	AF23ANS.jpg
405.968	0.514	Blank	Blank	88.932	n/a	4	10	8	n/a	68	n/a	3	n/a	n/a	n/a	n/a	433.715	n/a
406.499	0.497	happy	Picture	88.418	n/a	4	10	9	n/a	69	117	3	n/a	n/a	n/a	n/a	434.245	BM25ANS.jpg
406.996	0.514	Blank	Blank	87.904	n/a	4	10	9	n/a	69	n/a	3	n/a	n/a	n/a	n/a	434.743	n/a
407.527	0.497	happy	Picture	87.39	n/a	4	10	10	n/a	70	90	3	n/a	n/a	n/a	n/a	435.273	AF18ANS.jpg
408.024	0.514	Blank	Blank	86.876	n/a	4	10	10	n/a	70	n/a	3	n/a	n/a	n/a	n/a	435.771	n/a
408.555	0.497	happy	Picture	86.362	n/a	4	10	11	n/a	71	83	3	n/a	n/a	n/a	n/a	436.301	BF04ANS.jpg
409.052	0.514	Blank	Blank	85.849	n/a	4	10	11	n/a	71	n/a	3	n/a	n/a	n/a	n/a	436.798	n/a
409.583	0.497	happy	Picture	85.334	n/a	4	10	12	n/a	72	112	3	n/a	n/a	n/a	n/a	437.329	AM14ANS.jpg
410.08	0.514	Blank	Blank	84.821	n/a	4	10	12	n/a	72	n/a	3	n/a	n/a	n/a	n/a	437.826	n/a
410.611	0.497	happy	Picture	84.307	n/a	4	10	13	n/a	73	102	3	n/a	n/a	n/a	n/a	438.357	BM03ANS.jpg
411.108	0.514	Blank	Blank	83.793	n/a	4	10	13	n/a	73	n/a	3	n/a	n/a	n/a	n/a	438.854	n/a
411.638	0.497	happy	Picture	83.279	n/a	4	10	14	n/a	74	95	3	n/a	n/a	n/a	n/a	439.385	AF25ANS.jpg
412.136	0.514	Blank	Blank	82.765	n/a	4	10	14	n/a	74	n/a	3	n/a	n/a	n/a	n/a	439.882	n/a
412.666	0.497	happy	Picture	82.251	n/a	4	10	15	n/a	75	113	3	n/a	n/a	n/a	n/a	440.413	AM21ANS.jpg
413.164	0.514	Blank	Blank	81.737	n/a	4	10	15	n/a	75	n/a	3	n/a	n/a	n/a	n/a	440.91	n/a
413.694	0.497	happy	Picture	81.223	n/a	4	10	16	n/a	76	88	3	n/a	n/a	n/a	n/a	441.44	AF14ANS.jpg
414.191	0.514	Blank	Blank	80.709	n/a	4	10	16	n/a	76	n/a	3	n/a	n/a	n/a	n/a	441.938	n/a
414.722	0.497	happy	Picture	80.195	n/a	4	10	17	n/a	77	93	3	n/a	n/a	n/a	n/a	442.468	BF22ANS.jpg
415.219	0.514	Blank	Blank	79.681	n/a	4	10	17	n/a	77	n/a	3	n/a	n/a	n/a	n/a	442.966	n/a
415.75	0.497	happy	Picture	79.167	n/a	4	10	18	n/a	78	86	3	n/a	n/a	n/a	n/a	443.496	AF09ANS.jpg
416.247	0.514	Blank	Blank	78.653	n/a	4	10	18	n/a	78	n/a	3	n/a	n/a	n/a	n/a	443.994	n/a
416.778	0.497	happy	Picture	78.139	n/a	4	10	19	n/a	79	92	3	n/a	n/a	n/a	n/a	444.524	AF21ANS.jpg
417.275	0.514	Blank	Blank	77.625	n/a	4	10	19	n/a	79	n/a	3	n/a	n/a	n/a	n/a	445.022	n/a
417.806	0.497	happy	Picture	77.111	n/a	4	10	20	n/a	80	84	3	n/a	n/a	n/a	n/a	445.552	AF05ANS.jpg
418.303	0.514	Blank	Blank	76.598	n/a	4	10	20	n/a	80	n/a	3	n/a	n/a	n/a	n/a	446.049	n/a
418.834	10.014	ITI	Fixation+	66.567	n/a	4	n/a	n/a	n/a	n/a	n/a	n/a	n/a	n/a	n/a	n/a	446.58	n/a
428.864	0.497	neutral	Picture	66.053	n/a	4	11	1	n/a	81	4	1	n/a	n/a	n/a	n/a	456.61	AF05NES.jpg
429.361	0.514	Blank	Blank	65.539	n/a	4	11	1	n/a	81	n/a	1	n/a	n/a	n/a	n/a	457.108	n/a
429.892	0.497	neutral	Picture	65.025	n/a	4	11	2	n/a	82	14	1	n/a	n/a	n/a	n/a	457.638	AF23NES.jpg
430.389	0.514	Blank	Blank	64.512	n/a	4	11	2	n/a	82	n/a	1	n/a	n/a	n/a	n/a	458.135	n/a
430.92	0.497	neutral	Picture	63.997	n/a	4	11	3	n/a	83	19	1	n/a	n/a	n/a	n/a	458.666	AF31NES.jpg
431.417	0.514	Blank	Blank	63.484	n/a	4	11	3	n/a	83	n/a	1	n/a	n/a	n/a	n/a	459.163	n/a
431.947	0.497	neutral	Picture	62.97	n/a	4	11	4	n/a	84	8	1	n/a	n/a	n/a	n/a	459.694	AF14NES.jpg
432.445	0.514	Blank	Blank	62.456	n/a	4	11	4	n/a	84	n/a	1	n/a	n/a	n/a	n/a	460.191	n/a
432.975	0.497	neutral	Picture	61.942	n/a	4	11	5	n/a	85	25	1	n/a	n/a	n/a	n/a	460.722	BM06NES.jpg
433.473	0.514	Blank	Blank	61.428	n/a	4	11	5	n/a	85	n/a	1	n/a	n/a	n/a	n/a	461.219	n/a
434.003	0.497	neutral	Picture	60.914	n/a	4	11	6	n/a	86	9	1	n/a	n/a	n/a	n/a	461.75	AF17NES.jpg
434.501	0.514	Blank	Blank	60.4	n/a	4	11	6	n/a	86	n/a	1	n/a	n/a	n/a	n/a	462.247	n/a
435.031	0.497	neutral	Picture	59.886	n/a	4	11	7	n/a	87	2	1	n/a	n/a	n/a	n/a	462.777	AF03NES.jpg
435.529	0.514	Blank	Blank	59.372	n/a	4	11	7	n/a	87	n/a	1	n/a	n/a	n/a	n/a	463.275	n/a
436.059	0.497	neutral	Picture	58.858	n/a	4	11	8	n/a	88	17	1	n/a	n/a	n/a	n/a	463.805	BF28NES.jpg
436.556	0.514	Blank	Blank	58.344	n/a	4	11	8	n/a	88	n/a	1	n/a	n/a	n/a	n/a	464.303	n/a
437.087	0.497	neutral	Picture	57.83	n/a	4	11	9	n/a	89	6	1	n/a	n/a	n/a	n/a	464.833	AF09NES.jpg
437.584	0.514	Blank	Blank	57.316	n/a	4	11	9	n/a	89	n/a	1	n/a	n/a	n/a	n/a	465.331	n/a
438.115	0.497	neutral	Picture	56.802	n/a	4	11	10	n/a	90	12	1	n/a	n/a	n/a	n/a	465.861	AF21NES.jpg
438.612	0.514	Blank	Blank	56.288	n/a	4	11	10	n/a	90	n/a	1	n/a	n/a	n/a	n/a	466.358	n/a
439.143	0.497	neutral	Picture	55.774	n/a	4	11	11	n/a	91	24	1	n/a	n/a	n/a	n/a	466.889	BM05NES.jpg
439.64	0.514	Blank	Blank	55.261	n/a	4	11	11	n/a	91	n/a	1	n/a	n/a	n/a	n/a	467.386	n/a
440.171	0.497	neutral	Picture	54.746	n/a	4	11	12	n/a	92	34	1	n/a	n/a	n/a	n/a	467.917	AM22NES.jpg
440.668	0.514	Blank	Blank	54.233	n/a	4	11	12	n/a	92	n/a	1	n/a	n/a	n/a	n/a	468.414	n/a
441.198	0.497	neutral	Picture	53.719	n/a	4	11	13	n/a	93	23	1	n/a	n/a	n/a	n/a	468.945	AM04NES.jpg
441.696	0.514	Blank	Blank	53.205	n/a	4	11	13	n/a	93	n/a	1	n/a	n/a	n/a	n/a	469.442	n/a
442.226	0.497	neutral	Picture	52.691	n/a	4	11	14	n/a	94	15	1	n/a	n/a	n/a	n/a	469.973	AF25NES.jpg
442.724	0.514	Blank	Blank	52.177	n/a	4	11	14	n/a	94	n/a	1	n/a	n/a	n/a	n/a	470.47	n/a
443.254	0.497	neutral	Picture	51.663	n/a	4	11	15	n/a	95	37	1	n/a	n/a	n/a	n/a	471.001	BM25NES.jpg
443.752	0.514	Blank	Blank	51.149	n/a	4	11	15	n/a	95	n/a	1	n/a	n/a	n/a	n/a	471.498	n/a
444.282	0.497	neutral	Picture	50.635	n/a	4	11	16	n/a	96	32	1	n/a	n/a	n/a	n/a	472.029	AM14NES.jpg
444.779	0.514	Blank	Blank	50.121	n/a	4	11	16	n/a	96	n/a	1	n/a	n/a	n/a	n/a	472.526	n/a
445.31	0.497	neutral	Picture	49.607	n/a	4	11	17	n/a	97	3	1	n/a	n/a	n/a	n/a	473.056	BF04NES.jpg
445.807	0.514	Blank	Blank	49.093	n/a	4	11	17	n/a	97	n/a	1	n/a	n/a	n/a	n/a	473.554	n/a
446.338	0.497	neutral	Picture	48.579	n/a	4	11	18	n/a	98	16	1	n/a	n/a	n/a	n/a	474.084	AF26NES.jpg
446.835	0.514	Blank	Blank	48.065	n/a	4	11	18	n/a	98	n/a	1	n/a	n/a	n/a	n/a	474.582	n/a
447.366	0.497	neutral	Picture	47.551	n/a	4	11	19	n/a	99	27	1	n/a	n/a	n/a	n/a	475.112	BM08NES.jpg
447.863	0.514	Blank	Blank	47.037	n/a	4	11	19	n/a	99	n/a	1	n/a	n/a	n/a	n/a	475.61	n/a
448.394	0.497	neutral	Picture	46.523	n/a	4	11	20	n/a	100	28	1	n/a	n/a	n/a	n/a	476.14	AM09NES.jpg
448.891	0.514	Blank	Blank	46.009	n/a	4	11	20	n/a	100	n/a	1	n/a	n/a	n/a	n/a	476.637	n/a
449.422	10.014	ITI	Fixation+	35.979	n/a	4	n/a	n/a	n/a	n/a	n/a	n/a	n/a	n/a	n/a	n/a	477.168	n/a
459.452	0.497	happy	Picture	35.465	n/a	4	12	1	n/a	101	81	3	n/a	n/a	n/a	n/a	487.198	AF01ANS.jpg
459.949	0.514	Blank	Blank	34.951	n/a	4	12	1	n/a	101	n/a	3	n/a	n/a	n/a	n/a	487.695	n/a
460.48	0.497	happy	Picture	34.437	n/a	4	12	2	n/a	102	120	3	n/a	n/a	n/a	n/a	488.226	AM35ANS.jpg
460.977	0.514	Blank	Blank	33.923	n/a	4	12	2	n/a	102	n/a	3	n/a	n/a	n/a	n/a	488.723	n/a
461.508	0.497	happy	Picture	33.409	n/a	4	12	3	n/a	103	114	3	n/a	n/a	n/a	n/a	489.254	AM22ANS.jpg
462.005	0.514	Blank	Blank	32.896	n/a	4	12	3	n/a	103	n/a	3	n/a	n/a	n/a	n/a	489.751	n/a
462.535	0.497	happy	Picture	32.382	n/a	4	12	4	n/a	104	109	3	n/a	n/a	n/a	n/a	490.282	AM10ANS.jpg
463.033	0.514	Blank	Blank	31.868	n/a	4	12	4	n/a	104	n/a	3	n/a	n/a	n/a	n/a	490.779	n/a
463.563	0.497	happy	Picture	31.354	n/a	4	12	5	n/a	105	96	3	n/a	n/a	n/a	n/a	491.31	AF26ANS.jpg
464.061	0.514	Blank	Blank	30.84	n/a	4	12	5	n/a	105	n/a	3	n/a	n/a	n/a	n/a	491.807	n/a
464.591	0.497	happy	Picture	30.326	n/a	4	12	6	n/a	106	82	3	n/a	n/a	n/a	n/a	492.338	AF03ANS.jpg
465.089	0.514	Blank	Blank	29.812	n/a	4	12	6	n/a	106	n/a	3	n/a	n/a	n/a	n/a	492.835	n/a
465.619	0.497	happy	Picture	29.298	n/a	4	12	7	n/a	107	97	3	n/a	n/a	n/a	n/a	493.365	BF28ANS.jpg
466.117	0.514	Blank	Blank	28.784	n/a	4	12	7	n/a	107	n/a	3	n/a	n/a	n/a	n/a	493.863	n/a
466.647	0.497	happy	Picture	28.27	n/a	4	12	8	n/a	108	115	3	n/a	n/a	n/a	n/a	494.393	AM23ANS.jpg
467.144	0.514	Blank	Blank	27.756	n/a	4	12	8	n/a	108	n/a	3	n/a	n/a	n/a	n/a	494.891	n/a
467.675	0.497	happy	Picture	27.242	n/a	4	12	9	n/a	109	91	3	n/a	n/a	n/a	n/a	495.421	AF20ANS.jpg
468.172	0.514	Blank	Blank	26.728	n/a	4	12	9	n/a	109	n/a	3	n/a	n/a	n/a	n/a	495.919	n/a
468.703	0.497	happy	Picture	26.214	n/a	4	12	10	n/a	110	87	3	n/a	n/a	n/a	n/a	496.449	BF11ANS.jpg
469.2	0.514	Blank	Blank	25.7	n/a	4	12	10	n/a	110	n/a	3	n/a	n/a	n/a	n/a	496.947	n/a
469.731	0.497	happy	Picture	25.186	n/a	4	12	11	n/a	111	85	3	n/a	n/a	n/a	n/a	497.477	BF07ANS.jpg
470.228	0.514	Blank	Blank	24.672	n/a	4	12	11	n/a	111	n/a	3	n/a	n/a	n/a	n/a	497.974	n/a
470.759	0.497	happy	Picture	24.158	n/a	4	12	12	n/a	112	110	3	n/a	n/a	n/a	n/a	498.505	AM11ANS.jpg
471.256	0.514	Blank	Blank	23.644	n/a	4	12	12	n/a	112	n/a	3	n/a	n/a	n/a	n/a	499.002	n/a
471.786	0.497	happy	Picture	23.131	n/a	4	12	13	n/a	113	111	3	n/a	n/a	n/a	n/a	499.533	BM12ANS.jpg
472.284	0.514	Blank	Blank	22.617	n/a	4	12	13	n/a	113	n/a	3	n/a	n/a	n/a	n/a	500.03	n/a
472.814	0.497	happy	Picture	22.103	n/a	4	12	14	n/a	114	103	3	n/a	n/a	n/a	n/a	500.561	AM04ANS.jpg
473.312	0.514	Blank	Blank	21.589	n/a	4	12	14	n/a	114	n/a	3	n/a	n/a	n/a	n/a	501.058	n/a
473.842	0.497	happy	Picture	21.075	n/a	4	12	15	n/a	115	101	3	n/a	n/a	n/a	n/a	501.589	AM01ANS.jpg
474.34	0.514	Blank	Blank	20.561	n/a	4	12	15	n/a	115	n/a	3	n/a	n/a	n/a	n/a	502.086	n/a
474.87	0.497	happy	Picture	20.047	n/a	4	12	16	n/a	116	104	3	n/a	n/a	n/a	n/a	502.616	BM05ANS.jpg
475.368	0.514	Blank	Blank	19.533	n/a	4	12	16	n/a	116	n/a	3	n/a	n/a	n/a	n/a	503.114	n/a
475.898	0.497	happy	Picture	19.019	n/a	4	12	17	n/a	117	107	3	n/a	n/a	n/a	n/a	503.644	BM08ANS.jpg
476.395	0.514	Blank	Blank	18.505	n/a	4	12	17	n/a	117	n/a	3	n/a	n/a	n/a	n/a	504.142	n/a
476.926	0.497	happy	Picture	17.991	n/a	4	12	18	n/a	118	98	3	n/a	n/a	n/a	n/a	504.672	BF29ANS.jpg
477.423	0.514	Blank	Blank	17.477	n/a	4	12	18	n/a	118	n/a	3	n/a	n/a	n/a	n/a	505.17	n/a
477.954	0.497	happy	Picture	16.963	n/a	4	12	19	n/a	119	99	3	n/a	n/a	n/a	n/a	505.7	AF31ANS.jpg
478.451	0.514	Blank	Blank	16.449	n/a	4	12	19	n/a	119	n/a	3	n/a	n/a	n/a	n/a	506.197	n/a
478.982	0.497	happy	Picture	15.935	n/a	4	12	20	n/a	120	108	3	n/a	n/a	n/a	n/a	506.728	AM09ANS.jpg
479.479	0.514	Blank	Blank	15.421	n/a	4	12	20	n/a	120	n/a	3	n/a	n/a	n/a	n/a	507.225	n/a
480.01	10.014	ITI	Fixation+	5.391	n/a	4	n/a	n/a	n/a	n/a	n/a	n/a	n/a	n/a	n/a	n/a	507.756	n/a
495.414	n/a	ConfirmRating	Rate	n/a	5.388	4	n/a	n/a	0	n/a	n/a	n/a	2	Happy	56	51	523.161	n/a
498.649	n/a	ConfirmRating	Rate	n/a	3.217	4	n/a	n/a	1	n/a	n/a	n/a	3	Happy	0	49	526.396	n/a
