onset	duration	trial_type	event_type	time_until_response	response_time	trial_number	block_num_within_trial	image_seq_num_within_block	question_seq_num_within_block	image_seq_num	picture_number	condition	question_type	block_type	rating	rating_computed	onset_uncorrected	KDEV_imagefile
0.005	10.014	ITI	Fixation+	105.347	n/a	1	n/a	n/a	n/a	n/a	n/a	n/a	n/a	n/a	n/a	n/a	39.767	n/a
10.035	0.497	happy	Picture	104.833	n/a	1	1	1	n/a	1	108	3	n/a	n/a	n/a	n/a	49.797	AM09ANS.jpg
10.532	0.514	Blank	Blank	104.319	n/a	1	1	1	n/a	1	n/a	3	n/a	n/a	n/a	n/a	50.295	n/a
11.063	0.497	happy	Picture	103.805	n/a	1	1	2	n/a	2	99	3	n/a	n/a	n/a	n/a	50.825	AF31ANS.jpg
11.56	0.514	Blank	Blank	103.291	n/a	1	1	2	n/a	2	n/a	3	n/a	n/a	n/a	n/a	51.322	n/a
12.091	0.497	happy	Picture	102.777	n/a	1	1	3	n/a	3	98	3	n/a	n/a	n/a	n/a	51.853	BF29ANS.jpg
12.588	0.514	Blank	Blank	102.263	n/a	1	1	3	n/a	3	n/a	3	n/a	n/a	n/a	n/a	52.35	n/a
13.119	0.497	happy	Picture	101.749	n/a	1	1	4	n/a	4	107	3	n/a	n/a	n/a	n/a	52.881	BM08ANS.jpg
13.616	0.514	Blank	Blank	101.235	n/a	1	1	4	n/a	4	n/a	3	n/a	n/a	n/a	n/a	53.378	n/a
14.147	0.497	happy	Picture	100.721	n/a	1	1	5	n/a	5	104	3	n/a	n/a	n/a	n/a	53.909	BM05ANS.jpg
14.644	0.514	Blank	Blank	100.207	n/a	1	1	5	n/a	5	n/a	3	n/a	n/a	n/a	n/a	54.406	n/a
15.175	0.497	happy	Picture	99.693	n/a	1	1	6	n/a	6	101	3	n/a	n/a	n/a	n/a	54.937	AM01ANS.jpg
15.672	0.514	Blank	Blank	99.179	n/a	1	1	6	n/a	6	n/a	3	n/a	n/a	n/a	n/a	55.434	n/a
16.202	0.497	happy	Picture	98.665	n/a	1	1	7	n/a	7	103	3	n/a	n/a	n/a	n/a	55.965	AM04ANS.jpg
16.7	0.514	Blank	Blank	98.151	n/a	1	1	7	n/a	7	n/a	3	n/a	n/a	n/a	n/a	56.462	n/a
17.23	0.497	happy	Picture	97.637	n/a	1	1	8	n/a	8	111	3	n/a	n/a	n/a	n/a	56.992	BM12ANS.jpg
17.728	0.514	Blank	Blank	97.123	n/a	1	1	8	n/a	8	n/a	3	n/a	n/a	n/a	n/a	57.49	n/a
18.258	0.497	happy	Picture	96.61	n/a	1	1	9	n/a	9	110	3	n/a	n/a	n/a	n/a	58.02	AM11ANS.jpg
18.755	0.514	Blank	Blank	96.096	n/a	1	1	9	n/a	9	n/a	3	n/a	n/a	n/a	n/a	58.518	n/a
19.286	0.497	happy	Picture	95.582	n/a	1	1	10	n/a	10	85	3	n/a	n/a	n/a	n/a	59.048	BF07ANS.jpg
19.783	0.514	Blank	Blank	95.068	n/a	1	1	10	n/a	10	n/a	3	n/a	n/a	n/a	n/a	59.546	n/a
20.314	0.497	happy	Picture	94.554	n/a	1	1	11	n/a	11	87	3	n/a	n/a	n/a	n/a	60.076	BF11ANS.jpg
20.811	0.514	Blank	Blank	94.04	n/a	1	1	11	n/a	11	n/a	3	n/a	n/a	n/a	n/a	60.574	n/a
21.342	0.497	happy	Picture	93.526	n/a	1	1	12	n/a	12	91	3	n/a	n/a	n/a	n/a	61.104	AF20ANS.jpg
21.839	0.514	Blank	Blank	93.012	n/a	1	1	12	n/a	12	n/a	3	n/a	n/a	n/a	n/a	61.601	n/a
22.37	0.497	happy	Picture	92.498	n/a	1	1	13	n/a	13	115	3	n/a	n/a	n/a	n/a	62.132	AM23ANS.jpg
22.867	0.514	Blank	Blank	91.984	n/a	1	1	13	n/a	13	n/a	3	n/a	n/a	n/a	n/a	62.629	n/a
23.398	0.497	happy	Picture	91.47	n/a	1	1	14	n/a	14	97	3	n/a	n/a	n/a	n/a	63.16	BF28ANS.jpg
23.895	0.514	Blank	Blank	90.956	n/a	1	1	14	n/a	14	n/a	3	n/a	n/a	n/a	n/a	63.657	n/a
24.426	0.497	happy	Picture	90.442	n/a	1	1	15	n/a	15	82	3	n/a	n/a	n/a	n/a	64.188	AF03ANS.jpg
24.923	0.514	Blank	Blank	89.928	n/a	1	1	15	n/a	15	n/a	3	n/a	n/a	n/a	n/a	64.685	n/a
25.453	0.497	happy	Picture	89.414	n/a	1	1	16	n/a	16	96	3	n/a	n/a	n/a	n/a	65.216	AF26ANS.jpg
25.951	0.514	Blank	Blank	88.9	n/a	1	1	16	n/a	16	n/a	3	n/a	n/a	n/a	n/a	65.713	n/a
26.481	0.497	happy	Picture	88.386	n/a	1	1	17	n/a	17	109	3	n/a	n/a	n/a	n/a	66.243	AM10ANS.jpg
26.979	0.514	Blank	Blank	87.873	n/a	1	1	17	n/a	17	n/a	3	n/a	n/a	n/a	n/a	66.741	n/a
27.509	0.497	happy	Picture	87.359	n/a	1	1	18	n/a	18	114	3	n/a	n/a	n/a	n/a	67.271	AM22ANS.jpg
28.006	0.514	Blank	Blank	86.845	n/a	1	1	18	n/a	18	n/a	3	n/a	n/a	n/a	n/a	67.769	n/a
28.537	0.497	happy	Picture	86.331	n/a	1	1	19	n/a	19	120	3	n/a	n/a	n/a	n/a	68.299	AM35ANS.jpg
29.034	0.514	Blank	Blank	85.817	n/a	1	1	19	n/a	19	n/a	3	n/a	n/a	n/a	n/a	68.796	n/a
29.565	0.497	happy	Picture	85.303	n/a	1	1	20	n/a	20	81	3	n/a	n/a	n/a	n/a	69.327	AF01ANS.jpg
30.062	0.514	Blank	Blank	84.789	n/a	1	1	20	n/a	20	n/a	3	n/a	n/a	n/a	n/a	69.824	n/a
30.593	10.014	ITI	Fixation+	74.759	n/a	1	n/a	n/a	n/a	n/a	n/a	n/a	n/a	n/a	n/a	n/a	70.355	n/a
40.623	0.497	neutral	Picture	74.245	n/a	1	2	1	n/a	21	28	1	n/a	n/a	n/a	n/a	80.385	AM09NES.jpg
41.12	0.514	Blank	Blank	73.731	n/a	1	2	1	n/a	21	n/a	1	n/a	n/a	n/a	n/a	80.882	n/a
41.651	0.497	neutral	Picture	73.217	n/a	1	2	2	n/a	22	27	1	n/a	n/a	n/a	n/a	81.413	BM08NES.jpg
42.148	0.514	Blank	Blank	72.703	n/a	1	2	2	n/a	22	n/a	1	n/a	n/a	n/a	n/a	81.91	n/a
42.679	0.497	neutral	Picture	72.189	n/a	1	2	3	n/a	23	16	1	n/a	n/a	n/a	n/a	82.441	AF26NES.jpg
43.176	0.514	Blank	Blank	71.675	n/a	1	2	3	n/a	23	n/a	1	n/a	n/a	n/a	n/a	82.938	n/a
43.707	0.497	neutral	Picture	71.161	n/a	1	2	4	n/a	24	3	1	n/a	n/a	n/a	n/a	83.469	BF04NES.jpg
44.204	0.514	Blank	Blank	70.647	n/a	1	2	4	n/a	24	n/a	1	n/a	n/a	n/a	n/a	83.966	n/a
44.734	0.497	neutral	Picture	70.133	n/a	1	2	5	n/a	25	32	1	n/a	n/a	n/a	n/a	84.497	AM14NES.jpg
45.232	0.514	Blank	Blank	69.619	n/a	1	2	5	n/a	25	n/a	1	n/a	n/a	n/a	n/a	84.994	n/a
45.762	0.497	neutral	Picture	69.105	n/a	1	2	6	n/a	26	37	1	n/a	n/a	n/a	n/a	85.525	BM25NES.jpg
46.26	0.514	Blank	Blank	68.591	n/a	1	2	6	n/a	26	n/a	1	n/a	n/a	n/a	n/a	86.022	n/a
46.79	0.497	neutral	Picture	68.077	n/a	1	2	7	n/a	27	15	1	n/a	n/a	n/a	n/a	86.552	AF25NES.jpg
47.288	0.514	Blank	Blank	67.564	n/a	1	2	7	n/a	27	n/a	1	n/a	n/a	n/a	n/a	87.05	n/a
47.818	0.497	neutral	Picture	67.05	n/a	1	2	8	n/a	28	23	1	n/a	n/a	n/a	n/a	87.58	AM04NES.jpg
48.315	0.514	Blank	Blank	66.536	n/a	1	2	8	n/a	28	n/a	1	n/a	n/a	n/a	n/a	88.078	n/a
48.846	0.497	neutral	Picture	66.022	n/a	1	2	9	n/a	29	34	1	n/a	n/a	n/a	n/a	88.608	AM22NES.jpg
49.343	0.514	Blank	Blank	65.508	n/a	1	2	9	n/a	29	n/a	1	n/a	n/a	n/a	n/a	89.106	n/a
49.874	0.497	neutral	Picture	64.994	n/a	1	2	10	n/a	30	24	1	n/a	n/a	n/a	n/a	89.636	BM05NES.jpg
50.371	0.514	Blank	Blank	64.48	n/a	1	2	10	n/a	30	n/a	1	n/a	n/a	n/a	n/a	90.133	n/a
50.902	0.497	neutral	Picture	63.966	n/a	1	2	11	n/a	31	12	1	n/a	n/a	n/a	n/a	90.664	AF21NES.jpg
51.399	0.514	Blank	Blank	63.452	n/a	1	2	11	n/a	31	n/a	1	n/a	n/a	n/a	n/a	91.161	n/a
51.93	0.497	neutral	Picture	62.938	n/a	1	2	12	n/a	32	6	1	n/a	n/a	n/a	n/a	91.692	AF09NES.jpg
52.427	0.514	Blank	Blank	62.424	n/a	1	2	12	n/a	32	n/a	1	n/a	n/a	n/a	n/a	92.189	n/a
52.958	0.497	neutral	Picture	61.91	n/a	1	2	13	n/a	33	17	1	n/a	n/a	n/a	n/a	92.72	BF28NES.jpg
53.455	0.514	Blank	Blank	61.396	n/a	1	2	13	n/a	33	n/a	1	n/a	n/a	n/a	n/a	93.217	n/a
53.985	0.497	neutral	Picture	60.882	n/a	1	2	14	n/a	34	2	1	n/a	n/a	n/a	n/a	93.748	AF03NES.jpg
54.483	0.514	Blank	Blank	60.368	n/a	1	2	14	n/a	34	n/a	1	n/a	n/a	n/a	n/a	94.245	n/a
55.013	0.497	neutral	Picture	59.854	n/a	1	2	15	n/a	35	9	1	n/a	n/a	n/a	n/a	94.775	AF17NES.jpg
55.511	0.514	Blank	Blank	59.34	n/a	1	2	15	n/a	35	n/a	1	n/a	n/a	n/a	n/a	95.273	n/a
56.041	0.497	neutral	Picture	58.827	n/a	1	2	16	n/a	36	25	1	n/a	n/a	n/a	n/a	95.803	BM06NES.jpg
56.539	0.514	Blank	Blank	58.313	n/a	1	2	16	n/a	36	n/a	1	n/a	n/a	n/a	n/a	96.301	n/a
57.069	0.497	neutral	Picture	57.799	n/a	1	2	17	n/a	37	8	1	n/a	n/a	n/a	n/a	96.831	AF14NES.jpg
57.566	0.514	Blank	Blank	57.285	n/a	1	2	17	n/a	37	n/a	1	n/a	n/a	n/a	n/a	97.329	n/a
58.097	0.497	neutral	Picture	56.771	n/a	1	2	18	n/a	38	19	1	n/a	n/a	n/a	n/a	97.859	AF31NES.jpg
58.594	0.514	Blank	Blank	56.257	n/a	1	2	18	n/a	38	n/a	1	n/a	n/a	n/a	n/a	98.356	n/a
59.125	0.497	neutral	Picture	55.743	n/a	1	2	19	n/a	39	14	1	n/a	n/a	n/a	n/a	98.887	AF23NES.jpg
59.622	0.514	Blank	Blank	55.229	n/a	1	2	19	n/a	39	n/a	1	n/a	n/a	n/a	n/a	99.384	n/a
60.153	0.497	neutral	Picture	54.715	n/a	1	2	20	n/a	40	4	1	n/a	n/a	n/a	n/a	99.915	AF05NES.jpg
60.65	0.514	Blank	Blank	54.201	n/a	1	2	20	n/a	40	n/a	1	n/a	n/a	n/a	n/a	100.412	n/a
61.181	10.014	ITI	Fixation+	44.171	n/a	1	n/a	n/a	n/a	n/a	n/a	n/a	n/a	n/a	n/a	n/a	100.943	n/a
71.211	0.497	happy	Picture	43.657	n/a	1	3	1	n/a	41	84	3	n/a	n/a	n/a	n/a	110.973	AF05ANS.jpg
71.708	0.514	Blank	Blank	43.143	n/a	1	3	1	n/a	41	n/a	3	n/a	n/a	n/a	n/a	111.47	n/a
72.239	0.497	happy	Picture	42.629	n/a	1	3	2	n/a	42	92	3	n/a	n/a	n/a	n/a	112.001	AF21ANS.jpg
72.736	0.514	Blank	Blank	42.115	n/a	1	3	2	n/a	42	n/a	3	n/a	n/a	n/a	n/a	112.498	n/a
73.267	0.497	happy	Picture	41.601	n/a	1	3	3	n/a	43	86	3	n/a	n/a	n/a	n/a	113.029	AF09ANS.jpg
73.764	0.514	Blank	Blank	41.087	n/a	1	3	3	n/a	43	n/a	3	n/a	n/a	n/a	n/a	113.526	n/a
74.294	0.497	happy	Picture	40.573	n/a	1	3	4	n/a	44	93	3	n/a	n/a	n/a	n/a	114.057	BF22ANS.jpg
74.792	0.514	Blank	Blank	40.059	n/a	1	3	4	n/a	44	n/a	3	n/a	n/a	n/a	n/a	114.554	n/a
75.322	0.497	happy	Picture	39.545	n/a	1	3	5	n/a	45	88	3	n/a	n/a	n/a	n/a	115.085	AF14ANS.jpg
75.82	0.514	Blank	Blank	39.031	n/a	1	3	5	n/a	45	n/a	3	n/a	n/a	n/a	n/a	115.582	n/a
76.35	0.497	happy	Picture	38.518	n/a	1	3	6	n/a	46	113	3	n/a	n/a	n/a	n/a	116.112	AM21ANS.jpg
76.847	0.514	Blank	Blank	38.004	n/a	1	3	6	n/a	46	n/a	3	n/a	n/a	n/a	n/a	116.61	n/a
77.378	0.497	happy	Picture	37.49	n/a	1	3	7	n/a	47	95	3	n/a	n/a	n/a	n/a	117.14	AF25ANS.jpg
77.875	0.514	Blank	Blank	36.976	n/a	1	3	7	n/a	47	n/a	3	n/a	n/a	n/a	n/a	117.638	n/a
78.406	0.497	happy	Picture	36.462	n/a	1	3	8	n/a	48	102	3	n/a	n/a	n/a	n/a	118.168	BM03ANS.jpg
78.903	0.514	Blank	Blank	35.948	n/a	1	3	8	n/a	48	n/a	3	n/a	n/a	n/a	n/a	118.665	n/a
79.434	0.497	happy	Picture	35.434	n/a	1	3	9	n/a	49	112	3	n/a	n/a	n/a	n/a	119.196	AM14ANS.jpg
79.931	0.514	Blank	Blank	34.92	n/a	1	3	9	n/a	49	n/a	3	n/a	n/a	n/a	n/a	119.693	n/a
80.462	0.497	happy	Picture	34.406	n/a	1	3	10	n/a	50	83	3	n/a	n/a	n/a	n/a	120.224	BF04ANS.jpg
80.959	0.514	Blank	Blank	33.892	n/a	1	3	10	n/a	50	n/a	3	n/a	n/a	n/a	n/a	120.721	n/a
81.49	0.497	happy	Picture	33.378	n/a	1	3	11	n/a	51	90	3	n/a	n/a	n/a	n/a	121.252	AF18ANS.jpg
81.987	0.514	Blank	Blank	32.864	n/a	1	3	11	n/a	51	n/a	3	n/a	n/a	n/a	n/a	121.749	n/a
82.518	0.497	happy	Picture	32.35	n/a	1	3	12	n/a	52	117	3	n/a	n/a	n/a	n/a	122.28	BM25ANS.jpg
83.015	0.514	Blank	Blank	31.836	n/a	1	3	12	n/a	52	n/a	3	n/a	n/a	n/a	n/a	122.777	n/a
83.545	0.497	happy	Picture	31.322	n/a	1	3	13	n/a	53	94	3	n/a	n/a	n/a	n/a	123.308	AF23ANS.jpg
84.043	0.514	Blank	Blank	30.808	n/a	1	3	13	n/a	53	n/a	3	n/a	n/a	n/a	n/a	123.805	n/a
84.573	0.497	happy	Picture	30.294	n/a	1	3	14	n/a	54	106	3	n/a	n/a	n/a	n/a	124.335	AM07ANS.jpg
85.071	0.514	Blank	Blank	29.781	n/a	1	3	14	n/a	54	n/a	3	n/a	n/a	n/a	n/a	124.833	n/a
85.601	0.497	happy	Picture	29.267	n/a	1	3	15	n/a	55	105	3	n/a	n/a	n/a	n/a	125.363	BM06ANS.jpg
86.099	0.514	Blank	Blank	28.753	n/a	1	3	15	n/a	55	n/a	3	n/a	n/a	n/a	n/a	125.861	n/a
86.629	0.497	happy	Picture	28.239	n/a	1	3	16	n/a	56	116	3	n/a	n/a	n/a	n/a	126.391	BM24ANS.jpg
87.126	0.514	Blank	Blank	27.725	n/a	1	3	16	n/a	56	n/a	3	n/a	n/a	n/a	n/a	126.889	n/a
87.657	0.497	happy	Picture	27.211	n/a	1	3	17	n/a	57	89	3	n/a	n/a	n/a	n/a	127.419	AF17ANS.jpg
88.154	0.514	Blank	Blank	26.697	n/a	1	3	17	n/a	57	n/a	3	n/a	n/a	n/a	n/a	127.916	n/a
88.685	0.497	happy	Picture	26.183	n/a	1	3	18	n/a	58	118	3	n/a	n/a	n/a	n/a	128.447	BM26ANS.jpg
89.182	0.514	Blank	Blank	25.669	n/a	1	3	18	n/a	58	n/a	3	n/a	n/a	n/a	n/a	128.944	n/a
89.713	0.497	happy	Picture	25.155	n/a	1	3	19	n/a	59	100	3	n/a	n/a	n/a	n/a	129.475	AF32ANS.jpg
90.21	0.514	Blank	Blank	24.641	n/a	1	3	19	n/a	59	n/a	3	n/a	n/a	n/a	n/a	129.972	n/a
90.74	0.497	happy	Picture	24.127	n/a	1	3	20	n/a	60	119	3	n/a	n/a	n/a	n/a	130.503	BM28ANS.jpg
91.238	0.514	Blank	Blank	23.613	n/a	1	3	20	n/a	60	n/a	3	n/a	n/a	n/a	n/a	131.0	n/a
91.768	10.014	ITI	Fixation+	13.583	n/a	1	n/a	n/a	n/a	n/a	n/a	n/a	n/a	n/a	n/a	n/a	131.531	n/a
115.365	n/a	ConfirmRating	Rate	n/a	13.561	1	n/a	n/a	0	n/a	n/a	n/a	2	Happy	80	51	155.127	n/a
117.529	n/a	ConfirmRating	Rate	n/a	2.139	1	n/a	n/a	1	n/a	n/a	n/a	3	Happy	0	49	157.291	n/a
117.548	10.014	ITI	Fixation+	97.736	n/a	2	n/a	n/a	n/a	n/a	n/a	n/a	n/a	n/a	n/a	n/a	157.311	n/a
127.579	0.497	angry	Picture	97.222	n/a	2	4	1	n/a	61	79	2	n/a	n/a	n/a	n/a	167.341	BM28HAS.jpg
128.076	0.514	Blank	Blank	96.708	n/a	2	4	1	n/a	61	n/a	2	n/a	n/a	n/a	n/a	167.838	n/a
128.606	0.497	angry	Picture	96.194	n/a	2	4	2	n/a	62	61	2	n/a	n/a	n/a	n/a	168.369	AM01HAS.jpg
129.104	0.514	Blank	Blank	95.68	n/a	2	4	2	n/a	62	n/a	2	n/a	n/a	n/a	n/a	168.866	n/a
129.634	0.497	angry	Picture	95.166	n/a	2	4	3	n/a	63	57	2	n/a	n/a	n/a	n/a	169.397	BF28HAS.jpg
130.132	0.514	Blank	Blank	94.652	n/a	2	4	3	n/a	63	n/a	2	n/a	n/a	n/a	n/a	169.894	n/a
130.662	0.497	angry	Picture	94.138	n/a	2	4	4	n/a	64	77	2	n/a	n/a	n/a	n/a	170.424	BM25HAS.jpg
131.16	0.514	Blank	Blank	93.624	n/a	2	4	4	n/a	64	n/a	2	n/a	n/a	n/a	n/a	170.922	n/a
131.69	0.497	angry	Picture	93.11	n/a	2	4	5	n/a	65	47	2	n/a	n/a	n/a	n/a	171.452	BF11HAS.jpg
132.188	0.514	Blank	Blank	92.596	n/a	2	4	5	n/a	65	n/a	2	n/a	n/a	n/a	n/a	171.95	n/a
132.718	0.497	angry	Picture	92.082	n/a	2	4	6	n/a	66	50	2	n/a	n/a	n/a	n/a	172.48	AF18HAS.jpg
133.215	0.514	Blank	Blank	91.568	n/a	2	4	6	n/a	66	n/a	2	n/a	n/a	n/a	n/a	172.977	n/a
133.746	0.497	angry	Picture	91.054	n/a	2	4	7	n/a	67	78	2	n/a	n/a	n/a	n/a	173.508	BM26HAS.jpg
134.243	0.514	Blank	Blank	90.54	n/a	2	4	7	n/a	67	n/a	2	n/a	n/a	n/a	n/a	174.005	n/a
134.774	0.497	angry	Picture	90.026	n/a	2	4	8	n/a	68	45	2	n/a	n/a	n/a	n/a	174.536	BF07HAS.jpg
135.271	0.514	Blank	Blank	89.513	n/a	2	4	8	n/a	68	n/a	2	n/a	n/a	n/a	n/a	175.033	n/a
135.802	0.497	angry	Picture	88.999	n/a	2	4	9	n/a	69	56	2	n/a	n/a	n/a	n/a	175.564	AF26HAS.jpg
136.299	0.514	Blank	Blank	88.485	n/a	2	4	9	n/a	69	n/a	2	n/a	n/a	n/a	n/a	176.061	n/a
136.829	0.497	angry	Picture	87.971	n/a	2	4	10	n/a	70	65	2	n/a	n/a	n/a	n/a	176.592	BM06HAS.jpg
137.327	0.514	Blank	Blank	87.457	n/a	2	4	10	n/a	70	n/a	2	n/a	n/a	n/a	n/a	177.089	n/a
137.857	0.497	angry	Picture	86.943	n/a	2	4	11	n/a	71	73	2	n/a	n/a	n/a	n/a	177.62	AM21HAS.jpg
138.355	0.514	Blank	Blank	86.429	n/a	2	4	11	n/a	71	n/a	2	n/a	n/a	n/a	n/a	178.117	n/a
138.885	0.497	angry	Picture	85.915	n/a	2	4	12	n/a	72	41	2	n/a	n/a	n/a	n/a	178.648	AF01HAS.jpg
139.383	0.514	Blank	Blank	85.401	n/a	2	4	12	n/a	72	n/a	2	n/a	n/a	n/a	n/a	179.145	n/a
139.913	0.497	angry	Picture	84.887	n/a	2	4	13	n/a	73	59	2	n/a	n/a	n/a	n/a	179.675	AF31HAS.jpg
140.41	0.514	Blank	Blank	84.373	n/a	2	4	13	n/a	73	n/a	2	n/a	n/a	n/a	n/a	180.173	n/a
140.941	0.497	angry	Picture	83.859	n/a	2	4	14	n/a	74	64	2	n/a	n/a	n/a	n/a	180.703	BM05HAS.jpg
141.438	0.514	Blank	Blank	83.345	n/a	2	4	14	n/a	74	n/a	2	n/a	n/a	n/a	n/a	181.201	n/a
141.969	0.497	angry	Picture	82.831	n/a	2	4	15	n/a	75	68	2	n/a	n/a	n/a	n/a	181.731	AM09HAS.jpg
142.466	0.514	Blank	Blank	82.317	n/a	2	4	15	n/a	75	n/a	2	n/a	n/a	n/a	n/a	182.228	n/a
142.997	0.497	angry	Picture	81.803	n/a	2	4	16	n/a	76	54	2	n/a	n/a	n/a	n/a	182.759	AF23HAS.jpg
143.494	0.514	Blank	Blank	81.289	n/a	2	4	16	n/a	76	n/a	2	n/a	n/a	n/a	n/a	183.256	n/a
144.025	0.497	angry	Picture	80.775	n/a	2	4	17	n/a	77	53	2	n/a	n/a	n/a	n/a	183.787	BF22HAS.jpg
144.522	0.514	Blank	Blank	80.262	n/a	2	4	17	n/a	77	n/a	2	n/a	n/a	n/a	n/a	184.284	n/a
145.053	0.497	angry	Picture	79.748	n/a	2	4	18	n/a	78	44	2	n/a	n/a	n/a	n/a	184.815	AF05HAS.jpg
145.55	0.514	Blank	Blank	79.234	n/a	2	4	18	n/a	78	n/a	2	n/a	n/a	n/a	n/a	185.312	n/a
146.081	0.497	angry	Picture	78.72	n/a	2	4	19	n/a	79	52	2	n/a	n/a	n/a	n/a	185.843	AF21HAS.jpg
146.578	0.514	Blank	Blank	78.206	n/a	2	4	19	n/a	79	n/a	2	n/a	n/a	n/a	n/a	186.34	n/a
147.108	0.497	angry	Picture	77.692	n/a	2	4	20	n/a	80	62	2	n/a	n/a	n/a	n/a	186.87	BM03HAS.jpg
147.606	0.514	Blank	Blank	77.178	n/a	2	4	20	n/a	80	n/a	2	n/a	n/a	n/a	n/a	187.368	n/a
148.136	10.014	ITI	Fixation+	67.148	n/a	2	n/a	n/a	n/a	n/a	n/a	n/a	n/a	n/a	n/a	n/a	187.898	n/a
158.166	0.497	neutral	Picture	66.634	n/a	2	5	1	n/a	81	23	1	n/a	n/a	n/a	n/a	197.929	AM04NES.jpg
158.664	0.514	Blank	Blank	66.12	n/a	2	5	1	n/a	81	n/a	1	n/a	n/a	n/a	n/a	198.426	n/a
159.194	0.497	neutral	Picture	65.606	n/a	2	5	2	n/a	82	29	1	n/a	n/a	n/a	n/a	198.957	AM10NES.jpg
159.692	0.514	Blank	Blank	65.092	n/a	2	5	2	n/a	82	n/a	1	n/a	n/a	n/a	n/a	199.454	n/a
160.222	0.497	neutral	Picture	64.578	n/a	2	5	3	n/a	83	24	1	n/a	n/a	n/a	n/a	199.984	BM05NES.jpg
160.719	0.514	Blank	Blank	64.064	n/a	2	5	3	n/a	83	n/a	1	n/a	n/a	n/a	n/a	200.482	n/a
161.25	0.497	neutral	Picture	63.55	n/a	2	5	4	n/a	84	12	1	n/a	n/a	n/a	n/a	201.012	AF21NES.jpg
161.747	0.514	Blank	Blank	63.036	n/a	2	5	4	n/a	84	n/a	1	n/a	n/a	n/a	n/a	201.51	n/a
162.278	0.497	neutral	Picture	62.522	n/a	2	5	5	n/a	85	13	1	n/a	n/a	n/a	n/a	202.04	BF22NES.jpg
162.775	0.514	Blank	Blank	62.008	n/a	2	5	5	n/a	85	n/a	1	n/a	n/a	n/a	n/a	202.537	n/a
163.306	0.497	neutral	Picture	61.494	n/a	2	5	6	n/a	86	17	1	n/a	n/a	n/a	n/a	203.068	BF28NES.jpg
163.803	0.514	Blank	Blank	60.98	n/a	2	5	6	n/a	86	n/a	1	n/a	n/a	n/a	n/a	203.565	n/a
164.334	0.497	neutral	Picture	60.466	n/a	2	5	7	n/a	87	4	1	n/a	n/a	n/a	n/a	204.096	AF05NES.jpg
164.831	0.514	Blank	Blank	59.953	n/a	2	5	7	n/a	87	n/a	1	n/a	n/a	n/a	n/a	204.593	n/a
165.362	0.497	neutral	Picture	59.439	n/a	2	5	8	n/a	88	11	1	n/a	n/a	n/a	n/a	205.124	AF20NES.jpg
165.859	0.514	Blank	Blank	58.925	n/a	2	5	8	n/a	88	n/a	1	n/a	n/a	n/a	n/a	205.621	n/a
166.389	0.497	neutral	Picture	58.411	n/a	2	5	9	n/a	89	22	1	n/a	n/a	n/a	n/a	206.152	BM03NES.jpg
166.887	0.514	Blank	Blank	57.897	n/a	2	5	9	n/a	89	n/a	1	n/a	n/a	n/a	n/a	206.649	n/a
167.417	0.497	neutral	Picture	57.383	n/a	2	5	10	n/a	90	15	1	n/a	n/a	n/a	n/a	207.179	AF25NES.jpg
167.915	0.514	Blank	Blank	56.869	n/a	2	5	10	n/a	90	n/a	1	n/a	n/a	n/a	n/a	207.677	n/a
168.445	0.497	neutral	Picture	56.355	n/a	2	5	11	n/a	91	19	1	n/a	n/a	n/a	n/a	208.207	AF31NES.jpg
168.943	0.514	Blank	Blank	55.841	n/a	2	5	11	n/a	91	n/a	1	n/a	n/a	n/a	n/a	208.705	n/a
169.473	0.497	neutral	Picture	55.327	n/a	2	5	12	n/a	92	9	1	n/a	n/a	n/a	n/a	209.235	AF17NES.jpg
169.97	0.514	Blank	Blank	54.813	n/a	2	5	12	n/a	92	n/a	1	n/a	n/a	n/a	n/a	209.733	n/a
170.501	0.497	neutral	Picture	54.299	n/a	2	5	13	n/a	93	14	1	n/a	n/a	n/a	n/a	210.263	AF23NES.jpg
170.998	0.514	Blank	Blank	53.785	n/a	2	5	13	n/a	93	n/a	1	n/a	n/a	n/a	n/a	210.761	n/a
171.529	0.497	neutral	Picture	53.271	n/a	2	5	14	n/a	94	36	1	n/a	n/a	n/a	n/a	211.291	BM24NES.jpg
172.026	0.514	Blank	Blank	52.757	n/a	2	5	14	n/a	94	n/a	1	n/a	n/a	n/a	n/a	211.788	n/a
172.557	0.497	neutral	Picture	52.243	n/a	2	5	15	n/a	95	34	1	n/a	n/a	n/a	n/a	212.319	AM22NES.jpg
173.054	0.514	Blank	Blank	51.729	n/a	2	5	15	n/a	95	n/a	1	n/a	n/a	n/a	n/a	212.816	n/a
173.585	0.497	neutral	Picture	51.216	n/a	2	5	16	n/a	96	10	1	n/a	n/a	n/a	n/a	213.347	AF18NES.jpg
174.082	0.514	Blank	Blank	50.702	n/a	2	5	16	n/a	96	n/a	1	n/a	n/a	n/a	n/a	213.844	n/a
174.612	0.497	neutral	Picture	50.188	n/a	2	5	17	n/a	97	5	1	n/a	n/a	n/a	n/a	214.375	BF07NES.jpg
175.11	0.514	Blank	Blank	49.674	n/a	2	5	17	n/a	97	n/a	1	n/a	n/a	n/a	n/a	214.872	n/a
175.64	0.497	neutral	Picture	49.16	n/a	2	5	18	n/a	98	25	1	n/a	n/a	n/a	n/a	215.403	BM06NES.jpg
176.138	0.514	Blank	Blank	48.646	n/a	2	5	18	n/a	98	n/a	1	n/a	n/a	n/a	n/a	215.9	n/a
176.668	0.497	neutral	Picture	48.132	n/a	2	5	19	n/a	99	39	1	n/a	n/a	n/a	n/a	216.43	AM28NES.jpg
177.166	0.514	Blank	Blank	47.618	n/a	2	5	19	n/a	99	n/a	1	n/a	n/a	n/a	n/a	216.928	n/a
177.696	0.497	neutral	Picture	47.104	n/a	2	5	20	n/a	100	33	1	n/a	n/a	n/a	n/a	217.458	AM21NES.jpg
178.194	0.514	Blank	Blank	46.59	n/a	2	5	20	n/a	100	n/a	1	n/a	n/a	n/a	n/a	217.956	n/a
178.724	10.014	ITI	Fixation+	36.56	n/a	2	n/a	n/a	n/a	n/a	n/a	n/a	n/a	n/a	n/a	n/a	218.486	n/a
188.754	0.497	angry	Picture	36.046	n/a	2	6	1	n/a	101	74	2	n/a	n/a	n/a	n/a	228.516	AM22HAS.jpg
189.252	0.514	Blank	Blank	35.532	n/a	2	6	1	n/a	101	n/a	2	n/a	n/a	n/a	n/a	229.014	n/a
189.782	0.497	angry	Picture	35.018	n/a	2	6	2	n/a	102	76	2	n/a	n/a	n/a	n/a	229.544	BM24HAS.jpg
190.279	0.514	Blank	Blank	34.504	n/a	2	6	2	n/a	102	n/a	2	n/a	n/a	n/a	n/a	230.042	n/a
190.81	0.497	angry	Picture	33.99	n/a	2	6	3	n/a	103	80	2	n/a	n/a	n/a	n/a	230.572	BM35HAS.jpg
191.307	0.514	Blank	Blank	33.476	n/a	2	6	3	n/a	103	n/a	2	n/a	n/a	n/a	n/a	231.07	n/a
191.838	0.497	angry	Picture	32.962	n/a	2	6	4	n/a	104	75	2	n/a	n/a	n/a	n/a	231.6	AM23HAS.jpg
192.335	0.514	Blank	Blank	32.448	n/a	2	6	4	n/a	104	n/a	2	n/a	n/a	n/a	n/a	232.097	n/a
192.866	0.497	angry	Picture	31.934	n/a	2	6	5	n/a	105	49	2	n/a	n/a	n/a	n/a	232.628	AF17HAS.jpg
193.363	0.514	Blank	Blank	31.42	n/a	2	6	5	n/a	105	n/a	2	n/a	n/a	n/a	n/a	233.125	n/a
193.894	0.497	angry	Picture	30.907	n/a	2	6	6	n/a	106	43	2	n/a	n/a	n/a	n/a	233.656	BF04HAS.jpg
194.391	0.514	Blank	Blank	30.393	n/a	2	6	6	n/a	106	n/a	2	n/a	n/a	n/a	n/a	234.153	n/a
194.921	0.497	angry	Picture	29.879	n/a	2	6	7	n/a	107	70	2	n/a	n/a	n/a	n/a	234.684	BM11HAS.jpg
195.419	0.514	Blank	Blank	29.365	n/a	2	6	7	n/a	107	n/a	2	n/a	n/a	n/a	n/a	235.181	n/a
195.949	0.497	angry	Picture	28.851	n/a	2	6	8	n/a	108	66	2	n/a	n/a	n/a	n/a	235.712	BM07HAS.jpg
196.447	0.514	Blank	Blank	28.337	n/a	2	6	8	n/a	108	n/a	2	n/a	n/a	n/a	n/a	236.209	n/a
196.977	0.497	angry	Picture	27.823	n/a	2	6	9	n/a	109	48	2	n/a	n/a	n/a	n/a	236.739	AF14HAS.jpg
197.475	0.514	Blank	Blank	27.309	n/a	2	6	9	n/a	109	n/a	2	n/a	n/a	n/a	n/a	237.237	n/a
198.005	0.497	angry	Picture	26.795	n/a	2	6	10	n/a	110	58	2	n/a	n/a	n/a	n/a	237.767	BF29HAS.jpg
198.502	0.514	Blank	Blank	26.281	n/a	2	6	10	n/a	110	n/a	2	n/a	n/a	n/a	n/a	238.265	n/a
199.033	0.497	angry	Picture	25.767	n/a	2	6	11	n/a	111	63	2	n/a	n/a	n/a	n/a	238.795	AM04HAS.jpg
199.53	0.514	Blank	Blank	25.253	n/a	2	6	11	n/a	111	n/a	2	n/a	n/a	n/a	n/a	239.293	n/a
200.061	0.497	angry	Picture	24.739	n/a	2	6	12	n/a	112	72	2	n/a	n/a	n/a	n/a	239.823	AM14HAS.jpg
200.558	0.514	Blank	Blank	24.225	n/a	2	6	12	n/a	112	n/a	2	n/a	n/a	n/a	n/a	240.321	n/a
201.089	0.497	angry	Picture	23.711	n/a	2	6	13	n/a	113	55	2	n/a	n/a	n/a	n/a	240.851	AF25HAS.jpg
201.586	0.514	Blank	Blank	23.197	n/a	2	6	13	n/a	113	n/a	2	n/a	n/a	n/a	n/a	241.348	n/a
202.117	0.497	angry	Picture	22.683	n/a	2	6	14	n/a	114	42	2	n/a	n/a	n/a	n/a	241.879	AF03HAS.jpg
202.614	0.514	Blank	Blank	22.17	n/a	2	6	14	n/a	114	n/a	2	n/a	n/a	n/a	n/a	242.376	n/a
203.145	0.497	angry	Picture	21.656	n/a	2	6	15	n/a	115	60	2	n/a	n/a	n/a	n/a	242.907	AF32HAS.jpg
203.642	0.514	Blank	Blank	21.142	n/a	2	6	15	n/a	115	n/a	2	n/a	n/a	n/a	n/a	243.404	n/a
204.172	0.497	angry	Picture	20.628	n/a	2	6	16	n/a	116	67	2	n/a	n/a	n/a	n/a	243.935	BM08HAS.jpg
204.67	0.514	Blank	Blank	20.114	n/a	2	6	16	n/a	116	n/a	2	n/a	n/a	n/a	n/a	244.432	n/a
205.2	0.497	angry	Picture	19.6	n/a	2	6	17	n/a	117	51	2	n/a	n/a	n/a	n/a	244.963	AF20HAS.jpg
205.698	0.514	Blank	Blank	19.086	n/a	2	6	17	n/a	117	n/a	2	n/a	n/a	n/a	n/a	245.46	n/a
206.228	0.497	angry	Picture	18.572	n/a	2	6	18	n/a	118	71	2	n/a	n/a	n/a	n/a	245.99	BM12HAS.jpg
206.726	0.514	Blank	Blank	18.058	n/a	2	6	18	n/a	118	n/a	2	n/a	n/a	n/a	n/a	246.488	n/a
207.256	0.497	angry	Picture	17.544	n/a	2	6	19	n/a	119	69	2	n/a	n/a	n/a	n/a	247.018	AM10HAS.jpg
207.754	0.514	Blank	Blank	17.03	n/a	2	6	19	n/a	119	n/a	2	n/a	n/a	n/a	n/a	247.516	n/a
208.284	0.497	angry	Picture	16.516	n/a	2	6	20	n/a	120	46	2	n/a	n/a	n/a	n/a	248.046	AF09HAS.jpg
208.781	0.514	Blank	Blank	16.002	n/a	2	6	20	n/a	120	n/a	2	n/a	n/a	n/a	n/a	248.544	n/a
209.312	10.014	ITI	Fixation+	5.972	n/a	2	n/a	n/a	n/a	n/a	n/a	n/a	n/a	n/a	n/a	n/a	249.074	n/a
225.298	n/a	ConfirmRating	Rate	n/a	5.968	2	n/a	n/a	0	n/a	n/a	n/a	2	Angry	32	50	265.06	n/a
233.013	n/a	ConfirmRating	Rate	n/a	7.692	2	n/a	n/a	1	n/a	n/a	n/a	3	Angry	51	50	272.776	n/a
233.036	15.004	Rest	Picture	n/a	n/a	n/a	n/a	n/a	n/a	n/a	n/a	n/a	0	n/a	0	0	272.798	n/a
248.056	10.014	ITI	Fixation+	93.464	n/a	3	n/a	n/a	n/a	n/a	n/a	n/a	n/a	n/a	n/a	n/a	287.819	n/a
258.087	0.497	happy	Picture	92.95	n/a	3	7	1	n/a	1	108	3	n/a	n/a	n/a	n/a	297.849	AM09ANS.jpg
258.584	0.514	Blank	Blank	92.436	n/a	3	7	1	n/a	1	n/a	3	n/a	n/a	n/a	n/a	298.346	n/a
259.115	0.497	happy	Picture	91.922	n/a	3	7	2	n/a	2	99	3	n/a	n/a	n/a	n/a	298.877	AF31ANS.jpg
259.612	0.514	Blank	Blank	91.408	n/a	3	7	2	n/a	2	n/a	3	n/a	n/a	n/a	n/a	299.374	n/a
260.142	0.497	happy	Picture	90.894	n/a	3	7	3	n/a	3	98	3	n/a	n/a	n/a	n/a	299.905	BF29ANS.jpg
260.64	0.514	Blank	Blank	90.38	n/a	3	7	3	n/a	3	n/a	3	n/a	n/a	n/a	n/a	300.402	n/a
261.17	0.497	happy	Picture	89.866	n/a	3	7	4	n/a	4	107	3	n/a	n/a	n/a	n/a	300.933	BM08ANS.jpg
261.668	0.514	Blank	Blank	89.352	n/a	3	7	4	n/a	4	n/a	3	n/a	n/a	n/a	n/a	301.43	n/a
262.198	0.497	happy	Picture	88.838	n/a	3	7	5	n/a	5	104	3	n/a	n/a	n/a	n/a	301.96	BM05ANS.jpg
262.695	0.514	Blank	Blank	88.324	n/a	3	7	5	n/a	5	n/a	3	n/a	n/a	n/a	n/a	302.458	n/a
263.226	0.497	happy	Picture	87.81	n/a	3	7	6	n/a	6	101	3	n/a	n/a	n/a	n/a	302.988	AM01ANS.jpg
263.723	0.514	Blank	Blank	87.296	n/a	3	7	6	n/a	6	n/a	3	n/a	n/a	n/a	n/a	303.486	n/a
264.254	0.497	happy	Picture	86.782	n/a	3	7	7	n/a	7	103	3	n/a	n/a	n/a	n/a	304.016	AM04ANS.jpg
264.751	0.514	Blank	Blank	86.269	n/a	3	7	7	n/a	7	n/a	3	n/a	n/a	n/a	n/a	304.514	n/a
265.282	0.497	happy	Picture	85.755	n/a	3	7	8	n/a	8	111	3	n/a	n/a	n/a	n/a	305.044	BM12ANS.jpg
265.779	0.514	Blank	Blank	85.241	n/a	3	7	8	n/a	8	n/a	3	n/a	n/a	n/a	n/a	305.541	n/a
266.31	0.497	happy	Picture	84.727	n/a	3	7	9	n/a	9	110	3	n/a	n/a	n/a	n/a	306.072	AM11ANS.jpg
266.807	0.514	Blank	Blank	84.213	n/a	3	7	9	n/a	9	n/a	3	n/a	n/a	n/a	n/a	306.569	n/a
267.338	0.497	happy	Picture	83.699	n/a	3	7	10	n/a	10	85	3	n/a	n/a	n/a	n/a	307.1	BF07ANS.jpg
267.835	0.514	Blank	Blank	83.185	n/a	3	7	10	n/a	10	n/a	3	n/a	n/a	n/a	n/a	307.597	n/a
268.365	0.497	happy	Picture	82.671	n/a	3	7	11	n/a	11	87	3	n/a	n/a	n/a	n/a	308.128	BF11ANS.jpg
268.863	0.514	Blank	Blank	82.157	n/a	3	7	11	n/a	11	n/a	3	n/a	n/a	n/a	n/a	308.625	n/a
269.393	0.497	happy	Picture	81.643	n/a	3	7	12	n/a	12	91	3	n/a	n/a	n/a	n/a	309.156	AF20ANS.jpg
269.891	0.514	Blank	Blank	81.129	n/a	3	7	12	n/a	12	n/a	3	n/a	n/a	n/a	n/a	309.653	n/a
270.421	0.497	happy	Picture	80.615	n/a	3	7	13	n/a	13	115	3	n/a	n/a	n/a	n/a	310.183	AM23ANS.jpg
270.919	0.514	Blank	Blank	80.101	n/a	3	7	13	n/a	13	n/a	3	n/a	n/a	n/a	n/a	310.681	n/a
271.449	0.497	happy	Picture	79.587	n/a	3	7	14	n/a	14	97	3	n/a	n/a	n/a	n/a	311.211	BF28ANS.jpg
271.947	0.514	Blank	Blank	79.073	n/a	3	7	14	n/a	14	n/a	3	n/a	n/a	n/a	n/a	311.709	n/a
272.477	0.497	happy	Picture	78.559	n/a	3	7	15	n/a	15	82	3	n/a	n/a	n/a	n/a	312.239	AF03ANS.jpg
272.974	0.514	Blank	Blank	78.045	n/a	3	7	15	n/a	15	n/a	3	n/a	n/a	n/a	n/a	312.737	n/a
273.505	0.497	happy	Picture	77.531	n/a	3	7	16	n/a	16	96	3	n/a	n/a	n/a	n/a	313.267	AF26ANS.jpg
274.002	0.514	Blank	Blank	77.018	n/a	3	7	16	n/a	16	n/a	3	n/a	n/a	n/a	n/a	313.764	n/a
274.533	0.497	happy	Picture	76.504	n/a	3	7	17	n/a	17	109	3	n/a	n/a	n/a	n/a	314.295	AM10ANS.jpg
275.03	0.514	Blank	Blank	75.99	n/a	3	7	17	n/a	17	n/a	3	n/a	n/a	n/a	n/a	314.792	n/a
275.561	0.497	happy	Picture	75.476	n/a	3	7	18	n/a	18	114	3	n/a	n/a	n/a	n/a	315.323	AM22ANS.jpg
276.058	0.514	Blank	Blank	74.962	n/a	3	7	18	n/a	18	n/a	3	n/a	n/a	n/a	n/a	315.82	n/a
276.589	0.497	happy	Picture	74.448	n/a	3	7	19	n/a	19	120	3	n/a	n/a	n/a	n/a	316.351	AM35ANS.jpg
277.086	0.514	Blank	Blank	73.934	n/a	3	7	19	n/a	19	n/a	3	n/a	n/a	n/a	n/a	316.848	n/a
277.616	0.497	happy	Picture	73.42	n/a	3	7	20	n/a	20	81	3	n/a	n/a	n/a	n/a	317.379	AF01ANS.jpg
278.114	0.514	Blank	Blank	72.906	n/a	3	7	20	n/a	20	n/a	3	n/a	n/a	n/a	n/a	317.876	n/a
278.644	10.014	ITI	Fixation+	62.876	n/a	3	n/a	n/a	n/a	n/a	n/a	n/a	n/a	n/a	n/a	n/a	318.406	n/a
288.674	0.497	neutral	Picture	62.362	n/a	3	8	1	n/a	21	28	1	n/a	n/a	n/a	n/a	328.437	AM09NES.jpg
289.172	0.514	Blank	Blank	61.848	n/a	3	8	1	n/a	21	n/a	1	n/a	n/a	n/a	n/a	328.934	n/a
289.702	0.497	neutral	Picture	61.334	n/a	3	8	2	n/a	22	27	1	n/a	n/a	n/a	n/a	329.464	BM08NES.jpg
290.2	0.514	Blank	Blank	60.82	n/a	3	8	2	n/a	22	n/a	1	n/a	n/a	n/a	n/a	329.962	n/a
290.73	0.497	neutral	Picture	60.306	n/a	3	8	3	n/a	23	16	1	n/a	n/a	n/a	n/a	330.492	AF26NES.jpg
291.228	0.514	Blank	Blank	59.792	n/a	3	8	3	n/a	23	n/a	1	n/a	n/a	n/a	n/a	330.99	n/a
291.758	0.497	neutral	Picture	59.278	n/a	3	8	4	n/a	24	3	1	n/a	n/a	n/a	n/a	331.52	BF04NES.jpg
292.255	0.514	Blank	Blank	58.764	n/a	3	8	4	n/a	24	n/a	1	n/a	n/a	n/a	n/a	332.018	n/a
292.786	0.497	neutral	Picture	58.25	n/a	3	8	5	n/a	25	32	1	n/a	n/a	n/a	n/a	332.548	AM14NES.jpg
293.283	0.514	Blank	Blank	57.736	n/a	3	8	5	n/a	25	n/a	1	n/a	n/a	n/a	n/a	333.046	n/a
293.814	0.497	neutral	Picture	57.223	n/a	3	8	6	n/a	26	37	1	n/a	n/a	n/a	n/a	333.576	BM25NES.jpg
294.311	0.514	Blank	Blank	56.709	n/a	3	8	6	n/a	26	n/a	1	n/a	n/a	n/a	n/a	334.073	n/a
294.842	0.497	neutral	Picture	56.195	n/a	3	8	7	n/a	27	15	1	n/a	n/a	n/a	n/a	334.604	AF25NES.jpg
295.339	0.514	Blank	Blank	55.681	n/a	3	8	7	n/a	27	n/a	1	n/a	n/a	n/a	n/a	335.101	n/a
295.87	0.497	neutral	Picture	55.167	n/a	3	8	8	n/a	28	23	1	n/a	n/a	n/a	n/a	335.632	AM04NES.jpg
296.367	0.514	Blank	Blank	54.653	n/a	3	8	8	n/a	28	n/a	1	n/a	n/a	n/a	n/a	336.129	n/a
296.897	0.497	neutral	Picture	54.139	n/a	3	8	9	n/a	29	34	1	n/a	n/a	n/a	n/a	336.66	AM22NES.jpg
297.395	0.514	Blank	Blank	53.625	n/a	3	8	9	n/a	29	n/a	1	n/a	n/a	n/a	n/a	337.157	n/a
297.925	0.497	neutral	Picture	53.111	n/a	3	8	10	n/a	30	24	1	n/a	n/a	n/a	n/a	337.688	BM05NES.jpg
298.423	0.514	Blank	Blank	52.597	n/a	3	8	10	n/a	30	n/a	1	n/a	n/a	n/a	n/a	338.185	n/a
298.953	0.497	neutral	Picture	52.083	n/a	3	8	11	n/a	31	12	1	n/a	n/a	n/a	n/a	338.716	AF21NES.jpg
299.451	0.514	Blank	Blank	51.569	n/a	3	8	11	n/a	31	n/a	1	n/a	n/a	n/a	n/a	339.213	n/a
299.981	0.497	neutral	Picture	51.055	n/a	3	8	12	n/a	32	6	1	n/a	n/a	n/a	n/a	339.743	AF09NES.jpg
300.479	0.514	Blank	Blank	50.541	n/a	3	8	12	n/a	32	n/a	1	n/a	n/a	n/a	n/a	340.241	n/a
301.009	0.497	neutral	Picture	50.027	n/a	3	8	13	n/a	33	17	1	n/a	n/a	n/a	n/a	340.771	BF28NES.jpg
301.506	0.514	Blank	Blank	49.513	n/a	3	8	13	n/a	33	n/a	1	n/a	n/a	n/a	n/a	341.269	n/a
302.037	0.497	neutral	Picture	48.999	n/a	3	8	14	n/a	34	2	1	n/a	n/a	n/a	n/a	341.799	AF03NES.jpg
302.534	0.514	Blank	Blank	48.485	n/a	3	8	14	n/a	34	n/a	1	n/a	n/a	n/a	n/a	342.296	n/a
303.065	0.497	neutral	Picture	47.971	n/a	3	8	15	n/a	35	9	1	n/a	n/a	n/a	n/a	342.827	AF17NES.jpg
303.562	0.514	Blank	Blank	47.458	n/a	3	8	15	n/a	35	n/a	1	n/a	n/a	n/a	n/a	343.324	n/a
304.093	0.497	neutral	Picture	46.944	n/a	3	8	16	n/a	36	25	1	n/a	n/a	n/a	n/a	343.855	BM06NES.jpg
304.59	0.514	Blank	Blank	46.43	n/a	3	8	16	n/a	36	n/a	1	n/a	n/a	n/a	n/a	344.352	n/a
305.121	0.497	neutral	Picture	45.916	n/a	3	8	17	n/a	37	8	1	n/a	n/a	n/a	n/a	344.883	AF14NES.jpg
305.618	0.514	Blank	Blank	45.402	n/a	3	8	17	n/a	37	n/a	1	n/a	n/a	n/a	n/a	345.38	n/a
306.149	0.497	neutral	Picture	44.888	n/a	3	8	18	n/a	38	19	1	n/a	n/a	n/a	n/a	345.911	AF31NES.jpg
306.646	0.514	Blank	Blank	44.374	n/a	3	8	18	n/a	38	n/a	1	n/a	n/a	n/a	n/a	346.408	n/a
307.176	0.497	neutral	Picture	43.86	n/a	3	8	19	n/a	39	14	1	n/a	n/a	n/a	n/a	346.939	AF23NES.jpg
307.674	0.514	Blank	Blank	43.346	n/a	3	8	19	n/a	39	n/a	1	n/a	n/a	n/a	n/a	347.436	n/a
308.204	0.497	neutral	Picture	42.832	n/a	3	8	20	n/a	40	4	1	n/a	n/a	n/a	n/a	347.966	AF05NES.jpg
308.702	0.514	Blank	Blank	42.318	n/a	3	8	20	n/a	40	n/a	1	n/a	n/a	n/a	n/a	348.464	n/a
309.232	10.014	ITI	Fixation+	32.288	n/a	3	n/a	n/a	n/a	n/a	n/a	n/a	n/a	n/a	n/a	n/a	348.994	n/a
319.262	0.497	happy	Picture	31.774	n/a	3	9	1	n/a	41	84	3	n/a	n/a	n/a	n/a	359.024	AF05ANS.jpg
319.76	0.514	Blank	Blank	31.26	n/a	3	9	1	n/a	41	n/a	3	n/a	n/a	n/a	n/a	359.522	n/a
320.29	0.497	happy	Picture	30.746	n/a	3	9	2	n/a	42	92	3	n/a	n/a	n/a	n/a	360.052	AF21ANS.jpg
320.787	0.514	Blank	Blank	30.232	n/a	3	9	2	n/a	42	n/a	3	n/a	n/a	n/a	n/a	360.55	n/a
321.318	0.497	happy	Picture	29.718	n/a	3	9	3	n/a	43	86	3	n/a	n/a	n/a	n/a	361.08	AF09ANS.jpg
321.815	0.514	Blank	Blank	29.204	n/a	3	9	3	n/a	43	n/a	3	n/a	n/a	n/a	n/a	361.578	n/a
322.346	0.497	happy	Picture	28.69	n/a	3	9	4	n/a	44	93	3	n/a	n/a	n/a	n/a	362.108	BF22ANS.jpg
322.843	0.514	Blank	Blank	28.176	n/a	3	9	4	n/a	44	n/a	3	n/a	n/a	n/a	n/a	362.606	n/a
323.374	0.497	happy	Picture	27.662	n/a	3	9	5	n/a	45	88	3	n/a	n/a	n/a	n/a	363.136	AF14ANS.jpg
323.871	0.514	Blank	Blank	27.149	n/a	3	9	5	n/a	45	n/a	3	n/a	n/a	n/a	n/a	363.633	n/a
324.402	0.497	happy	Picture	26.635	n/a	3	9	6	n/a	46	113	3	n/a	n/a	n/a	n/a	364.164	AM21ANS.jpg
324.899	0.514	Blank	Blank	26.121	n/a	3	9	6	n/a	46	n/a	3	n/a	n/a	n/a	n/a	364.661	n/a
325.43	0.497	happy	Picture	25.607	n/a	3	9	7	n/a	47	95	3	n/a	n/a	n/a	n/a	365.192	AF25ANS.jpg
325.927	0.514	Blank	Blank	25.093	n/a	3	9	7	n/a	47	n/a	3	n/a	n/a	n/a	n/a	365.689	n/a
326.457	0.497	happy	Picture	24.579	n/a	3	9	8	n/a	48	102	3	n/a	n/a	n/a	n/a	366.22	BM03ANS.jpg
326.955	0.514	Blank	Blank	24.065	n/a	3	9	8	n/a	48	n/a	3	n/a	n/a	n/a	n/a	366.717	n/a
327.485	0.497	happy	Picture	23.551	n/a	3	9	9	n/a	49	112	3	n/a	n/a	n/a	n/a	367.248	AM14ANS.jpg
327.983	0.514	Blank	Blank	23.037	n/a	3	9	9	n/a	49	n/a	3	n/a	n/a	n/a	n/a	367.745	n/a
328.513	0.497	happy	Picture	22.523	n/a	3	9	10	n/a	50	83	3	n/a	n/a	n/a	n/a	368.276	BF04ANS.jpg
329.011	0.514	Blank	Blank	22.009	n/a	3	9	10	n/a	50	n/a	3	n/a	n/a	n/a	n/a	368.773	n/a
329.541	0.497	happy	Picture	21.495	n/a	3	9	11	n/a	51	90	3	n/a	n/a	n/a	n/a	369.303	AF18ANS.jpg
330.038	0.514	Blank	Blank	20.981	n/a	3	9	11	n/a	51	n/a	3	n/a	n/a	n/a	n/a	369.801	n/a
330.569	0.497	happy	Picture	20.467	n/a	3	9	12	n/a	52	117	3	n/a	n/a	n/a	n/a	370.331	BM25ANS.jpg
331.066	0.514	Blank	Blank	19.953	n/a	3	9	12	n/a	52	n/a	3	n/a	n/a	n/a	n/a	370.829	n/a
331.597	0.497	happy	Picture	19.439	n/a	3	9	13	n/a	53	94	3	n/a	n/a	n/a	n/a	371.359	AF23ANS.jpg
332.094	0.514	Blank	Blank	18.926	n/a	3	9	13	n/a	53	n/a	3	n/a	n/a	n/a	n/a	371.856	n/a
332.625	0.497	happy	Picture	18.412	n/a	3	9	14	n/a	54	106	3	n/a	n/a	n/a	n/a	372.387	AM07ANS.jpg
333.122	0.514	Blank	Blank	17.898	n/a	3	9	14	n/a	54	n/a	3	n/a	n/a	n/a	n/a	372.884	n/a
333.653	0.497	happy	Picture	17.384	n/a	3	9	15	n/a	55	105	3	n/a	n/a	n/a	n/a	373.415	BM06ANS.jpg
334.15	0.514	Blank	Blank	16.87	n/a	3	9	15	n/a	55	n/a	3	n/a	n/a	n/a	n/a	373.912	n/a
334.68	0.497	happy	Picture	16.356	n/a	3	9	16	n/a	56	116	3	n/a	n/a	n/a	n/a	374.443	BM24ANS.jpg
335.178	0.514	Blank	Blank	15.842	n/a	3	9	16	n/a	56	n/a	3	n/a	n/a	n/a	n/a	374.94	n/a
335.708	0.497	happy	Picture	15.328	n/a	3	9	17	n/a	57	89	3	n/a	n/a	n/a	n/a	375.471	AF17ANS.jpg
336.206	0.514	Blank	Blank	14.814	n/a	3	9	17	n/a	57	n/a	3	n/a	n/a	n/a	n/a	375.968	n/a
336.736	0.497	happy	Picture	14.3	n/a	3	9	18	n/a	58	118	3	n/a	n/a	n/a	n/a	376.498	BM26ANS.jpg
337.234	0.514	Blank	Blank	13.786	n/a	3	9	18	n/a	58	n/a	3	n/a	n/a	n/a	n/a	376.996	n/a
337.764	0.497	happy	Picture	13.272	n/a	3	9	19	n/a	59	100	3	n/a	n/a	n/a	n/a	377.526	AF32ANS.jpg
338.262	0.514	Blank	Blank	12.758	n/a	3	9	19	n/a	59	n/a	3	n/a	n/a	n/a	n/a	378.024	n/a
338.792	0.497	happy	Picture	12.244	n/a	3	9	20	n/a	60	119	3	n/a	n/a	n/a	n/a	378.554	BM28ANS.jpg
339.289	0.514	Blank	Blank	11.73	n/a	3	9	20	n/a	60	n/a	3	n/a	n/a	n/a	n/a	379.052	n/a
339.82	10.014	ITI	Fixation+	1.7	n/a	3	n/a	n/a	n/a	n/a	n/a	n/a	n/a	n/a	n/a	n/a	379.582	n/a
351.534	n/a	ConfirmRating	Rate	n/a	1.691	3	n/a	n/a	0	n/a	n/a	n/a	2	Happy	61	51	391.296	n/a
355.272	n/a	ConfirmRating	Rate	n/a	3.73	3	n/a	n/a	1	n/a	n/a	n/a	3	Happy	5	47	395.034	n/a
355.305	10.014	ITI	Fixation+	93.608	n/a	4	n/a	n/a	n/a	n/a	n/a	n/a	n/a	n/a	n/a	n/a	395.067	n/a
365.335	0.497	angry	Picture	93.094	n/a	4	10	1	n/a	61	79	2	n/a	n/a	n/a	n/a	405.097	BM28HAS.jpg
365.832	0.514	Blank	Blank	92.58	n/a	4	10	1	n/a	61	n/a	2	n/a	n/a	n/a	n/a	405.594	n/a
366.363	0.497	angry	Picture	92.066	n/a	4	10	2	n/a	62	61	2	n/a	n/a	n/a	n/a	406.125	AM01HAS.jpg
366.86	0.514	Blank	Blank	91.552	n/a	4	10	2	n/a	62	n/a	2	n/a	n/a	n/a	n/a	406.622	n/a
367.39	0.497	angry	Picture	91.038	n/a	4	10	3	n/a	63	57	2	n/a	n/a	n/a	n/a	407.153	BF28HAS.jpg
367.888	0.514	Blank	Blank	90.524	n/a	4	10	3	n/a	63	n/a	2	n/a	n/a	n/a	n/a	407.65	n/a
368.418	0.497	angry	Picture	90.01	n/a	4	10	4	n/a	64	77	2	n/a	n/a	n/a	n/a	408.18	BM25HAS.jpg
368.916	0.514	Blank	Blank	89.496	n/a	4	10	4	n/a	64	n/a	2	n/a	n/a	n/a	n/a	408.678	n/a
369.446	0.497	angry	Picture	88.983	n/a	4	10	5	n/a	65	47	2	n/a	n/a	n/a	n/a	409.208	BF11HAS.jpg
369.944	0.514	Blank	Blank	88.469	n/a	4	10	5	n/a	65	n/a	2	n/a	n/a	n/a	n/a	409.706	n/a
370.474	0.497	angry	Picture	87.955	n/a	4	10	6	n/a	66	50	2	n/a	n/a	n/a	n/a	410.236	AF18HAS.jpg
370.971	0.514	Blank	Blank	87.441	n/a	4	10	6	n/a	66	n/a	2	n/a	n/a	n/a	n/a	410.734	n/a
371.502	0.497	angry	Picture	86.927	n/a	4	10	7	n/a	67	78	2	n/a	n/a	n/a	n/a	411.264	BM26HAS.jpg
371.999	0.514	Blank	Blank	86.413	n/a	4	10	7	n/a	67	n/a	2	n/a	n/a	n/a	n/a	411.762	n/a
372.53	0.497	angry	Picture	85.899	n/a	4	10	8	n/a	68	45	2	n/a	n/a	n/a	n/a	412.292	BF07HAS.jpg
373.027	0.514	Blank	Blank	85.385	n/a	4	10	8	n/a	68	n/a	2	n/a	n/a	n/a	n/a	412.789	n/a
373.558	0.497	angry	Picture	84.871	n/a	4	10	9	n/a	69	56	2	n/a	n/a	n/a	n/a	413.32	AF26HAS.jpg
374.055	0.514	Blank	Blank	84.357	n/a	4	10	9	n/a	69	n/a	2	n/a	n/a	n/a	n/a	413.817	n/a
374.586	0.497	angry	Picture	83.843	n/a	4	10	10	n/a	70	65	2	n/a	n/a	n/a	n/a	414.348	BM06HAS.jpg
375.083	0.514	Blank	Blank	83.329	n/a	4	10	10	n/a	70	n/a	2	n/a	n/a	n/a	n/a	414.845	n/a
375.613	0.497	angry	Picture	82.815	n/a	4	10	11	n/a	71	73	2	n/a	n/a	n/a	n/a	415.376	AM21HAS.jpg
376.111	0.514	Blank	Blank	82.301	n/a	4	10	11	n/a	71	n/a	2	n/a	n/a	n/a	n/a	415.873	n/a
376.641	0.497	angry	Picture	81.787	n/a	4	10	12	n/a	72	41	2	n/a	n/a	n/a	n/a	416.404	AF01HAS.jpg
377.139	0.514	Blank	Blank	81.273	n/a	4	10	12	n/a	72	n/a	2	n/a	n/a	n/a	n/a	416.901	n/a
377.669	0.497	angry	Picture	80.759	n/a	4	10	13	n/a	73	59	2	n/a	n/a	n/a	n/a	417.432	AF31HAS.jpg
378.167	0.514	Blank	Blank	80.246	n/a	4	10	13	n/a	73	n/a	2	n/a	n/a	n/a	n/a	417.929	n/a
378.697	0.497	angry	Picture	79.732	n/a	4	10	14	n/a	74	64	2	n/a	n/a	n/a	n/a	418.459	BM05HAS.jpg
379.195	0.514	Blank	Blank	79.218	n/a	4	10	14	n/a	74	n/a	2	n/a	n/a	n/a	n/a	418.957	n/a
379.725	0.497	angry	Picture	78.704	n/a	4	10	15	n/a	75	68	2	n/a	n/a	n/a	n/a	419.487	AM09HAS.jpg
380.222	0.514	Blank	Blank	78.19	n/a	4	10	15	n/a	75	n/a	2	n/a	n/a	n/a	n/a	419.985	n/a
380.753	0.497	angry	Picture	77.676	n/a	4	10	16	n/a	76	54	2	n/a	n/a	n/a	n/a	420.515	AF23HAS.jpg
381.25	0.514	Blank	Blank	77.162	n/a	4	10	16	n/a	76	n/a	2	n/a	n/a	n/a	n/a	421.012	n/a
381.781	0.497	angry	Picture	76.648	n/a	4	10	17	n/a	77	53	2	n/a	n/a	n/a	n/a	421.543	BF22HAS.jpg
382.278	0.514	Blank	Blank	76.134	n/a	4	10	17	n/a	77	n/a	2	n/a	n/a	n/a	n/a	422.04	n/a
382.809	0.497	angry	Picture	75.62	n/a	4	10	18	n/a	78	44	2	n/a	n/a	n/a	n/a	422.571	AF05HAS.jpg
383.306	0.514	Blank	Blank	75.106	n/a	4	10	18	n/a	78	n/a	2	n/a	n/a	n/a	n/a	423.068	n/a
383.837	0.497	angry	Picture	74.592	n/a	4	10	19	n/a	79	52	2	n/a	n/a	n/a	n/a	423.599	AF21HAS.jpg
384.334	0.514	Blank	Blank	74.078	n/a	4	10	19	n/a	79	n/a	2	n/a	n/a	n/a	n/a	424.096	n/a
384.865	0.497	angry	Picture	73.564	n/a	4	10	20	n/a	80	62	2	n/a	n/a	n/a	n/a	424.627	BM03HAS.jpg
385.362	0.514	Blank	Blank	73.05	n/a	4	10	20	n/a	80	n/a	2	n/a	n/a	n/a	n/a	425.124	n/a
385.892	10.014	ITI	Fixation+	63.02	n/a	4	n/a	n/a	n/a	n/a	n/a	n/a	n/a	n/a	n/a	n/a	425.655	n/a
395.923	0.497	neutral	Picture	62.506	n/a	4	11	1	n/a	81	23	1	n/a	n/a	n/a	n/a	435.685	AM04NES.jpg
396.42	0.514	Blank	Blank	61.992	n/a	4	11	1	n/a	81	n/a	1	n/a	n/a	n/a	n/a	436.182	n/a
396.95	0.497	neutral	Picture	61.478	n/a	4	11	2	n/a	82	29	1	n/a	n/a	n/a	n/a	436.713	AM10NES.jpg
397.448	0.514	Blank	Blank	60.964	n/a	4	11	2	n/a	82	n/a	1	n/a	n/a	n/a	n/a	437.21	n/a
397.978	0.497	neutral	Picture	60.45	n/a	4	11	3	n/a	83	24	1	n/a	n/a	n/a	n/a	437.74	BM05NES.jpg
398.476	0.514	Blank	Blank	59.937	n/a	4	11	3	n/a	83	n/a	1	n/a	n/a	n/a	n/a	438.238	n/a
399.006	0.497	neutral	Picture	59.423	n/a	4	11	4	n/a	84	12	1	n/a	n/a	n/a	n/a	438.768	AF21NES.jpg
399.503	0.514	Blank	Blank	58.909	n/a	4	11	4	n/a	84	n/a	1	n/a	n/a	n/a	n/a	439.266	n/a
400.034	0.497	neutral	Picture	58.395	n/a	4	11	5	n/a	85	13	1	n/a	n/a	n/a	n/a	439.796	BF22NES.jpg
400.531	0.514	Blank	Blank	57.881	n/a	4	11	5	n/a	85	n/a	1	n/a	n/a	n/a	n/a	440.294	n/a
401.062	0.497	neutral	Picture	57.367	n/a	4	11	6	n/a	86	17	1	n/a	n/a	n/a	n/a	440.824	BF28NES.jpg
401.559	0.514	Blank	Blank	56.853	n/a	4	11	6	n/a	86	n/a	1	n/a	n/a	n/a	n/a	441.322	n/a
402.09	0.497	neutral	Picture	56.339	n/a	4	11	7	n/a	87	4	1	n/a	n/a	n/a	n/a	441.852	AF05NES.jpg
402.587	0.514	Blank	Blank	55.825	n/a	4	11	7	n/a	87	n/a	1	n/a	n/a	n/a	n/a	442.349	n/a
403.118	0.497	neutral	Picture	55.311	n/a	4	11	8	n/a	88	11	1	n/a	n/a	n/a	n/a	442.88	AF20NES.jpg
403.615	0.514	Blank	Blank	54.797	n/a	4	11	8	n/a	88	n/a	1	n/a	n/a	n/a	n/a	443.377	n/a
404.146	0.497	neutral	Picture	54.283	n/a	4	11	9	n/a	89	22	1	n/a	n/a	n/a	n/a	443.908	BM03NES.jpg
404.643	0.514	Blank	Blank	53.769	n/a	4	11	9	n/a	89	n/a	1	n/a	n/a	n/a	n/a	444.405	n/a
405.173	0.497	neutral	Picture	53.255	n/a	4	11	10	n/a	90	15	1	n/a	n/a	n/a	n/a	444.936	AF25NES.jpg
405.671	0.514	Blank	Blank	52.741	n/a	4	11	10	n/a	90	n/a	1	n/a	n/a	n/a	n/a	445.433	n/a
406.201	0.497	neutral	Picture	52.227	n/a	4	11	11	n/a	91	19	1	n/a	n/a	n/a	n/a	445.964	AF31NES.jpg
406.699	0.514	Blank	Blank	51.713	n/a	4	11	11	n/a	91	n/a	1	n/a	n/a	n/a	n/a	446.461	n/a
407.229	0.497	neutral	Picture	51.2	n/a	4	11	12	n/a	92	9	1	n/a	n/a	n/a	n/a	446.991	AF17NES.jpg
407.727	0.514	Blank	Blank	50.686	n/a	4	11	12	n/a	92	n/a	1	n/a	n/a	n/a	n/a	447.489	n/a
408.257	0.497	neutral	Picture	50.172	n/a	4	11	13	n/a	93	14	1	n/a	n/a	n/a	n/a	448.019	AF23NES.jpg
408.755	0.514	Blank	Blank	49.658	n/a	4	11	13	n/a	93	n/a	1	n/a	n/a	n/a	n/a	448.517	n/a
409.285	0.497	neutral	Picture	49.144	n/a	4	11	14	n/a	94	36	1	n/a	n/a	n/a	n/a	449.047	BM24NES.jpg
409.782	0.514	Blank	Blank	48.63	n/a	4	11	14	n/a	94	n/a	1	n/a	n/a	n/a	n/a	449.545	n/a
410.313	0.497	neutral	Picture	48.116	n/a	4	11	15	n/a	95	34	1	n/a	n/a	n/a	n/a	450.075	AM22NES.jpg
410.81	0.514	Blank	Blank	47.602	n/a	4	11	15	n/a	95	n/a	1	n/a	n/a	n/a	n/a	450.572	n/a
411.341	0.497	neutral	Picture	47.088	n/a	4	11	16	n/a	96	10	1	n/a	n/a	n/a	n/a	451.103	AF18NES.jpg
411.838	0.514	Blank	Blank	46.574	n/a	4	11	16	n/a	96	n/a	1	n/a	n/a	n/a	n/a	451.6	n/a
412.369	0.497	neutral	Picture	46.06	n/a	4	11	17	n/a	97	5	1	n/a	n/a	n/a	n/a	452.131	BF07NES.jpg
412.866	0.514	Blank	Blank	45.546	n/a	4	11	17	n/a	97	n/a	1	n/a	n/a	n/a	n/a	452.628	n/a
413.397	0.497	neutral	Picture	45.032	n/a	4	11	18	n/a	98	25	1	n/a	n/a	n/a	n/a	453.159	BM06NES.jpg
413.894	0.514	Blank	Blank	44.518	n/a	4	11	18	n/a	98	n/a	1	n/a	n/a	n/a	n/a	453.656	n/a
414.424	0.497	neutral	Picture	44.004	n/a	4	11	19	n/a	99	39	1	n/a	n/a	n/a	n/a	454.187	AM28NES.jpg
414.922	0.514	Blank	Blank	43.49	n/a	4	11	19	n/a	99	n/a	1	n/a	n/a	n/a	n/a	454.684	n/a
415.452	0.497	neutral	Picture	42.976	n/a	4	11	20	n/a	100	33	1	n/a	n/a	n/a	n/a	455.214	AM21NES.jpg
415.95	0.514	Blank	Blank	42.463	n/a	4	11	20	n/a	100	n/a	1	n/a	n/a	n/a	n/a	455.712	n/a
416.48	10.014	ITI	Fixation+	32.432	n/a	4	n/a	n/a	n/a	n/a	n/a	n/a	n/a	n/a	n/a	n/a	456.242	n/a
426.51	0.497	angry	Picture	31.918	n/a	4	12	1	n/a	101	74	2	n/a	n/a	n/a	n/a	466.273	AM22HAS.jpg
427.008	0.514	Blank	Blank	31.404	n/a	4	12	1	n/a	101	n/a	2	n/a	n/a	n/a	n/a	466.77	n/a
427.538	0.497	angry	Picture	30.89	n/a	4	12	2	n/a	102	76	2	n/a	n/a	n/a	n/a	467.3	BM24HAS.jpg
428.036	0.514	Blank	Blank	30.377	n/a	4	12	2	n/a	102	n/a	2	n/a	n/a	n/a	n/a	467.798	n/a
428.566	0.497	angry	Picture	29.863	n/a	4	12	3	n/a	103	80	2	n/a	n/a	n/a	n/a	468.328	BM35HAS.jpg
429.063	0.514	Blank	Blank	29.349	n/a	4	12	3	n/a	103	n/a	2	n/a	n/a	n/a	n/a	468.826	n/a
429.594	0.497	angry	Picture	28.835	n/a	4	12	4	n/a	104	75	2	n/a	n/a	n/a	n/a	469.356	AM23HAS.jpg
430.091	0.514	Blank	Blank	28.321	n/a	4	12	4	n/a	104	n/a	2	n/a	n/a	n/a	n/a	469.854	n/a
430.622	0.497	angry	Picture	27.807	n/a	4	12	5	n/a	105	49	2	n/a	n/a	n/a	n/a	470.384	AF17HAS.jpg
431.119	0.514	Blank	Blank	27.293	n/a	4	12	5	n/a	105	n/a	2	n/a	n/a	n/a	n/a	470.882	n/a
431.65	0.497	angry	Picture	26.779	n/a	4	12	6	n/a	106	43	2	n/a	n/a	n/a	n/a	471.412	BF04HAS.jpg
432.147	0.514	Blank	Blank	26.265	n/a	4	12	6	n/a	106	n/a	2	n/a	n/a	n/a	n/a	471.909	n/a
432.678	0.497	angry	Picture	25.751	n/a	4	12	7	n/a	107	70	2	n/a	n/a	n/a	n/a	472.44	BM11HAS.jpg
433.175	0.514	Blank	Blank	25.237	n/a	4	12	7	n/a	107	n/a	2	n/a	n/a	n/a	n/a	472.937	n/a
433.705	0.497	angry	Picture	24.723	n/a	4	12	8	n/a	108	66	2	n/a	n/a	n/a	n/a	473.468	BM07HAS.jpg
434.203	0.514	Blank	Blank	24.209	n/a	4	12	8	n/a	108	n/a	2	n/a	n/a	n/a	n/a	473.965	n/a
434.733	0.497	angry	Picture	23.695	n/a	4	12	9	n/a	109	48	2	n/a	n/a	n/a	n/a	474.496	AF14HAS.jpg
435.231	0.514	Blank	Blank	23.181	n/a	4	12	9	n/a	109	n/a	2	n/a	n/a	n/a	n/a	474.993	n/a
435.761	0.497	angry	Picture	22.667	n/a	4	12	10	n/a	110	58	2	n/a	n/a	n/a	n/a	475.524	BF29HAS.jpg
436.259	0.514	Blank	Blank	22.154	n/a	4	12	10	n/a	110	n/a	2	n/a	n/a	n/a	n/a	476.021	n/a
436.789	0.497	angry	Picture	21.639	n/a	4	12	11	n/a	111	63	2	n/a	n/a	n/a	n/a	476.551	AM04HAS.jpg
437.287	0.514	Blank	Blank	21.126	n/a	4	12	11	n/a	111	n/a	2	n/a	n/a	n/a	n/a	477.049	n/a
437.817	0.497	angry	Picture	20.612	n/a	4	12	12	n/a	112	72	2	n/a	n/a	n/a	n/a	477.579	AM14HAS.jpg
438.314	0.514	Blank	Blank	20.098	n/a	4	12	12	n/a	112	n/a	2	n/a	n/a	n/a	n/a	478.077	n/a
438.845	0.497	angry	Picture	19.584	n/a	4	12	13	n/a	113	55	2	n/a	n/a	n/a	n/a	478.607	AF25HAS.jpg
439.342	0.514	Blank	Blank	19.07	n/a	4	12	13	n/a	113	n/a	2	n/a	n/a	n/a	n/a	479.104	n/a
439.873	0.497	angry	Picture	18.556	n/a	4	12	14	n/a	114	42	2	n/a	n/a	n/a	n/a	479.635	AF03HAS.jpg
440.37	0.514	Blank	Blank	18.042	n/a	4	12	14	n/a	114	n/a	2	n/a	n/a	n/a	n/a	480.132	n/a
440.901	0.497	angry	Picture	17.528	n/a	4	12	15	n/a	115	60	2	n/a	n/a	n/a	n/a	480.663	AF32HAS.jpg
441.398	0.514	Blank	Blank	17.014	n/a	4	12	15	n/a	115	n/a	2	n/a	n/a	n/a	n/a	481.16	n/a
441.929	0.497	angry	Picture	16.5	n/a	4	12	16	n/a	116	67	2	n/a	n/a	n/a	n/a	481.691	BM08HAS.jpg
442.426	0.514	Blank	Blank	15.986	n/a	4	12	16	n/a	116	n/a	2	n/a	n/a	n/a	n/a	482.188	n/a
442.957	0.497	angry	Picture	15.472	n/a	4	12	17	n/a	117	51	2	n/a	n/a	n/a	n/a	482.719	AF20HAS.jpg
443.454	0.514	Blank	Blank	14.958	n/a	4	12	17	n/a	117	n/a	2	n/a	n/a	n/a	n/a	483.216	n/a
443.984	0.497	angry	Picture	14.444	n/a	4	12	18	n/a	118	71	2	n/a	n/a	n/a	n/a	483.747	BM12HAS.jpg
444.482	0.514	Blank	Blank	13.93	n/a	4	12	18	n/a	118	n/a	2	n/a	n/a	n/a	n/a	484.244	n/a
445.012	0.497	angry	Picture	13.417	n/a	4	12	19	n/a	119	69	2	n/a	n/a	n/a	n/a	484.774	AM10HAS.jpg
445.51	0.514	Blank	Blank	12.903	n/a	4	12	19	n/a	119	n/a	2	n/a	n/a	n/a	n/a	485.272	n/a
446.04	0.497	angry	Picture	12.389	n/a	4	12	20	n/a	120	46	2	n/a	n/a	n/a	n/a	485.802	AF09HAS.jpg
446.537	0.514	Blank	Blank	11.875	n/a	4	12	20	n/a	120	n/a	2	n/a	n/a	n/a	n/a	486.3	n/a
447.068	10.014	ITI	Fixation+	1.845	n/a	4	n/a	n/a	n/a	n/a	n/a	n/a	n/a	n/a	n/a	n/a	486.83	n/a
458.926	n/a	ConfirmRating	Rate	n/a	1.84	4	n/a	n/a	0	n/a	n/a	n/a	2	Angry	22	49	498.688	n/a
465.626	n/a	ConfirmRating	Rate	n/a	6.681	4	n/a	n/a	1	n/a	n/a	n/a	3	Angry	25	48	505.388	n/a
