onset	duration	trial_type	event_type	trial_number	condition	picture_number	time_until_response	response_time	unpleasantness_rating	onset_uncorrected
0.003	5.322	ITI	Fixation+	0	No_Pain	n/a	8.112	n/a	n/a	26.703
5.341	3.498	Pic2	Picture	0	No_Pain	24	4.597	n/a	n/a	32.041
8.839	2.006	Blank	Blank	0	No_Pain	n/a	2.591	n/a	n/a	35.54
13.436	n/a	ConfirmRating	Rate	0	No_Pain	24	n/a	2.074	0	40.137
13.465	4.526	ITI	Fixation+	1	No_Pain	n/a	7.263	n/a	n/a	40.165
18.007	3.498	Pic2	Picture	1	No_Pain	25	3.749	n/a	n/a	44.708
21.505	2.006	Blank	Blank	1	No_Pain	n/a	1.742	n/a	n/a	48.206
25.254	n/a	ConfirmRating	Rate	1	No_Pain	25	n/a	1.226	0	51.954
25.285	5.736	ITI	Fixation+	2	Pain	n/a	7.672	n/a	n/a	51.986
31.038	3.498	Pic2	Picture	2	Pain	19	4.157	n/a	n/a	57.739
34.536	2.006	Blank	Blank	2	Pain	n/a	2.151	n/a	n/a	61.237
38.694	n/a	ConfirmRating	Rate	2	Pain	19	n/a	1.635	83	65.394
38.714	5.007	ITI	Fixation+	3	No_Pain	n/a	6.79	n/a	n/a	65.415
43.737	3.498	Pic2	Picture	3	No_Pain	37	3.275	n/a	n/a	70.438
47.236	2.006	Blank	Blank	3	No_Pain	n/a	1.269	n/a	n/a	73.936
50.511	n/a	ConfirmRating	Rate	3	No_Pain	37	n/a	0.753	0	77.211
50.535	6.002	ITI	Fixation+	4	Pain	n/a	7.969	n/a	n/a	77.235
56.553	3.498	Pic2	Picture	4	Pain	2	4.454	n/a	n/a	83.253
60.051	2.006	Blank	Blank	4	Pain	n/a	2.448	n/a	n/a	86.752
64.505	n/a	ConfirmRating	Rate	4	Pain	2	n/a	1.931	91	91.206
64.527	5.819	ITI	Fixation+	5	No_Pain	n/a	6.56	n/a	n/a	91.228
70.363	3.498	Pic2	Picture	5	No_Pain	26	3.045	n/a	n/a	97.064
73.861	2.006	Blank	Blank	5	No_Pain	n/a	1.039	n/a	n/a	100.562
76.906	n/a	ConfirmRating	Rate	5	No_Pain	26	n/a	0.522	0	103.607
76.928	4.112	ITI	Fixation+	6	Pain	n/a	6.849	n/a	n/a	103.629
81.056	3.498	Pic2	Picture	6	Pain	12	3.335	n/a	n/a	107.757
84.554	2.006	Blank	Blank	6	Pain	n/a	1.328	n/a	n/a	111.255
87.889	n/a	ConfirmRating	Rate	6	Pain	12	n/a	0.812	89	114.59
87.92	4.311	ITI	Fixation+	7	Pain	n/a	6.585	n/a	n/a	114.621
92.247	3.498	Pic2	Picture	7	Pain	3	3.071	n/a	n/a	118.948
95.745	2.006	Blank	Blank	7	Pain	n/a	1.064	n/a	n/a	122.446
98.816	n/a	ConfirmRating	Rate	7	Pain	3	n/a	0.548	100	125.516
98.846	4.393	ITI	Fixation+	8	No_Pain	n/a	7.578	n/a	n/a	125.546
103.255	3.498	Pic2	Picture	8	No_Pain	30	4.063	n/a	n/a	129.956
106.754	2.006	Blank	Blank	8	No_Pain	n/a	2.057	n/a	n/a	133.454
110.817	n/a	ConfirmRating	Rate	8	No_Pain	30	n/a	1.541	0	137.517
110.849	4.841	ITI	Fixation+	9	Pain	n/a	6.604	n/a	n/a	137.549
115.706	3.498	Pic2	Picture	9	Pain	4	3.089	n/a	n/a	142.407
119.204	2.006	Blank	Blank	9	Pain	n/a	1.083	n/a	n/a	145.905
122.293	n/a	ConfirmRating	Rate	9	Pain	4	n/a	0.567	100	148.994
122.321	5.554	ITI	Fixation+	10	No_Pain	n/a	7.625	n/a	n/a	149.022
127.892	3.498	Pic2	Picture	10	No_Pain	28	4.111	n/a	n/a	154.592
131.39	2.006	Blank	Blank	10	No_Pain	n/a	2.105	n/a	n/a	158.09
135.5	n/a	ConfirmRating	Rate	10	No_Pain	28	n/a	1.588	0	162.201
135.518	4.311	ITI	Fixation+	11	Pain	n/a	9.77	n/a	n/a	162.218
139.845	3.498	Pic2	Picture	11	Pain	13	6.255	n/a	n/a	166.545
143.343	2.006	Blank	Blank	11	Pain	n/a	4.249	n/a	n/a	170.043
149.598	n/a	ConfirmRating	Rate	11	Pain	13	n/a	3.732	86	176.299
149.626	5.587	ITI	Fixation+	12	No_Pain	n/a	8.255	n/a	n/a	176.327
155.23	3.498	Pic2	Picture	12	No_Pain	32	4.74	n/a	n/a	181.93
158.728	2.006	Blank	Blank	12	No_Pain	n/a	2.734	n/a	n/a	185.429
163.468	n/a	ConfirmRating	Rate	12	No_Pain	32	n/a	2.217	1	190.168
163.486	5.007	ITI	Fixation+	13	Pain	n/a	7.358	n/a	n/a	190.187
168.51	3.498	Pic2	Picture	13	Pain	5	3.843	n/a	n/a	195.21
172.008	2.006	Blank	Blank	13	Pain	n/a	1.837	n/a	n/a	198.708
175.851	n/a	ConfirmRating	Rate	13	Pain	5	n/a	1.321	97	202.551
175.871	5.322	ITI	Fixation+	14	No_Pain	n/a	7.299	n/a	n/a	202.571
181.209	3.498	Pic2	Picture	14	No_Pain	21	3.784	n/a	n/a	207.91
184.707	2.006	Blank	Blank	14	No_Pain	n/a	1.778	n/a	n/a	211.408
188.492	n/a	ConfirmRating	Rate	14	No_Pain	21	n/a	1.262	0	215.192
188.52	5.073	ITI	Fixation+	15	No_Pain	n/a	6.718	n/a	n/a	215.221
193.61	3.498	Pic2	Picture	15	No_Pain	38	3.203	n/a	n/a	220.31
197.108	2.006	Blank	Blank	15	No_Pain	n/a	1.197	n/a	n/a	223.809
200.311	n/a	ConfirmRating	Rate	15	No_Pain	38	n/a	0.68	1	227.012
200.341	4.609	ITI	Fixation+	16	Pain	n/a	8.107	n/a	n/a	227.041
204.966	3.498	Pic2	Picture	16	Pain	16	4.593	n/a	n/a	231.667
208.464	2.006	Blank	Blank	16	Pain	n/a	2.587	n/a	n/a	235.165
213.057	n/a	ConfirmRating	Rate	16	Pain	16	n/a	2.07	93	239.758
213.09	4.277	ITI	Fixation+	17	No_Pain	n/a	6.951	n/a	n/a	239.791
217.384	3.498	Pic2	Picture	17	No_Pain	22	3.436	n/a	n/a	244.084
220.882	2.006	Blank	Blank	17	No_Pain	n/a	1.43	n/a	n/a	247.583
224.318	n/a	ConfirmRating	Rate	17	No_Pain	22	n/a	0.913	1	251.018
224.347	4.874	ITI	Fixation+	18	Pain	n/a	6.324	n/a	n/a	251.048
229.238	3.498	Pic2	Picture	18	Pain	8	2.809	n/a	n/a	255.938
232.736	2.006	Blank	Blank	18	Pain	n/a	0.803	n/a	n/a	259.436
235.545	n/a	ConfirmRating	Rate	18	Pain	8	n/a	0.286	100	262.245
235.571	5.338	ITI	Fixation+	19	Pain	n/a	7.875	n/a	n/a	262.271
240.926	3.498	Pic2	Picture	19	Pain	1	4.361	n/a	n/a	267.626
244.424	2.006	Blank	Blank	19	Pain	n/a	2.355	n/a	n/a	271.124
248.785	n/a	ConfirmRating	Rate	19	Pain	1	n/a	1.838	90	275.485
248.817	15.004	Rest	n/a	19	n/a	n/a	-15.037	n/a	n/a	275.518
263.838	5.272	ITI	Fixation+	20	No_Pain	n/a	7.672	n/a	n/a	290.538
269.126	3.498	Pic2	Picture	20	No_Pain	23	4.158	n/a	n/a	295.827
272.625	2.006	Blank	Blank	20	No_Pain	n/a	2.152	n/a	n/a	299.325
276.782	n/a	ConfirmRating	Rate	20	No_Pain	23	n/a	1.635	0	303.483
276.802	5.769	ITI	Fixation+	21	Pain	n/a	6.805	n/a	n/a	303.503
282.588	3.498	Pic2	Picture	21	Pain	10	3.291	n/a	n/a	309.289
286.087	2.006	Blank	Blank	21	Pain	n/a	1.285	n/a	n/a	312.787
289.377	n/a	ConfirmRating	Rate	21	Pain	10	n/a	0.768	100	316.078
289.402	5.852	ITI	Fixation+	22	No_Pain	n/a	6.596	n/a	n/a	316.103
295.271	3.498	Pic2	Picture	22	No_Pain	36	3.082	n/a	n/a	321.972
298.769	2.006	Blank	Blank	22	No_Pain	n/a	1.076	n/a	n/a	325.47
301.851	n/a	ConfirmRating	Rate	22	No_Pain	36	n/a	0.559	0	328.551
301.87	5.289	ITI	Fixation+	23	Pain	n/a	8.115	n/a	n/a	328.57
307.175	3.498	Pic2	Picture	23	Pain	11	4.601	n/a	n/a	333.875
310.673	2.006	Blank	Blank	23	Pain	n/a	2.595	n/a	n/a	337.373
315.274	n/a	ConfirmRating	Rate	23	Pain	11	n/a	2.078	87	341.974
315.298	4.775	ITI	Fixation+	24	Pain	n/a	8.125	n/a	n/a	341.999
320.09	3.498	Pic2	Picture	24	Pain	17	4.611	n/a	n/a	346.79
323.588	2.006	Blank	Blank	24	Pain	n/a	2.605	n/a	n/a	350.288
328.199	n/a	ConfirmRating	Rate	24	Pain	17	n/a	2.089	88	354.899
328.23	5.156	ITI	Fixation+	25	No_Pain	n/a	6.758	n/a	n/a	354.93
333.402	3.498	Pic2	Picture	25	No_Pain	31	3.243	n/a	n/a	360.103
336.901	2.006	Blank	Blank	25	No_Pain	n/a	1.237	n/a	n/a	363.601
340.143	n/a	ConfirmRating	Rate	25	No_Pain	31	n/a	0.72	1	366.844
340.167	5.338	ITI	Fixation+	26	Pain	n/a	7.309	n/a	n/a	366.867
345.522	3.498	Pic2	Picture	26	Pain	18	3.794	n/a	n/a	372.222
349.02	2.006	Blank	Blank	26	Pain	n/a	1.788	n/a	n/a	375.72
352.814	n/a	ConfirmRating	Rate	26	Pain	18	n/a	1.272	90	379.515
352.833	4.095	ITI	Fixation+	27	No_Pain	n/a	7.688	n/a	n/a	379.533
356.944	3.498	Pic2	Picture	27	No_Pain	33	4.174	n/a	n/a	383.645
360.442	2.006	Blank	Blank	27	No_Pain	n/a	2.168	n/a	n/a	387.143
364.616	n/a	ConfirmRating	Rate	27	No_Pain	33	n/a	1.651	4	391.317
364.637	4.46	ITI	Fixation+	28	No_Pain	n/a	6.943	n/a	n/a	391.337
369.113	3.498	Pic2	Picture	28	No_Pain	40	3.428	n/a	n/a	395.814
372.611	2.006	Blank	Blank	28	No_Pain	n/a	1.423	n/a	n/a	399.312
376.04	n/a	ConfirmRating	Rate	28	No_Pain	40	n/a	0.906	0	402.74
376.06	5.123	ITI	Fixation+	29	Pain	n/a	9.174	n/a	n/a	402.76
381.199	3.498	Pic2	Picture	29	Pain	20	5.659	n/a	n/a	407.9
384.697	2.006	Blank	Blank	29	Pain	n/a	3.653	n/a	n/a	411.398
390.357	n/a	ConfirmRating	Rate	29	Pain	20	n/a	3.137	66	417.057
390.384	4.078	ITI	Fixation+	30	No_Pain	n/a	7.46	n/a	n/a	417.084
394.479	3.498	Pic2	Picture	30	No_Pain	27	3.946	n/a	n/a	421.179
397.977	2.006	Blank	Blank	30	No_Pain	n/a	1.94	n/a	n/a	424.677
401.923	n/a	ConfirmRating	Rate	30	No_Pain	27	n/a	1.423	0	428.623
401.939	4.476	ITI	Fixation+	31	Pain	n/a	6.955	n/a	n/a	428.64
406.432	3.498	Pic2	Picture	31	Pain	14	3.44	n/a	n/a	433.132
409.93	2.006	Blank	Blank	31	Pain	n/a	1.434	n/a	n/a	436.631
413.37	n/a	ConfirmRating	Rate	31	Pain	14	n/a	0.917	100	440.071
413.395	5.289	ITI	Fixation+	32	Pain	n/a	7.664	n/a	n/a	440.096
418.7	3.498	Pic2	Picture	32	Pain	9	4.15	n/a	n/a	445.401
422.199	2.006	Blank	Blank	32	Pain	n/a	2.144	n/a	n/a	448.899
426.348	n/a	ConfirmRating	Rate	32	Pain	9	n/a	1.627	100	453.049
426.376	5.67	ITI	Fixation+	33	No_Pain	n/a	8.125	n/a	n/a	453.077
432.063	3.498	Pic2	Picture	33	No_Pain	39	4.61	n/a	n/a	458.763
435.561	2.006	Blank	Blank	33	No_Pain	n/a	2.604	n/a	n/a	462.262
440.171	n/a	ConfirmRating	Rate	33	No_Pain	39	n/a	2.087	6	466.871
440.203	4.808	ITI	Fixation+	34	No_Pain	n/a	7.679	n/a	n/a	466.904
445.028	3.498	Pic2	Picture	34	No_Pain	29	4.164	n/a	n/a	471.728
448.526	2.006	Blank	Blank	34	No_Pain	n/a	2.158	n/a	n/a	475.226
452.69	n/a	ConfirmRating	Rate	34	No_Pain	29	n/a	1.642	0	479.39
452.72	4.725	ITI	Fixation+	35	Pain	n/a	7.29	n/a	n/a	479.421
457.462	3.498	Pic2	Picture	35	Pain	6	3.775	n/a	n/a	484.162
460.96	2.006	Blank	Blank	35	Pain	n/a	1.769	n/a	n/a	487.66
464.735	n/a	ConfirmRating	Rate	35	Pain	6	n/a	1.253	96	491.435
464.756	5.272	ITI	Fixation+	36	No_Pain	n/a	7.206	n/a	n/a	491.457
470.045	3.498	Pic2	Picture	36	No_Pain	35	3.691	n/a	n/a	496.745
473.543	2.006	Blank	Blank	36	No_Pain	n/a	1.685	n/a	n/a	500.243
477.234	n/a	ConfirmRating	Rate	36	No_Pain	35	n/a	1.168	0	503.935
477.257	4.526	ITI	Fixation+	37	No_Pain	n/a	6.358	n/a	n/a	503.957
481.799	3.498	Pic2	Picture	37	No_Pain	34	2.844	n/a	n/a	508.5
485.297	2.006	Blank	Blank	37	No_Pain	n/a	0.838	n/a	n/a	511.998
488.141	n/a	ConfirmRating	Rate	37	No_Pain	34	n/a	0.321	0	514.842
488.166	4.377	ITI	Fixation+	38	Pain	n/a	6.771	n/a	n/a	514.866
492.559	3.498	Pic2	Picture	38	Pain	15	3.256	n/a	n/a	519.259
496.057	2.006	Blank	Blank	38	Pain	n/a	1.25	n/a	n/a	522.758
499.313	n/a	ConfirmRating	Rate	38	Pain	15	n/a	0.733	100	526.014
499.34	5.189	ITI	Fixation+	39	Pain	n/a	6.918	n/a	n/a	526.04
504.545	3.498	Pic2	Picture	39	Pain	7	3.403	n/a	n/a	531.246
508.044	2.006	Blank	Blank	39	Pain	n/a	1.397	n/a	n/a	534.744
511.447	n/a	ConfirmRating	Rate	39	Pain	7	n/a	0.881	75	538.147
