onset	duration	trial_type	event_type	trial_number	condition	picture_number	time_until_response	response_time	unpleasantness_rating	onset_uncorrected
0.017	4.426	ITI	Fixation+	0	No_Pain	n/a	8.105	n/a	n/a	30.052
4.46	3.498	Pic2	Picture	0	No_Pain	24	4.59	n/a	n/a	34.495
7.958	2.006	Blank	Blank	0	No_Pain	n/a	2.584	n/a	n/a	37.993
12.548	n/a	ConfirmRating	Rate	0	No_Pain	24	n/a	2.068	0	42.584
12.567	4.708	ITI	Fixation+	1	No_Pain	n/a	6.926	n/a	n/a	42.602
17.292	3.498	Pic2	Picture	1	No_Pain	25	3.411	n/a	n/a	47.327
20.79	2.006	Blank	Blank	1	No_Pain	n/a	1.405	n/a	n/a	50.825
24.201	n/a	ConfirmRating	Rate	1	No_Pain	25	n/a	0.889	0	54.236
24.222	4.46	ITI	Fixation+	2	Pain	n/a	6.97	n/a	n/a	54.257
28.698	3.498	Pic2	Picture	2	Pain	19	3.456	n/a	n/a	58.733
32.196	2.006	Blank	Blank	2	Pain	n/a	1.45	n/a	n/a	62.232
35.652	n/a	ConfirmRating	Rate	2	Pain	19	n/a	0.933	12	65.687
35.678	4.029	ITI	Fixation+	3	No_Pain	n/a	6.674	n/a	n/a	65.713
39.723	3.498	Pic2	Picture	3	No_Pain	37	3.16	n/a	n/a	69.758
43.221	2.006	Blank	Blank	3	No_Pain	n/a	1.154	n/a	n/a	73.257
46.381	n/a	ConfirmRating	Rate	3	No_Pain	37	n/a	0.637	0	76.416
46.404	4.509	ITI	Fixation+	4	Pain	n/a	7.263	n/a	n/a	76.44
50.93	3.498	Pic2	Picture	4	Pain	2	3.748	n/a	n/a	80.966
54.428	2.006	Blank	Blank	4	Pain	n/a	1.742	n/a	n/a	84.464
58.177	n/a	ConfirmRating	Rate	4	Pain	2	n/a	1.226	0	88.212
58.208	4.891	ITI	Fixation+	5	No_Pain	n/a	8.56	n/a	n/a	88.244
63.116	3.498	Pic2	Picture	5	No_Pain	26	5.046	n/a	n/a	93.151
66.614	2.006	Blank	Blank	5	No_Pain	n/a	3.04	n/a	n/a	96.649
71.659	n/a	ConfirmRating	Rate	5	No_Pain	26	n/a	2.523	3	101.695
71.687	5.239	ITI	Fixation+	6	Pain	n/a	7.379	n/a	n/a	101.722
76.942	3.498	Pic2	Picture	6	Pain	12	3.865	n/a	n/a	106.978
80.44	2.006	Blank	Blank	6	Pain	n/a	1.859	n/a	n/a	110.476
84.305	n/a	ConfirmRating	Rate	6	Pain	12	n/a	1.342	0	114.341
84.337	4.178	ITI	Fixation+	7	Pain	n/a	6.514	n/a	n/a	114.372
88.531	3.498	Pic2	Picture	7	Pain	3	2.999	n/a	n/a	118.566
92.029	2.006	Blank	Blank	7	Pain	n/a	0.993	n/a	n/a	122.064
95.028	n/a	ConfirmRating	Rate	7	Pain	3	n/a	0.476	7	125.064
95.046	4.841	ITI	Fixation+	8	No_Pain	n/a	7.604	n/a	n/a	125.082
99.904	3.498	Pic2	Picture	8	No_Pain	30	4.089	n/a	n/a	129.94
103.402	2.006	Blank	Blank	8	No_Pain	n/a	2.083	n/a	n/a	133.438
107.491	n/a	ConfirmRating	Rate	8	No_Pain	30	n/a	1.566	5	137.526
107.514	4.443	ITI	Fixation+	9	Pain	n/a	7.115	n/a	n/a	137.549
111.973	3.498	Pic2	Picture	9	Pain	4	3.6	n/a	n/a	142.009
115.472	2.006	Blank	Blank	9	Pain	n/a	1.594	n/a	n/a	145.507
119.072	n/a	ConfirmRating	Rate	9	Pain	4	n/a	1.078	5	149.107
119.102	4.261	ITI	Fixation+	10	No_Pain	n/a	7.403	n/a	n/a	149.138
123.38	3.498	Pic2	Picture	10	No_Pain	28	3.888	n/a	n/a	153.415
126.878	2.006	Blank	Blank	10	No_Pain	n/a	1.882	n/a	n/a	156.913
130.766	n/a	ConfirmRating	Rate	10	No_Pain	28	n/a	1.366	0	160.801
130.79	5.571	ITI	Fixation+	11	Pain	n/a	6.883	n/a	n/a	160.826
136.377	3.498	Pic2	Picture	11	Pain	13	3.368	n/a	n/a	166.413
139.875	2.006	Blank	Blank	11	Pain	n/a	1.362	n/a	n/a	169.911
143.244	n/a	ConfirmRating	Rate	11	Pain	13	n/a	0.846	0	173.279
143.274	5.023	ITI	Fixation+	12	No_Pain	n/a	6.653	n/a	n/a	173.31
148.314	3.498	Pic2	Picture	12	No_Pain	32	3.138	n/a	n/a	178.35
151.812	2.006	Blank	Blank	12	No_Pain	n/a	1.132	n/a	n/a	181.848
154.95	n/a	ConfirmRating	Rate	12	No_Pain	32	n/a	0.616	3	184.986
154.979	5.106	ITI	Fixation+	13	Pain	n/a	7.634	n/a	n/a	185.014
160.102	3.498	Pic2	Picture	13	Pain	5	4.12	n/a	n/a	190.137
163.6	2.006	Blank	Blank	13	Pain	n/a	2.113	n/a	n/a	193.635
167.719	n/a	ConfirmRating	Rate	13	Pain	5	n/a	1.597	2	197.755
167.745	4.344	ITI	Fixation+	14	No_Pain	n/a	7.312	n/a	n/a	197.78
172.105	3.498	Pic2	Picture	14	No_Pain	21	3.797	n/a	n/a	202.14
175.603	2.006	Blank	Blank	14	No_Pain	n/a	1.791	n/a	n/a	205.638
179.4	n/a	ConfirmRating	Rate	14	No_Pain	21	n/a	1.274	0	209.436
179.433	5.322	ITI	Fixation+	15	No_Pain	n/a	6.622	n/a	n/a	209.468
184.771	3.498	Pic2	Picture	15	No_Pain	38	3.107	n/a	n/a	214.806
188.269	2.006	Blank	Blank	15	No_Pain	n/a	1.101	n/a	n/a	218.305
191.376	n/a	ConfirmRating	Rate	15	No_Pain	38	n/a	0.584	0	221.412
191.402	5.72	ITI	Fixation+	16	Pain	n/a	8.383	n/a	n/a	221.438
197.139	3.498	Pic2	Picture	16	Pain	16	4.868	n/a	n/a	227.174
200.637	2.006	Blank	Blank	16	Pain	n/a	2.862	n/a	n/a	230.672
205.505	n/a	ConfirmRating	Rate	16	Pain	16	n/a	2.345	0	235.541
205.528	5.504	ITI	Fixation+	17	No_Pain	n/a	8.628	n/a	n/a	235.563
211.048	3.498	Pic2	Picture	17	No_Pain	22	5.113	n/a	n/a	241.084
214.547	2.006	Blank	Blank	17	No_Pain	n/a	3.107	n/a	n/a	244.582
219.66	n/a	ConfirmRating	Rate	17	No_Pain	22	n/a	2.591	5	249.695
219.686	5.686	ITI	Fixation+	18	Pain	n/a	6.367	n/a	n/a	249.721
225.389	3.498	Pic2	Picture	18	Pain	8	2.852	n/a	n/a	255.425
228.887	2.006	Blank	Blank	18	Pain	n/a	0.846	n/a	n/a	258.923
231.74	n/a	ConfirmRating	Rate	18	Pain	8	n/a	0.33	10	261.775
231.772	4.31	ITI	Fixation+	19	Pain	n/a	6.401	n/a	n/a	261.808
236.099	3.498	Pic2	Picture	19	Pain	1	2.886	n/a	n/a	266.135
239.597	2.006	Blank	Blank	19	Pain	n/a	0.88	n/a	n/a	269.633
242.484	n/a	ConfirmRating	Rate	19	Pain	1	n/a	0.364	0	272.519
242.515	15.004	Rest	n/a	19	n/a	n/a	-15.035	n/a	n/a	272.55
257.535	5.935	ITI	Fixation+	20	No_Pain	n/a	7.374	n/a	n/a	287.571
263.487	3.498	Pic2	Picture	20	No_Pain	23	3.859	n/a	n/a	293.523
266.985	2.006	Blank	Blank	20	No_Pain	n/a	1.853	n/a	n/a	297.021
270.844	n/a	ConfirmRating	Rate	20	No_Pain	23	n/a	1.336	2	300.88
270.865	5.156	ITI	Fixation+	21	Pain	n/a	7.375	n/a	n/a	300.9
276.037	3.498	Pic2	Picture	21	Pain	10	3.861	n/a	n/a	306.073
279.536	2.006	Blank	Blank	21	Pain	n/a	1.854	n/a	n/a	309.571
283.396	n/a	ConfirmRating	Rate	21	Pain	10	n/a	1.338	0	313.432
283.415	5.123	ITI	Fixation+	22	No_Pain	n/a	6.308	n/a	n/a	313.45
288.554	3.498	Pic2	Picture	22	No_Pain	36	2.793	n/a	n/a	318.59
292.053	2.006	Blank	Blank	22	No_Pain	n/a	0.787	n/a	n/a	322.088
294.846	n/a	ConfirmRating	Rate	22	No_Pain	36	n/a	0.271	0	324.882
294.871	4.99	ITI	Fixation+	23	Pain	n/a	6.584	n/a	n/a	324.906
299.878	3.498	Pic2	Picture	23	Pain	11	3.069	n/a	n/a	329.913
303.376	2.006	Blank	Blank	23	Pain	n/a	1.063	n/a	n/a	333.411
306.445	n/a	ConfirmRating	Rate	23	Pain	11	n/a	0.546	3	336.48
306.476	4.592	ITI	Fixation+	24	Pain	n/a	9.57	n/a	n/a	336.512
311.085	3.498	Pic2	Picture	24	Pain	17	6.055	n/a	n/a	341.12
314.583	2.006	Blank	Blank	24	Pain	n/a	4.05	n/a	n/a	344.619
320.639	n/a	ConfirmRating	Rate	24	Pain	17	n/a	3.533	0	350.674
320.668	4.062	ITI	Fixation+	25	No_Pain	n/a	7.411	n/a	n/a	350.703
324.746	3.498	Pic2	Picture	25	No_Pain	31	3.897	n/a	n/a	354.781
328.244	2.006	Blank	Blank	25	No_Pain	n/a	1.89	n/a	n/a	358.28
332.141	n/a	ConfirmRating	Rate	25	No_Pain	31	n/a	1.374	5	362.176
332.173	4.344	ITI	Fixation+	26	Pain	n/a	9.582	n/a	n/a	362.209
336.534	3.498	Pic2	Picture	26	Pain	18	6.067	n/a	n/a	366.569
340.032	2.006	Blank	Blank	26	Pain	n/a	4.061	n/a	n/a	370.067
346.099	n/a	ConfirmRating	Rate	26	Pain	18	n/a	3.545	4	376.134
346.116	4.393	ITI	Fixation+	27	No_Pain	n/a	6.736	n/a	n/a	376.152
350.526	3.498	Pic2	Picture	27	No_Pain	33	3.221	n/a	n/a	380.562
354.024	2.006	Blank	Blank	27	No_Pain	n/a	1.215	n/a	n/a	384.06
357.245	n/a	ConfirmRating	Rate	27	No_Pain	33	n/a	0.698	0	387.281
357.274	4.609	ITI	Fixation+	28	No_Pain	n/a	6.341	n/a	n/a	387.309
361.899	3.498	Pic2	Picture	28	No_Pain	40	2.826	n/a	n/a	391.935
365.397	2.006	Blank	Blank	28	No_Pain	n/a	0.82	n/a	n/a	395.433
368.223	n/a	ConfirmRating	Rate	28	No_Pain	40	n/a	0.303	0	398.259
368.249	5.289	ITI	Fixation+	29	Pain	n/a	7.804	n/a	n/a	398.284
373.554	3.498	Pic2	Picture	29	Pain	20	4.289	n/a	n/a	403.59
377.052	2.006	Blank	Blank	29	Pain	n/a	2.283	n/a	n/a	407.088
381.341	n/a	ConfirmRating	Rate	29	Pain	20	n/a	1.771	0	411.377
381.363	4.112	ITI	Fixation+	30	No_Pain	n/a	7.801	n/a	n/a	411.398
385.491	3.498	Pic2	Picture	30	No_Pain	27	4.286	n/a	n/a	415.526
388.989	2.006	Blank	Blank	30	No_Pain	n/a	2.28	n/a	n/a	419.024
393.275	n/a	ConfirmRating	Rate	30	No_Pain	27	n/a	1.763	0	423.31
393.299	4.194	ITI	Fixation+	31	Pain	n/a	8.384	n/a	n/a	423.335
397.51	3.498	Pic2	Picture	31	Pain	14	4.869	n/a	n/a	427.546
401.009	2.006	Blank	Blank	31	Pain	n/a	2.863	n/a	n/a	431.044
405.878	n/a	ConfirmRating	Rate	31	Pain	14	n/a	2.347	4	435.913
405.899	4.858	ITI	Fixation+	32	Pain	n/a	6.571	n/a	n/a	435.935
410.774	3.498	Pic2	Picture	32	Pain	9	3.056	n/a	n/a	440.809
414.272	2.006	Blank	Blank	32	Pain	n/a	1.05	n/a	n/a	444.307
417.328	n/a	ConfirmRating	Rate	32	Pain	9	n/a	0.534	2	447.363
417.355	4.228	ITI	Fixation+	33	No_Pain	n/a	9.326	n/a	n/a	447.391
421.599	3.498	Pic2	Picture	33	No_Pain	39	5.811	n/a	n/a	451.635
425.098	2.006	Blank	Blank	33	No_Pain	n/a	3.805	n/a	n/a	455.133
430.909	n/a	ConfirmRating	Rate	33	No_Pain	39	n/a	3.289	5	460.944
430.933	5.488	ITI	Fixation+	34	No_Pain	n/a	13.133	n/a	n/a	460.969
436.438	3.498	Pic2	Picture	34	No_Pain	29	9.619	n/a	n/a	466.473
439.936	2.006	Blank	Blank	34	No_Pain	n/a	7.613	n/a	n/a	469.971
449.554	n/a	ConfirmRating	Rate	34	No_Pain	29	n/a	7.096	0	479.59
449.585	5.62	ITI	Fixation+	35	Pain	n/a	6.555	n/a	n/a	479.62
455.221	3.498	Pic2	Picture	35	Pain	6	3.04	n/a	n/a	485.257
458.719	2.006	Blank	Blank	35	Pain	n/a	1.034	n/a	n/a	488.755
461.759	n/a	ConfirmRating	Rate	35	Pain	6	n/a	0.517	5	491.795
461.787	5.255	ITI	Fixation+	36	No_Pain	n/a	7.472	n/a	n/a	491.822
467.059	3.498	Pic2	Picture	36	No_Pain	35	3.957	n/a	n/a	497.094
470.557	2.006	Blank	Blank	36	No_Pain	n/a	1.951	n/a	n/a	500.592
474.514	n/a	ConfirmRating	Rate	36	No_Pain	35	n/a	1.435	0	504.55
474.536	5.803	ITI	Fixation+	37	No_Pain	n/a	7.165	n/a	n/a	504.571
480.355	3.498	Pic2	Picture	37	No_Pain	34	3.65	n/a	n/a	510.39
483.853	2.006	Blank	Blank	37	No_Pain	n/a	1.644	n/a	n/a	513.889
487.503	n/a	ConfirmRating	Rate	37	No_Pain	34	n/a	1.127	3	517.538
487.533	5.139	ITI	Fixation+	38	Pain	n/a	7.476	n/a	n/a	517.569
492.69	3.498	Pic2	Picture	38	Pain	15	3.961	n/a	n/a	522.725
496.188	2.006	Blank	Blank	38	Pain	n/a	1.955	n/a	n/a	526.223
500.149	n/a	ConfirmRating	Rate	38	Pain	15	n/a	1.439	0	530.184
500.166	4.659	ITI	Fixation+	39	Pain	n/a	7.755	n/a	n/a	530.202
504.842	3.498	Pic2	Picture	39	Pain	7	4.24	n/a	n/a	534.877
508.34	2.006	Blank	Blank	39	Pain	n/a	2.234	n/a	n/a	538.375
512.58	n/a	ConfirmRating	Rate	39	Pain	7	n/a	1.717	0	542.615
