onset	duration	trial_type	trial_number	event_type	cue_to_participant	stimulus_type	time_until_response	rated_success_of_regulation	onset_uncorrected
0.003	10.014	Instruction	-1	Picture	Instruction	n/a	n/a	n/a	29.787
10.033	5.007	ITI	0	Picture	Fixation+	1	14.923	n/a	39.817
15.056	2.006	Cue	0	Picture	Maintain	1	12.9	n/a	44.84
17.063	4.99	Pic	0	Picture	IAPS_01	1	7.91	n/a	46.846
22.053	2.006	Blank	0	Picture	BLANK	1	5.904	n/a	51.837
29.963	n/a	ConfirmRating	0	Response	n/a	1	n/a	5	59.746
29.994	6.002	ITI	1	Picture	Fixation+	2	13.223	n/a	59.778
36.012	2.006	Cue	1	Picture	Enhance	2	11.2	n/a	65.796
38.018	4.99	Pic	1	Picture	IAPS_26	2	6.21	n/a	67.802
43.008	2.006	Blank	1	Picture	BLANK	2	4.204	n/a	72.792
49.218	n/a	ConfirmRating	1	Response	n/a	2	n/a	6	79.002
49.242	4.012	ITI	2	Picture	Fixation+	3	12.839	n/a	79.026
53.271	2.006	Cue	2	Picture	Suppress	3	10.816	n/a	83.055
55.277	4.99	Pic	2	Picture	IAPS_36	3	5.826	n/a	85.061
60.267	2.006	Blank	2	Picture	BLANK	3	3.82	n/a	90.051
66.093	n/a	ConfirmRating	2	Response	n/a	3	n/a	5	95.877
66.119	5.007	ITI	3	Picture	Fixation+	4	12.083	n/a	95.903
71.143	2.006	Cue	3	Picture	Maintain	4	10.06	n/a	100.927
73.149	4.99	Pic	3	Picture	IAPS_46	4	5.07	n/a	102.933
78.139	2.006	Blank	3	Picture	BLANK	4	3.064	n/a	107.923
83.209	n/a	ConfirmRating	3	Response	n/a	4	n/a	0	112.993
83.229	5.007	ITI	4	Picture	Fixation+	4	10.978	n/a	113.012
88.252	2.006	Cue	4	Picture	Maintain	4	8.956	n/a	118.036
90.258	4.99	Pic	4	Picture	IAPS_49	4	3.965	n/a	120.042
95.248	2.006	Blank	4	Picture	BLANK	4	1.959	n/a	125.032
99.214	n/a	ConfirmRating	4	Response	n/a	4	n/a	3	128.997
99.244	6.002	ITI	5	Picture	Fixation+	2	12.4	n/a	129.028
105.262	2.006	Cue	5	Picture	Enhance	2	10.377	n/a	135.046
107.268	4.99	Pic	5	Picture	IAPS_27	2	5.387	n/a	137.052
112.258	2.006	Blank	5	Picture	BLANK	2	3.381	n/a	142.042
117.645	n/a	ConfirmRating	5	Response	n/a	2	n/a	0	147.429
117.663	4.012	ITI	6	Picture	Fixation+	1	10.913	n/a	147.447
121.691	2.006	Cue	6	Picture	Maintain	1	8.891	n/a	151.475
123.698	4.99	Pic	6	Picture	IAPS_02	1	3.9	n/a	153.481
128.688	2.006	Blank	6	Picture	BLANK	1	1.894	n/a	158.471
132.588	n/a	ConfirmRating	6	Response	n/a	1	n/a	2	162.372
132.617	6.002	ITI	7	Picture	Fixation+	3	11.048	n/a	162.401
138.635	2.006	Cue	7	Picture	Suppress	3	9.026	n/a	168.419
140.641	4.99	Pic	7	Picture	IAPS_37	3	4.036	n/a	170.425
145.631	2.006	Blank	7	Picture	BLANK	3	2.03	n/a	175.415
149.667	n/a	ConfirmRating	7	Response	n/a	3	n/a	6	179.451
149.693	5.007	ITI	8	Picture	Fixation+	4	11.04	n/a	179.477
154.716	2.006	Cue	8	Picture	Maintain	4	9.017	n/a	184.5
156.723	4.99	Pic	8	Picture	IAPS_52	4	4.027	n/a	186.506
161.713	2.006	Blank	8	Picture	BLANK	4	2.021	n/a	191.496
165.74	n/a	ConfirmRating	8	Response	n/a	4	n/a	5	195.523
165.758	6.002	ITI	9	Picture	Fixation+	1	11.728	n/a	195.542
171.776	2.006	Cue	9	Picture	Maintain	1	9.705	n/a	201.56
173.782	4.99	Pic	9	Picture	IAPS_03	1	4.715	n/a	203.566
178.772	2.006	Blank	9	Picture	BLANK	1	2.709	n/a	208.556
183.487	n/a	ConfirmRating	9	Response	n/a	1	n/a	3	213.271
183.514	5.007	ITI	10	Picture	Fixation+	2	11.454	n/a	213.298
188.537	2.006	Cue	10	Picture	Enhance	2	9.431	n/a	218.321
190.543	4.99	Pic	10	Picture	IAPS_28	2	4.441	n/a	220.327
195.534	2.006	Blank	10	Picture	BLANK	2	2.435	n/a	225.317
199.974	n/a	ConfirmRating	10	Response	n/a	2	n/a	7	229.758
199.993	4.012	ITI	11	Picture	Fixation+	3	11.723	n/a	229.777
204.022	2.006	Cue	11	Picture	Suppress	3	9.7	n/a	233.806
206.028	4.99	Pic	11	Picture	IAPS_38	3	4.71	n/a	235.812
211.018	2.006	Blank	11	Picture	BLANK	3	2.704	n/a	240.802
215.728	n/a	ConfirmRating	11	Response	n/a	3	n/a	6	245.512
215.76	6.002	ITI	12	Picture	Fixation+	2	10.227	n/a	245.543
221.778	2.006	Cue	12	Picture	Enhance	2	8.204	n/a	251.561
223.784	4.99	Pic	12	Picture	IAPS_29	2	3.214	n/a	253.567
228.774	2.006	Blank	12	Picture	BLANK	2	1.208	n/a	258.558
231.988	n/a	ConfirmRating	12	Response	n/a	2	n/a	3	261.772
232.007	5.007	ITI	13	Picture	Fixation+	1	10.078	n/a	261.791
237.03	2.006	Cue	13	Picture	Maintain	1	8.055	n/a	266.814
239.036	4.99	Pic	13	Picture	IAPS_04	1	3.065	n/a	268.82
244.026	2.006	Blank	13	Picture	BLANK	1	1.059	n/a	273.81
247.091	n/a	ConfirmRating	13	Response	n/a	1	n/a	5	276.875
247.11	4.012	ITI	14	Picture	Fixation+	4	10.247	n/a	276.894
251.139	2.006	Cue	14	Picture	Maintain	4	8.224	n/a	280.923
253.145	4.99	Pic	14	Picture	IAPS_55	4	3.234	n/a	282.929
258.135	2.006	Blank	14	Picture	BLANK	4	1.228	n/a	287.919
261.369	n/a	ConfirmRating	14	Response	n/a	4	n/a	6	291.153
261.401	5.007	ITI	15	Picture	Fixation+	3	11.418	n/a	291.185
266.424	2.006	Cue	15	Picture	Suppress	3	9.396	n/a	296.208
268.43	4.99	Pic	15	Picture	IAPS_39	3	4.405	n/a	298.214
273.421	2.006	Blank	15	Picture	BLANK	3	2.399	n/a	303.204
277.826	n/a	ConfirmRating	15	Response	n/a	3	n/a	2	307.61
277.847	6.002	ITI	16	Picture	Fixation+	2	9.883	n/a	307.631
283.865	2.006	Cue	16	Picture	Enhance	2	7.86	n/a	313.649
285.871	4.99	Pic	16	Picture	IAPS_30	2	2.87	n/a	315.655
290.862	2.006	Blank	16	Picture	BLANK	2	0.864	n/a	320.645
293.732	n/a	ConfirmRating	16	Response	n/a	2	n/a	5	323.515
293.763	6.002	ITI	17	Picture	Fixation+	1	10.241	n/a	323.547
299.781	2.006	Cue	17	Picture	Maintain	1	8.219	n/a	329.565
301.787	4.99	Pic	17	Picture	IAPS_05	1	3.228	n/a	331.571
306.777	2.006	Blank	17	Picture	BLANK	1	1.222	n/a	336.561
310.006	n/a	ConfirmRating	17	Response	n/a	1	n/a	3	339.789
310.027	4.012	ITI	18	Picture	Fixation+	3	10.51	n/a	339.81
314.055	2.006	Cue	18	Picture	Suppress	3	8.487	n/a	343.839
316.061	4.99	Pic	18	Picture	IAPS_40	3	3.497	n/a	345.845
321.052	2.006	Blank	18	Picture	BLANK	3	1.491	n/a	350.835
324.548	n/a	ConfirmRating	18	Response	n/a	3	n/a	2	354.332
324.566	5.007	ITI	19	Picture	Fixation+	4	10.054	n/a	354.35
329.59	2.006	Cue	19	Picture	Maintain	4	8.031	n/a	359.373
331.596	4.99	Pic	19	Picture	IAPS_58	4	3.041	n/a	361.38
336.586	2.006	Blank	19	Picture	BLANK	4	1.035	n/a	366.37
339.627	n/a	ConfirmRating	19	Response	n/a	4	n/a	3	369.411
339.653	6.002	ITI	20	Picture	Fixation+	4	10.478	n/a	369.437
345.671	2.006	Cue	20	Picture	Maintain	4	8.456	n/a	375.455
347.677	4.99	Pic	20	Picture	IAPS_47	4	3.465	n/a	377.461
352.667	2.006	Blank	20	Picture	BLANK	4	1.46	n/a	382.451
356.133	n/a	ConfirmRating	20	Response	n/a	4	n/a	6	385.917
356.166	5.007	ITI	21	Picture	Fixation+	3	9.961	n/a	385.949
361.189	2.006	Cue	21	Picture	Suppress	3	7.939	n/a	390.973
363.195	4.99	Pic	21	Picture	IAPS_41	3	2.948	n/a	392.979
368.185	2.006	Blank	21	Picture	BLANK	3	0.942	n/a	397.969
371.134	n/a	ConfirmRating	21	Response	n/a	3	n/a	3	400.917
371.153	4.012	ITI	22	Picture	Fixation+	1	10.016	n/a	400.937
375.181	2.006	Cue	22	Picture	Maintain	1	7.993	n/a	404.965
377.188	4.99	Pic	22	Picture	IAPS_06	1	3.003	n/a	406.971
382.178	2.006	Blank	22	Picture	BLANK	1	0.997	n/a	411.962
385.18	n/a	ConfirmRating	22	Response	n/a	1	n/a	5	414.964
385.212	4.012	ITI	23	Picture	Fixation+	2	10.075	n/a	414.995
389.24	2.006	Cue	23	Picture	Enhance	2	8.052	n/a	419.024
391.246	4.99	Pic	23	Picture	IAPS_16	2	3.062	n/a	421.03
396.237	2.006	Blank	23	Picture	BLANK	2	1.056	n/a	426.02
399.298	n/a	ConfirmRating	23	Response	n/a	2	n/a	6	429.082
399.32	5.007	ITI	24	Picture	Fixation+	1	10.376	n/a	429.104
404.344	2.006	Cue	24	Picture	Maintain	1	8.353	n/a	434.127
406.35	4.99	Pic	24	Picture	IAPS_07	1	3.363	n/a	436.133
411.34	2.006	Blank	24	Picture	BLANK	1	1.357	n/a	441.124
414.703	n/a	ConfirmRating	24	Response	n/a	1	n/a	6	444.487
414.722	4.012	ITI	25	Picture	Fixation+	2	10.563	n/a	444.506
418.75	2.006	Cue	25	Picture	Enhance	2	8.54	n/a	448.534
420.757	4.99	Pic	25	Picture	IAPS_17	2	3.55	n/a	450.54
425.747	2.006	Blank	25	Picture	BLANK	2	1.544	n/a	455.531
429.297	n/a	ConfirmRating	25	Response	n/a	2	n/a	5	459.081
429.328	6.002	ITI	26	Picture	Fixation+	4	9.722	n/a	459.112
435.346	2.006	Cue	26	Picture	Maintain	4	7.7	n/a	465.13
437.352	4.99	Pic	26	Picture	IAPS_50	4	2.709	n/a	467.136
442.342	2.006	Blank	26	Picture	BLANK	4	0.703	n/a	472.126
445.052	n/a	ConfirmRating	26	Response	n/a	4	n/a	5	474.835
445.078	5.007	ITI	27	Picture	Fixation+	3	10.439	n/a	474.861
450.101	2.006	Cue	27	Picture	Suppress	3	8.416	n/a	479.885
452.107	4.99	Pic	27	Picture	IAPS_42	3	3.426	n/a	481.891
457.097	2.006	Blank	27	Picture	BLANK	3	1.42	n/a	486.881
460.523	n/a	ConfirmRating	27	Response	n/a	3	n/a	2	490.307
460.546	5.007	ITI	28	Picture	Fixation+	2	10.057	n/a	490.329
465.569	2.006	Cue	28	Picture	Enhance	2	8.034	n/a	495.353
467.575	4.99	Pic	28	Picture	IAPS_18	2	3.044	n/a	497.359
472.565	2.006	Blank	28	Picture	BLANK	2	1.038	n/a	502.349
475.609	n/a	ConfirmRating	28	Response	n/a	2	n/a	3	505.393
475.632	4.012	ITI	29	Picture	Fixation+	3	10.292	n/a	505.416
479.661	2.006	Cue	29	Picture	Suppress	3	8.27	n/a	509.445
481.667	4.99	Pic	29	Picture	IAPS_43	3	3.28	n/a	511.451
486.657	2.006	Blank	29	Picture	BLANK	3	1.273	n/a	516.441
489.937	n/a	ConfirmRating	29	Response	n/a	3	n/a	2	519.721
489.957	15.004	Rest	29	Picture	Rest	n/a	-15.023	n/a	519.74
504.977	5.007	ITI	30	Picture	Fixation+	4	10.448	n/a	534.761
510.0	2.006	Cue	30	Picture	Maintain	4	8.425	n/a	539.784
512.006	4.99	Pic	30	Picture	IAPS_53	4	3.435	n/a	541.79
516.997	2.006	Blank	30	Picture	BLANK	4	1.429	n/a	546.78
520.431	n/a	ConfirmRating	30	Response	n/a	4	n/a	6	550.215
520.462	6.002	ITI	31	Picture	Fixation+	1	9.476	n/a	550.245
526.48	2.006	Cue	31	Picture	Maintain	1	7.454	n/a	556.263
528.486	4.99	Pic	31	Picture	IAPS_08	1	2.463	n/a	558.269
533.476	2.006	Blank	31	Picture	BLANK	1	0.457	n/a	563.26
535.939	n/a	ConfirmRating	31	Response	n/a	1	n/a	0	565.723
535.963	4.012	ITI	32	Picture	Fixation+	3	10.634	n/a	565.746
539.991	2.006	Cue	32	Picture	Suppress	3	8.612	n/a	569.775
541.997	4.99	Pic	32	Picture	IAPS_44	3	3.622	n/a	571.781
546.988	2.006	Blank	32	Picture	BLANK	3	1.615	n/a	576.771
550.609	n/a	ConfirmRating	32	Response	n/a	3	n/a	6	580.393
550.635	5.007	ITI	33	Picture	Fixation+	1	10.49	n/a	580.419
555.658	2.006	Cue	33	Picture	Maintain	1	8.467	n/a	585.442
557.664	4.99	Pic	33	Picture	IAPS_09	1	3.477	n/a	587.448
562.655	2.006	Blank	33	Picture	BLANK	1	1.471	n/a	592.438
566.132	n/a	ConfirmRating	33	Response	n/a	1	n/a	2	595.916
566.153	4.012	ITI	34	Picture	Fixation+	2	10.013	n/a	595.937
570.181	2.006	Cue	34	Picture	Enhance	2	7.99	n/a	599.965
572.187	4.99	Pic	34	Picture	IAPS_19	2	3.0	n/a	601.971
577.178	2.006	Blank	34	Picture	BLANK	2	0.994	n/a	606.961
580.178	n/a	ConfirmRating	34	Response	n/a	2	n/a	3	609.961
580.195	6.002	ITI	35	Picture	Fixation+	4	10.618	n/a	609.979
586.213	2.006	Cue	35	Picture	Maintain	4	8.595	n/a	615.997
588.219	4.99	Pic	35	Picture	IAPS_56	4	3.605	n/a	618.003
593.209	2.006	Blank	35	Picture	BLANK	4	1.599	n/a	622.993
596.814	n/a	ConfirmRating	35	Response	n/a	4	n/a	7	626.598
596.84	5.007	ITI	36	Picture	Fixation+	3	12.344	n/a	626.624
601.863	2.006	Cue	36	Picture	Suppress	3	10.322	n/a	631.647
603.869	4.99	Pic	36	Picture	IAPS_45	3	5.331	n/a	633.653
608.86	2.006	Blank	36	Picture	BLANK	3	3.325	n/a	638.644
614.191	n/a	ConfirmRating	36	Response	n/a	3	n/a	5	643.975
614.215	6.002	ITI	37	Picture	Fixation+	4	10.333	n/a	643.999
620.233	2.006	Cue	37	Picture	Maintain	4	8.31	n/a	650.017
622.239	4.99	Pic	37	Picture	IAPS_59	4	3.32	n/a	652.023
627.229	2.006	Blank	37	Picture	BLANK	4	1.314	n/a	657.013
630.549	n/a	ConfirmRating	37	Response	n/a	4	n/a	7	660.333
630.578	5.007	ITI	38	Picture	Fixation+	2	10.048	n/a	660.362
635.601	2.006	Cue	38	Picture	Enhance	2	8.025	n/a	665.385
637.607	4.99	Pic	38	Picture	IAPS_20	2	3.035	n/a	667.391
642.598	2.006	Blank	38	Picture	BLANK	2	1.029	n/a	672.381
645.633	n/a	ConfirmRating	38	Response	n/a	2	n/a	5	675.417
645.665	4.012	ITI	39	Picture	Fixation+	1	10.009	n/a	675.448
649.693	2.006	Cue	39	Picture	Maintain	1	7.986	n/a	679.477
651.699	4.99	Pic	39	Picture	IAPS_10	1	2.996	n/a	681.483
656.69	2.006	Blank	39	Picture	BLANK	1	0.99	n/a	686.473
659.685	n/a	ConfirmRating	39	Response	n/a	1	n/a	3	689.469
659.707	6.002	ITI	40	Picture	Fixation+	4	10.353	n/a	689.491
665.725	2.006	Cue	40	Picture	Maintain	4	8.33	n/a	695.509
667.731	4.99	Pic	40	Picture	IAPS_48	4	3.34	n/a	697.515
672.721	2.006	Blank	40	Picture	BLANK	4	1.334	n/a	702.505
676.061	n/a	ConfirmRating	40	Response	n/a	4	n/a	6	705.845
676.087	5.007	ITI	41	Picture	Fixation+	3	11.079	n/a	705.871
681.11	2.006	Cue	41	Picture	Suppress	3	9.057	n/a	710.894
683.116	4.99	Pic	41	Picture	IAPS_31	3	4.067	n/a	712.9
688.106	2.006	Blank	41	Picture	BLANK	3	2.061	n/a	717.89
692.173	n/a	ConfirmRating	41	Response	n/a	3	n/a	2	721.957
692.201	6.002	ITI	42	Picture	Fixation+	2	9.951	n/a	721.985
698.219	2.006	Cue	42	Picture	Enhance	2	7.928	n/a	728.003
700.226	4.99	Pic	42	Picture	IAPS_21	2	2.938	n/a	730.009
705.216	2.006	Blank	42	Picture	BLANK	2	0.932	n/a	735.0
708.154	n/a	ConfirmRating	42	Response	n/a	2	n/a	5	737.938
708.183	4.012	ITI	43	Picture	Fixation+	1	9.409	n/a	737.967
712.212	2.006	Cue	43	Picture	Maintain	1	7.387	n/a	741.996
714.218	4.99	Pic	43	Picture	IAPS_11	1	2.396	n/a	744.002
719.208	2.006	Blank	43	Picture	BLANK	1	0.39	n/a	748.992
721.605	n/a	ConfirmRating	43	Response	n/a	1	n/a	0	751.388
721.629	5.007	ITI	44	Picture	Fixation+	2	10.99	n/a	751.413
726.652	2.006	Cue	44	Picture	Enhance	2	8.967	n/a	756.436
728.658	4.99	Pic	44	Picture	IAPS_22	2	3.977	n/a	758.442
733.648	2.006	Blank	44	Picture	BLANK	2	1.971	n/a	763.432
737.625	n/a	ConfirmRating	44	Response	n/a	2	n/a	3	767.409
737.644	5.007	ITI	45	Picture	Fixation+	4	10.168	n/a	767.428
742.667	2.006	Cue	45	Picture	Maintain	4	8.146	n/a	772.451
744.673	4.99	Pic	45	Picture	IAPS_51	4	3.155	n/a	774.457
749.664	2.006	Blank	45	Picture	BLANK	4	1.149	n/a	779.447
752.819	n/a	ConfirmRating	45	Response	n/a	4	n/a	6	782.603
752.847	4.012	ITI	46	Picture	Fixation+	3	10.865	n/a	782.63
756.875	2.006	Cue	46	Picture	Suppress	3	8.843	n/a	786.659
758.881	4.99	Pic	46	Picture	IAPS_32	3	3.852	n/a	788.665
763.872	2.006	Blank	46	Picture	BLANK	3	1.846	n/a	793.655
767.724	n/a	ConfirmRating	46	Response	n/a	3	n/a	3	797.508
767.751	5.007	ITI	47	Picture	Fixation+	1	9.502	n/a	797.535
772.774	2.006	Cue	47	Picture	Maintain	1	7.479	n/a	802.558
774.78	4.99	Pic	47	Picture	IAPS_12	1	2.489	n/a	804.564
779.771	2.006	Blank	47	Picture	BLANK	1	0.483	n/a	809.554
782.26	n/a	ConfirmRating	47	Response	n/a	1	n/a	0	812.043
782.291	4.012	ITI	48	Picture	Fixation+	3	10.097	n/a	812.074
786.319	2.006	Cue	48	Picture	Suppress	3	8.074	n/a	816.103
788.325	4.99	Pic	48	Picture	IAPS_33	3	3.084	n/a	818.109
793.316	2.006	Blank	48	Picture	BLANK	3	1.078	n/a	823.099
796.399	n/a	ConfirmRating	48	Response	n/a	3	n/a	3	826.183
796.432	5.007	ITI	49	Picture	Fixation+	4	10.3	n/a	826.216
801.456	2.006	Cue	49	Picture	Maintain	4	8.278	n/a	831.24
803.462	4.99	Pic	49	Picture	IAPS_54	4	3.287	n/a	833.246
808.452	2.006	Blank	49	Picture	BLANK	4	1.281	n/a	838.236
811.739	n/a	ConfirmRating	49	Response	n/a	4	n/a	6	841.523
811.768	5.007	ITI	50	Picture	Fixation+	1	9.409	n/a	841.552
816.791	2.006	Cue	50	Picture	Maintain	1	7.386	n/a	846.575
818.797	4.99	Pic	50	Picture	IAPS_13	1	2.396	n/a	848.581
823.787	2.006	Blank	50	Picture	BLANK	1	0.39	n/a	853.571
826.183	n/a	ConfirmRating	50	Response	n/a	1	n/a	0	855.967
826.208	4.012	ITI	51	Picture	Fixation+	2	10.681	n/a	855.992
830.237	2.006	Cue	51	Picture	Enhance	2	8.658	n/a	860.02
832.243	4.99	Pic	51	Picture	IAPS_23	2	3.668	n/a	862.026
837.233	2.006	Blank	51	Picture	BLANK	2	1.662	n/a	867.017
840.901	n/a	ConfirmRating	51	Response	n/a	2	n/a	5	870.685
840.93	5.007	ITI	52	Picture	Fixation+	1	10.455	n/a	870.714
845.953	2.006	Cue	52	Picture	Maintain	1	8.432	n/a	875.737
847.959	4.99	Pic	52	Picture	IAPS_14	1	3.442	n/a	877.743
852.949	2.006	Blank	52	Picture	BLANK	1	1.436	n/a	882.733
856.392	n/a	ConfirmRating	52	Response	n/a	1	n/a	2	886.175
856.414	5.007	ITI	53	Picture	Fixation+	4	10.325	n/a	886.198
861.438	2.006	Cue	53	Picture	Maintain	4	8.303	n/a	891.222
863.444	4.99	Pic	53	Picture	IAPS_57	4	3.312	n/a	893.228
868.434	2.006	Blank	53	Picture	BLANK	4	1.306	n/a	898.218
871.746	n/a	ConfirmRating	53	Response	n/a	4	n/a	6	901.53
871.766	6.002	ITI	54	Picture	Fixation+	3	10.056	n/a	901.55
877.785	2.006	Cue	54	Picture	Suppress	3	8.034	n/a	907.568
879.791	4.99	Pic	54	Picture	IAPS_34	3	3.043	n/a	909.574
884.781	2.006	Blank	54	Picture	BLANK	3	1.037	n/a	914.565
887.824	n/a	ConfirmRating	54	Response	n/a	3	n/a	5	917.608
887.848	5.007	ITI	55	Picture	Fixation+	2	9.95	n/a	917.632
892.871	2.006	Cue	55	Picture	Enhance	2	7.928	n/a	922.655
894.877	4.99	Pic	55	Picture	IAPS_24	2	2.937	n/a	924.661
899.868	2.006	Blank	55	Picture	BLANK	2	0.931	n/a	929.651
902.805	n/a	ConfirmRating	55	Response	n/a	2	n/a	5	932.589
902.835	5.007	ITI	56	Picture	Fixation+	1	10.4	n/a	932.619
907.859	2.006	Cue	56	Picture	Maintain	1	8.377	n/a	937.642
909.865	4.99	Pic	56	Picture	IAPS_15	1	3.387	n/a	939.648
914.855	2.006	Blank	56	Picture	BLANK	1	1.381	n/a	944.639
918.242	n/a	ConfirmRating	56	Response	n/a	1	n/a	3	948.025
918.27	6.002	ITI	57	Picture	Fixation+	3	10.617	n/a	948.054
924.288	2.006	Cue	57	Picture	Suppress	3	8.594	n/a	954.072
926.294	4.99	Pic	57	Picture	IAPS_35	3	3.604	n/a	956.078
931.284	2.006	Blank	57	Picture	BLANK	3	1.598	n/a	961.068
934.888	n/a	ConfirmRating	57	Response	n/a	3	n/a	3	964.672
934.915	4.012	ITI	58	Picture	Fixation+	4	10.326	n/a	964.699
938.944	2.006	Cue	58	Picture	Maintain	4	8.303	n/a	968.728
940.95	4.99	Pic	58	Picture	IAPS_60	4	3.313	n/a	970.734
945.94	2.006	Blank	58	Picture	BLANK	4	1.307	n/a	975.724
949.253	n/a	ConfirmRating	58	Response	n/a	4	n/a	7	979.037
949.272	6.002	ITI	59	Picture	Fixation+	2	11.07	n/a	979.056
955.29	2.006	Cue	59	Picture	Enhance	2	9.047	n/a	985.074
957.297	4.99	Pic	59	Picture	IAPS_25	2	4.057	n/a	987.08
962.287	2.006	Blank	59	Picture	BLANK	2	2.051	n/a	992.071
966.344	n/a	ConfirmRating	59	Response	n/a	2	n/a	6	996.128
