onset	duration	trial_type	event_type	time_until_response	response_time	trial_number	block_num_within_trial	image_seq_num_within_block	question_seq_num_within_block	image_seq_num	picture_number	condition	question_type	block_type	rating	rating_computed	onset_uncorrected	KDEV_imagefile
0.009	10.014	ITI	Fixation+	97.767	n/a	1	n/a	n/a	n/a	n/a	n/a	n/a	n/a	n/a	n/a	n/a	32.29	n/a
10.039	0.497	happy	Picture	97.253	n/a	1	1	1	n/a	1	46	2	n/a	n/a	n/a	n/a	42.32	AF09HAS.jpg
10.537	0.514	Blank	Blank	96.739	n/a	1	1	1	n/a	1	n/a	2	n/a	n/a	n/a	n/a	42.818	n/a
11.067	0.497	happy	Picture	96.225	n/a	1	1	2	n/a	2	69	2	n/a	n/a	n/a	n/a	43.348	AM10HAS.jpg
11.565	0.514	Blank	Blank	95.711	n/a	1	1	2	n/a	2	n/a	2	n/a	n/a	n/a	n/a	43.846	n/a
12.095	0.497	happy	Picture	95.197	n/a	1	1	3	n/a	3	71	2	n/a	n/a	n/a	n/a	44.376	BM12HAS.jpg
12.593	0.514	Blank	Blank	94.683	n/a	1	1	3	n/a	3	n/a	2	n/a	n/a	n/a	n/a	44.873	n/a
13.123	0.497	happy	Picture	94.169	n/a	1	1	4	n/a	4	51	2	n/a	n/a	n/a	n/a	45.404	AF20HAS.jpg
13.62	0.514	Blank	Blank	93.656	n/a	1	1	4	n/a	4	n/a	2	n/a	n/a	n/a	n/a	45.901	n/a
14.151	0.497	happy	Picture	93.142	n/a	1	1	5	n/a	5	67	2	n/a	n/a	n/a	n/a	46.432	BM08HAS.jpg
14.648	0.514	Blank	Blank	92.628	n/a	1	1	5	n/a	5	n/a	2	n/a	n/a	n/a	n/a	46.929	n/a
15.179	0.497	happy	Picture	92.114	n/a	1	1	6	n/a	6	60	2	n/a	n/a	n/a	n/a	47.46	AF32HAS.jpg
15.676	0.514	Blank	Blank	91.6	n/a	1	1	6	n/a	6	n/a	2	n/a	n/a	n/a	n/a	47.957	n/a
16.207	0.497	happy	Picture	91.086	n/a	1	1	7	n/a	7	42	2	n/a	n/a	n/a	n/a	48.488	AF03HAS.jpg
16.704	0.514	Blank	Blank	90.572	n/a	1	1	7	n/a	7	n/a	2	n/a	n/a	n/a	n/a	48.985	n/a
17.235	0.497	happy	Picture	90.058	n/a	1	1	8	n/a	8	55	2	n/a	n/a	n/a	n/a	49.516	AF25HAS.jpg
17.732	0.514	Blank	Blank	89.544	n/a	1	1	8	n/a	8	n/a	2	n/a	n/a	n/a	n/a	50.013	n/a
18.262	0.497	happy	Picture	89.03	n/a	1	1	9	n/a	9	72	2	n/a	n/a	n/a	n/a	50.543	AM14HAS.jpg
18.76	0.514	Blank	Blank	88.516	n/a	1	1	9	n/a	9	n/a	2	n/a	n/a	n/a	n/a	51.041	n/a
19.29	0.497	happy	Picture	88.002	n/a	1	1	10	n/a	10	63	2	n/a	n/a	n/a	n/a	51.571	AM04HAS.jpg
19.788	0.514	Blank	Blank	87.488	n/a	1	1	10	n/a	10	n/a	2	n/a	n/a	n/a	n/a	52.069	n/a
20.318	0.497	happy	Picture	86.974	n/a	1	1	11	n/a	11	58	2	n/a	n/a	n/a	n/a	52.599	BF29HAS.jpg
20.816	0.514	Blank	Blank	86.46	n/a	1	1	11	n/a	11	n/a	2	n/a	n/a	n/a	n/a	53.097	n/a
21.346	0.497	happy	Picture	85.946	n/a	1	1	12	n/a	12	48	2	n/a	n/a	n/a	n/a	53.627	AF14HAS.jpg
21.843	0.514	Blank	Blank	85.432	n/a	1	1	12	n/a	12	n/a	2	n/a	n/a	n/a	n/a	54.124	n/a
22.374	0.497	happy	Picture	84.918	n/a	1	1	13	n/a	13	66	2	n/a	n/a	n/a	n/a	54.655	BM07HAS.jpg
22.871	0.514	Blank	Blank	84.405	n/a	1	1	13	n/a	13	n/a	2	n/a	n/a	n/a	n/a	55.152	n/a
23.402	0.497	happy	Picture	83.891	n/a	1	1	14	n/a	14	70	2	n/a	n/a	n/a	n/a	55.683	BM11HAS.jpg
23.899	0.514	Blank	Blank	83.377	n/a	1	1	14	n/a	14	n/a	2	n/a	n/a	n/a	n/a	56.18	n/a
24.43	0.497	happy	Picture	82.863	n/a	1	1	15	n/a	15	43	2	n/a	n/a	n/a	n/a	56.711	BF04HAS.jpg
24.927	0.514	Blank	Blank	82.349	n/a	1	1	15	n/a	15	n/a	2	n/a	n/a	n/a	n/a	57.208	n/a
25.458	0.497	happy	Picture	81.835	n/a	1	1	16	n/a	16	49	2	n/a	n/a	n/a	n/a	57.739	AF17HAS.jpg
25.955	0.514	Blank	Blank	81.321	n/a	1	1	16	n/a	16	n/a	2	n/a	n/a	n/a	n/a	58.236	n/a
26.486	0.497	happy	Picture	80.807	n/a	1	1	17	n/a	17	75	2	n/a	n/a	n/a	n/a	58.767	AM23HAS.jpg
26.983	0.514	Blank	Blank	80.293	n/a	1	1	17	n/a	17	n/a	2	n/a	n/a	n/a	n/a	59.264	n/a
27.513	0.497	happy	Picture	79.779	n/a	1	1	18	n/a	18	80	2	n/a	n/a	n/a	n/a	59.794	BM35HAS.jpg
28.011	0.514	Blank	Blank	79.265	n/a	1	1	18	n/a	18	n/a	2	n/a	n/a	n/a	n/a	60.292	n/a
28.541	0.497	happy	Picture	78.751	n/a	1	1	19	n/a	19	76	2	n/a	n/a	n/a	n/a	60.822	BM24HAS.jpg
29.039	0.514	Blank	Blank	78.237	n/a	1	1	19	n/a	19	n/a	2	n/a	n/a	n/a	n/a	61.32	n/a
29.569	0.497	happy	Picture	77.723	n/a	1	1	20	n/a	20	74	2	n/a	n/a	n/a	n/a	61.85	AM22HAS.jpg
30.067	0.514	Blank	Blank	77.209	n/a	1	1	20	n/a	20	n/a	2	n/a	n/a	n/a	n/a	62.348	n/a
30.597	10.014	ITI	Fixation+	67.179	n/a	1	n/a	n/a	n/a	n/a	n/a	n/a	n/a	n/a	n/a	n/a	62.878	n/a
40.627	0.497	neutral	Picture	66.665	n/a	1	2	1	n/a	21	33	1	n/a	n/a	n/a	n/a	72.908	AM21NES.jpg
41.125	0.514	Blank	Blank	66.151	n/a	1	2	1	n/a	21	n/a	1	n/a	n/a	n/a	n/a	73.406	n/a
41.655	0.497	neutral	Picture	65.637	n/a	1	2	2	n/a	22	39	1	n/a	n/a	n/a	n/a	73.936	AM28NES.jpg
42.152	0.514	Blank	Blank	65.123	n/a	1	2	2	n/a	22	n/a	1	n/a	n/a	n/a	n/a	74.433	n/a
42.683	0.497	neutral	Picture	64.609	n/a	1	2	3	n/a	23	25	1	n/a	n/a	n/a	n/a	74.964	BM06NES.jpg
43.18	0.514	Blank	Blank	64.096	n/a	1	2	3	n/a	23	n/a	1	n/a	n/a	n/a	n/a	75.461	n/a
43.711	0.497	neutral	Picture	63.582	n/a	1	2	4	n/a	24	5	1	n/a	n/a	n/a	n/a	75.992	BF07NES.jpg
44.208	0.514	Blank	Blank	63.068	n/a	1	2	4	n/a	24	n/a	1	n/a	n/a	n/a	n/a	76.489	n/a
44.739	0.497	neutral	Picture	62.554	n/a	1	2	5	n/a	25	10	1	n/a	n/a	n/a	n/a	77.02	AF18NES.jpg
45.236	0.514	Blank	Blank	62.04	n/a	1	2	5	n/a	25	n/a	1	n/a	n/a	n/a	n/a	77.517	n/a
45.767	0.497	neutral	Picture	61.526	n/a	1	2	6	n/a	26	34	1	n/a	n/a	n/a	n/a	78.048	AM22NES.jpg
46.264	0.514	Blank	Blank	61.012	n/a	1	2	6	n/a	26	n/a	1	n/a	n/a	n/a	n/a	78.545	n/a
46.795	0.497	neutral	Picture	60.498	n/a	1	2	7	n/a	27	36	1	n/a	n/a	n/a	n/a	79.076	BM24NES.jpg
47.292	0.514	Blank	Blank	59.984	n/a	1	2	7	n/a	27	n/a	1	n/a	n/a	n/a	n/a	79.573	n/a
47.822	0.497	neutral	Picture	59.47	n/a	1	2	8	n/a	28	14	1	n/a	n/a	n/a	n/a	80.103	AF23NES.jpg
48.32	0.514	Blank	Blank	58.956	n/a	1	2	8	n/a	28	n/a	1	n/a	n/a	n/a	n/a	80.601	n/a
48.85	0.497	neutral	Picture	58.442	n/a	1	2	9	n/a	29	9	1	n/a	n/a	n/a	n/a	81.131	AF17NES.jpg
49.348	0.514	Blank	Blank	57.928	n/a	1	2	9	n/a	29	n/a	1	n/a	n/a	n/a	n/a	81.629	n/a
49.878	0.497	neutral	Picture	57.414	n/a	1	2	10	n/a	30	19	1	n/a	n/a	n/a	n/a	82.159	AF31NES.jpg
50.376	0.514	Blank	Blank	56.9	n/a	1	2	10	n/a	30	n/a	1	n/a	n/a	n/a	n/a	82.657	n/a
50.906	0.497	neutral	Picture	56.386	n/a	1	2	11	n/a	31	15	1	n/a	n/a	n/a	n/a	83.187	AF25NES.jpg
51.404	0.514	Blank	Blank	55.872	n/a	1	2	11	n/a	31	n/a	1	n/a	n/a	n/a	n/a	83.684	n/a
51.934	0.497	neutral	Picture	55.358	n/a	1	2	12	n/a	32	22	1	n/a	n/a	n/a	n/a	84.215	BM03NES.jpg
52.431	0.514	Blank	Blank	54.845	n/a	1	2	12	n/a	32	n/a	1	n/a	n/a	n/a	n/a	84.712	n/a
52.962	0.497	neutral	Picture	54.331	n/a	1	2	13	n/a	33	11	1	n/a	n/a	n/a	n/a	85.243	AF20NES.jpg
53.459	0.514	Blank	Blank	53.817	n/a	1	2	13	n/a	33	n/a	1	n/a	n/a	n/a	n/a	85.74	n/a
53.99	0.497	neutral	Picture	53.303	n/a	1	2	14	n/a	34	4	1	n/a	n/a	n/a	n/a	86.271	AF05NES.jpg
54.487	0.514	Blank	Blank	52.789	n/a	1	2	14	n/a	34	n/a	1	n/a	n/a	n/a	n/a	86.768	n/a
55.018	0.497	neutral	Picture	52.275	n/a	1	2	15	n/a	35	17	1	n/a	n/a	n/a	n/a	87.299	BF28NES.jpg
55.515	0.514	Blank	Blank	51.761	n/a	1	2	15	n/a	35	n/a	1	n/a	n/a	n/a	n/a	87.796	n/a
56.045	0.497	neutral	Picture	51.247	n/a	1	2	16	n/a	36	13	1	n/a	n/a	n/a	n/a	88.326	BF22NES.jpg
56.543	0.514	Blank	Blank	50.733	n/a	1	2	16	n/a	36	n/a	1	n/a	n/a	n/a	n/a	88.824	n/a
57.073	0.497	neutral	Picture	50.219	n/a	1	2	17	n/a	37	12	1	n/a	n/a	n/a	n/a	89.354	AF21NES.jpg
57.571	0.514	Blank	Blank	49.705	n/a	1	2	17	n/a	37	n/a	1	n/a	n/a	n/a	n/a	89.852	n/a
58.101	0.497	neutral	Picture	49.191	n/a	1	2	18	n/a	38	24	1	n/a	n/a	n/a	n/a	90.382	BM05NES.jpg
58.599	0.514	Blank	Blank	48.677	n/a	1	2	18	n/a	38	n/a	1	n/a	n/a	n/a	n/a	90.88	n/a
59.129	0.497	neutral	Picture	48.163	n/a	1	2	19	n/a	39	29	1	n/a	n/a	n/a	n/a	91.41	AM10NES.jpg
59.627	0.514	Blank	Blank	47.649	n/a	1	2	19	n/a	39	n/a	1	n/a	n/a	n/a	n/a	91.908	n/a
60.157	0.497	neutral	Picture	47.135	n/a	1	2	20	n/a	40	23	1	n/a	n/a	n/a	n/a	92.438	AM04NES.jpg
60.654	0.514	Blank	Blank	46.621	n/a	1	2	20	n/a	40	n/a	1	n/a	n/a	n/a	n/a	92.935	n/a
61.185	10.014	ITI	Fixation+	36.591	n/a	1	n/a	n/a	n/a	n/a	n/a	n/a	n/a	n/a	n/a	n/a	93.466	n/a
71.215	0.497	happy	Picture	36.077	n/a	1	3	1	n/a	41	62	2	n/a	n/a	n/a	n/a	103.496	BM03HAS.jpg
71.713	0.514	Blank	Blank	35.563	n/a	1	3	1	n/a	41	n/a	2	n/a	n/a	n/a	n/a	103.993	n/a
72.243	0.497	happy	Picture	35.049	n/a	1	3	2	n/a	42	52	2	n/a	n/a	n/a	n/a	104.524	AF21HAS.jpg
72.74	0.514	Blank	Blank	34.536	n/a	1	3	2	n/a	42	n/a	2	n/a	n/a	n/a	n/a	105.021	n/a
73.271	0.497	happy	Picture	34.022	n/a	1	3	3	n/a	43	44	2	n/a	n/a	n/a	n/a	105.552	AF05HAS.jpg
73.768	0.514	Blank	Blank	33.508	n/a	1	3	3	n/a	43	n/a	2	n/a	n/a	n/a	n/a	106.049	n/a
74.299	0.497	happy	Picture	32.994	n/a	1	3	4	n/a	44	53	2	n/a	n/a	n/a	n/a	106.58	BF22HAS.jpg
74.796	0.514	Blank	Blank	32.48	n/a	1	3	4	n/a	44	n/a	2	n/a	n/a	n/a	n/a	107.077	n/a
75.327	0.497	happy	Picture	31.966	n/a	1	3	5	n/a	45	54	2	n/a	n/a	n/a	n/a	107.608	AF23HAS.jpg
75.824	0.514	Blank	Blank	31.452	n/a	1	3	5	n/a	45	n/a	2	n/a	n/a	n/a	n/a	108.105	n/a
76.355	0.497	happy	Picture	30.938	n/a	1	3	6	n/a	46	68	2	n/a	n/a	n/a	n/a	108.636	AM09HAS.jpg
76.852	0.514	Blank	Blank	30.424	n/a	1	3	6	n/a	46	n/a	2	n/a	n/a	n/a	n/a	109.133	n/a
77.382	0.497	happy	Picture	29.91	n/a	1	3	7	n/a	47	64	2	n/a	n/a	n/a	n/a	109.663	BM05HAS.jpg
77.88	0.514	Blank	Blank	29.396	n/a	1	3	7	n/a	47	n/a	2	n/a	n/a	n/a	n/a	110.161	n/a
78.41	0.497	happy	Picture	28.882	n/a	1	3	8	n/a	48	59	2	n/a	n/a	n/a	n/a	110.691	AF31HAS.jpg
78.908	0.514	Blank	Blank	28.368	n/a	1	3	8	n/a	48	n/a	2	n/a	n/a	n/a	n/a	111.189	n/a
79.438	0.497	happy	Picture	27.854	n/a	1	3	9	n/a	49	41	2	n/a	n/a	n/a	n/a	111.719	AF01HAS.jpg
79.936	0.514	Blank	Blank	27.34	n/a	1	3	9	n/a	49	n/a	2	n/a	n/a	n/a	n/a	112.217	n/a
80.466	0.497	happy	Picture	26.826	n/a	1	3	10	n/a	50	73	2	n/a	n/a	n/a	n/a	112.747	AM21HAS.jpg
80.964	0.514	Blank	Blank	26.312	n/a	1	3	10	n/a	50	n/a	2	n/a	n/a	n/a	n/a	113.245	n/a
81.494	0.497	happy	Picture	25.798	n/a	1	3	11	n/a	51	65	2	n/a	n/a	n/a	n/a	113.775	BM06HAS.jpg
81.991	0.514	Blank	Blank	25.285	n/a	1	3	11	n/a	51	n/a	2	n/a	n/a	n/a	n/a	114.272	n/a
82.522	0.497	happy	Picture	24.771	n/a	1	3	12	n/a	52	56	2	n/a	n/a	n/a	n/a	114.803	AF26HAS.jpg
83.019	0.514	Blank	Blank	24.257	n/a	1	3	12	n/a	52	n/a	2	n/a	n/a	n/a	n/a	115.3	n/a
83.55	0.497	happy	Picture	23.743	n/a	1	3	13	n/a	53	45	2	n/a	n/a	n/a	n/a	115.831	BF07HAS.jpg
84.047	0.514	Blank	Blank	23.229	n/a	1	3	13	n/a	53	n/a	2	n/a	n/a	n/a	n/a	116.328	n/a
84.578	0.497	happy	Picture	22.715	n/a	1	3	14	n/a	54	78	2	n/a	n/a	n/a	n/a	116.859	BM26HAS.jpg
85.075	0.514	Blank	Blank	22.201	n/a	1	3	14	n/a	54	n/a	2	n/a	n/a	n/a	n/a	117.356	n/a
85.606	0.497	happy	Picture	21.687	n/a	1	3	15	n/a	55	50	2	n/a	n/a	n/a	n/a	117.887	AF18HAS.jpg
86.103	0.514	Blank	Blank	21.173	n/a	1	3	15	n/a	55	n/a	2	n/a	n/a	n/a	n/a	118.384	n/a
86.633	0.497	happy	Picture	20.659	n/a	1	3	16	n/a	56	47	2	n/a	n/a	n/a	n/a	118.914	BF11HAS.jpg
87.131	0.514	Blank	Blank	20.145	n/a	1	3	16	n/a	56	n/a	2	n/a	n/a	n/a	n/a	119.412	n/a
87.661	0.497	happy	Picture	19.631	n/a	1	3	17	n/a	57	77	2	n/a	n/a	n/a	n/a	119.942	BM25HAS.jpg
88.159	0.514	Blank	Blank	19.117	n/a	1	3	17	n/a	57	n/a	2	n/a	n/a	n/a	n/a	120.44	n/a
88.689	0.497	happy	Picture	18.603	n/a	1	3	18	n/a	58	57	2	n/a	n/a	n/a	n/a	120.97	BF28HAS.jpg
89.187	0.514	Blank	Blank	18.089	n/a	1	3	18	n/a	58	n/a	2	n/a	n/a	n/a	n/a	121.468	n/a
89.717	0.497	happy	Picture	17.575	n/a	1	3	19	n/a	59	61	2	n/a	n/a	n/a	n/a	121.998	AM01HAS.jpg
90.215	0.514	Blank	Blank	17.061	n/a	1	3	19	n/a	59	n/a	2	n/a	n/a	n/a	n/a	122.496	n/a
90.745	0.497	happy	Picture	16.548	n/a	1	3	20	n/a	60	79	2	n/a	n/a	n/a	n/a	123.026	BM28HAS.jpg
91.242	0.514	Blank	Blank	16.034	n/a	1	3	20	n/a	60	n/a	2	n/a	n/a	n/a	n/a	123.523	n/a
91.773	10.014	ITI	Fixation+	6.003	n/a	1	n/a	n/a	n/a	n/a	n/a	n/a	n/a	n/a	n/a	n/a	124.054	n/a
107.79	n/a	ConfirmRating	Rate	n/a	5.985	1	n/a	n/a	0	n/a	n/a	n/a	2	Happy	50	50	140.071	n/a
112.679	n/a	ConfirmRating	Rate	n/a	4.857	1	n/a	n/a	1	n/a	n/a	n/a	3	Happy	50	50	144.96	n/a
112.695	10.014	ITI	Fixation+	96.924	n/a	2	n/a	n/a	n/a	n/a	n/a	n/a	n/a	n/a	n/a	n/a	144.976	n/a
122.725	0.497	angry	Picture	96.41	n/a	2	4	1	n/a	61	119	3	n/a	n/a	n/a	n/a	155.006	BM28ANS.jpg
123.223	0.514	Blank	Blank	95.896	n/a	2	4	1	n/a	61	n/a	3	n/a	n/a	n/a	n/a	155.504	n/a
123.753	0.497	angry	Picture	95.382	n/a	2	4	2	n/a	62	100	3	n/a	n/a	n/a	n/a	156.034	AF32ANS.jpg
124.251	0.514	Blank	Blank	94.868	n/a	2	4	2	n/a	62	n/a	3	n/a	n/a	n/a	n/a	156.532	n/a
124.781	0.497	angry	Picture	94.355	n/a	2	4	3	n/a	63	118	3	n/a	n/a	n/a	n/a	157.062	BM26ANS.jpg
125.279	0.514	Blank	Blank	93.841	n/a	2	4	3	n/a	63	n/a	3	n/a	n/a	n/a	n/a	157.56	n/a
125.809	0.497	angry	Picture	93.327	n/a	2	4	4	n/a	64	89	3	n/a	n/a	n/a	n/a	158.09	AF17ANS.jpg
126.306	0.514	Blank	Blank	92.813	n/a	2	4	4	n/a	64	n/a	3	n/a	n/a	n/a	n/a	158.588	n/a
126.837	0.497	angry	Picture	92.299	n/a	2	4	5	n/a	65	116	3	n/a	n/a	n/a	n/a	159.118	BM24ANS.jpg
127.334	0.514	Blank	Blank	91.785	n/a	2	4	5	n/a	65	n/a	3	n/a	n/a	n/a	n/a	159.615	n/a
127.865	0.497	angry	Picture	91.271	n/a	2	4	6	n/a	66	105	3	n/a	n/a	n/a	n/a	160.146	BM06ANS.jpg
128.362	0.514	Blank	Blank	90.757	n/a	2	4	6	n/a	66	n/a	3	n/a	n/a	n/a	n/a	160.643	n/a
128.893	0.497	angry	Picture	90.243	n/a	2	4	7	n/a	67	106	3	n/a	n/a	n/a	n/a	161.174	AM07ANS.jpg
129.39	0.514	Blank	Blank	89.729	n/a	2	4	7	n/a	67	n/a	3	n/a	n/a	n/a	n/a	161.671	n/a
129.921	0.497	angry	Picture	89.215	n/a	2	4	8	n/a	68	94	3	n/a	n/a	n/a	n/a	162.202	AF23ANS.jpg
130.418	0.514	Blank	Blank	88.701	n/a	2	4	8	n/a	68	n/a	3	n/a	n/a	n/a	n/a	162.699	n/a
130.949	0.497	angry	Picture	88.187	n/a	2	4	9	n/a	69	117	3	n/a	n/a	n/a	n/a	163.23	BM25ANS.jpg
131.446	0.514	Blank	Blank	87.673	n/a	2	4	9	n/a	69	n/a	3	n/a	n/a	n/a	n/a	163.727	n/a
131.976	0.497	angry	Picture	87.159	n/a	2	4	10	n/a	70	90	3	n/a	n/a	n/a	n/a	164.257	AF18ANS.jpg
132.474	0.514	Blank	Blank	86.645	n/a	2	4	10	n/a	70	n/a	3	n/a	n/a	n/a	n/a	164.755	n/a
133.004	0.497	angry	Picture	86.131	n/a	2	4	11	n/a	71	83	3	n/a	n/a	n/a	n/a	165.285	BF04ANS.jpg
133.502	0.514	Blank	Blank	85.617	n/a	2	4	11	n/a	71	n/a	3	n/a	n/a	n/a	n/a	165.783	n/a
134.032	0.497	angry	Picture	85.104	n/a	2	4	12	n/a	72	112	3	n/a	n/a	n/a	n/a	166.313	AM14ANS.jpg
134.53	0.514	Blank	Blank	84.59	n/a	2	4	12	n/a	72	n/a	3	n/a	n/a	n/a	n/a	166.811	n/a
135.06	0.497	angry	Picture	84.076	n/a	2	4	13	n/a	73	102	3	n/a	n/a	n/a	n/a	167.341	BM03ANS.jpg
135.558	0.514	Blank	Blank	83.562	n/a	2	4	13	n/a	73	n/a	3	n/a	n/a	n/a	n/a	167.839	n/a
136.088	0.497	angry	Picture	83.048	n/a	2	4	14	n/a	74	95	3	n/a	n/a	n/a	n/a	168.369	AF25ANS.jpg
136.585	0.514	Blank	Blank	82.534	n/a	2	4	14	n/a	74	n/a	3	n/a	n/a	n/a	n/a	168.866	n/a
137.116	0.497	angry	Picture	82.02	n/a	2	4	15	n/a	75	113	3	n/a	n/a	n/a	n/a	169.397	AM21ANS.jpg
137.613	0.514	Blank	Blank	81.506	n/a	2	4	15	n/a	75	n/a	3	n/a	n/a	n/a	n/a	169.894	n/a
138.144	0.497	angry	Picture	80.992	n/a	2	4	16	n/a	76	88	3	n/a	n/a	n/a	n/a	170.425	AF14ANS.jpg
138.641	0.514	Blank	Blank	80.478	n/a	2	4	16	n/a	76	n/a	3	n/a	n/a	n/a	n/a	170.922	n/a
139.172	0.497	angry	Picture	79.964	n/a	2	4	17	n/a	77	93	3	n/a	n/a	n/a	n/a	171.453	BF22ANS.jpg
139.669	0.514	Blank	Blank	79.45	n/a	2	4	17	n/a	77	n/a	3	n/a	n/a	n/a	n/a	171.95	n/a
140.2	0.497	angry	Picture	78.936	n/a	2	4	18	n/a	78	86	3	n/a	n/a	n/a	n/a	172.481	AF09ANS.jpg
140.697	0.514	Blank	Blank	78.422	n/a	2	4	18	n/a	78	n/a	3	n/a	n/a	n/a	n/a	172.978	n/a
141.227	0.497	angry	Picture	77.908	n/a	2	4	19	n/a	79	92	3	n/a	n/a	n/a	n/a	173.508	AF21ANS.jpg
141.725	0.514	Blank	Blank	77.394	n/a	2	4	19	n/a	79	n/a	3	n/a	n/a	n/a	n/a	174.006	n/a
142.255	0.497	angry	Picture	76.88	n/a	2	4	20	n/a	80	84	3	n/a	n/a	n/a	n/a	174.536	AF05ANS.jpg
142.753	0.514	Blank	Blank	76.367	n/a	2	4	20	n/a	80	n/a	3	n/a	n/a	n/a	n/a	175.034	n/a
143.283	10.014	ITI	Fixation+	66.336	n/a	2	n/a	n/a	n/a	n/a	n/a	n/a	n/a	n/a	n/a	n/a	175.564	n/a
153.313	0.497	neutral	Picture	65.822	n/a	2	5	1	n/a	81	4	1	n/a	n/a	n/a	n/a	185.594	AF05NES.jpg
153.811	0.514	Blank	Blank	65.308	n/a	2	5	1	n/a	81	n/a	1	n/a	n/a	n/a	n/a	186.092	n/a
154.341	0.497	neutral	Picture	64.794	n/a	2	5	2	n/a	82	14	1	n/a	n/a	n/a	n/a	186.622	AF23NES.jpg
154.839	0.514	Blank	Blank	64.281	n/a	2	5	2	n/a	82	n/a	1	n/a	n/a	n/a	n/a	187.12	n/a
155.369	0.497	neutral	Picture	63.767	n/a	2	5	3	n/a	83	19	1	n/a	n/a	n/a	n/a	187.65	AF31NES.jpg
155.867	0.514	Blank	Blank	63.253	n/a	2	5	3	n/a	83	n/a	1	n/a	n/a	n/a	n/a	188.148	n/a
156.397	0.497	neutral	Picture	62.739	n/a	2	5	4	n/a	84	8	1	n/a	n/a	n/a	n/a	188.678	AF14NES.jpg
156.894	0.514	Blank	Blank	62.225	n/a	2	5	4	n/a	84	n/a	1	n/a	n/a	n/a	n/a	189.175	n/a
157.425	0.497	neutral	Picture	61.711	n/a	2	5	5	n/a	85	25	1	n/a	n/a	n/a	n/a	189.706	BM06NES.jpg
157.922	0.514	Blank	Blank	61.197	n/a	2	5	5	n/a	85	n/a	1	n/a	n/a	n/a	n/a	190.203	n/a
158.453	0.497	neutral	Picture	60.683	n/a	2	5	6	n/a	86	9	1	n/a	n/a	n/a	n/a	190.734	AF17NES.jpg
158.95	0.514	Blank	Blank	60.169	n/a	2	5	6	n/a	86	n/a	1	n/a	n/a	n/a	n/a	191.231	n/a
159.481	0.497	neutral	Picture	59.655	n/a	2	5	7	n/a	87	2	1	n/a	n/a	n/a	n/a	191.762	AF03NES.jpg
159.978	0.514	Blank	Blank	59.141	n/a	2	5	7	n/a	87	n/a	1	n/a	n/a	n/a	n/a	192.259	n/a
160.509	0.497	neutral	Picture	58.627	n/a	2	5	8	n/a	88	17	1	n/a	n/a	n/a	n/a	192.79	BF28NES.jpg
161.006	0.514	Blank	Blank	58.113	n/a	2	5	8	n/a	88	n/a	1	n/a	n/a	n/a	n/a	193.287	n/a
161.536	0.497	neutral	Picture	57.599	n/a	2	5	9	n/a	89	6	1	n/a	n/a	n/a	n/a	193.817	AF09NES.jpg
162.034	0.514	Blank	Blank	57.085	n/a	2	5	9	n/a	89	n/a	1	n/a	n/a	n/a	n/a	194.315	n/a
162.564	0.497	neutral	Picture	56.571	n/a	2	5	10	n/a	90	12	1	n/a	n/a	n/a	n/a	194.845	AF21NES.jpg
163.062	0.514	Blank	Blank	56.057	n/a	2	5	10	n/a	90	n/a	1	n/a	n/a	n/a	n/a	195.343	n/a
163.592	0.497	neutral	Picture	55.544	n/a	2	5	11	n/a	91	24	1	n/a	n/a	n/a	n/a	195.873	BM05NES.jpg
164.09	0.514	Blank	Blank	55.03	n/a	2	5	11	n/a	91	n/a	1	n/a	n/a	n/a	n/a	196.371	n/a
164.62	0.497	neutral	Picture	54.516	n/a	2	5	12	n/a	92	34	1	n/a	n/a	n/a	n/a	196.901	AM22NES.jpg
165.118	0.514	Blank	Blank	54.002	n/a	2	5	12	n/a	92	n/a	1	n/a	n/a	n/a	n/a	197.399	n/a
165.648	0.497	neutral	Picture	53.488	n/a	2	5	13	n/a	93	23	1	n/a	n/a	n/a	n/a	197.929	AM04NES.jpg
166.145	0.514	Blank	Blank	52.974	n/a	2	5	13	n/a	93	n/a	1	n/a	n/a	n/a	n/a	198.426	n/a
166.676	0.497	neutral	Picture	52.46	n/a	2	5	14	n/a	94	15	1	n/a	n/a	n/a	n/a	198.957	AF25NES.jpg
167.173	0.514	Blank	Blank	51.946	n/a	2	5	14	n/a	94	n/a	1	n/a	n/a	n/a	n/a	199.454	n/a
167.704	0.497	neutral	Picture	51.432	n/a	2	5	15	n/a	95	37	1	n/a	n/a	n/a	n/a	199.985	BM25NES.jpg
168.201	0.514	Blank	Blank	50.918	n/a	2	5	15	n/a	95	n/a	1	n/a	n/a	n/a	n/a	200.482	n/a
168.732	0.497	neutral	Picture	50.404	n/a	2	5	16	n/a	96	32	1	n/a	n/a	n/a	n/a	201.013	AM14NES.jpg
169.229	0.514	Blank	Blank	49.89	n/a	2	5	16	n/a	96	n/a	1	n/a	n/a	n/a	n/a	201.51	n/a
169.76	0.497	neutral	Picture	49.376	n/a	2	5	17	n/a	97	3	1	n/a	n/a	n/a	n/a	202.041	BF04NES.jpg
170.257	0.514	Blank	Blank	48.862	n/a	2	5	17	n/a	97	n/a	1	n/a	n/a	n/a	n/a	202.538	n/a
170.787	0.497	neutral	Picture	48.348	n/a	2	5	18	n/a	98	16	1	n/a	n/a	n/a	n/a	203.069	AF26NES.jpg
171.285	0.514	Blank	Blank	47.834	n/a	2	5	18	n/a	98	n/a	1	n/a	n/a	n/a	n/a	203.566	n/a
171.815	0.497	neutral	Picture	47.32	n/a	2	5	19	n/a	99	27	1	n/a	n/a	n/a	n/a	204.096	BM08NES.jpg
172.313	0.514	Blank	Blank	46.806	n/a	2	5	19	n/a	99	n/a	1	n/a	n/a	n/a	n/a	204.594	n/a
172.843	0.497	neutral	Picture	46.293	n/a	2	5	20	n/a	100	28	1	n/a	n/a	n/a	n/a	205.124	AM09NES.jpg
173.341	0.514	Blank	Blank	45.779	n/a	2	5	20	n/a	100	n/a	1	n/a	n/a	n/a	n/a	205.622	n/a
173.871	10.014	ITI	Fixation+	35.749	n/a	2	n/a	n/a	n/a	n/a	n/a	n/a	n/a	n/a	n/a	n/a	206.152	n/a
183.901	0.497	angry	Picture	35.234	n/a	2	6	1	n/a	101	81	3	n/a	n/a	n/a	n/a	216.182	AF01ANS.jpg
184.399	0.514	Blank	Blank	34.721	n/a	2	6	1	n/a	101	n/a	3	n/a	n/a	n/a	n/a	216.68	n/a
184.929	0.497	angry	Picture	34.207	n/a	2	6	2	n/a	102	120	3	n/a	n/a	n/a	n/a	217.21	AM35ANS.jpg
185.427	0.514	Blank	Blank	33.693	n/a	2	6	2	n/a	102	n/a	3	n/a	n/a	n/a	n/a	217.708	n/a
185.957	0.497	angry	Picture	33.179	n/a	2	6	3	n/a	103	114	3	n/a	n/a	n/a	n/a	218.238	AM22ANS.jpg
186.454	0.514	Blank	Blank	32.665	n/a	2	6	3	n/a	103	n/a	3	n/a	n/a	n/a	n/a	218.735	n/a
186.985	0.497	angry	Picture	32.151	n/a	2	6	4	n/a	104	109	3	n/a	n/a	n/a	n/a	219.266	AM10ANS.jpg
187.482	0.514	Blank	Blank	31.637	n/a	2	6	4	n/a	104	n/a	3	n/a	n/a	n/a	n/a	219.763	n/a
188.013	0.497	angry	Picture	31.123	n/a	2	6	5	n/a	105	96	3	n/a	n/a	n/a	n/a	220.294	AF26ANS.jpg
188.51	0.514	Blank	Blank	30.609	n/a	2	6	5	n/a	105	n/a	3	n/a	n/a	n/a	n/a	220.791	n/a
189.041	0.497	angry	Picture	30.095	n/a	2	6	6	n/a	106	82	3	n/a	n/a	n/a	n/a	221.322	AF03ANS.jpg
189.538	0.514	Blank	Blank	29.581	n/a	2	6	6	n/a	106	n/a	3	n/a	n/a	n/a	n/a	221.819	n/a
190.069	0.497	angry	Picture	29.067	n/a	2	6	7	n/a	107	97	3	n/a	n/a	n/a	n/a	222.35	BF28ANS.jpg
190.566	0.514	Blank	Blank	28.553	n/a	2	6	7	n/a	107	n/a	3	n/a	n/a	n/a	n/a	222.847	n/a
191.096	0.497	angry	Picture	28.039	n/a	2	6	8	n/a	108	115	3	n/a	n/a	n/a	n/a	223.377	AM23ANS.jpg
191.594	0.514	Blank	Blank	27.525	n/a	2	6	8	n/a	108	n/a	3	n/a	n/a	n/a	n/a	223.875	n/a
192.124	0.497	angry	Picture	27.011	n/a	2	6	9	n/a	109	91	3	n/a	n/a	n/a	n/a	224.405	AF20ANS.jpg
192.622	0.514	Blank	Blank	26.497	n/a	2	6	9	n/a	109	n/a	3	n/a	n/a	n/a	n/a	224.903	n/a
193.152	0.497	angry	Picture	25.984	n/a	2	6	10	n/a	110	87	3	n/a	n/a	n/a	n/a	225.433	BF11ANS.jpg
193.65	0.514	Blank	Blank	25.47	n/a	2	6	10	n/a	110	n/a	3	n/a	n/a	n/a	n/a	225.931	n/a
194.18	0.497	angry	Picture	24.956	n/a	2	6	11	n/a	111	85	3	n/a	n/a	n/a	n/a	226.461	BF07ANS.jpg
194.677	0.514	Blank	Blank	24.442	n/a	2	6	11	n/a	111	n/a	3	n/a	n/a	n/a	n/a	226.958	n/a
195.208	0.497	angry	Picture	23.928	n/a	2	6	12	n/a	112	110	3	n/a	n/a	n/a	n/a	227.489	AM11ANS.jpg
195.705	0.514	Blank	Blank	23.414	n/a	2	6	12	n/a	112	n/a	3	n/a	n/a	n/a	n/a	227.986	n/a
196.236	0.497	angry	Picture	22.9	n/a	2	6	13	n/a	113	111	3	n/a	n/a	n/a	n/a	228.517	BM12ANS.jpg
196.733	0.514	Blank	Blank	22.386	n/a	2	6	13	n/a	113	n/a	3	n/a	n/a	n/a	n/a	229.014	n/a
197.264	0.497	angry	Picture	21.872	n/a	2	6	14	n/a	114	103	3	n/a	n/a	n/a	n/a	229.545	AM04ANS.jpg
197.761	0.514	Blank	Blank	21.358	n/a	2	6	14	n/a	114	n/a	3	n/a	n/a	n/a	n/a	230.042	n/a
198.292	0.497	angry	Picture	20.844	n/a	2	6	15	n/a	115	101	3	n/a	n/a	n/a	n/a	230.573	AM01ANS.jpg
198.789	0.514	Blank	Blank	20.33	n/a	2	6	15	n/a	115	n/a	3	n/a	n/a	n/a	n/a	231.07	n/a
199.32	0.497	angry	Picture	19.816	n/a	2	6	16	n/a	116	104	3	n/a	n/a	n/a	n/a	231.601	BM05ANS.jpg
199.817	0.514	Blank	Blank	19.302	n/a	2	6	16	n/a	116	n/a	3	n/a	n/a	n/a	n/a	232.098	n/a
200.347	0.497	angry	Picture	18.788	n/a	2	6	17	n/a	117	107	3	n/a	n/a	n/a	n/a	232.629	BM08ANS.jpg
200.845	0.514	Blank	Blank	18.274	n/a	2	6	17	n/a	117	n/a	3	n/a	n/a	n/a	n/a	233.126	n/a
201.375	0.497	angry	Picture	17.761	n/a	2	6	18	n/a	118	98	3	n/a	n/a	n/a	n/a	233.656	BF29ANS.jpg
201.873	0.514	Blank	Blank	17.246	n/a	2	6	18	n/a	118	n/a	3	n/a	n/a	n/a	n/a	234.154	n/a
202.403	0.497	angry	Picture	16.733	n/a	2	6	19	n/a	119	99	3	n/a	n/a	n/a	n/a	234.684	AF31ANS.jpg
202.901	0.514	Blank	Blank	16.219	n/a	2	6	19	n/a	119	n/a	3	n/a	n/a	n/a	n/a	235.182	n/a
203.431	0.497	angry	Picture	15.705	n/a	2	6	20	n/a	120	108	3	n/a	n/a	n/a	n/a	235.712	AM09ANS.jpg
203.928	0.514	Blank	Blank	15.191	n/a	2	6	20	n/a	120	n/a	3	n/a	n/a	n/a	n/a	236.209	n/a
204.459	10.014	ITI	Fixation+	5.161	n/a	2	n/a	n/a	n/a	n/a	n/a	n/a	n/a	n/a	n/a	n/a	236.74	n/a
219.633	n/a	ConfirmRating	Rate	n/a	5.156	2	n/a	n/a	0	n/a	n/a	n/a	2	Angry	40	50	251.914	n/a
227.879	n/a	ConfirmRating	Rate	n/a	8.223	2	n/a	n/a	1	n/a	n/a	n/a	3	Angry	57	51	260.16	n/a
227.901	15.004	Rest	Picture	n/a	n/a	n/a	n/a	n/a	n/a	n/a	n/a	n/a	0	n/a	0	0	260.183	n/a
242.922	10.014	ITI	Fixation+	94.765	n/a	3	n/a	n/a	n/a	n/a	n/a	n/a	n/a	n/a	n/a	n/a	275.203	n/a
252.952	0.497	happy	Picture	94.251	n/a	3	7	1	n/a	1	46	2	n/a	n/a	n/a	n/a	285.233	AF09HAS.jpg
253.449	0.514	Blank	Blank	93.737	n/a	3	7	1	n/a	1	n/a	2	n/a	n/a	n/a	n/a	285.73	n/a
253.98	0.497	happy	Picture	93.223	n/a	3	7	2	n/a	2	69	2	n/a	n/a	n/a	n/a	286.261	AM10HAS.jpg
254.477	0.514	Blank	Blank	92.709	n/a	3	7	2	n/a	2	n/a	2	n/a	n/a	n/a	n/a	286.758	n/a
255.008	0.497	happy	Picture	92.195	n/a	3	7	3	n/a	3	71	2	n/a	n/a	n/a	n/a	287.289	BM12HAS.jpg
255.505	0.514	Blank	Blank	91.681	n/a	3	7	3	n/a	3	n/a	2	n/a	n/a	n/a	n/a	287.786	n/a
256.036	0.497	happy	Picture	91.167	n/a	3	7	4	n/a	4	51	2	n/a	n/a	n/a	n/a	288.317	AF20HAS.jpg
256.533	0.514	Blank	Blank	90.653	n/a	3	7	4	n/a	4	n/a	2	n/a	n/a	n/a	n/a	288.814	n/a
257.064	0.497	happy	Picture	90.139	n/a	3	7	5	n/a	5	67	2	n/a	n/a	n/a	n/a	289.345	BM08HAS.jpg
257.561	0.514	Blank	Blank	89.625	n/a	3	7	5	n/a	5	n/a	2	n/a	n/a	n/a	n/a	289.842	n/a
258.091	0.497	happy	Picture	89.112	n/a	3	7	6	n/a	6	60	2	n/a	n/a	n/a	n/a	290.373	AF32HAS.jpg
258.589	0.514	Blank	Blank	88.598	n/a	3	7	6	n/a	6	n/a	2	n/a	n/a	n/a	n/a	290.87	n/a
259.119	0.497	happy	Picture	88.084	n/a	3	7	7	n/a	7	42	2	n/a	n/a	n/a	n/a	291.4	AF03HAS.jpg
259.617	0.514	Blank	Blank	87.57	n/a	3	7	7	n/a	7	n/a	2	n/a	n/a	n/a	n/a	291.898	n/a
260.147	0.497	happy	Picture	87.056	n/a	3	7	8	n/a	8	55	2	n/a	n/a	n/a	n/a	292.428	AF25HAS.jpg
260.645	0.514	Blank	Blank	86.542	n/a	3	7	8	n/a	8	n/a	2	n/a	n/a	n/a	n/a	292.926	n/a
261.175	0.497	happy	Picture	86.028	n/a	3	7	9	n/a	9	72	2	n/a	n/a	n/a	n/a	293.456	AM14HAS.jpg
261.673	0.514	Blank	Blank	85.514	n/a	3	7	9	n/a	9	n/a	2	n/a	n/a	n/a	n/a	293.954	n/a
262.203	0.497	happy	Picture	85.0	n/a	3	7	10	n/a	10	63	2	n/a	n/a	n/a	n/a	294.484	AM04HAS.jpg
262.7	0.514	Blank	Blank	84.486	n/a	3	7	10	n/a	10	n/a	2	n/a	n/a	n/a	n/a	294.981	n/a
263.231	0.497	happy	Picture	83.972	n/a	3	7	11	n/a	11	58	2	n/a	n/a	n/a	n/a	295.512	BF29HAS.jpg
263.728	0.514	Blank	Blank	83.458	n/a	3	7	11	n/a	11	n/a	2	n/a	n/a	n/a	n/a	296.009	n/a
264.259	0.497	happy	Picture	82.944	n/a	3	7	12	n/a	12	48	2	n/a	n/a	n/a	n/a	296.54	AF14HAS.jpg
264.756	0.514	Blank	Blank	82.43	n/a	3	7	12	n/a	12	n/a	2	n/a	n/a	n/a	n/a	297.037	n/a
265.287	0.497	happy	Picture	81.916	n/a	3	7	13	n/a	13	66	2	n/a	n/a	n/a	n/a	297.568	BM07HAS.jpg
265.784	0.514	Blank	Blank	81.402	n/a	3	7	13	n/a	13	n/a	2	n/a	n/a	n/a	n/a	298.065	n/a
266.315	0.497	happy	Picture	80.889	n/a	3	7	14	n/a	14	70	2	n/a	n/a	n/a	n/a	298.596	BM11HAS.jpg
266.812	0.514	Blank	Blank	80.375	n/a	3	7	14	n/a	14	n/a	2	n/a	n/a	n/a	n/a	299.093	n/a
267.342	0.497	happy	Picture	79.861	n/a	3	7	15	n/a	15	43	2	n/a	n/a	n/a	n/a	299.623	BF04HAS.jpg
267.84	0.514	Blank	Blank	79.347	n/a	3	7	15	n/a	15	n/a	2	n/a	n/a	n/a	n/a	300.121	n/a
268.37	0.497	happy	Picture	78.833	n/a	3	7	16	n/a	16	49	2	n/a	n/a	n/a	n/a	300.651	AF17HAS.jpg
268.868	0.514	Blank	Blank	78.319	n/a	3	7	16	n/a	16	n/a	2	n/a	n/a	n/a	n/a	301.149	n/a
269.398	0.497	happy	Picture	77.805	n/a	3	7	17	n/a	17	75	2	n/a	n/a	n/a	n/a	301.679	AM23HAS.jpg
269.896	0.514	Blank	Blank	77.291	n/a	3	7	17	n/a	17	n/a	2	n/a	n/a	n/a	n/a	302.177	n/a
270.426	0.497	happy	Picture	76.777	n/a	3	7	18	n/a	18	80	2	n/a	n/a	n/a	n/a	302.707	BM35HAS.jpg
270.923	0.514	Blank	Blank	76.263	n/a	3	7	18	n/a	18	n/a	2	n/a	n/a	n/a	n/a	303.204	n/a
271.454	0.497	happy	Picture	75.749	n/a	3	7	19	n/a	19	76	2	n/a	n/a	n/a	n/a	303.735	BM24HAS.jpg
271.951	0.514	Blank	Blank	75.235	n/a	3	7	19	n/a	19	n/a	2	n/a	n/a	n/a	n/a	304.232	n/a
272.482	0.497	happy	Picture	74.721	n/a	3	7	20	n/a	20	74	2	n/a	n/a	n/a	n/a	304.763	AM22HAS.jpg
272.979	0.514	Blank	Blank	74.207	n/a	3	7	20	n/a	20	n/a	2	n/a	n/a	n/a	n/a	305.26	n/a
273.51	10.014	ITI	Fixation+	64.177	n/a	3	n/a	n/a	n/a	n/a	n/a	n/a	n/a	n/a	n/a	n/a	305.791	n/a
283.54	0.497	neutral	Picture	63.663	n/a	3	8	1	n/a	21	33	1	n/a	n/a	n/a	n/a	315.821	AM21NES.jpg
284.037	0.514	Blank	Blank	63.149	n/a	3	8	1	n/a	21	n/a	1	n/a	n/a	n/a	n/a	316.318	n/a
284.568	0.497	neutral	Picture	62.635	n/a	3	8	2	n/a	22	39	1	n/a	n/a	n/a	n/a	316.849	AM28NES.jpg
285.065	0.514	Blank	Blank	62.121	n/a	3	8	2	n/a	22	n/a	1	n/a	n/a	n/a	n/a	317.346	n/a
285.596	0.497	neutral	Picture	61.607	n/a	3	8	3	n/a	23	25	1	n/a	n/a	n/a	n/a	317.877	BM06NES.jpg
286.093	0.514	Blank	Blank	61.093	n/a	3	8	3	n/a	23	n/a	1	n/a	n/a	n/a	n/a	318.374	n/a
286.624	0.497	neutral	Picture	60.579	n/a	3	8	4	n/a	24	5	1	n/a	n/a	n/a	n/a	318.905	BF07NES.jpg
287.121	0.514	Blank	Blank	60.066	n/a	3	8	4	n/a	24	n/a	1	n/a	n/a	n/a	n/a	319.402	n/a
287.651	0.497	neutral	Picture	59.552	n/a	3	8	5	n/a	25	10	1	n/a	n/a	n/a	n/a	319.933	AF18NES.jpg
288.149	0.514	Blank	Blank	59.038	n/a	3	8	5	n/a	25	n/a	1	n/a	n/a	n/a	n/a	320.43	n/a
288.679	0.497	neutral	Picture	58.524	n/a	3	8	6	n/a	26	34	1	n/a	n/a	n/a	n/a	320.96	AM22NES.jpg
289.177	0.514	Blank	Blank	58.01	n/a	3	8	6	n/a	26	n/a	1	n/a	n/a	n/a	n/a	321.458	n/a
289.707	0.497	neutral	Picture	57.496	n/a	3	8	7	n/a	27	36	1	n/a	n/a	n/a	n/a	321.988	BM24NES.jpg
290.205	0.514	Blank	Blank	56.982	n/a	3	8	7	n/a	27	n/a	1	n/a	n/a	n/a	n/a	322.486	n/a
290.735	0.497	neutral	Picture	56.468	n/a	3	8	8	n/a	28	14	1	n/a	n/a	n/a	n/a	323.016	AF23NES.jpg
291.233	0.514	Blank	Blank	55.954	n/a	3	8	8	n/a	28	n/a	1	n/a	n/a	n/a	n/a	323.514	n/a
291.763	0.497	neutral	Picture	55.44	n/a	3	8	9	n/a	29	9	1	n/a	n/a	n/a	n/a	324.044	AF17NES.jpg
292.26	0.514	Blank	Blank	54.926	n/a	3	8	9	n/a	29	n/a	1	n/a	n/a	n/a	n/a	324.541	n/a
292.791	0.497	neutral	Picture	54.412	n/a	3	8	10	n/a	30	19	1	n/a	n/a	n/a	n/a	325.072	AF31NES.jpg
293.288	0.514	Blank	Blank	53.898	n/a	3	8	10	n/a	30	n/a	1	n/a	n/a	n/a	n/a	325.569	n/a
293.819	0.497	neutral	Picture	53.384	n/a	3	8	11	n/a	31	15	1	n/a	n/a	n/a	n/a	326.1	AF25NES.jpg
294.316	0.514	Blank	Blank	52.87	n/a	3	8	11	n/a	31	n/a	1	n/a	n/a	n/a	n/a	326.597	n/a
294.847	0.497	neutral	Picture	52.356	n/a	3	8	12	n/a	32	22	1	n/a	n/a	n/a	n/a	327.128	BM03NES.jpg
295.344	0.514	Blank	Blank	51.842	n/a	3	8	12	n/a	32	n/a	1	n/a	n/a	n/a	n/a	327.625	n/a
295.875	0.497	neutral	Picture	51.329	n/a	3	8	13	n/a	33	11	1	n/a	n/a	n/a	n/a	328.156	AF20NES.jpg
296.372	0.514	Blank	Blank	50.815	n/a	3	8	13	n/a	33	n/a	1	n/a	n/a	n/a	n/a	328.653	n/a
296.902	0.497	neutral	Picture	50.301	n/a	3	8	14	n/a	34	4	1	n/a	n/a	n/a	n/a	329.183	AF05NES.jpg
297.4	0.514	Blank	Blank	49.787	n/a	3	8	14	n/a	34	n/a	1	n/a	n/a	n/a	n/a	329.681	n/a
297.93	0.497	neutral	Picture	49.273	n/a	3	8	15	n/a	35	17	1	n/a	n/a	n/a	n/a	330.211	BF28NES.jpg
298.428	0.514	Blank	Blank	48.759	n/a	3	8	15	n/a	35	n/a	1	n/a	n/a	n/a	n/a	330.709	n/a
298.958	0.497	neutral	Picture	48.245	n/a	3	8	16	n/a	36	13	1	n/a	n/a	n/a	n/a	331.239	BF22NES.jpg
299.456	0.514	Blank	Blank	47.731	n/a	3	8	16	n/a	36	n/a	1	n/a	n/a	n/a	n/a	331.737	n/a
299.986	0.497	neutral	Picture	47.217	n/a	3	8	17	n/a	37	12	1	n/a	n/a	n/a	n/a	332.267	AF21NES.jpg
300.483	0.514	Blank	Blank	46.703	n/a	3	8	17	n/a	37	n/a	1	n/a	n/a	n/a	n/a	332.764	n/a
301.014	0.497	neutral	Picture	46.189	n/a	3	8	18	n/a	38	24	1	n/a	n/a	n/a	n/a	333.295	BM05NES.jpg
301.511	0.514	Blank	Blank	45.675	n/a	3	8	18	n/a	38	n/a	1	n/a	n/a	n/a	n/a	333.792	n/a
302.042	0.497	neutral	Picture	45.161	n/a	3	8	19	n/a	39	29	1	n/a	n/a	n/a	n/a	334.323	AM10NES.jpg
302.539	0.514	Blank	Blank	44.647	n/a	3	8	19	n/a	39	n/a	1	n/a	n/a	n/a	n/a	334.82	n/a
303.07	0.497	neutral	Picture	44.133	n/a	3	8	20	n/a	40	23	1	n/a	n/a	n/a	n/a	335.351	AM04NES.jpg
303.567	0.514	Blank	Blank	43.619	n/a	3	8	20	n/a	40	n/a	1	n/a	n/a	n/a	n/a	335.848	n/a
304.098	10.014	ITI	Fixation+	33.589	n/a	3	n/a	n/a	n/a	n/a	n/a	n/a	n/a	n/a	n/a	n/a	336.379	n/a
314.128	0.497	happy	Picture	33.075	n/a	3	9	1	n/a	41	62	2	n/a	n/a	n/a	n/a	346.409	BM03HAS.jpg
314.625	0.514	Blank	Blank	32.561	n/a	3	9	1	n/a	41	n/a	2	n/a	n/a	n/a	n/a	346.906	n/a
315.156	0.497	happy	Picture	32.047	n/a	3	9	2	n/a	42	52	2	n/a	n/a	n/a	n/a	347.437	AF21HAS.jpg
315.653	0.514	Blank	Blank	31.533	n/a	3	9	2	n/a	42	n/a	2	n/a	n/a	n/a	n/a	347.934	n/a
316.184	0.497	happy	Picture	31.019	n/a	3	9	3	n/a	43	44	2	n/a	n/a	n/a	n/a	348.465	AF05HAS.jpg
316.681	0.514	Blank	Blank	30.506	n/a	3	9	3	n/a	43	n/a	2	n/a	n/a	n/a	n/a	348.962	n/a
317.212	0.497	happy	Picture	29.992	n/a	3	9	4	n/a	44	53	2	n/a	n/a	n/a	n/a	349.493	BF22HAS.jpg
317.709	0.514	Blank	Blank	29.478	n/a	3	9	4	n/a	44	n/a	2	n/a	n/a	n/a	n/a	349.99	n/a
318.239	0.497	happy	Picture	28.964	n/a	3	9	5	n/a	45	54	2	n/a	n/a	n/a	n/a	350.52	AF23HAS.jpg
318.737	0.514	Blank	Blank	28.45	n/a	3	9	5	n/a	45	n/a	2	n/a	n/a	n/a	n/a	351.018	n/a
319.267	0.497	happy	Picture	27.936	n/a	3	9	6	n/a	46	68	2	n/a	n/a	n/a	n/a	351.548	AM09HAS.jpg
319.765	0.514	Blank	Blank	27.422	n/a	3	9	6	n/a	46	n/a	2	n/a	n/a	n/a	n/a	352.046	n/a
320.295	0.497	happy	Picture	26.908	n/a	3	9	7	n/a	47	64	2	n/a	n/a	n/a	n/a	352.576	BM05HAS.jpg
320.793	0.514	Blank	Blank	26.394	n/a	3	9	7	n/a	47	n/a	2	n/a	n/a	n/a	n/a	353.074	n/a
321.323	0.497	happy	Picture	25.88	n/a	3	9	8	n/a	48	59	2	n/a	n/a	n/a	n/a	353.604	AF31HAS.jpg
321.82	0.514	Blank	Blank	25.366	n/a	3	9	8	n/a	48	n/a	2	n/a	n/a	n/a	n/a	354.101	n/a
322.351	0.497	happy	Picture	24.852	n/a	3	9	9	n/a	49	41	2	n/a	n/a	n/a	n/a	354.632	AF01HAS.jpg
322.848	0.514	Blank	Blank	24.338	n/a	3	9	9	n/a	49	n/a	2	n/a	n/a	n/a	n/a	355.129	n/a
323.379	0.497	happy	Picture	23.824	n/a	3	9	10	n/a	50	73	2	n/a	n/a	n/a	n/a	355.66	AM21HAS.jpg
323.876	0.514	Blank	Blank	23.31	n/a	3	9	10	n/a	50	n/a	2	n/a	n/a	n/a	n/a	356.157	n/a
324.407	0.497	happy	Picture	22.796	n/a	3	9	11	n/a	51	65	2	n/a	n/a	n/a	n/a	356.688	BM06HAS.jpg
324.904	0.514	Blank	Blank	22.282	n/a	3	9	11	n/a	51	n/a	2	n/a	n/a	n/a	n/a	357.185	n/a
325.435	0.497	happy	Picture	21.769	n/a	3	9	12	n/a	52	56	2	n/a	n/a	n/a	n/a	357.716	AF26HAS.jpg
325.932	0.514	Blank	Blank	21.255	n/a	3	9	12	n/a	52	n/a	2	n/a	n/a	n/a	n/a	358.213	n/a
326.462	0.497	happy	Picture	20.741	n/a	3	9	13	n/a	53	45	2	n/a	n/a	n/a	n/a	358.743	BF07HAS.jpg
326.96	0.514	Blank	Blank	20.227	n/a	3	9	13	n/a	53	n/a	2	n/a	n/a	n/a	n/a	359.241	n/a
327.49	0.497	happy	Picture	19.713	n/a	3	9	14	n/a	54	78	2	n/a	n/a	n/a	n/a	359.771	BM26HAS.jpg
327.988	0.514	Blank	Blank	19.199	n/a	3	9	14	n/a	54	n/a	2	n/a	n/a	n/a	n/a	360.269	n/a
328.518	0.497	happy	Picture	18.685	n/a	3	9	15	n/a	55	50	2	n/a	n/a	n/a	n/a	360.799	AF18HAS.jpg
329.016	0.514	Blank	Blank	18.171	n/a	3	9	15	n/a	55	n/a	2	n/a	n/a	n/a	n/a	361.297	n/a
329.546	0.497	happy	Picture	17.657	n/a	3	9	16	n/a	56	47	2	n/a	n/a	n/a	n/a	361.827	BF11HAS.jpg
330.043	0.514	Blank	Blank	17.143	n/a	3	9	16	n/a	56	n/a	2	n/a	n/a	n/a	n/a	362.325	n/a
330.574	0.497	happy	Picture	16.629	n/a	3	9	17	n/a	57	77	2	n/a	n/a	n/a	n/a	362.855	BM25HAS.jpg
331.071	0.514	Blank	Blank	16.115	n/a	3	9	17	n/a	57	n/a	2	n/a	n/a	n/a	n/a	363.352	n/a
331.602	0.497	happy	Picture	15.601	n/a	3	9	18	n/a	58	57	2	n/a	n/a	n/a	n/a	363.883	BF28HAS.jpg
332.099	0.514	Blank	Blank	15.087	n/a	3	9	18	n/a	58	n/a	2	n/a	n/a	n/a	n/a	364.38	n/a
332.63	0.497	happy	Picture	14.573	n/a	3	9	19	n/a	59	61	2	n/a	n/a	n/a	n/a	364.911	AM01HAS.jpg
333.127	0.514	Blank	Blank	14.059	n/a	3	9	19	n/a	59	n/a	2	n/a	n/a	n/a	n/a	365.408	n/a
333.658	0.497	happy	Picture	13.545	n/a	3	9	20	n/a	60	79	2	n/a	n/a	n/a	n/a	365.939	BM28HAS.jpg
334.155	0.514	Blank	Blank	13.031	n/a	3	9	20	n/a	60	n/a	2	n/a	n/a	n/a	n/a	366.436	n/a
334.685	10.014	ITI	Fixation+	3.001	n/a	3	n/a	n/a	n/a	n/a	n/a	n/a	n/a	n/a	n/a	n/a	366.966	n/a
347.7	n/a	ConfirmRating	Rate	n/a	3.001	3	n/a	n/a	0	n/a	n/a	n/a	2	Happy	60	51	379.981	n/a
350.171	n/a	ConfirmRating	Rate	n/a	2.453	3	n/a	n/a	1	n/a	n/a	n/a	3	Happy	42	49	382.452	n/a
350.203	10.014	ITI	Fixation+	93.565	n/a	4	n/a	n/a	n/a	n/a	n/a	n/a	n/a	n/a	n/a	n/a	382.484	n/a
360.233	0.497	angry	Picture	93.051	n/a	4	10	1	n/a	61	119	3	n/a	n/a	n/a	n/a	392.514	BM28ANS.jpg
360.731	0.514	Blank	Blank	92.537	n/a	4	10	1	n/a	61	n/a	3	n/a	n/a	n/a	n/a	393.012	n/a
361.261	0.497	angry	Picture	92.023	n/a	4	10	2	n/a	62	100	3	n/a	n/a	n/a	n/a	393.542	AF32ANS.jpg
361.759	0.514	Blank	Blank	91.509	n/a	4	10	2	n/a	62	n/a	3	n/a	n/a	n/a	n/a	394.04	n/a
362.289	0.497	angry	Picture	90.995	n/a	4	10	3	n/a	63	118	3	n/a	n/a	n/a	n/a	394.57	BM26ANS.jpg
362.787	0.514	Blank	Blank	90.481	n/a	4	10	3	n/a	63	n/a	3	n/a	n/a	n/a	n/a	395.068	n/a
363.317	0.497	angry	Picture	89.967	n/a	4	10	4	n/a	64	89	3	n/a	n/a	n/a	n/a	395.598	AF17ANS.jpg
363.815	0.514	Blank	Blank	89.453	n/a	4	10	4	n/a	64	n/a	3	n/a	n/a	n/a	n/a	396.096	n/a
364.345	0.497	angry	Picture	88.94	n/a	4	10	5	n/a	65	116	3	n/a	n/a	n/a	n/a	396.626	BM24ANS.jpg
364.842	0.514	Blank	Blank	88.426	n/a	4	10	5	n/a	65	n/a	3	n/a	n/a	n/a	n/a	397.123	n/a
365.373	0.497	angry	Picture	87.912	n/a	4	10	6	n/a	66	105	3	n/a	n/a	n/a	n/a	397.654	BM06ANS.jpg
365.87	0.514	Blank	Blank	87.398	n/a	4	10	6	n/a	66	n/a	3	n/a	n/a	n/a	n/a	398.151	n/a
366.401	0.497	angry	Picture	86.884	n/a	4	10	7	n/a	67	106	3	n/a	n/a	n/a	n/a	398.682	AM07ANS.jpg
366.898	0.514	Blank	Blank	86.37	n/a	4	10	7	n/a	67	n/a	3	n/a	n/a	n/a	n/a	399.179	n/a
367.429	0.497	angry	Picture	85.856	n/a	4	10	8	n/a	68	94	3	n/a	n/a	n/a	n/a	399.71	AF23ANS.jpg
367.926	0.514	Blank	Blank	85.342	n/a	4	10	8	n/a	68	n/a	3	n/a	n/a	n/a	n/a	400.207	n/a
368.457	0.497	angry	Picture	84.828	n/a	4	10	9	n/a	69	117	3	n/a	n/a	n/a	n/a	400.738	BM25ANS.jpg
368.954	0.514	Blank	Blank	84.314	n/a	4	10	9	n/a	69	n/a	3	n/a	n/a	n/a	n/a	401.235	n/a
369.484	0.497	angry	Picture	83.8	n/a	4	10	10	n/a	70	90	3	n/a	n/a	n/a	n/a	401.765	AF18ANS.jpg
369.982	0.514	Blank	Blank	83.286	n/a	4	10	10	n/a	70	n/a	3	n/a	n/a	n/a	n/a	402.263	n/a
370.512	0.497	angry	Picture	82.772	n/a	4	10	11	n/a	71	83	3	n/a	n/a	n/a	n/a	402.793	BF04ANS.jpg
371.01	0.514	Blank	Blank	82.258	n/a	4	10	11	n/a	71	n/a	3	n/a	n/a	n/a	n/a	403.291	n/a
371.54	0.497	angry	Picture	81.744	n/a	4	10	12	n/a	72	112	3	n/a	n/a	n/a	n/a	403.821	AM14ANS.jpg
372.038	0.514	Blank	Blank	81.23	n/a	4	10	12	n/a	72	n/a	3	n/a	n/a	n/a	n/a	404.319	n/a
372.568	0.497	angry	Picture	80.716	n/a	4	10	13	n/a	73	102	3	n/a	n/a	n/a	n/a	404.849	BM03ANS.jpg
373.065	0.514	Blank	Blank	80.203	n/a	4	10	13	n/a	73	n/a	3	n/a	n/a	n/a	n/a	405.346	n/a
373.596	0.497	angry	Picture	79.688	n/a	4	10	14	n/a	74	95	3	n/a	n/a	n/a	n/a	405.877	AF25ANS.jpg
374.093	0.514	Blank	Blank	79.175	n/a	4	10	14	n/a	74	n/a	3	n/a	n/a	n/a	n/a	406.374	n/a
374.624	0.497	angry	Picture	78.661	n/a	4	10	15	n/a	75	113	3	n/a	n/a	n/a	n/a	406.905	AM21ANS.jpg
375.121	0.514	Blank	Blank	78.147	n/a	4	10	15	n/a	75	n/a	3	n/a	n/a	n/a	n/a	407.402	n/a
375.652	0.497	angry	Picture	77.633	n/a	4	10	16	n/a	76	88	3	n/a	n/a	n/a	n/a	407.933	AF14ANS.jpg
376.149	0.514	Blank	Blank	77.119	n/a	4	10	16	n/a	76	n/a	3	n/a	n/a	n/a	n/a	408.43	n/a
376.68	0.497	angry	Picture	76.605	n/a	4	10	17	n/a	77	93	3	n/a	n/a	n/a	n/a	408.961	BF22ANS.jpg
377.177	0.514	Blank	Blank	76.091	n/a	4	10	17	n/a	77	n/a	3	n/a	n/a	n/a	n/a	409.458	n/a
377.707	0.497	angry	Picture	75.577	n/a	4	10	18	n/a	78	86	3	n/a	n/a	n/a	n/a	409.988	AF09ANS.jpg
378.205	0.514	Blank	Blank	75.063	n/a	4	10	18	n/a	78	n/a	3	n/a	n/a	n/a	n/a	410.486	n/a
378.735	0.497	angry	Picture	74.549	n/a	4	10	19	n/a	79	92	3	n/a	n/a	n/a	n/a	411.016	AF21ANS.jpg
379.233	0.514	Blank	Blank	74.035	n/a	4	10	19	n/a	79	n/a	3	n/a	n/a	n/a	n/a	411.514	n/a
379.763	0.497	angry	Picture	73.521	n/a	4	10	20	n/a	80	84	3	n/a	n/a	n/a	n/a	412.044	AF05ANS.jpg
380.261	0.514	Blank	Blank	73.007	n/a	4	10	20	n/a	80	n/a	3	n/a	n/a	n/a	n/a	412.542	n/a
380.791	10.014	ITI	Fixation+	62.977	n/a	4	n/a	n/a	n/a	n/a	n/a	n/a	n/a	n/a	n/a	n/a	413.072	n/a
390.821	0.497	neutral	Picture	62.463	n/a	4	11	1	n/a	81	4	1	n/a	n/a	n/a	n/a	423.102	AF05NES.jpg
391.319	0.514	Blank	Blank	61.949	n/a	4	11	1	n/a	81	n/a	1	n/a	n/a	n/a	n/a	423.6	n/a
391.849	0.497	neutral	Picture	61.435	n/a	4	11	2	n/a	82	14	1	n/a	n/a	n/a	n/a	424.13	AF23NES.jpg
392.347	0.514	Blank	Blank	60.921	n/a	4	11	2	n/a	82	n/a	1	n/a	n/a	n/a	n/a	424.628	n/a
392.877	0.497	neutral	Picture	60.407	n/a	4	11	3	n/a	83	19	1	n/a	n/a	n/a	n/a	425.158	AF31NES.jpg
393.375	0.514	Blank	Blank	59.893	n/a	4	11	3	n/a	83	n/a	1	n/a	n/a	n/a	n/a	425.656	n/a
393.905	0.497	neutral	Picture	59.38	n/a	4	11	4	n/a	84	8	1	n/a	n/a	n/a	n/a	426.186	AF14NES.jpg
394.402	0.514	Blank	Blank	58.865	n/a	4	11	4	n/a	84	n/a	1	n/a	n/a	n/a	n/a	426.683	n/a
394.933	0.497	neutral	Picture	58.352	n/a	4	11	5	n/a	85	25	1	n/a	n/a	n/a	n/a	427.214	BM06NES.jpg
395.43	0.514	Blank	Blank	57.838	n/a	4	11	5	n/a	85	n/a	1	n/a	n/a	n/a	n/a	427.711	n/a
395.961	0.497	neutral	Picture	57.324	n/a	4	11	6	n/a	86	9	1	n/a	n/a	n/a	n/a	428.242	AF17NES.jpg
396.458	0.514	Blank	Blank	56.81	n/a	4	11	6	n/a	86	n/a	1	n/a	n/a	n/a	n/a	428.739	n/a
396.989	0.497	neutral	Picture	56.296	n/a	4	11	7	n/a	87	2	1	n/a	n/a	n/a	n/a	429.27	AF03NES.jpg
397.486	0.514	Blank	Blank	55.782	n/a	4	11	7	n/a	87	n/a	1	n/a	n/a	n/a	n/a	429.767	n/a
398.017	0.497	neutral	Picture	55.268	n/a	4	11	8	n/a	88	17	1	n/a	n/a	n/a	n/a	430.298	BF28NES.jpg
398.514	0.514	Blank	Blank	54.754	n/a	4	11	8	n/a	88	n/a	1	n/a	n/a	n/a	n/a	430.795	n/a
399.044	0.497	neutral	Picture	54.24	n/a	4	11	9	n/a	89	6	1	n/a	n/a	n/a	n/a	431.325	AF09NES.jpg
399.542	0.514	Blank	Blank	53.726	n/a	4	11	9	n/a	89	n/a	1	n/a	n/a	n/a	n/a	431.823	n/a
400.072	0.497	neutral	Picture	53.212	n/a	4	11	10	n/a	90	12	1	n/a	n/a	n/a	n/a	432.353	AF21NES.jpg
400.57	0.514	Blank	Blank	52.698	n/a	4	11	10	n/a	90	n/a	1	n/a	n/a	n/a	n/a	432.851	n/a
401.1	0.497	neutral	Picture	52.184	n/a	4	11	11	n/a	91	24	1	n/a	n/a	n/a	n/a	433.381	BM05NES.jpg
401.598	0.514	Blank	Blank	51.67	n/a	4	11	11	n/a	91	n/a	1	n/a	n/a	n/a	n/a	433.879	n/a
402.128	0.497	neutral	Picture	51.156	n/a	4	11	12	n/a	92	34	1	n/a	n/a	n/a	n/a	434.409	AM22NES.jpg
402.625	0.514	Blank	Blank	50.643	n/a	4	11	12	n/a	92	n/a	1	n/a	n/a	n/a	n/a	434.906	n/a
403.156	0.497	neutral	Picture	50.128	n/a	4	11	13	n/a	93	23	1	n/a	n/a	n/a	n/a	435.437	AM04NES.jpg
403.653	0.514	Blank	Blank	49.615	n/a	4	11	13	n/a	93	n/a	1	n/a	n/a	n/a	n/a	435.934	n/a
404.184	0.497	neutral	Picture	49.101	n/a	4	11	14	n/a	94	15	1	n/a	n/a	n/a	n/a	436.465	AF25NES.jpg
404.681	0.514	Blank	Blank	48.587	n/a	4	11	14	n/a	94	n/a	1	n/a	n/a	n/a	n/a	436.962	n/a
405.212	0.497	neutral	Picture	48.073	n/a	4	11	15	n/a	95	37	1	n/a	n/a	n/a	n/a	437.493	BM25NES.jpg
405.709	0.514	Blank	Blank	47.559	n/a	4	11	15	n/a	95	n/a	1	n/a	n/a	n/a	n/a	437.99	n/a
406.24	0.497	neutral	Picture	47.045	n/a	4	11	16	n/a	96	32	1	n/a	n/a	n/a	n/a	438.521	AM14NES.jpg
406.737	0.514	Blank	Blank	46.531	n/a	4	11	16	n/a	96	n/a	1	n/a	n/a	n/a	n/a	439.018	n/a
407.268	0.497	neutral	Picture	46.017	n/a	4	11	17	n/a	97	3	1	n/a	n/a	n/a	n/a	439.549	BF04NES.jpg
407.765	0.514	Blank	Blank	45.503	n/a	4	11	17	n/a	97	n/a	1	n/a	n/a	n/a	n/a	440.046	n/a
408.295	0.497	neutral	Picture	44.989	n/a	4	11	18	n/a	98	16	1	n/a	n/a	n/a	n/a	440.576	AF26NES.jpg
408.793	0.514	Blank	Blank	44.475	n/a	4	11	18	n/a	98	n/a	1	n/a	n/a	n/a	n/a	441.074	n/a
409.323	0.497	neutral	Picture	43.961	n/a	4	11	19	n/a	99	27	1	n/a	n/a	n/a	n/a	441.604	BM08NES.jpg
409.821	0.514	Blank	Blank	43.447	n/a	4	11	19	n/a	99	n/a	1	n/a	n/a	n/a	n/a	442.102	n/a
410.351	0.497	neutral	Picture	42.933	n/a	4	11	20	n/a	100	28	1	n/a	n/a	n/a	n/a	442.632	AM09NES.jpg
410.849	0.514	Blank	Blank	42.419	n/a	4	11	20	n/a	100	n/a	1	n/a	n/a	n/a	n/a	443.13	n/a
411.379	10.014	ITI	Fixation+	32.389	n/a	4	n/a	n/a	n/a	n/a	n/a	n/a	n/a	n/a	n/a	n/a	443.66	n/a
421.409	0.497	angry	Picture	31.875	n/a	4	12	1	n/a	101	81	3	n/a	n/a	n/a	n/a	453.69	AF01ANS.jpg
421.907	0.514	Blank	Blank	31.361	n/a	4	12	1	n/a	101	n/a	3	n/a	n/a	n/a	n/a	454.188	n/a
422.437	0.497	angry	Picture	30.847	n/a	4	12	2	n/a	102	120	3	n/a	n/a	n/a	n/a	454.718	AM35ANS.jpg
422.935	0.514	Blank	Blank	30.333	n/a	4	12	2	n/a	102	n/a	3	n/a	n/a	n/a	n/a	455.216	n/a
423.465	0.497	angry	Picture	29.82	n/a	4	12	3	n/a	103	114	3	n/a	n/a	n/a	n/a	455.746	AM22ANS.jpg
423.962	0.514	Blank	Blank	29.305	n/a	4	12	3	n/a	103	n/a	3	n/a	n/a	n/a	n/a	456.243	n/a
424.493	0.497	angry	Picture	28.792	n/a	4	12	4	n/a	104	109	3	n/a	n/a	n/a	n/a	456.774	AM10ANS.jpg
424.99	0.514	Blank	Blank	28.278	n/a	4	12	4	n/a	104	n/a	3	n/a	n/a	n/a	n/a	457.271	n/a
425.521	0.497	angry	Picture	27.764	n/a	4	12	5	n/a	105	96	3	n/a	n/a	n/a	n/a	457.802	AF26ANS.jpg
426.018	0.514	Blank	Blank	27.25	n/a	4	12	5	n/a	105	n/a	3	n/a	n/a	n/a	n/a	458.299	n/a
426.549	0.497	angry	Picture	26.736	n/a	4	12	6	n/a	106	82	3	n/a	n/a	n/a	n/a	458.83	AF03ANS.jpg
427.046	0.514	Blank	Blank	26.222	n/a	4	12	6	n/a	106	n/a	3	n/a	n/a	n/a	n/a	459.327	n/a
427.577	0.497	angry	Picture	25.708	n/a	4	12	7	n/a	107	97	3	n/a	n/a	n/a	n/a	459.858	BF28ANS.jpg
428.074	0.514	Blank	Blank	25.194	n/a	4	12	7	n/a	107	n/a	3	n/a	n/a	n/a	n/a	460.355	n/a
428.604	0.497	angry	Picture	24.68	n/a	4	12	8	n/a	108	115	3	n/a	n/a	n/a	n/a	460.885	AM23ANS.jpg
429.102	0.514	Blank	Blank	24.166	n/a	4	12	8	n/a	108	n/a	3	n/a	n/a	n/a	n/a	461.383	n/a
429.632	0.497	angry	Picture	23.652	n/a	4	12	9	n/a	109	91	3	n/a	n/a	n/a	n/a	461.913	AF20ANS.jpg
430.13	0.514	Blank	Blank	23.138	n/a	4	12	9	n/a	109	n/a	3	n/a	n/a	n/a	n/a	462.411	n/a
430.66	0.497	angry	Picture	22.624	n/a	4	12	10	n/a	110	87	3	n/a	n/a	n/a	n/a	462.941	BF11ANS.jpg
431.158	0.514	Blank	Blank	22.11	n/a	4	12	10	n/a	110	n/a	3	n/a	n/a	n/a	n/a	463.439	n/a
431.688	0.497	angry	Picture	21.596	n/a	4	12	11	n/a	111	85	3	n/a	n/a	n/a	n/a	463.969	BF07ANS.jpg
432.185	0.514	Blank	Blank	21.083	n/a	4	12	11	n/a	111	n/a	3	n/a	n/a	n/a	n/a	464.466	n/a
432.716	0.497	angry	Picture	20.568	n/a	4	12	12	n/a	112	110	3	n/a	n/a	n/a	n/a	464.997	AM11ANS.jpg
433.213	0.514	Blank	Blank	20.055	n/a	4	12	12	n/a	112	n/a	3	n/a	n/a	n/a	n/a	465.494	n/a
433.744	0.497	angry	Picture	19.541	n/a	4	12	13	n/a	113	111	3	n/a	n/a	n/a	n/a	466.025	BM12ANS.jpg
434.241	0.514	Blank	Blank	19.027	n/a	4	12	13	n/a	113	n/a	3	n/a	n/a	n/a	n/a	466.522	n/a
434.772	0.497	angry	Picture	18.513	n/a	4	12	14	n/a	114	103	3	n/a	n/a	n/a	n/a	467.053	AM04ANS.jpg
435.269	0.514	Blank	Blank	17.999	n/a	4	12	14	n/a	114	n/a	3	n/a	n/a	n/a	n/a	467.55	n/a
435.8	0.497	angry	Picture	17.485	n/a	4	12	15	n/a	115	101	3	n/a	n/a	n/a	n/a	468.081	AM01ANS.jpg
436.297	0.514	Blank	Blank	16.971	n/a	4	12	15	n/a	115	n/a	3	n/a	n/a	n/a	n/a	468.578	n/a
436.828	0.497	angry	Picture	16.457	n/a	4	12	16	n/a	116	104	3	n/a	n/a	n/a	n/a	469.109	BM05ANS.jpg
437.325	0.514	Blank	Blank	15.943	n/a	4	12	16	n/a	116	n/a	3	n/a	n/a	n/a	n/a	469.606	n/a
437.856	0.497	angry	Picture	15.429	n/a	4	12	17	n/a	117	107	3	n/a	n/a	n/a	n/a	470.137	BM08ANS.jpg
438.353	0.514	Blank	Blank	14.915	n/a	4	12	17	n/a	117	n/a	3	n/a	n/a	n/a	n/a	470.634	n/a
438.883	0.497	angry	Picture	14.401	n/a	4	12	18	n/a	118	98	3	n/a	n/a	n/a	n/a	471.164	BF29ANS.jpg
439.381	0.514	Blank	Blank	13.887	n/a	4	12	18	n/a	118	n/a	3	n/a	n/a	n/a	n/a	471.662	n/a
439.911	0.497	angry	Picture	13.373	n/a	4	12	19	n/a	119	99	3	n/a	n/a	n/a	n/a	472.192	AF31ANS.jpg
440.409	0.514	Blank	Blank	12.859	n/a	4	12	19	n/a	119	n/a	3	n/a	n/a	n/a	n/a	472.69	n/a
440.939	0.497	angry	Picture	12.345	n/a	4	12	20	n/a	120	108	3	n/a	n/a	n/a	n/a	473.22	AM09ANS.jpg
441.436	0.514	Blank	Blank	11.832	n/a	4	12	20	n/a	120	n/a	3	n/a	n/a	n/a	n/a	473.717	n/a
441.967	10.014	ITI	Fixation+	1.801	n/a	4	n/a	n/a	n/a	n/a	n/a	n/a	n/a	n/a	n/a	n/a	474.248	n/a
453.782	n/a	ConfirmRating	Rate	n/a	1.79	4	n/a	n/a	0	n/a	n/a	n/a	2	Angry	50	50	486.063	n/a
456.118	n/a	ConfirmRating	Rate	n/a	2.321	4	n/a	n/a	1	n/a	n/a	n/a	3	Angry	50	50	488.399	n/a
