onset	duration	trial_type	event_type	time_until_response	response_time	trial_number	block_num_within_trial	image_seq_num_within_block	question_seq_num_within_block	image_seq_num	picture_number	condition	question_type	block_type	rating	rating_computed	onset_uncorrected	KDEV_imagefile
0.012	10.014	ITI	Fixation+	103.294	n/a	1	n/a	n/a	n/a	n/a	n/a	n/a	n/a	n/a	n/a	n/a	29.687	n/a
10.042	0.497	angry	Picture	102.78	n/a	1	1	1	n/a	1	46	2	n/a	n/a	n/a	n/a	39.718	AF09HAS.jpg
10.539	0.514	Blank	Blank	102.266	n/a	1	1	1	n/a	1	n/a	2	n/a	n/a	n/a	n/a	40.215	n/a
11.07	0.497	angry	Picture	101.753	n/a	1	1	2	n/a	2	69	2	n/a	n/a	n/a	n/a	40.745	AM10HAS.jpg
11.567	0.514	Blank	Blank	101.239	n/a	1	1	2	n/a	2	n/a	2	n/a	n/a	n/a	n/a	41.243	n/a
12.098	0.497	angry	Picture	100.725	n/a	1	1	3	n/a	3	71	2	n/a	n/a	n/a	n/a	41.773	BM12HAS.jpg
12.595	0.514	Blank	Blank	100.211	n/a	1	1	3	n/a	3	n/a	2	n/a	n/a	n/a	n/a	42.271	n/a
13.126	0.497	angry	Picture	99.697	n/a	1	1	4	n/a	4	51	2	n/a	n/a	n/a	n/a	42.801	AF20HAS.jpg
13.623	0.514	Blank	Blank	99.183	n/a	1	1	4	n/a	4	n/a	2	n/a	n/a	n/a	n/a	43.298	n/a
14.154	0.497	angry	Picture	98.669	n/a	1	1	5	n/a	5	67	2	n/a	n/a	n/a	n/a	43.829	BM08HAS.jpg
14.651	0.514	Blank	Blank	98.155	n/a	1	1	5	n/a	5	n/a	2	n/a	n/a	n/a	n/a	44.326	n/a
15.181	0.497	angry	Picture	97.641	n/a	1	1	6	n/a	6	60	2	n/a	n/a	n/a	n/a	44.857	AF32HAS.jpg
15.679	0.514	Blank	Blank	97.127	n/a	1	1	6	n/a	6	n/a	2	n/a	n/a	n/a	n/a	45.354	n/a
16.209	0.497	angry	Picture	96.613	n/a	1	1	7	n/a	7	42	2	n/a	n/a	n/a	n/a	45.885	AF03HAS.jpg
16.707	0.514	Blank	Blank	96.099	n/a	1	1	7	n/a	7	n/a	2	n/a	n/a	n/a	n/a	46.382	n/a
17.237	0.497	angry	Picture	95.585	n/a	1	1	8	n/a	8	55	2	n/a	n/a	n/a	n/a	46.913	AF25HAS.jpg
17.735	0.514	Blank	Blank	95.071	n/a	1	1	8	n/a	8	n/a	2	n/a	n/a	n/a	n/a	47.41	n/a
18.265	0.497	angry	Picture	94.557	n/a	1	1	9	n/a	9	72	2	n/a	n/a	n/a	n/a	47.941	AM14HAS.jpg
18.762	0.514	Blank	Blank	94.043	n/a	1	1	9	n/a	9	n/a	2	n/a	n/a	n/a	n/a	48.438	n/a
19.293	0.497	angry	Picture	93.529	n/a	1	1	10	n/a	10	63	2	n/a	n/a	n/a	n/a	48.968	AM04HAS.jpg
19.79	0.514	Blank	Blank	93.015	n/a	1	1	10	n/a	10	n/a	2	n/a	n/a	n/a	n/a	49.466	n/a
20.321	0.497	angry	Picture	92.502	n/a	1	1	11	n/a	11	58	2	n/a	n/a	n/a	n/a	49.996	BF29HAS.jpg
20.818	0.514	Blank	Blank	91.988	n/a	1	1	11	n/a	11	n/a	2	n/a	n/a	n/a	n/a	50.494	n/a
21.349	0.497	angry	Picture	91.474	n/a	1	1	12	n/a	12	48	2	n/a	n/a	n/a	n/a	51.024	AF14HAS.jpg
21.846	0.514	Blank	Blank	90.96	n/a	1	1	12	n/a	12	n/a	2	n/a	n/a	n/a	n/a	51.522	n/a
22.377	0.497	angry	Picture	90.446	n/a	1	1	13	n/a	13	66	2	n/a	n/a	n/a	n/a	52.052	BM07HAS.jpg
22.874	0.514	Blank	Blank	89.932	n/a	1	1	13	n/a	13	n/a	2	n/a	n/a	n/a	n/a	52.55	n/a
23.404	0.497	angry	Picture	89.418	n/a	1	1	14	n/a	14	70	2	n/a	n/a	n/a	n/a	53.08	BM11HAS.jpg
23.902	0.514	Blank	Blank	88.904	n/a	1	1	14	n/a	14	n/a	2	n/a	n/a	n/a	n/a	53.577	n/a
24.432	0.497	angry	Picture	88.39	n/a	1	1	15	n/a	15	43	2	n/a	n/a	n/a	n/a	54.108	BF04HAS.jpg
24.93	0.514	Blank	Blank	87.876	n/a	1	1	15	n/a	15	n/a	2	n/a	n/a	n/a	n/a	54.605	n/a
25.46	0.497	angry	Picture	87.362	n/a	1	1	16	n/a	16	49	2	n/a	n/a	n/a	n/a	55.136	AF17HAS.jpg
25.958	0.514	Blank	Blank	86.848	n/a	1	1	16	n/a	16	n/a	2	n/a	n/a	n/a	n/a	55.633	n/a
26.488	0.497	angry	Picture	86.334	n/a	1	1	17	n/a	17	75	2	n/a	n/a	n/a	n/a	56.164	AM23HAS.jpg
26.986	0.514	Blank	Blank	85.82	n/a	1	1	17	n/a	17	n/a	2	n/a	n/a	n/a	n/a	56.661	n/a
27.516	0.497	angry	Picture	85.306	n/a	1	1	18	n/a	18	80	2	n/a	n/a	n/a	n/a	57.192	BM35HAS.jpg
28.013	0.514	Blank	Blank	84.792	n/a	1	1	18	n/a	18	n/a	2	n/a	n/a	n/a	n/a	57.689	n/a
28.544	0.497	angry	Picture	84.278	n/a	1	1	19	n/a	19	76	2	n/a	n/a	n/a	n/a	58.219	BM24HAS.jpg
29.041	0.514	Blank	Blank	83.765	n/a	1	1	19	n/a	19	n/a	2	n/a	n/a	n/a	n/a	58.717	n/a
29.572	0.497	angry	Picture	83.251	n/a	1	1	20	n/a	20	74	2	n/a	n/a	n/a	n/a	59.247	AM22HAS.jpg
30.069	0.514	Blank	Blank	82.737	n/a	1	1	20	n/a	20	n/a	2	n/a	n/a	n/a	n/a	59.745	n/a
30.6	10.014	ITI	Fixation+	72.706	n/a	1	n/a	n/a	n/a	n/a	n/a	n/a	n/a	n/a	n/a	n/a	60.275	n/a
40.63	0.497	neutral	Picture	72.192	n/a	1	2	1	n/a	21	33	1	n/a	n/a	n/a	n/a	70.305	AM21NES.jpg
41.127	0.514	Blank	Blank	71.679	n/a	1	2	1	n/a	21	n/a	1	n/a	n/a	n/a	n/a	70.803	n/a
41.658	0.497	neutral	Picture	71.165	n/a	1	2	2	n/a	22	39	1	n/a	n/a	n/a	n/a	71.333	AM28NES.jpg
42.155	0.514	Blank	Blank	70.651	n/a	1	2	2	n/a	22	n/a	1	n/a	n/a	n/a	n/a	71.831	n/a
42.686	0.497	neutral	Picture	70.137	n/a	1	2	3	n/a	23	25	1	n/a	n/a	n/a	n/a	72.361	BM06NES.jpg
43.183	0.514	Blank	Blank	69.623	n/a	1	2	3	n/a	23	n/a	1	n/a	n/a	n/a	n/a	72.859	n/a
43.713	0.497	neutral	Picture	69.109	n/a	1	2	4	n/a	24	5	1	n/a	n/a	n/a	n/a	73.389	BF07NES.jpg
44.211	0.514	Blank	Blank	68.595	n/a	1	2	4	n/a	24	n/a	1	n/a	n/a	n/a	n/a	73.886	n/a
44.741	0.497	neutral	Picture	68.081	n/a	1	2	5	n/a	25	10	1	n/a	n/a	n/a	n/a	74.417	AF18NES.jpg
45.239	0.514	Blank	Blank	67.567	n/a	1	2	5	n/a	25	n/a	1	n/a	n/a	n/a	n/a	74.914	n/a
45.769	0.497	neutral	Picture	67.053	n/a	1	2	6	n/a	26	34	1	n/a	n/a	n/a	n/a	75.445	AM22NES.jpg
46.267	0.514	Blank	Blank	66.539	n/a	1	2	6	n/a	26	n/a	1	n/a	n/a	n/a	n/a	75.942	n/a
46.797	0.497	neutral	Picture	66.025	n/a	1	2	7	n/a	27	36	1	n/a	n/a	n/a	n/a	76.473	BM24NES.jpg
47.295	0.514	Blank	Blank	65.511	n/a	1	2	7	n/a	27	n/a	1	n/a	n/a	n/a	n/a	76.97	n/a
47.825	0.497	neutral	Picture	64.997	n/a	1	2	8	n/a	28	14	1	n/a	n/a	n/a	n/a	77.501	AF23NES.jpg
48.323	0.514	Blank	Blank	64.483	n/a	1	2	8	n/a	28	n/a	1	n/a	n/a	n/a	n/a	77.998	n/a
48.853	0.497	neutral	Picture	63.969	n/a	1	2	9	n/a	29	9	1	n/a	n/a	n/a	n/a	78.528	AF17NES.jpg
49.35	0.514	Blank	Blank	63.455	n/a	1	2	9	n/a	29	n/a	1	n/a	n/a	n/a	n/a	79.026	n/a
49.881	0.497	neutral	Picture	62.942	n/a	1	2	10	n/a	30	19	1	n/a	n/a	n/a	n/a	79.556	AF31NES.jpg
50.378	0.514	Blank	Blank	62.428	n/a	1	2	10	n/a	30	n/a	1	n/a	n/a	n/a	n/a	80.054	n/a
50.909	0.497	neutral	Picture	61.914	n/a	1	2	11	n/a	31	15	1	n/a	n/a	n/a	n/a	80.584	AF25NES.jpg
51.406	0.514	Blank	Blank	61.4	n/a	1	2	11	n/a	31	n/a	1	n/a	n/a	n/a	n/a	81.082	n/a
51.937	0.497	neutral	Picture	60.886	n/a	1	2	12	n/a	32	22	1	n/a	n/a	n/a	n/a	81.612	BM03NES.jpg
52.434	0.514	Blank	Blank	60.372	n/a	1	2	12	n/a	32	n/a	1	n/a	n/a	n/a	n/a	82.109	n/a
52.965	0.497	neutral	Picture	59.858	n/a	1	2	13	n/a	33	11	1	n/a	n/a	n/a	n/a	82.64	AF20NES.jpg
53.462	0.514	Blank	Blank	59.344	n/a	1	2	13	n/a	33	n/a	1	n/a	n/a	n/a	n/a	83.137	n/a
53.992	0.497	neutral	Picture	58.83	n/a	1	2	14	n/a	34	4	1	n/a	n/a	n/a	n/a	83.668	AF05NES.jpg
54.49	0.514	Blank	Blank	58.316	n/a	1	2	14	n/a	34	n/a	1	n/a	n/a	n/a	n/a	84.165	n/a
55.02	0.497	neutral	Picture	57.802	n/a	1	2	15	n/a	35	17	1	n/a	n/a	n/a	n/a	84.696	BF28NES.jpg
55.518	0.514	Blank	Blank	57.288	n/a	1	2	15	n/a	35	n/a	1	n/a	n/a	n/a	n/a	85.193	n/a
56.048	0.497	neutral	Picture	56.774	n/a	1	2	16	n/a	36	13	1	n/a	n/a	n/a	n/a	85.724	BF22NES.jpg
56.546	0.514	Blank	Blank	56.26	n/a	1	2	16	n/a	36	n/a	1	n/a	n/a	n/a	n/a	86.221	n/a
57.076	0.497	neutral	Picture	55.746	n/a	1	2	17	n/a	37	12	1	n/a	n/a	n/a	n/a	86.752	AF21NES.jpg
57.573	0.514	Blank	Blank	55.232	n/a	1	2	17	n/a	37	n/a	1	n/a	n/a	n/a	n/a	87.249	n/a
58.104	0.497	neutral	Picture	54.718	n/a	1	2	18	n/a	38	24	1	n/a	n/a	n/a	n/a	87.779	BM05NES.jpg
58.601	0.514	Blank	Blank	54.204	n/a	1	2	18	n/a	38	n/a	1	n/a	n/a	n/a	n/a	88.277	n/a
59.132	0.497	neutral	Picture	53.691	n/a	1	2	19	n/a	39	29	1	n/a	n/a	n/a	n/a	88.807	AM10NES.jpg
59.629	0.514	Blank	Blank	53.177	n/a	1	2	19	n/a	39	n/a	1	n/a	n/a	n/a	n/a	89.305	n/a
60.16	0.497	neutral	Picture	52.663	n/a	1	2	20	n/a	40	23	1	n/a	n/a	n/a	n/a	89.835	AM04NES.jpg
60.657	0.514	Blank	Blank	52.149	n/a	1	2	20	n/a	40	n/a	1	n/a	n/a	n/a	n/a	90.333	n/a
61.188	10.014	ITI	Fixation+	42.119	n/a	1	n/a	n/a	n/a	n/a	n/a	n/a	n/a	n/a	n/a	n/a	90.863	n/a
71.218	0.497	angry	Picture	41.605	n/a	1	3	1	n/a	41	62	2	n/a	n/a	n/a	n/a	100.893	BM03HAS.jpg
71.715	0.514	Blank	Blank	41.091	n/a	1	3	1	n/a	41	n/a	2	n/a	n/a	n/a	n/a	101.391	n/a
72.246	0.497	angry	Picture	40.577	n/a	1	3	2	n/a	42	52	2	n/a	n/a	n/a	n/a	101.921	AF21HAS.jpg
72.743	0.514	Blank	Blank	40.063	n/a	1	3	2	n/a	42	n/a	2	n/a	n/a	n/a	n/a	102.418	n/a
73.274	0.497	angry	Picture	39.549	n/a	1	3	3	n/a	43	44	2	n/a	n/a	n/a	n/a	102.949	AF05HAS.jpg
73.771	0.514	Blank	Blank	39.035	n/a	1	3	3	n/a	43	n/a	2	n/a	n/a	n/a	n/a	103.446	n/a
74.301	0.497	angry	Picture	38.521	n/a	1	3	4	n/a	44	53	2	n/a	n/a	n/a	n/a	103.977	BF22HAS.jpg
74.799	0.514	Blank	Blank	38.007	n/a	1	3	4	n/a	44	n/a	2	n/a	n/a	n/a	n/a	104.474	n/a
75.329	0.497	angry	Picture	37.493	n/a	1	3	5	n/a	45	54	2	n/a	n/a	n/a	n/a	105.005	AF23HAS.jpg
75.827	0.514	Blank	Blank	36.979	n/a	1	3	5	n/a	45	n/a	2	n/a	n/a	n/a	n/a	105.502	n/a
76.357	0.497	angry	Picture	36.465	n/a	1	3	6	n/a	46	68	2	n/a	n/a	n/a	n/a	106.033	AM09HAS.jpg
76.855	0.514	Blank	Blank	35.951	n/a	1	3	6	n/a	46	n/a	2	n/a	n/a	n/a	n/a	106.53	n/a
77.385	0.497	angry	Picture	35.437	n/a	1	3	7	n/a	47	64	2	n/a	n/a	n/a	n/a	107.061	BM05HAS.jpg
77.883	0.514	Blank	Blank	34.923	n/a	1	3	7	n/a	47	n/a	2	n/a	n/a	n/a	n/a	107.558	n/a
78.413	0.497	angry	Picture	34.409	n/a	1	3	8	n/a	48	59	2	n/a	n/a	n/a	n/a	108.088	AF31HAS.jpg
78.91	0.514	Blank	Blank	33.895	n/a	1	3	8	n/a	48	n/a	2	n/a	n/a	n/a	n/a	108.586	n/a
79.441	0.497	angry	Picture	33.382	n/a	1	3	9	n/a	49	41	2	n/a	n/a	n/a	n/a	109.116	AF01HAS.jpg
79.938	0.514	Blank	Blank	32.868	n/a	1	3	9	n/a	49	n/a	2	n/a	n/a	n/a	n/a	109.614	n/a
80.469	0.497	angry	Picture	32.354	n/a	1	3	10	n/a	50	73	2	n/a	n/a	n/a	n/a	110.144	AM21HAS.jpg
80.966	0.514	Blank	Blank	31.84	n/a	1	3	10	n/a	50	n/a	2	n/a	n/a	n/a	n/a	110.642	n/a
81.497	0.497	angry	Picture	31.326	n/a	1	3	11	n/a	51	65	2	n/a	n/a	n/a	n/a	111.172	BM06HAS.jpg
81.994	0.514	Blank	Blank	30.812	n/a	1	3	11	n/a	51	n/a	2	n/a	n/a	n/a	n/a	111.669	n/a
82.525	0.497	angry	Picture	30.298	n/a	1	3	12	n/a	52	56	2	n/a	n/a	n/a	n/a	112.2	AF26HAS.jpg
83.022	0.514	Blank	Blank	29.784	n/a	1	3	12	n/a	52	n/a	2	n/a	n/a	n/a	n/a	112.697	n/a
83.552	0.497	angry	Picture	29.27	n/a	1	3	13	n/a	53	45	2	n/a	n/a	n/a	n/a	113.228	BF07HAS.jpg
84.05	0.514	Blank	Blank	28.756	n/a	1	3	13	n/a	53	n/a	2	n/a	n/a	n/a	n/a	113.725	n/a
84.58	0.497	angry	Picture	28.242	n/a	1	3	14	n/a	54	78	2	n/a	n/a	n/a	n/a	114.256	BM26HAS.jpg
85.078	0.514	Blank	Blank	27.728	n/a	1	3	14	n/a	54	n/a	2	n/a	n/a	n/a	n/a	114.753	n/a
85.608	0.497	angry	Picture	27.214	n/a	1	3	15	n/a	55	50	2	n/a	n/a	n/a	n/a	115.284	AF18HAS.jpg
86.106	0.514	Blank	Blank	26.7	n/a	1	3	15	n/a	55	n/a	2	n/a	n/a	n/a	n/a	115.781	n/a
86.636	0.497	angry	Picture	26.186	n/a	1	3	16	n/a	56	47	2	n/a	n/a	n/a	n/a	116.312	BF11HAS.jpg
87.133	0.514	Blank	Blank	25.672	n/a	1	3	16	n/a	56	n/a	2	n/a	n/a	n/a	n/a	116.809	n/a
87.664	0.497	angry	Picture	25.158	n/a	1	3	17	n/a	57	77	2	n/a	n/a	n/a	n/a	117.34	BM25HAS.jpg
88.161	0.514	Blank	Blank	24.644	n/a	1	3	17	n/a	57	n/a	2	n/a	n/a	n/a	n/a	117.837	n/a
88.692	0.497	angry	Picture	24.131	n/a	1	3	18	n/a	58	57	2	n/a	n/a	n/a	n/a	118.367	BF28HAS.jpg
89.189	0.514	Blank	Blank	23.617	n/a	1	3	18	n/a	58	n/a	2	n/a	n/a	n/a	n/a	118.865	n/a
89.72	0.497	angry	Picture	23.103	n/a	1	3	19	n/a	59	61	2	n/a	n/a	n/a	n/a	119.395	AM01HAS.jpg
90.217	0.514	Blank	Blank	22.589	n/a	1	3	19	n/a	59	n/a	2	n/a	n/a	n/a	n/a	119.893	n/a
90.748	0.497	angry	Picture	22.075	n/a	1	3	20	n/a	60	79	2	n/a	n/a	n/a	n/a	120.423	BM28HAS.jpg
91.245	0.514	Blank	Blank	21.561	n/a	1	3	20	n/a	60	n/a	2	n/a	n/a	n/a	n/a	120.921	n/a
91.775	10.014	ITI	Fixation+	11.531	n/a	1	n/a	n/a	n/a	n/a	n/a	n/a	n/a	n/a	n/a	n/a	121.451	n/a
113.32	n/a	ConfirmRating	Rate	n/a	11.506	1	n/a	n/a	0	n/a	n/a	n/a	2	Angry	69	51	142.995	n/a
121.901	n/a	ConfirmRating	Rate	n/a	8.571	1	n/a	n/a	1	n/a	n/a	n/a	3	Angry	50	50	151.576	n/a
121.932	10.014	ITI	Fixation+	96.609	n/a	2	n/a	n/a	n/a	n/a	n/a	n/a	n/a	n/a	n/a	n/a	151.608	n/a
131.963	0.497	happy	Picture	96.095	n/a	2	4	1	n/a	61	119	3	n/a	n/a	n/a	n/a	161.638	BM28ANS.jpg
132.46	0.514	Blank	Blank	95.581	n/a	2	4	1	n/a	61	n/a	3	n/a	n/a	n/a	n/a	162.135	n/a
132.99	0.497	happy	Picture	95.067	n/a	2	4	2	n/a	62	100	3	n/a	n/a	n/a	n/a	162.666	AF32ANS.jpg
133.488	0.514	Blank	Blank	94.553	n/a	2	4	2	n/a	62	n/a	3	n/a	n/a	n/a	n/a	163.163	n/a
134.018	0.497	happy	Picture	94.039	n/a	2	4	3	n/a	63	118	3	n/a	n/a	n/a	n/a	163.694	BM26ANS.jpg
134.516	0.514	Blank	Blank	93.525	n/a	2	4	3	n/a	63	n/a	3	n/a	n/a	n/a	n/a	164.191	n/a
135.046	0.497	happy	Picture	93.011	n/a	2	4	4	n/a	64	89	3	n/a	n/a	n/a	n/a	164.722	AF17ANS.jpg
135.544	0.514	Blank	Blank	92.498	n/a	2	4	4	n/a	64	n/a	3	n/a	n/a	n/a	n/a	165.219	n/a
136.074	0.497	happy	Picture	91.984	n/a	2	4	5	n/a	65	116	3	n/a	n/a	n/a	n/a	165.75	BM24ANS.jpg
136.572	0.514	Blank	Blank	91.47	n/a	2	4	5	n/a	65	n/a	3	n/a	n/a	n/a	n/a	166.247	n/a
137.102	0.497	happy	Picture	90.956	n/a	2	4	6	n/a	66	105	3	n/a	n/a	n/a	n/a	166.778	BM06ANS.jpg
137.599	0.514	Blank	Blank	90.442	n/a	2	4	6	n/a	66	n/a	3	n/a	n/a	n/a	n/a	167.275	n/a
138.13	0.497	happy	Picture	89.928	n/a	2	4	7	n/a	67	106	3	n/a	n/a	n/a	n/a	167.805	AM07ANS.jpg
138.627	0.514	Blank	Blank	89.414	n/a	2	4	7	n/a	67	n/a	3	n/a	n/a	n/a	n/a	168.303	n/a
139.158	0.497	happy	Picture	88.9	n/a	2	4	8	n/a	68	94	3	n/a	n/a	n/a	n/a	168.833	AF23ANS.jpg
139.655	0.514	Blank	Blank	88.386	n/a	2	4	8	n/a	68	n/a	3	n/a	n/a	n/a	n/a	169.331	n/a
140.186	0.497	happy	Picture	87.872	n/a	2	4	9	n/a	69	117	3	n/a	n/a	n/a	n/a	169.861	BM25ANS.jpg
140.683	0.514	Blank	Blank	87.358	n/a	2	4	9	n/a	69	n/a	3	n/a	n/a	n/a	n/a	170.358	n/a
141.214	0.497	happy	Picture	86.844	n/a	2	4	10	n/a	70	90	3	n/a	n/a	n/a	n/a	170.889	AF18ANS.jpg
141.711	0.514	Blank	Blank	86.33	n/a	2	4	10	n/a	70	n/a	3	n/a	n/a	n/a	n/a	171.386	n/a
142.241	0.497	happy	Picture	85.816	n/a	2	4	11	n/a	71	83	3	n/a	n/a	n/a	n/a	171.917	BF04ANS.jpg
142.739	0.514	Blank	Blank	85.302	n/a	2	4	11	n/a	71	n/a	3	n/a	n/a	n/a	n/a	172.414	n/a
143.269	0.497	happy	Picture	84.788	n/a	2	4	12	n/a	72	112	3	n/a	n/a	n/a	n/a	172.945	AM14ANS.jpg
143.767	0.514	Blank	Blank	84.274	n/a	2	4	12	n/a	72	n/a	3	n/a	n/a	n/a	n/a	173.442	n/a
144.297	0.497	happy	Picture	83.76	n/a	2	4	13	n/a	73	102	3	n/a	n/a	n/a	n/a	173.973	BM03ANS.jpg
144.795	0.514	Blank	Blank	83.247	n/a	2	4	13	n/a	73	n/a	3	n/a	n/a	n/a	n/a	174.47	n/a
145.325	0.497	happy	Picture	82.733	n/a	2	4	14	n/a	74	95	3	n/a	n/a	n/a	n/a	175.001	AF25ANS.jpg
145.822	0.514	Blank	Blank	82.219	n/a	2	4	14	n/a	74	n/a	3	n/a	n/a	n/a	n/a	175.498	n/a
146.353	0.497	happy	Picture	81.705	n/a	2	4	15	n/a	75	113	3	n/a	n/a	n/a	n/a	176.029	AM21ANS.jpg
146.85	0.514	Blank	Blank	81.191	n/a	2	4	15	n/a	75	n/a	3	n/a	n/a	n/a	n/a	176.526	n/a
147.381	0.497	happy	Picture	80.677	n/a	2	4	16	n/a	76	88	3	n/a	n/a	n/a	n/a	177.056	AF14ANS.jpg
147.878	0.514	Blank	Blank	80.163	n/a	2	4	16	n/a	76	n/a	3	n/a	n/a	n/a	n/a	177.554	n/a
148.409	0.497	happy	Picture	79.649	n/a	2	4	17	n/a	77	93	3	n/a	n/a	n/a	n/a	178.084	BF22ANS.jpg
148.906	0.514	Blank	Blank	79.135	n/a	2	4	17	n/a	77	n/a	3	n/a	n/a	n/a	n/a	178.582	n/a
149.437	0.497	happy	Picture	78.621	n/a	2	4	18	n/a	78	86	3	n/a	n/a	n/a	n/a	179.112	AF09ANS.jpg
149.934	0.514	Blank	Blank	78.107	n/a	2	4	18	n/a	78	n/a	3	n/a	n/a	n/a	n/a	179.609	n/a
150.464	0.497	happy	Picture	77.593	n/a	2	4	19	n/a	79	92	3	n/a	n/a	n/a	n/a	180.14	AF21ANS.jpg
150.962	0.514	Blank	Blank	77.079	n/a	2	4	19	n/a	79	n/a	3	n/a	n/a	n/a	n/a	180.637	n/a
151.492	0.497	happy	Picture	76.565	n/a	2	4	20	n/a	80	84	3	n/a	n/a	n/a	n/a	181.168	AF05ANS.jpg
151.99	0.514	Blank	Blank	76.051	n/a	2	4	20	n/a	80	n/a	3	n/a	n/a	n/a	n/a	181.665	n/a
152.52	10.014	ITI	Fixation+	66.021	n/a	2	n/a	n/a	n/a	n/a	n/a	n/a	n/a	n/a	n/a	n/a	182.196	n/a
162.55	0.497	neutral	Picture	65.507	n/a	2	5	1	n/a	81	4	1	n/a	n/a	n/a	n/a	192.226	AF05NES.jpg
163.048	0.514	Blank	Blank	64.993	n/a	2	5	1	n/a	81	n/a	1	n/a	n/a	n/a	n/a	192.723	n/a
163.578	0.497	neutral	Picture	64.479	n/a	2	5	2	n/a	82	14	1	n/a	n/a	n/a	n/a	193.254	AF23NES.jpg
164.076	0.514	Blank	Blank	63.965	n/a	2	5	2	n/a	82	n/a	1	n/a	n/a	n/a	n/a	193.751	n/a
164.606	0.497	neutral	Picture	63.451	n/a	2	5	3	n/a	83	19	1	n/a	n/a	n/a	n/a	194.282	AF31NES.jpg
165.104	0.514	Blank	Blank	62.938	n/a	2	5	3	n/a	83	n/a	1	n/a	n/a	n/a	n/a	194.779	n/a
165.634	0.497	neutral	Picture	62.424	n/a	2	5	4	n/a	84	8	1	n/a	n/a	n/a	n/a	195.31	AF14NES.jpg
166.131	0.514	Blank	Blank	61.91	n/a	2	5	4	n/a	84	n/a	1	n/a	n/a	n/a	n/a	195.807	n/a
166.662	0.497	neutral	Picture	61.396	n/a	2	5	5	n/a	85	25	1	n/a	n/a	n/a	n/a	196.338	BM06NES.jpg
167.159	0.514	Blank	Blank	60.882	n/a	2	5	5	n/a	85	n/a	1	n/a	n/a	n/a	n/a	196.835	n/a
167.69	0.497	neutral	Picture	60.368	n/a	2	5	6	n/a	86	9	1	n/a	n/a	n/a	n/a	197.365	AF17NES.jpg
168.187	0.514	Blank	Blank	59.854	n/a	2	5	6	n/a	86	n/a	1	n/a	n/a	n/a	n/a	197.863	n/a
168.718	0.497	neutral	Picture	59.34	n/a	2	5	7	n/a	87	2	1	n/a	n/a	n/a	n/a	198.393	AF03NES.jpg
169.215	0.514	Blank	Blank	58.826	n/a	2	5	7	n/a	87	n/a	1	n/a	n/a	n/a	n/a	198.891	n/a
169.746	0.497	neutral	Picture	58.312	n/a	2	5	8	n/a	88	17	1	n/a	n/a	n/a	n/a	199.421	BF28NES.jpg
170.243	0.514	Blank	Blank	57.798	n/a	2	5	8	n/a	88	n/a	1	n/a	n/a	n/a	n/a	199.918	n/a
170.774	0.497	neutral	Picture	57.284	n/a	2	5	9	n/a	89	6	1	n/a	n/a	n/a	n/a	200.449	AF09NES.jpg
171.271	0.514	Blank	Blank	56.77	n/a	2	5	9	n/a	89	n/a	1	n/a	n/a	n/a	n/a	200.946	n/a
171.801	0.497	neutral	Picture	56.256	n/a	2	5	10	n/a	90	12	1	n/a	n/a	n/a	n/a	201.477	AF21NES.jpg
172.299	0.514	Blank	Blank	55.742	n/a	2	5	10	n/a	90	n/a	1	n/a	n/a	n/a	n/a	201.974	n/a
172.829	0.497	neutral	Picture	55.228	n/a	2	5	11	n/a	91	24	1	n/a	n/a	n/a	n/a	202.505	BM05NES.jpg
173.327	0.514	Blank	Blank	54.714	n/a	2	5	11	n/a	91	n/a	1	n/a	n/a	n/a	n/a	203.002	n/a
173.857	0.497	neutral	Picture	54.2	n/a	2	5	12	n/a	92	34	1	n/a	n/a	n/a	n/a	203.533	AM22NES.jpg
174.355	0.514	Blank	Blank	53.687	n/a	2	5	12	n/a	92	n/a	1	n/a	n/a	n/a	n/a	204.03	n/a
174.885	0.497	neutral	Picture	53.173	n/a	2	5	13	n/a	93	23	1	n/a	n/a	n/a	n/a	204.561	AM04NES.jpg
175.382	0.514	Blank	Blank	52.659	n/a	2	5	13	n/a	93	n/a	1	n/a	n/a	n/a	n/a	205.058	n/a
175.913	0.497	neutral	Picture	52.145	n/a	2	5	14	n/a	94	15	1	n/a	n/a	n/a	n/a	205.589	AF25NES.jpg
176.41	0.514	Blank	Blank	51.631	n/a	2	5	14	n/a	94	n/a	1	n/a	n/a	n/a	n/a	206.086	n/a
176.941	0.497	neutral	Picture	51.117	n/a	2	5	15	n/a	95	37	1	n/a	n/a	n/a	n/a	206.616	BM25NES.jpg
177.438	0.514	Blank	Blank	50.603	n/a	2	5	15	n/a	95	n/a	1	n/a	n/a	n/a	n/a	207.114	n/a
177.969	0.497	neutral	Picture	50.089	n/a	2	5	16	n/a	96	32	1	n/a	n/a	n/a	n/a	207.644	AM14NES.jpg
178.466	0.514	Blank	Blank	49.575	n/a	2	5	16	n/a	96	n/a	1	n/a	n/a	n/a	n/a	208.142	n/a
178.997	0.497	neutral	Picture	49.061	n/a	2	5	17	n/a	97	3	1	n/a	n/a	n/a	n/a	208.672	BF04NES.jpg
179.494	0.514	Blank	Blank	48.547	n/a	2	5	17	n/a	97	n/a	1	n/a	n/a	n/a	n/a	209.169	n/a
180.024	0.497	neutral	Picture	48.033	n/a	2	5	18	n/a	98	16	1	n/a	n/a	n/a	n/a	209.7	AF26NES.jpg
180.522	0.514	Blank	Blank	47.519	n/a	2	5	18	n/a	98	n/a	1	n/a	n/a	n/a	n/a	210.197	n/a
181.052	0.497	neutral	Picture	47.005	n/a	2	5	19	n/a	99	27	1	n/a	n/a	n/a	n/a	210.728	BM08NES.jpg
181.55	0.514	Blank	Blank	46.491	n/a	2	5	19	n/a	99	n/a	1	n/a	n/a	n/a	n/a	211.225	n/a
182.08	0.497	neutral	Picture	45.977	n/a	2	5	20	n/a	100	28	1	n/a	n/a	n/a	n/a	211.756	AM09NES.jpg
182.578	0.514	Blank	Blank	45.463	n/a	2	5	20	n/a	100	n/a	1	n/a	n/a	n/a	n/a	212.253	n/a
183.108	10.014	ITI	Fixation+	35.433	n/a	2	n/a	n/a	n/a	n/a	n/a	n/a	n/a	n/a	n/a	n/a	212.784	n/a
193.138	0.497	happy	Picture	34.919	n/a	2	6	1	n/a	101	81	3	n/a	n/a	n/a	n/a	222.814	AF01ANS.jpg
193.636	0.514	Blank	Blank	34.405	n/a	2	6	1	n/a	101	n/a	3	n/a	n/a	n/a	n/a	223.311	n/a
194.166	0.497	happy	Picture	33.891	n/a	2	6	2	n/a	102	120	3	n/a	n/a	n/a	n/a	223.842	AM35ANS.jpg
194.664	0.514	Blank	Blank	33.378	n/a	2	6	2	n/a	102	n/a	3	n/a	n/a	n/a	n/a	224.339	n/a
195.194	0.497	happy	Picture	32.864	n/a	2	6	3	n/a	103	114	3	n/a	n/a	n/a	n/a	224.87	AM22ANS.jpg
195.691	0.514	Blank	Blank	32.35	n/a	2	6	3	n/a	103	n/a	3	n/a	n/a	n/a	n/a	225.367	n/a
196.222	0.497	happy	Picture	31.836	n/a	2	6	4	n/a	104	109	3	n/a	n/a	n/a	n/a	225.898	AM10ANS.jpg
196.719	0.514	Blank	Blank	31.322	n/a	2	6	4	n/a	104	n/a	3	n/a	n/a	n/a	n/a	226.395	n/a
197.25	0.497	happy	Picture	30.808	n/a	2	6	5	n/a	105	96	3	n/a	n/a	n/a	n/a	226.925	AF26ANS.jpg
197.747	0.514	Blank	Blank	30.294	n/a	2	6	5	n/a	105	n/a	3	n/a	n/a	n/a	n/a	227.423	n/a
198.278	0.497	happy	Picture	29.78	n/a	2	6	6	n/a	106	82	3	n/a	n/a	n/a	n/a	227.953	AF03ANS.jpg
198.775	0.514	Blank	Blank	29.266	n/a	2	6	6	n/a	106	n/a	3	n/a	n/a	n/a	n/a	228.451	n/a
199.306	0.497	happy	Picture	28.752	n/a	2	6	7	n/a	107	97	3	n/a	n/a	n/a	n/a	228.981	BF28ANS.jpg
199.803	0.514	Blank	Blank	28.238	n/a	2	6	7	n/a	107	n/a	3	n/a	n/a	n/a	n/a	229.478	n/a
200.334	0.497	happy	Picture	27.724	n/a	2	6	8	n/a	108	115	3	n/a	n/a	n/a	n/a	230.009	AM23ANS.jpg
200.831	0.514	Blank	Blank	27.21	n/a	2	6	8	n/a	108	n/a	3	n/a	n/a	n/a	n/a	230.506	n/a
201.361	0.497	happy	Picture	26.696	n/a	2	6	9	n/a	109	91	3	n/a	n/a	n/a	n/a	231.037	AF20ANS.jpg
201.859	0.514	Blank	Blank	26.182	n/a	2	6	9	n/a	109	n/a	3	n/a	n/a	n/a	n/a	231.534	n/a
202.389	0.497	happy	Picture	25.668	n/a	2	6	10	n/a	110	87	3	n/a	n/a	n/a	n/a	232.065	BF11ANS.jpg
202.887	0.514	Blank	Blank	25.154	n/a	2	6	10	n/a	110	n/a	3	n/a	n/a	n/a	n/a	232.562	n/a
203.417	0.497	happy	Picture	24.64	n/a	2	6	11	n/a	111	85	3	n/a	n/a	n/a	n/a	233.093	BF07ANS.jpg
203.915	0.514	Blank	Blank	24.127	n/a	2	6	11	n/a	111	n/a	3	n/a	n/a	n/a	n/a	233.59	n/a
204.445	0.497	happy	Picture	23.613	n/a	2	6	12	n/a	112	110	3	n/a	n/a	n/a	n/a	234.121	AM11ANS.jpg
204.942	0.514	Blank	Blank	23.099	n/a	2	6	12	n/a	112	n/a	3	n/a	n/a	n/a	n/a	234.618	n/a
205.473	0.497	happy	Picture	22.585	n/a	2	6	13	n/a	113	111	3	n/a	n/a	n/a	n/a	235.149	BM12ANS.jpg
205.97	0.514	Blank	Blank	22.071	n/a	2	6	13	n/a	113	n/a	3	n/a	n/a	n/a	n/a	235.646	n/a
206.501	0.497	happy	Picture	21.557	n/a	2	6	14	n/a	114	103	3	n/a	n/a	n/a	n/a	236.176	AM04ANS.jpg
206.998	0.514	Blank	Blank	21.043	n/a	2	6	14	n/a	114	n/a	3	n/a	n/a	n/a	n/a	236.674	n/a
207.529	0.497	happy	Picture	20.529	n/a	2	6	15	n/a	115	101	3	n/a	n/a	n/a	n/a	237.204	AM01ANS.jpg
208.026	0.514	Blank	Blank	20.015	n/a	2	6	15	n/a	115	n/a	3	n/a	n/a	n/a	n/a	237.702	n/a
208.557	0.497	happy	Picture	19.501	n/a	2	6	16	n/a	116	104	3	n/a	n/a	n/a	n/a	238.232	BM05ANS.jpg
209.054	0.514	Blank	Blank	18.987	n/a	2	6	16	n/a	116	n/a	3	n/a	n/a	n/a	n/a	238.73	n/a
209.584	0.497	happy	Picture	18.473	n/a	2	6	17	n/a	117	107	3	n/a	n/a	n/a	n/a	239.26	BM08ANS.jpg
210.082	0.514	Blank	Blank	17.959	n/a	2	6	17	n/a	117	n/a	3	n/a	n/a	n/a	n/a	239.757	n/a
210.612	0.497	happy	Picture	17.445	n/a	2	6	18	n/a	118	98	3	n/a	n/a	n/a	n/a	240.288	BF29ANS.jpg
211.11	0.514	Blank	Blank	16.931	n/a	2	6	18	n/a	118	n/a	3	n/a	n/a	n/a	n/a	240.785	n/a
211.64	0.497	happy	Picture	16.417	n/a	2	6	19	n/a	119	99	3	n/a	n/a	n/a	n/a	241.316	AF31ANS.jpg
212.138	0.514	Blank	Blank	15.903	n/a	2	6	19	n/a	119	n/a	3	n/a	n/a	n/a	n/a	241.813	n/a
212.668	0.497	happy	Picture	15.389	n/a	2	6	20	n/a	120	108	3	n/a	n/a	n/a	n/a	242.344	AM09ANS.jpg
213.166	0.514	Blank	Blank	14.876	n/a	2	6	20	n/a	120	n/a	3	n/a	n/a	n/a	n/a	242.841	n/a
213.696	10.014	ITI	Fixation+	4.845	n/a	2	n/a	n/a	n/a	n/a	n/a	n/a	n/a	n/a	n/a	n/a	243.372	n/a
228.555	n/a	ConfirmRating	Rate	n/a	4.841	2	n/a	n/a	0	n/a	n/a	n/a	2	Happy	85	52	258.231	n/a
235.715	n/a	ConfirmRating	Rate	n/a	7.145	2	n/a	n/a	1	n/a	n/a	n/a	3	Happy	15	48	265.391	n/a
235.746	15.004	Rest	Picture	n/a	n/a	n/a	n/a	n/a	n/a	n/a	n/a	n/a	0	n/a	0	0	265.421	n/a
250.766	10.014	ITI	Fixation+	97.357	n/a	3	n/a	n/a	n/a	n/a	n/a	n/a	n/a	n/a	n/a	n/a	280.442	n/a
260.796	0.497	angry	Picture	96.844	n/a	3	7	1	n/a	1	46	2	n/a	n/a	n/a	n/a	290.472	AF09HAS.jpg
261.294	0.514	Blank	Blank	96.329	n/a	3	7	1	n/a	1	n/a	2	n/a	n/a	n/a	n/a	290.969	n/a
261.824	0.497	angry	Picture	95.816	n/a	3	7	2	n/a	2	69	2	n/a	n/a	n/a	n/a	291.5	AM10HAS.jpg
262.322	0.514	Blank	Blank	95.302	n/a	3	7	2	n/a	2	n/a	2	n/a	n/a	n/a	n/a	291.997	n/a
262.852	0.497	angry	Picture	94.788	n/a	3	7	3	n/a	3	71	2	n/a	n/a	n/a	n/a	292.528	BM12HAS.jpg
263.35	0.514	Blank	Blank	94.274	n/a	3	7	3	n/a	3	n/a	2	n/a	n/a	n/a	n/a	293.025	n/a
263.88	0.497	angry	Picture	93.76	n/a	3	7	4	n/a	4	51	2	n/a	n/a	n/a	n/a	293.556	AF20HAS.jpg
264.377	0.514	Blank	Blank	93.246	n/a	3	7	4	n/a	4	n/a	2	n/a	n/a	n/a	n/a	294.053	n/a
264.908	0.497	angry	Picture	92.732	n/a	3	7	5	n/a	5	67	2	n/a	n/a	n/a	n/a	294.584	BM08HAS.jpg
265.405	0.514	Blank	Blank	92.218	n/a	3	7	5	n/a	5	n/a	2	n/a	n/a	n/a	n/a	295.081	n/a
265.936	0.497	angry	Picture	91.704	n/a	3	7	6	n/a	6	60	2	n/a	n/a	n/a	n/a	295.611	AF32HAS.jpg
266.433	0.514	Blank	Blank	91.19	n/a	3	7	6	n/a	6	n/a	2	n/a	n/a	n/a	n/a	296.109	n/a
266.964	0.497	angry	Picture	90.676	n/a	3	7	7	n/a	7	42	2	n/a	n/a	n/a	n/a	296.639	AF03HAS.jpg
267.461	0.514	Blank	Blank	90.162	n/a	3	7	7	n/a	7	n/a	2	n/a	n/a	n/a	n/a	297.137	n/a
267.992	0.497	angry	Picture	89.648	n/a	3	7	8	n/a	8	55	2	n/a	n/a	n/a	n/a	297.667	AF25HAS.jpg
268.489	0.514	Blank	Blank	89.134	n/a	3	7	8	n/a	8	n/a	2	n/a	n/a	n/a	n/a	298.164	n/a
269.02	0.497	angry	Picture	88.62	n/a	3	7	9	n/a	9	72	2	n/a	n/a	n/a	n/a	298.695	AM14HAS.jpg
269.517	0.514	Blank	Blank	88.106	n/a	3	7	9	n/a	9	n/a	2	n/a	n/a	n/a	n/a	299.192	n/a
270.048	0.497	angry	Picture	87.592	n/a	3	7	10	n/a	10	63	2	n/a	n/a	n/a	n/a	299.723	AM04HAS.jpg
270.545	0.514	Blank	Blank	87.078	n/a	3	7	10	n/a	10	n/a	2	n/a	n/a	n/a	n/a	300.22	n/a
271.075	0.497	angry	Picture	86.565	n/a	3	7	11	n/a	11	58	2	n/a	n/a	n/a	n/a	300.751	BF29HAS.jpg
271.573	0.514	Blank	Blank	86.051	n/a	3	7	11	n/a	11	n/a	2	n/a	n/a	n/a	n/a	301.248	n/a
272.103	0.497	angry	Picture	85.537	n/a	3	7	12	n/a	12	48	2	n/a	n/a	n/a	n/a	301.779	AF14HAS.jpg
272.601	0.514	Blank	Blank	85.023	n/a	3	7	12	n/a	12	n/a	2	n/a	n/a	n/a	n/a	302.276	n/a
273.131	0.497	angry	Picture	84.509	n/a	3	7	13	n/a	13	66	2	n/a	n/a	n/a	n/a	302.807	BM07HAS.jpg
273.628	0.514	Blank	Blank	83.995	n/a	3	7	13	n/a	13	n/a	2	n/a	n/a	n/a	n/a	303.304	n/a
274.159	0.497	angry	Picture	83.481	n/a	3	7	14	n/a	14	70	2	n/a	n/a	n/a	n/a	303.834	BM11HAS.jpg
274.656	0.514	Blank	Blank	82.967	n/a	3	7	14	n/a	14	n/a	2	n/a	n/a	n/a	n/a	304.332	n/a
275.187	0.497	angry	Picture	82.453	n/a	3	7	15	n/a	15	43	2	n/a	n/a	n/a	n/a	304.862	BF04HAS.jpg
275.684	0.514	Blank	Blank	81.939	n/a	3	7	15	n/a	15	n/a	2	n/a	n/a	n/a	n/a	305.36	n/a
276.215	0.497	angry	Picture	81.425	n/a	3	7	16	n/a	16	49	2	n/a	n/a	n/a	n/a	305.89	AF17HAS.jpg
276.712	0.514	Blank	Blank	80.911	n/a	3	7	16	n/a	16	n/a	2	n/a	n/a	n/a	n/a	306.388	n/a
277.243	0.497	angry	Picture	80.397	n/a	3	7	17	n/a	17	75	2	n/a	n/a	n/a	n/a	306.918	AM23HAS.jpg
277.74	0.514	Blank	Blank	79.883	n/a	3	7	17	n/a	17	n/a	2	n/a	n/a	n/a	n/a	307.416	n/a
278.271	0.497	angry	Picture	79.369	n/a	3	7	18	n/a	18	80	2	n/a	n/a	n/a	n/a	307.946	BM35HAS.jpg
278.768	0.514	Blank	Blank	78.856	n/a	3	7	18	n/a	18	n/a	2	n/a	n/a	n/a	n/a	308.443	n/a
279.298	0.497	angry	Picture	78.341	n/a	3	7	19	n/a	19	76	2	n/a	n/a	n/a	n/a	308.974	BM24HAS.jpg
279.796	0.514	Blank	Blank	77.828	n/a	3	7	19	n/a	19	n/a	2	n/a	n/a	n/a	n/a	309.471	n/a
280.326	0.497	angry	Picture	77.314	n/a	3	7	20	n/a	20	74	2	n/a	n/a	n/a	n/a	310.002	AM22HAS.jpg
280.824	0.514	Blank	Blank	76.8	n/a	3	7	20	n/a	20	n/a	2	n/a	n/a	n/a	n/a	310.499	n/a
281.354	10.014	ITI	Fixation+	66.769	n/a	3	n/a	n/a	n/a	n/a	n/a	n/a	n/a	n/a	n/a	n/a	311.03	n/a
291.384	0.497	neutral	Picture	66.256	n/a	3	8	1	n/a	21	33	1	n/a	n/a	n/a	n/a	321.06	AM21NES.jpg
291.882	0.514	Blank	Blank	65.742	n/a	3	8	1	n/a	21	n/a	1	n/a	n/a	n/a	n/a	321.557	n/a
292.412	0.497	neutral	Picture	65.228	n/a	3	8	2	n/a	22	39	1	n/a	n/a	n/a	n/a	322.088	AM28NES.jpg
292.91	0.514	Blank	Blank	64.714	n/a	3	8	2	n/a	22	n/a	1	n/a	n/a	n/a	n/a	322.585	n/a
293.44	0.497	neutral	Picture	64.2	n/a	3	8	3	n/a	23	25	1	n/a	n/a	n/a	n/a	323.116	BM06NES.jpg
293.938	0.514	Blank	Blank	63.686	n/a	3	8	3	n/a	23	n/a	1	n/a	n/a	n/a	n/a	323.613	n/a
294.468	0.497	neutral	Picture	63.172	n/a	3	8	4	n/a	24	5	1	n/a	n/a	n/a	n/a	324.144	BF07NES.jpg
294.965	0.514	Blank	Blank	62.658	n/a	3	8	4	n/a	24	n/a	1	n/a	n/a	n/a	n/a	324.641	n/a
295.496	0.497	neutral	Picture	62.144	n/a	3	8	5	n/a	25	10	1	n/a	n/a	n/a	n/a	325.171	AF18NES.jpg
295.993	0.514	Blank	Blank	61.63	n/a	3	8	5	n/a	25	n/a	1	n/a	n/a	n/a	n/a	325.669	n/a
296.524	0.497	neutral	Picture	61.116	n/a	3	8	6	n/a	26	34	1	n/a	n/a	n/a	n/a	326.199	AM22NES.jpg
297.021	0.514	Blank	Blank	60.602	n/a	3	8	6	n/a	26	n/a	1	n/a	n/a	n/a	n/a	326.697	n/a
297.552	0.497	neutral	Picture	60.088	n/a	3	8	7	n/a	27	36	1	n/a	n/a	n/a	n/a	327.227	BM24NES.jpg
298.049	0.514	Blank	Blank	59.574	n/a	3	8	7	n/a	27	n/a	1	n/a	n/a	n/a	n/a	327.725	n/a
298.58	0.497	neutral	Picture	59.06	n/a	3	8	8	n/a	28	14	1	n/a	n/a	n/a	n/a	328.255	AF23NES.jpg
299.077	0.514	Blank	Blank	58.546	n/a	3	8	8	n/a	28	n/a	1	n/a	n/a	n/a	n/a	328.752	n/a
299.608	0.497	neutral	Picture	58.032	n/a	3	8	9	n/a	29	9	1	n/a	n/a	n/a	n/a	329.283	AF17NES.jpg
300.105	0.514	Blank	Blank	57.518	n/a	3	8	9	n/a	29	n/a	1	n/a	n/a	n/a	n/a	329.78	n/a
300.635	0.497	neutral	Picture	57.005	n/a	3	8	10	n/a	30	19	1	n/a	n/a	n/a	n/a	330.311	AF31NES.jpg
301.133	0.514	Blank	Blank	56.491	n/a	3	8	10	n/a	30	n/a	1	n/a	n/a	n/a	n/a	330.808	n/a
301.663	0.497	neutral	Picture	55.977	n/a	3	8	11	n/a	31	15	1	n/a	n/a	n/a	n/a	331.339	AF25NES.jpg
302.161	0.514	Blank	Blank	55.463	n/a	3	8	11	n/a	31	n/a	1	n/a	n/a	n/a	n/a	331.836	n/a
302.691	0.497	neutral	Picture	54.949	n/a	3	8	12	n/a	32	22	1	n/a	n/a	n/a	n/a	332.367	BM03NES.jpg
303.188	0.514	Blank	Blank	54.435	n/a	3	8	12	n/a	32	n/a	1	n/a	n/a	n/a	n/a	332.864	n/a
303.719	0.497	neutral	Picture	53.921	n/a	3	8	13	n/a	33	11	1	n/a	n/a	n/a	n/a	333.394	AF20NES.jpg
304.216	0.514	Blank	Blank	53.407	n/a	3	8	13	n/a	33	n/a	1	n/a	n/a	n/a	n/a	333.892	n/a
304.747	0.497	neutral	Picture	52.893	n/a	3	8	14	n/a	34	4	1	n/a	n/a	n/a	n/a	334.422	AF05NES.jpg
305.244	0.514	Blank	Blank	52.379	n/a	3	8	14	n/a	34	n/a	1	n/a	n/a	n/a	n/a	334.92	n/a
305.775	0.497	neutral	Picture	51.865	n/a	3	8	15	n/a	35	17	1	n/a	n/a	n/a	n/a	335.45	BF28NES.jpg
306.272	0.514	Blank	Blank	51.351	n/a	3	8	15	n/a	35	n/a	1	n/a	n/a	n/a	n/a	335.948	n/a
306.803	0.497	neutral	Picture	50.837	n/a	3	8	16	n/a	36	13	1	n/a	n/a	n/a	n/a	336.478	BF22NES.jpg
307.3	0.514	Blank	Blank	50.323	n/a	3	8	16	n/a	36	n/a	1	n/a	n/a	n/a	n/a	336.976	n/a
307.831	0.497	neutral	Picture	49.809	n/a	3	8	17	n/a	37	12	1	n/a	n/a	n/a	n/a	337.506	AF21NES.jpg
308.328	0.514	Blank	Blank	49.295	n/a	3	8	17	n/a	37	n/a	1	n/a	n/a	n/a	n/a	338.003	n/a
308.858	0.497	neutral	Picture	48.781	n/a	3	8	18	n/a	38	24	1	n/a	n/a	n/a	n/a	338.534	BM05NES.jpg
309.356	0.514	Blank	Blank	48.268	n/a	3	8	18	n/a	38	n/a	1	n/a	n/a	n/a	n/a	339.031	n/a
309.886	0.497	neutral	Picture	47.754	n/a	3	8	19	n/a	39	29	1	n/a	n/a	n/a	n/a	339.562	AM10NES.jpg
310.384	0.514	Blank	Blank	47.24	n/a	3	8	19	n/a	39	n/a	1	n/a	n/a	n/a	n/a	340.059	n/a
310.914	0.497	neutral	Picture	46.726	n/a	3	8	20	n/a	40	23	1	n/a	n/a	n/a	n/a	340.59	AM04NES.jpg
311.412	0.514	Blank	Blank	46.212	n/a	3	8	20	n/a	40	n/a	1	n/a	n/a	n/a	n/a	341.087	n/a
311.942	10.014	ITI	Fixation+	36.182	n/a	3	n/a	n/a	n/a	n/a	n/a	n/a	n/a	n/a	n/a	n/a	341.618	n/a
321.972	0.497	angry	Picture	35.668	n/a	3	9	1	n/a	41	62	2	n/a	n/a	n/a	n/a	351.648	BM03HAS.jpg
322.47	0.514	Blank	Blank	35.154	n/a	3	9	1	n/a	41	n/a	2	n/a	n/a	n/a	n/a	352.145	n/a
323.0	0.497	angry	Picture	34.64	n/a	3	9	2	n/a	42	52	2	n/a	n/a	n/a	n/a	352.676	AF21HAS.jpg
323.498	0.514	Blank	Blank	34.126	n/a	3	9	2	n/a	42	n/a	2	n/a	n/a	n/a	n/a	353.173	n/a
324.028	0.497	angry	Picture	33.612	n/a	3	9	3	n/a	43	44	2	n/a	n/a	n/a	n/a	353.704	AF05HAS.jpg
324.525	0.514	Blank	Blank	33.098	n/a	3	9	3	n/a	43	n/a	2	n/a	n/a	n/a	n/a	354.201	n/a
325.056	0.497	angry	Picture	32.584	n/a	3	9	4	n/a	44	53	2	n/a	n/a	n/a	n/a	354.731	BF22HAS.jpg
325.553	0.514	Blank	Blank	32.07	n/a	3	9	4	n/a	44	n/a	2	n/a	n/a	n/a	n/a	355.229	n/a
326.084	0.497	angry	Picture	31.556	n/a	3	9	5	n/a	45	54	2	n/a	n/a	n/a	n/a	355.759	AF23HAS.jpg
326.581	0.514	Blank	Blank	31.042	n/a	3	9	5	n/a	45	n/a	2	n/a	n/a	n/a	n/a	356.257	n/a
327.112	0.497	angry	Picture	30.528	n/a	3	9	6	n/a	46	68	2	n/a	n/a	n/a	n/a	356.787	AM09HAS.jpg
327.609	0.514	Blank	Blank	30.014	n/a	3	9	6	n/a	46	n/a	2	n/a	n/a	n/a	n/a	357.285	n/a
328.14	0.497	angry	Picture	29.5	n/a	3	9	7	n/a	47	64	2	n/a	n/a	n/a	n/a	357.815	BM05HAS.jpg
328.637	0.514	Blank	Blank	28.986	n/a	3	9	7	n/a	47	n/a	2	n/a	n/a	n/a	n/a	358.313	n/a
329.168	0.497	angry	Picture	28.472	n/a	3	9	8	n/a	48	59	2	n/a	n/a	n/a	n/a	358.843	AF31HAS.jpg
329.665	0.514	Blank	Blank	27.958	n/a	3	9	8	n/a	48	n/a	2	n/a	n/a	n/a	n/a	359.34	n/a
330.195	0.497	angry	Picture	27.445	n/a	3	9	9	n/a	49	41	2	n/a	n/a	n/a	n/a	359.871	AF01HAS.jpg
330.693	0.514	Blank	Blank	26.931	n/a	3	9	9	n/a	49	n/a	2	n/a	n/a	n/a	n/a	360.368	n/a
331.223	0.497	angry	Picture	26.417	n/a	3	9	10	n/a	50	73	2	n/a	n/a	n/a	n/a	360.899	AM21HAS.jpg
331.721	0.514	Blank	Blank	25.903	n/a	3	9	10	n/a	50	n/a	2	n/a	n/a	n/a	n/a	361.396	n/a
332.251	0.497	angry	Picture	25.389	n/a	3	9	11	n/a	51	65	2	n/a	n/a	n/a	n/a	361.927	BM06HAS.jpg
332.748	0.514	Blank	Blank	24.875	n/a	3	9	11	n/a	51	n/a	2	n/a	n/a	n/a	n/a	362.424	n/a
333.279	0.497	angry	Picture	24.361	n/a	3	9	12	n/a	52	56	2	n/a	n/a	n/a	n/a	362.954	AF26HAS.jpg
333.776	0.514	Blank	Blank	23.847	n/a	3	9	12	n/a	52	n/a	2	n/a	n/a	n/a	n/a	363.452	n/a
334.307	0.497	angry	Picture	23.333	n/a	3	9	13	n/a	53	45	2	n/a	n/a	n/a	n/a	363.982	BF07HAS.jpg
334.804	0.514	Blank	Blank	22.819	n/a	3	9	13	n/a	53	n/a	2	n/a	n/a	n/a	n/a	364.48	n/a
335.335	0.497	angry	Picture	22.305	n/a	3	9	14	n/a	54	78	2	n/a	n/a	n/a	n/a	365.01	BM26HAS.jpg
335.832	0.514	Blank	Blank	21.791	n/a	3	9	14	n/a	54	n/a	2	n/a	n/a	n/a	n/a	365.508	n/a
336.363	0.497	angry	Picture	21.277	n/a	3	9	15	n/a	55	50	2	n/a	n/a	n/a	n/a	366.038	AF18HAS.jpg
336.86	0.514	Blank	Blank	20.763	n/a	3	9	15	n/a	55	n/a	2	n/a	n/a	n/a	n/a	366.536	n/a
337.391	0.497	angry	Picture	20.249	n/a	3	9	16	n/a	56	47	2	n/a	n/a	n/a	n/a	367.066	BF11HAS.jpg
337.888	0.514	Blank	Blank	19.735	n/a	3	9	16	n/a	56	n/a	2	n/a	n/a	n/a	n/a	367.563	n/a
338.418	0.497	angry	Picture	19.221	n/a	3	9	17	n/a	57	77	2	n/a	n/a	n/a	n/a	368.094	BM25HAS.jpg
338.916	0.514	Blank	Blank	18.707	n/a	3	9	17	n/a	57	n/a	2	n/a	n/a	n/a	n/a	368.591	n/a
339.446	0.497	angry	Picture	18.194	n/a	3	9	18	n/a	58	57	2	n/a	n/a	n/a	n/a	369.122	BF28HAS.jpg
339.944	0.514	Blank	Blank	17.68	n/a	3	9	18	n/a	58	n/a	2	n/a	n/a	n/a	n/a	369.619	n/a
340.474	0.497	angry	Picture	17.166	n/a	3	9	19	n/a	59	61	2	n/a	n/a	n/a	n/a	370.15	AM01HAS.jpg
340.972	0.514	Blank	Blank	16.652	n/a	3	9	19	n/a	59	n/a	2	n/a	n/a	n/a	n/a	370.647	n/a
341.502	0.497	angry	Picture	16.138	n/a	3	9	20	n/a	60	79	2	n/a	n/a	n/a	n/a	371.178	BM28HAS.jpg
342.0	0.514	Blank	Blank	15.624	n/a	3	9	20	n/a	60	n/a	2	n/a	n/a	n/a	n/a	371.675	n/a
342.53	10.014	ITI	Fixation+	5.594	n/a	3	n/a	n/a	n/a	n/a	n/a	n/a	n/a	n/a	n/a	n/a	372.205	n/a
358.137	n/a	ConfirmRating	Rate	n/a	5.587	3	n/a	n/a	0	n/a	n/a	n/a	2	Angry	50	50	387.813	n/a
366.141	n/a	ConfirmRating	Rate	n/a	7.991	3	n/a	n/a	1	n/a	n/a	n/a	3	Angry	67	52	395.817	n/a
366.171	10.014	ITI	Fixation+	98.046	n/a	4	n/a	n/a	n/a	n/a	n/a	n/a	n/a	n/a	n/a	n/a	395.847	n/a
376.202	0.497	happy	Picture	97.532	n/a	4	10	1	n/a	61	119	3	n/a	n/a	n/a	n/a	405.877	BM28ANS.jpg
376.699	0.514	Blank	Blank	97.018	n/a	4	10	1	n/a	61	n/a	3	n/a	n/a	n/a	n/a	406.374	n/a
377.229	0.497	happy	Picture	96.504	n/a	4	10	2	n/a	62	100	3	n/a	n/a	n/a	n/a	406.905	AF32ANS.jpg
377.727	0.514	Blank	Blank	95.99	n/a	4	10	2	n/a	62	n/a	3	n/a	n/a	n/a	n/a	407.402	n/a
378.257	0.497	happy	Picture	95.476	n/a	4	10	3	n/a	63	118	3	n/a	n/a	n/a	n/a	407.933	BM26ANS.jpg
378.755	0.514	Blank	Blank	94.962	n/a	4	10	3	n/a	63	n/a	3	n/a	n/a	n/a	n/a	408.43	n/a
379.285	0.497	happy	Picture	94.448	n/a	4	10	4	n/a	64	89	3	n/a	n/a	n/a	n/a	408.961	AF17ANS.jpg
379.783	0.514	Blank	Blank	93.934	n/a	4	10	4	n/a	64	n/a	3	n/a	n/a	n/a	n/a	409.458	n/a
380.313	0.497	happy	Picture	93.42	n/a	4	10	5	n/a	65	116	3	n/a	n/a	n/a	n/a	409.989	BM24ANS.jpg
380.81	0.514	Blank	Blank	92.906	n/a	4	10	5	n/a	65	n/a	3	n/a	n/a	n/a	n/a	410.486	n/a
381.341	0.497	happy	Picture	92.392	n/a	4	10	6	n/a	66	105	3	n/a	n/a	n/a	n/a	411.017	BM06ANS.jpg
381.838	0.514	Blank	Blank	91.878	n/a	4	10	6	n/a	66	n/a	3	n/a	n/a	n/a	n/a	411.514	n/a
382.369	0.497	happy	Picture	91.364	n/a	4	10	7	n/a	67	106	3	n/a	n/a	n/a	n/a	412.044	AM07ANS.jpg
382.866	0.514	Blank	Blank	90.85	n/a	4	10	7	n/a	67	n/a	3	n/a	n/a	n/a	n/a	412.542	n/a
383.397	0.497	happy	Picture	90.337	n/a	4	10	8	n/a	68	94	3	n/a	n/a	n/a	n/a	413.072	AF23ANS.jpg
383.894	0.514	Blank	Blank	89.822	n/a	4	10	8	n/a	68	n/a	3	n/a	n/a	n/a	n/a	413.57	n/a
384.425	0.497	happy	Picture	89.309	n/a	4	10	9	n/a	69	117	3	n/a	n/a	n/a	n/a	414.1	BM25ANS.jpg
384.922	0.514	Blank	Blank	88.795	n/a	4	10	9	n/a	69	n/a	3	n/a	n/a	n/a	n/a	414.598	n/a
385.452	0.497	happy	Picture	88.281	n/a	4	10	10	n/a	70	90	3	n/a	n/a	n/a	n/a	415.128	AF18ANS.jpg
385.95	0.514	Blank	Blank	87.767	n/a	4	10	10	n/a	70	n/a	3	n/a	n/a	n/a	n/a	415.625	n/a
386.48	0.497	happy	Picture	87.253	n/a	4	10	11	n/a	71	83	3	n/a	n/a	n/a	n/a	416.156	BF04ANS.jpg
386.978	0.514	Blank	Blank	86.739	n/a	4	10	11	n/a	71	n/a	3	n/a	n/a	n/a	n/a	416.653	n/a
387.508	0.497	happy	Picture	86.225	n/a	4	10	12	n/a	72	112	3	n/a	n/a	n/a	n/a	417.184	AM14ANS.jpg
388.006	0.514	Blank	Blank	85.711	n/a	4	10	12	n/a	72	n/a	3	n/a	n/a	n/a	n/a	417.681	n/a
388.536	0.497	happy	Picture	85.197	n/a	4	10	13	n/a	73	102	3	n/a	n/a	n/a	n/a	418.212	BM03ANS.jpg
389.034	0.514	Blank	Blank	84.683	n/a	4	10	13	n/a	73	n/a	3	n/a	n/a	n/a	n/a	418.709	n/a
389.564	0.497	happy	Picture	84.169	n/a	4	10	14	n/a	74	95	3	n/a	n/a	n/a	n/a	419.24	AF25ANS.jpg
390.061	0.514	Blank	Blank	83.655	n/a	4	10	14	n/a	74	n/a	3	n/a	n/a	n/a	n/a	419.737	n/a
390.592	0.497	happy	Picture	83.141	n/a	4	10	15	n/a	75	113	3	n/a	n/a	n/a	n/a	420.267	AM21ANS.jpg
391.089	0.514	Blank	Blank	82.627	n/a	4	10	15	n/a	75	n/a	3	n/a	n/a	n/a	n/a	420.765	n/a
391.62	0.497	happy	Picture	82.113	n/a	4	10	16	n/a	76	88	3	n/a	n/a	n/a	n/a	421.295	AF14ANS.jpg
392.117	0.514	Blank	Blank	81.599	n/a	4	10	16	n/a	76	n/a	3	n/a	n/a	n/a	n/a	421.793	n/a
392.648	0.497	happy	Picture	81.085	n/a	4	10	17	n/a	77	93	3	n/a	n/a	n/a	n/a	422.323	BF22ANS.jpg
393.145	0.514	Blank	Blank	80.572	n/a	4	10	17	n/a	77	n/a	3	n/a	n/a	n/a	n/a	422.821	n/a
393.676	0.497	happy	Picture	80.058	n/a	4	10	18	n/a	78	86	3	n/a	n/a	n/a	n/a	423.351	AF09ANS.jpg
394.173	0.514	Blank	Blank	79.544	n/a	4	10	18	n/a	78	n/a	3	n/a	n/a	n/a	n/a	423.849	n/a
394.704	0.497	happy	Picture	79.03	n/a	4	10	19	n/a	79	92	3	n/a	n/a	n/a	n/a	424.379	AF21ANS.jpg
395.201	0.514	Blank	Blank	78.516	n/a	4	10	19	n/a	79	n/a	3	n/a	n/a	n/a	n/a	424.876	n/a
395.731	0.497	happy	Picture	78.002	n/a	4	10	20	n/a	80	84	3	n/a	n/a	n/a	n/a	425.407	AF05ANS.jpg
396.229	0.514	Blank	Blank	77.488	n/a	4	10	20	n/a	80	n/a	3	n/a	n/a	n/a	n/a	425.904	n/a
396.759	10.014	ITI	Fixation+	67.458	n/a	4	n/a	n/a	n/a	n/a	n/a	n/a	n/a	n/a	n/a	n/a	426.435	n/a
406.789	0.497	neutral	Picture	66.944	n/a	4	11	1	n/a	81	4	1	n/a	n/a	n/a	n/a	436.465	AF05NES.jpg
407.287	0.514	Blank	Blank	66.43	n/a	4	11	1	n/a	81	n/a	1	n/a	n/a	n/a	n/a	436.962	n/a
407.817	0.497	neutral	Picture	65.916	n/a	4	11	2	n/a	82	14	1	n/a	n/a	n/a	n/a	437.493	AF23NES.jpg
408.315	0.514	Blank	Blank	65.402	n/a	4	11	2	n/a	82	n/a	1	n/a	n/a	n/a	n/a	437.99	n/a
408.845	0.497	neutral	Picture	64.888	n/a	4	11	3	n/a	83	19	1	n/a	n/a	n/a	n/a	438.521	AF31NES.jpg
409.343	0.514	Blank	Blank	64.374	n/a	4	11	3	n/a	83	n/a	1	n/a	n/a	n/a	n/a	439.018	n/a
409.873	0.497	neutral	Picture	63.86	n/a	4	11	4	n/a	84	8	1	n/a	n/a	n/a	n/a	439.549	AF14NES.jpg
410.37	0.514	Blank	Blank	63.346	n/a	4	11	4	n/a	84	n/a	1	n/a	n/a	n/a	n/a	440.046	n/a
410.901	0.497	neutral	Picture	62.832	n/a	4	11	5	n/a	85	25	1	n/a	n/a	n/a	n/a	440.577	BM06NES.jpg
411.398	0.514	Blank	Blank	62.318	n/a	4	11	5	n/a	85	n/a	1	n/a	n/a	n/a	n/a	441.074	n/a
411.929	0.497	neutral	Picture	61.804	n/a	4	11	6	n/a	86	9	1	n/a	n/a	n/a	n/a	441.604	AF17NES.jpg
412.426	0.514	Blank	Blank	61.29	n/a	4	11	6	n/a	86	n/a	1	n/a	n/a	n/a	n/a	442.102	n/a
412.957	0.497	neutral	Picture	60.776	n/a	4	11	7	n/a	87	2	1	n/a	n/a	n/a	n/a	442.632	AF03NES.jpg
413.454	0.514	Blank	Blank	60.262	n/a	4	11	7	n/a	87	n/a	1	n/a	n/a	n/a	n/a	443.13	n/a
413.985	0.497	neutral	Picture	59.749	n/a	4	11	8	n/a	88	17	1	n/a	n/a	n/a	n/a	443.66	BF28NES.jpg
414.482	0.514	Blank	Blank	59.235	n/a	4	11	8	n/a	88	n/a	1	n/a	n/a	n/a	n/a	444.158	n/a
415.013	0.497	neutral	Picture	58.721	n/a	4	11	9	n/a	89	6	1	n/a	n/a	n/a	n/a	444.688	AF09NES.jpg
415.51	0.514	Blank	Blank	58.207	n/a	4	11	9	n/a	89	n/a	1	n/a	n/a	n/a	n/a	445.185	n/a
416.04	0.497	neutral	Picture	57.693	n/a	4	11	10	n/a	90	12	1	n/a	n/a	n/a	n/a	445.716	AF21NES.jpg
416.538	0.514	Blank	Blank	57.179	n/a	4	11	10	n/a	90	n/a	1	n/a	n/a	n/a	n/a	446.213	n/a
417.068	0.497	neutral	Picture	56.665	n/a	4	11	11	n/a	91	24	1	n/a	n/a	n/a	n/a	446.744	BM05NES.jpg
417.566	0.514	Blank	Blank	56.151	n/a	4	11	11	n/a	91	n/a	1	n/a	n/a	n/a	n/a	447.241	n/a
418.096	0.497	neutral	Picture	55.637	n/a	4	11	12	n/a	92	34	1	n/a	n/a	n/a	n/a	447.772	AM22NES.jpg
418.594	0.514	Blank	Blank	55.123	n/a	4	11	12	n/a	92	n/a	1	n/a	n/a	n/a	n/a	448.269	n/a
419.124	0.497	neutral	Picture	54.609	n/a	4	11	13	n/a	93	23	1	n/a	n/a	n/a	n/a	448.8	AM04NES.jpg
419.622	0.514	Blank	Blank	54.095	n/a	4	11	13	n/a	93	n/a	1	n/a	n/a	n/a	n/a	449.297	n/a
420.152	0.497	neutral	Picture	53.581	n/a	4	11	14	n/a	94	15	1	n/a	n/a	n/a	n/a	449.827	AF25NES.jpg
420.649	0.514	Blank	Blank	53.067	n/a	4	11	14	n/a	94	n/a	1	n/a	n/a	n/a	n/a	450.325	n/a
421.18	0.497	neutral	Picture	52.553	n/a	4	11	15	n/a	95	37	1	n/a	n/a	n/a	n/a	450.855	BM25NES.jpg
421.677	0.514	Blank	Blank	52.039	n/a	4	11	15	n/a	95	n/a	1	n/a	n/a	n/a	n/a	451.353	n/a
422.208	0.497	neutral	Picture	51.525	n/a	4	11	16	n/a	96	32	1	n/a	n/a	n/a	n/a	451.883	AM14NES.jpg
422.705	0.514	Blank	Blank	51.011	n/a	4	11	16	n/a	96	n/a	1	n/a	n/a	n/a	n/a	452.381	n/a
423.236	0.497	neutral	Picture	50.498	n/a	4	11	17	n/a	97	3	1	n/a	n/a	n/a	n/a	452.911	BF04NES.jpg
423.733	0.514	Blank	Blank	49.984	n/a	4	11	17	n/a	97	n/a	1	n/a	n/a	n/a	n/a	453.409	n/a
424.264	0.497	neutral	Picture	49.47	n/a	4	11	18	n/a	98	16	1	n/a	n/a	n/a	n/a	453.939	AF26NES.jpg
424.761	0.514	Blank	Blank	48.956	n/a	4	11	18	n/a	98	n/a	1	n/a	n/a	n/a	n/a	454.436	n/a
425.291	0.497	neutral	Picture	48.442	n/a	4	11	19	n/a	99	27	1	n/a	n/a	n/a	n/a	454.967	BM08NES.jpg
425.789	0.514	Blank	Blank	47.928	n/a	4	11	19	n/a	99	n/a	1	n/a	n/a	n/a	n/a	455.464	n/a
426.319	0.497	neutral	Picture	47.414	n/a	4	11	20	n/a	100	28	1	n/a	n/a	n/a	n/a	455.995	AM09NES.jpg
426.817	0.514	Blank	Blank	46.9	n/a	4	11	20	n/a	100	n/a	1	n/a	n/a	n/a	n/a	456.492	n/a
427.347	10.014	ITI	Fixation+	36.87	n/a	4	n/a	n/a	n/a	n/a	n/a	n/a	n/a	n/a	n/a	n/a	457.023	n/a
437.377	0.497	happy	Picture	36.356	n/a	4	12	1	n/a	101	81	3	n/a	n/a	n/a	n/a	467.053	AF01ANS.jpg
437.875	0.514	Blank	Blank	35.842	n/a	4	12	1	n/a	101	n/a	3	n/a	n/a	n/a	n/a	467.55	n/a
438.405	0.497	happy	Picture	35.328	n/a	4	12	2	n/a	102	120	3	n/a	n/a	n/a	n/a	468.081	AM35ANS.jpg
438.903	0.514	Blank	Blank	34.814	n/a	4	12	2	n/a	102	n/a	3	n/a	n/a	n/a	n/a	468.578	n/a
439.433	0.497	happy	Picture	34.3	n/a	4	12	3	n/a	103	114	3	n/a	n/a	n/a	n/a	469.109	AM22ANS.jpg
439.93	0.514	Blank	Blank	33.786	n/a	4	12	3	n/a	103	n/a	3	n/a	n/a	n/a	n/a	469.606	n/a
440.461	0.497	happy	Picture	33.272	n/a	4	12	4	n/a	104	109	3	n/a	n/a	n/a	n/a	470.137	AM10ANS.jpg
440.958	0.514	Blank	Blank	32.758	n/a	4	12	4	n/a	104	n/a	3	n/a	n/a	n/a	n/a	470.634	n/a
441.489	0.497	happy	Picture	32.244	n/a	4	12	5	n/a	105	96	3	n/a	n/a	n/a	n/a	471.164	AF26ANS.jpg
441.986	0.514	Blank	Blank	31.73	n/a	4	12	5	n/a	105	n/a	3	n/a	n/a	n/a	n/a	471.662	n/a
442.517	0.497	happy	Picture	31.216	n/a	4	12	6	n/a	106	82	3	n/a	n/a	n/a	n/a	472.192	AF03ANS.jpg
443.014	0.514	Blank	Blank	30.702	n/a	4	12	6	n/a	106	n/a	3	n/a	n/a	n/a	n/a	472.69	n/a
443.545	0.497	happy	Picture	30.189	n/a	4	12	7	n/a	107	97	3	n/a	n/a	n/a	n/a	473.22	BF28ANS.jpg
444.042	0.514	Blank	Blank	29.675	n/a	4	12	7	n/a	107	n/a	3	n/a	n/a	n/a	n/a	473.717	n/a
444.573	0.497	happy	Picture	29.161	n/a	4	12	8	n/a	108	115	3	n/a	n/a	n/a	n/a	474.248	AM23ANS.jpg
445.07	0.514	Blank	Blank	28.647	n/a	4	12	8	n/a	108	n/a	3	n/a	n/a	n/a	n/a	474.745	n/a
445.601	0.497	happy	Picture	28.133	n/a	4	12	9	n/a	109	91	3	n/a	n/a	n/a	n/a	475.276	AF20ANS.jpg
446.098	0.514	Blank	Blank	27.619	n/a	4	12	9	n/a	109	n/a	3	n/a	n/a	n/a	n/a	475.773	n/a
446.628	0.497	happy	Picture	27.105	n/a	4	12	10	n/a	110	87	3	n/a	n/a	n/a	n/a	476.304	BF11ANS.jpg
447.126	0.514	Blank	Blank	26.591	n/a	4	12	10	n/a	110	n/a	3	n/a	n/a	n/a	n/a	476.801	n/a
447.656	0.497	happy	Picture	26.077	n/a	4	12	11	n/a	111	85	3	n/a	n/a	n/a	n/a	477.332	BF07ANS.jpg
448.154	0.514	Blank	Blank	25.563	n/a	4	12	11	n/a	111	n/a	3	n/a	n/a	n/a	n/a	477.829	n/a
448.684	0.497	happy	Picture	25.049	n/a	4	12	12	n/a	112	110	3	n/a	n/a	n/a	n/a	478.36	AM11ANS.jpg
449.182	0.514	Blank	Blank	24.535	n/a	4	12	12	n/a	112	n/a	3	n/a	n/a	n/a	n/a	478.857	n/a
449.712	0.497	happy	Picture	24.021	n/a	4	12	13	n/a	113	111	3	n/a	n/a	n/a	n/a	479.387	BM12ANS.jpg
450.209	0.514	Blank	Blank	23.507	n/a	4	12	13	n/a	113	n/a	3	n/a	n/a	n/a	n/a	479.885	n/a
450.74	0.497	happy	Picture	22.993	n/a	4	12	14	n/a	114	103	3	n/a	n/a	n/a	n/a	480.415	AM04ANS.jpg
451.237	0.514	Blank	Blank	22.479	n/a	4	12	14	n/a	114	n/a	3	n/a	n/a	n/a	n/a	480.913	n/a
451.768	0.497	happy	Picture	21.965	n/a	4	12	15	n/a	115	101	3	n/a	n/a	n/a	n/a	481.443	AM01ANS.jpg
452.265	0.514	Blank	Blank	21.451	n/a	4	12	15	n/a	115	n/a	3	n/a	n/a	n/a	n/a	481.941	n/a
452.796	0.497	happy	Picture	20.938	n/a	4	12	16	n/a	116	104	3	n/a	n/a	n/a	n/a	482.471	BM05ANS.jpg
453.293	0.514	Blank	Blank	20.424	n/a	4	12	16	n/a	116	n/a	3	n/a	n/a	n/a	n/a	482.969	n/a
453.824	0.497	happy	Picture	19.91	n/a	4	12	17	n/a	117	107	3	n/a	n/a	n/a	n/a	483.499	BM08ANS.jpg
454.321	0.514	Blank	Blank	19.396	n/a	4	12	17	n/a	117	n/a	3	n/a	n/a	n/a	n/a	483.996	n/a
454.851	0.497	happy	Picture	18.882	n/a	4	12	18	n/a	118	98	3	n/a	n/a	n/a	n/a	484.527	BF29ANS.jpg
455.349	0.514	Blank	Blank	18.368	n/a	4	12	18	n/a	118	n/a	3	n/a	n/a	n/a	n/a	485.024	n/a
455.879	0.497	happy	Picture	17.854	n/a	4	12	19	n/a	119	99	3	n/a	n/a	n/a	n/a	485.555	AF31ANS.jpg
456.377	0.514	Blank	Blank	17.34	n/a	4	12	19	n/a	119	n/a	3	n/a	n/a	n/a	n/a	486.052	n/a
456.907	0.497	happy	Picture	16.826	n/a	4	12	20	n/a	120	108	3	n/a	n/a	n/a	n/a	486.583	AM09ANS.jpg
457.405	0.514	Blank	Blank	16.312	n/a	4	12	20	n/a	120	n/a	3	n/a	n/a	n/a	n/a	487.08	n/a
457.935	10.014	ITI	Fixation+	6.282	n/a	4	n/a	n/a	n/a	n/a	n/a	n/a	n/a	n/a	n/a	n/a	487.611	n/a
474.231	n/a	ConfirmRating	Rate	n/a	6.267	4	n/a	n/a	0	n/a	n/a	n/a	2	Happy	84	53	503.906	n/a
482.698	n/a	ConfirmRating	Rate	n/a	8.455	4	n/a	n/a	1	n/a	n/a	n/a	3	Happy	10	46	512.373	n/a
