onset	duration	trial_type	event_type	time_until_response	response_time	trial_number	block_num_within_trial	image_seq_num_within_block	question_seq_num_within_block	image_seq_num	picture_number	condition	question_type	block_type	rating	rating_computed	onset_uncorrected	KDEV_imagefile
0.011	10.014	ITI	Fixation+	102.141	n/a	1	n/a	n/a	n/a	n/a	n/a	n/a	n/a	n/a	n/a	n/a	29.372	n/a
10.041	0.497	angry	Picture	101.627	n/a	1	1	1	n/a	1	46	2	n/a	n/a	n/a	n/a	39.402	AF09HAS.jpg
10.538	0.514	Blank	Blank	101.113	n/a	1	1	1	n/a	1	n/a	2	n/a	n/a	n/a	n/a	39.9	n/a
11.069	0.497	angry	Picture	100.599	n/a	1	1	2	n/a	2	69	2	n/a	n/a	n/a	n/a	40.43	AM10HAS.jpg
11.566	0.514	Blank	Blank	100.085	n/a	1	1	2	n/a	2	n/a	2	n/a	n/a	n/a	n/a	40.928	n/a
12.097	0.497	angry	Picture	99.572	n/a	1	1	3	n/a	3	71	2	n/a	n/a	n/a	n/a	41.458	BM12HAS.jpg
12.594	0.514	Blank	Blank	99.058	n/a	1	1	3	n/a	3	n/a	2	n/a	n/a	n/a	n/a	41.955	n/a
13.125	0.497	angry	Picture	98.544	n/a	1	1	4	n/a	4	51	2	n/a	n/a	n/a	n/a	42.486	AF20HAS.jpg
13.622	0.514	Blank	Blank	98.03	n/a	1	1	4	n/a	4	n/a	2	n/a	n/a	n/a	n/a	42.983	n/a
14.152	0.497	angry	Picture	97.516	n/a	1	1	5	n/a	5	67	2	n/a	n/a	n/a	n/a	43.514	BM08HAS.jpg
14.65	0.514	Blank	Blank	97.002	n/a	1	1	5	n/a	5	n/a	2	n/a	n/a	n/a	n/a	44.011	n/a
15.18	0.497	angry	Picture	96.488	n/a	1	1	6	n/a	6	60	2	n/a	n/a	n/a	n/a	44.542	AF32HAS.jpg
15.678	0.514	Blank	Blank	95.974	n/a	1	1	6	n/a	6	n/a	2	n/a	n/a	n/a	n/a	45.039	n/a
16.208	0.497	angry	Picture	95.46	n/a	1	1	7	n/a	7	42	2	n/a	n/a	n/a	n/a	45.569	AF03HAS.jpg
16.706	0.514	Blank	Blank	94.946	n/a	1	1	7	n/a	7	n/a	2	n/a	n/a	n/a	n/a	46.067	n/a
17.236	0.497	angry	Picture	94.432	n/a	1	1	8	n/a	8	55	2	n/a	n/a	n/a	n/a	46.597	AF25HAS.jpg
17.734	0.514	Blank	Blank	93.918	n/a	1	1	8	n/a	8	n/a	2	n/a	n/a	n/a	n/a	47.095	n/a
18.264	0.497	angry	Picture	93.404	n/a	1	1	9	n/a	9	72	2	n/a	n/a	n/a	n/a	47.625	AM14HAS.jpg
18.761	0.514	Blank	Blank	92.89	n/a	1	1	9	n/a	9	n/a	2	n/a	n/a	n/a	n/a	48.123	n/a
19.292	0.497	angry	Picture	92.376	n/a	1	1	10	n/a	10	63	2	n/a	n/a	n/a	n/a	48.653	AM04HAS.jpg
19.789	0.514	Blank	Blank	91.862	n/a	1	1	10	n/a	10	n/a	2	n/a	n/a	n/a	n/a	49.151	n/a
20.32	0.497	angry	Picture	91.348	n/a	1	1	11	n/a	11	58	2	n/a	n/a	n/a	n/a	49.681	BF29HAS.jpg
20.817	0.514	Blank	Blank	90.835	n/a	1	1	11	n/a	11	n/a	2	n/a	n/a	n/a	n/a	50.178	n/a
21.348	0.497	angry	Picture	90.321	n/a	1	1	12	n/a	12	48	2	n/a	n/a	n/a	n/a	50.709	AF14HAS.jpg
21.845	0.514	Blank	Blank	89.807	n/a	1	1	12	n/a	12	n/a	2	n/a	n/a	n/a	n/a	51.206	n/a
22.376	0.497	angry	Picture	89.293	n/a	1	1	13	n/a	13	66	2	n/a	n/a	n/a	n/a	51.737	BM07HAS.jpg
22.873	0.514	Blank	Blank	88.779	n/a	1	1	13	n/a	13	n/a	2	n/a	n/a	n/a	n/a	52.234	n/a
23.403	0.497	angry	Picture	88.265	n/a	1	1	14	n/a	14	70	2	n/a	n/a	n/a	n/a	52.765	BM11HAS.jpg
23.901	0.514	Blank	Blank	87.751	n/a	1	1	14	n/a	14	n/a	2	n/a	n/a	n/a	n/a	53.262	n/a
24.431	0.497	angry	Picture	87.237	n/a	1	1	15	n/a	15	43	2	n/a	n/a	n/a	n/a	53.792	BF04HAS.jpg
24.929	0.514	Blank	Blank	86.723	n/a	1	1	15	n/a	15	n/a	2	n/a	n/a	n/a	n/a	54.29	n/a
25.459	0.497	angry	Picture	86.209	n/a	1	1	16	n/a	16	49	2	n/a	n/a	n/a	n/a	54.82	AF17HAS.jpg
25.957	0.514	Blank	Blank	85.695	n/a	1	1	16	n/a	16	n/a	2	n/a	n/a	n/a	n/a	55.318	n/a
26.487	0.497	angry	Picture	85.181	n/a	1	1	17	n/a	17	75	2	n/a	n/a	n/a	n/a	55.848	AM23HAS.jpg
26.984	0.514	Blank	Blank	84.667	n/a	1	1	17	n/a	17	n/a	2	n/a	n/a	n/a	n/a	56.346	n/a
27.515	0.497	angry	Picture	84.153	n/a	1	1	18	n/a	18	80	2	n/a	n/a	n/a	n/a	56.876	BM35HAS.jpg
28.012	0.514	Blank	Blank	83.639	n/a	1	1	18	n/a	18	n/a	2	n/a	n/a	n/a	n/a	57.373	n/a
28.543	0.497	angry	Picture	83.125	n/a	1	1	19	n/a	19	76	2	n/a	n/a	n/a	n/a	57.904	BM24HAS.jpg
29.04	0.514	Blank	Blank	82.612	n/a	1	1	19	n/a	19	n/a	2	n/a	n/a	n/a	n/a	58.401	n/a
29.571	0.497	angry	Picture	82.098	n/a	1	1	20	n/a	20	74	2	n/a	n/a	n/a	n/a	58.932	AM22HAS.jpg
30.068	0.514	Blank	Blank	81.584	n/a	1	1	20	n/a	20	n/a	2	n/a	n/a	n/a	n/a	59.429	n/a
30.599	10.014	ITI	Fixation+	71.554	n/a	1	n/a	n/a	n/a	n/a	n/a	n/a	n/a	n/a	n/a	n/a	59.96	n/a
40.629	0.497	neutral	Picture	71.04	n/a	1	2	1	n/a	21	33	1	n/a	n/a	n/a	n/a	69.99	AM21NES.jpg
41.126	0.514	Blank	Blank	70.526	n/a	1	2	1	n/a	21	n/a	1	n/a	n/a	n/a	n/a	70.487	n/a
41.657	0.497	neutral	Picture	70.012	n/a	1	2	2	n/a	22	39	1	n/a	n/a	n/a	n/a	71.018	AM28NES.jpg
42.154	0.514	Blank	Blank	69.498	n/a	1	2	2	n/a	22	n/a	1	n/a	n/a	n/a	n/a	71.515	n/a
42.684	0.497	neutral	Picture	68.984	n/a	1	2	3	n/a	23	25	1	n/a	n/a	n/a	n/a	72.046	BM06NES.jpg
43.182	0.514	Blank	Blank	68.47	n/a	1	2	3	n/a	23	n/a	1	n/a	n/a	n/a	n/a	72.543	n/a
43.712	0.497	neutral	Picture	67.956	n/a	1	2	4	n/a	24	5	1	n/a	n/a	n/a	n/a	73.073	BF07NES.jpg
44.21	0.514	Blank	Blank	67.442	n/a	1	2	4	n/a	24	n/a	1	n/a	n/a	n/a	n/a	73.571	n/a
44.74	0.497	neutral	Picture	66.928	n/a	1	2	5	n/a	25	10	1	n/a	n/a	n/a	n/a	74.101	AF18NES.jpg
45.238	0.514	Blank	Blank	66.414	n/a	1	2	5	n/a	25	n/a	1	n/a	n/a	n/a	n/a	74.599	n/a
45.768	0.497	neutral	Picture	65.9	n/a	1	2	6	n/a	26	34	1	n/a	n/a	n/a	n/a	75.129	AM22NES.jpg
46.266	0.514	Blank	Blank	65.386	n/a	1	2	6	n/a	26	n/a	1	n/a	n/a	n/a	n/a	75.627	n/a
46.796	0.497	neutral	Picture	64.872	n/a	1	2	7	n/a	27	36	1	n/a	n/a	n/a	n/a	76.157	BM24NES.jpg
47.293	0.514	Blank	Blank	64.358	n/a	1	2	7	n/a	27	n/a	1	n/a	n/a	n/a	n/a	76.654	n/a
47.824	0.497	neutral	Picture	63.844	n/a	1	2	8	n/a	28	14	1	n/a	n/a	n/a	n/a	77.185	AF23NES.jpg
48.321	0.514	Blank	Blank	63.33	n/a	1	2	8	n/a	28	n/a	1	n/a	n/a	n/a	n/a	77.682	n/a
48.852	0.497	neutral	Picture	62.817	n/a	1	2	9	n/a	29	9	1	n/a	n/a	n/a	n/a	78.213	AF17NES.jpg
49.349	0.514	Blank	Blank	62.303	n/a	1	2	9	n/a	29	n/a	1	n/a	n/a	n/a	n/a	78.71	n/a
49.88	0.497	neutral	Picture	61.789	n/a	1	2	10	n/a	30	19	1	n/a	n/a	n/a	n/a	79.241	AF31NES.jpg
50.377	0.514	Blank	Blank	61.275	n/a	1	2	10	n/a	30	n/a	1	n/a	n/a	n/a	n/a	79.738	n/a
50.907	0.497	neutral	Picture	60.761	n/a	1	2	11	n/a	31	15	1	n/a	n/a	n/a	n/a	80.269	AF25NES.jpg
51.405	0.514	Blank	Blank	60.247	n/a	1	2	11	n/a	31	n/a	1	n/a	n/a	n/a	n/a	80.766	n/a
51.935	0.497	neutral	Picture	59.733	n/a	1	2	12	n/a	32	22	1	n/a	n/a	n/a	n/a	81.297	BM03NES.jpg
52.433	0.514	Blank	Blank	59.219	n/a	1	2	12	n/a	32	n/a	1	n/a	n/a	n/a	n/a	81.794	n/a
52.963	0.497	neutral	Picture	58.705	n/a	1	2	13	n/a	33	11	1	n/a	n/a	n/a	n/a	82.325	AF20NES.jpg
53.461	0.514	Blank	Blank	58.191	n/a	1	2	13	n/a	33	n/a	1	n/a	n/a	n/a	n/a	82.822	n/a
53.991	0.497	neutral	Picture	57.677	n/a	1	2	14	n/a	34	4	1	n/a	n/a	n/a	n/a	83.352	AF05NES.jpg
54.489	0.514	Blank	Blank	57.163	n/a	1	2	14	n/a	34	n/a	1	n/a	n/a	n/a	n/a	83.85	n/a
55.019	0.497	neutral	Picture	56.649	n/a	1	2	15	n/a	35	17	1	n/a	n/a	n/a	n/a	84.38	BF28NES.jpg
55.516	0.514	Blank	Blank	56.135	n/a	1	2	15	n/a	35	n/a	1	n/a	n/a	n/a	n/a	84.878	n/a
56.047	0.497	neutral	Picture	55.621	n/a	1	2	16	n/a	36	13	1	n/a	n/a	n/a	n/a	85.408	BF22NES.jpg
56.544	0.514	Blank	Blank	55.107	n/a	1	2	16	n/a	36	n/a	1	n/a	n/a	n/a	n/a	85.906	n/a
57.075	0.497	neutral	Picture	54.593	n/a	1	2	17	n/a	37	12	1	n/a	n/a	n/a	n/a	86.436	AF21NES.jpg
57.572	0.514	Blank	Blank	54.08	n/a	1	2	17	n/a	37	n/a	1	n/a	n/a	n/a	n/a	86.933	n/a
58.103	0.497	neutral	Picture	53.566	n/a	1	2	18	n/a	38	24	1	n/a	n/a	n/a	n/a	87.464	BM05NES.jpg
58.6	0.514	Blank	Blank	53.052	n/a	1	2	18	n/a	38	n/a	1	n/a	n/a	n/a	n/a	87.961	n/a
59.13	0.497	neutral	Picture	52.538	n/a	1	2	19	n/a	39	29	1	n/a	n/a	n/a	n/a	88.492	AM10NES.jpg
59.628	0.514	Blank	Blank	52.024	n/a	1	2	19	n/a	39	n/a	1	n/a	n/a	n/a	n/a	88.989	n/a
60.158	0.497	neutral	Picture	51.51	n/a	1	2	20	n/a	40	23	1	n/a	n/a	n/a	n/a	89.52	AM04NES.jpg
60.656	0.514	Blank	Blank	50.996	n/a	1	2	20	n/a	40	n/a	1	n/a	n/a	n/a	n/a	90.017	n/a
61.186	10.014	ITI	Fixation+	40.966	n/a	1	n/a	n/a	n/a	n/a	n/a	n/a	n/a	n/a	n/a	n/a	90.547	n/a
71.216	0.497	angry	Picture	40.452	n/a	1	3	1	n/a	41	62	2	n/a	n/a	n/a	n/a	100.578	BM03HAS.jpg
71.714	0.514	Blank	Blank	39.938	n/a	1	3	1	n/a	41	n/a	2	n/a	n/a	n/a	n/a	101.075	n/a
72.244	0.497	angry	Picture	39.424	n/a	1	3	2	n/a	42	52	2	n/a	n/a	n/a	n/a	101.606	AF21HAS.jpg
72.742	0.514	Blank	Blank	38.91	n/a	1	3	2	n/a	42	n/a	2	n/a	n/a	n/a	n/a	102.103	n/a
73.272	0.497	angry	Picture	38.396	n/a	1	3	3	n/a	43	44	2	n/a	n/a	n/a	n/a	102.633	AF05HAS.jpg
73.77	0.514	Blank	Blank	37.882	n/a	1	3	3	n/a	43	n/a	2	n/a	n/a	n/a	n/a	103.131	n/a
74.3	0.497	angry	Picture	37.368	n/a	1	3	4	n/a	44	53	2	n/a	n/a	n/a	n/a	103.661	BF22HAS.jpg
74.797	0.514	Blank	Blank	36.854	n/a	1	3	4	n/a	44	n/a	2	n/a	n/a	n/a	n/a	104.159	n/a
75.328	0.497	angry	Picture	36.34	n/a	1	3	5	n/a	45	54	2	n/a	n/a	n/a	n/a	104.689	AF23HAS.jpg
75.825	0.514	Blank	Blank	35.826	n/a	1	3	5	n/a	45	n/a	2	n/a	n/a	n/a	n/a	105.186	n/a
76.356	0.497	angry	Picture	35.313	n/a	1	3	6	n/a	46	68	2	n/a	n/a	n/a	n/a	105.717	AM09HAS.jpg
76.853	0.513	Blank	Blank	34.799	n/a	1	3	6	n/a	46	n/a	2	n/a	n/a	n/a	n/a	106.214	n/a
77.384	0.497	angry	Picture	34.285	n/a	1	3	7	n/a	47	64	2	n/a	n/a	n/a	n/a	106.745	BM05HAS.jpg
77.881	0.514	Blank	Blank	33.771	n/a	1	3	7	n/a	47	n/a	2	n/a	n/a	n/a	n/a	107.242	n/a
78.412	0.497	angry	Picture	33.257	n/a	1	3	8	n/a	48	59	2	n/a	n/a	n/a	n/a	107.773	AF31HAS.jpg
78.909	0.514	Blank	Blank	32.743	n/a	1	3	8	n/a	48	n/a	2	n/a	n/a	n/a	n/a	108.27	n/a
79.439	0.497	angry	Picture	32.229	n/a	1	3	9	n/a	49	41	2	n/a	n/a	n/a	n/a	108.801	AF01HAS.jpg
79.937	0.514	Blank	Blank	31.715	n/a	1	3	9	n/a	49	n/a	2	n/a	n/a	n/a	n/a	109.298	n/a
80.467	0.497	angry	Picture	31.201	n/a	1	3	10	n/a	50	73	2	n/a	n/a	n/a	n/a	109.829	AM21HAS.jpg
80.965	0.514	Blank	Blank	30.687	n/a	1	3	10	n/a	50	n/a	2	n/a	n/a	n/a	n/a	110.326	n/a
81.495	0.497	angry	Picture	30.173	n/a	1	3	11	n/a	51	65	2	n/a	n/a	n/a	n/a	110.856	BM06HAS.jpg
81.993	0.514	Blank	Blank	29.659	n/a	1	3	11	n/a	51	n/a	2	n/a	n/a	n/a	n/a	111.354	n/a
82.523	0.497	angry	Picture	29.145	n/a	1	3	12	n/a	52	56	2	n/a	n/a	n/a	n/a	111.884	AF26HAS.jpg
83.02	0.514	Blank	Blank	28.631	n/a	1	3	12	n/a	52	n/a	2	n/a	n/a	n/a	n/a	112.382	n/a
83.551	0.497	angry	Picture	28.117	n/a	1	3	13	n/a	53	45	2	n/a	n/a	n/a	n/a	112.912	BF07HAS.jpg
84.048	0.514	Blank	Blank	27.603	n/a	1	3	13	n/a	53	n/a	2	n/a	n/a	n/a	n/a	113.409	n/a
84.579	0.497	angry	Picture	27.089	n/a	1	3	14	n/a	54	78	2	n/a	n/a	n/a	n/a	113.94	BM26HAS.jpg
85.076	0.514	Blank	Blank	26.576	n/a	1	3	14	n/a	54	n/a	2	n/a	n/a	n/a	n/a	114.437	n/a
85.607	0.497	angry	Picture	26.062	n/a	1	3	15	n/a	55	50	2	n/a	n/a	n/a	n/a	114.968	AF18HAS.jpg
86.104	0.514	Blank	Blank	25.548	n/a	1	3	15	n/a	55	n/a	2	n/a	n/a	n/a	n/a	115.465	n/a
86.635	0.497	angry	Picture	25.034	n/a	1	3	16	n/a	56	47	2	n/a	n/a	n/a	n/a	115.996	BF11HAS.jpg
87.132	0.514	Blank	Blank	24.52	n/a	1	3	16	n/a	56	n/a	2	n/a	n/a	n/a	n/a	116.493	n/a
87.663	0.497	angry	Picture	24.006	n/a	1	3	17	n/a	57	77	2	n/a	n/a	n/a	n/a	117.024	BM25HAS.jpg
88.16	0.514	Blank	Blank	23.492	n/a	1	3	17	n/a	57	n/a	2	n/a	n/a	n/a	n/a	117.521	n/a
88.69	0.497	angry	Picture	22.978	n/a	1	3	18	n/a	58	57	2	n/a	n/a	n/a	n/a	118.052	BF28HAS.jpg
89.188	0.514	Blank	Blank	22.464	n/a	1	3	18	n/a	58	n/a	2	n/a	n/a	n/a	n/a	118.549	n/a
89.718	0.497	angry	Picture	21.95	n/a	1	3	19	n/a	59	61	2	n/a	n/a	n/a	n/a	119.079	AM01HAS.jpg
90.216	0.514	Blank	Blank	21.436	n/a	1	3	19	n/a	59	n/a	2	n/a	n/a	n/a	n/a	119.577	n/a
90.746	0.497	angry	Picture	20.922	n/a	1	3	20	n/a	60	79	2	n/a	n/a	n/a	n/a	120.107	BM28HAS.jpg
91.243	0.514	Blank	Blank	20.408	n/a	1	3	20	n/a	60	n/a	2	n/a	n/a	n/a	n/a	120.605	n/a
91.774	10.014	ITI	Fixation+	10.378	n/a	1	n/a	n/a	n/a	n/a	n/a	n/a	n/a	n/a	n/a	n/a	121.135	n/a
112.166	n/a	ConfirmRating	Rate	n/a	10.362	1	n/a	n/a	0	n/a	n/a	n/a	2	Angry	76	52	141.527	n/a
116.337	n/a	ConfirmRating	Rate	n/a	4.161	1	n/a	n/a	1	n/a	n/a	n/a	3	Angry	23	48	145.698	n/a
116.36	10.014	ITI	Fixation+	96.662	n/a	2	n/a	n/a	n/a	n/a	n/a	n/a	n/a	n/a	n/a	n/a	145.721	n/a
126.39	0.497	happy	Picture	96.148	n/a	2	4	1	n/a	61	119	3	n/a	n/a	n/a	n/a	155.751	BM28ANS.jpg
126.888	0.514	Blank	Blank	95.634	n/a	2	4	1	n/a	61	n/a	3	n/a	n/a	n/a	n/a	156.249	n/a
127.418	0.497	happy	Picture	95.12	n/a	2	4	2	n/a	62	100	3	n/a	n/a	n/a	n/a	156.779	AF32ANS.jpg
127.916	0.514	Blank	Blank	94.606	n/a	2	4	2	n/a	62	n/a	3	n/a	n/a	n/a	n/a	157.277	n/a
128.446	0.497	happy	Picture	94.092	n/a	2	4	3	n/a	63	118	3	n/a	n/a	n/a	n/a	157.807	BM26ANS.jpg
128.943	0.514	Blank	Blank	93.578	n/a	2	4	3	n/a	63	n/a	3	n/a	n/a	n/a	n/a	158.305	n/a
129.474	0.497	happy	Picture	93.064	n/a	2	4	4	n/a	64	89	3	n/a	n/a	n/a	n/a	158.835	AF17ANS.jpg
129.971	0.514	Blank	Blank	92.55	n/a	2	4	4	n/a	64	n/a	3	n/a	n/a	n/a	n/a	159.333	n/a
130.502	0.497	happy	Picture	92.036	n/a	2	4	5	n/a	65	116	3	n/a	n/a	n/a	n/a	159.863	BM24ANS.jpg
130.999	0.514	Blank	Blank	91.522	n/a	2	4	5	n/a	65	n/a	3	n/a	n/a	n/a	n/a	160.36	n/a
131.53	0.497	happy	Picture	91.009	n/a	2	4	6	n/a	66	105	3	n/a	n/a	n/a	n/a	160.891	BM06ANS.jpg
132.027	0.514	Blank	Blank	90.494	n/a	2	4	6	n/a	66	n/a	3	n/a	n/a	n/a	n/a	161.388	n/a
132.558	0.497	happy	Picture	89.981	n/a	2	4	7	n/a	67	106	3	n/a	n/a	n/a	n/a	161.919	AM07ANS.jpg
133.055	0.514	Blank	Blank	89.467	n/a	2	4	7	n/a	67	n/a	3	n/a	n/a	n/a	n/a	162.416	n/a
133.585	0.497	happy	Picture	88.953	n/a	2	4	8	n/a	68	94	3	n/a	n/a	n/a	n/a	162.947	AF23ANS.jpg
134.083	0.514	Blank	Blank	88.439	n/a	2	4	8	n/a	68	n/a	3	n/a	n/a	n/a	n/a	163.444	n/a
134.613	0.497	happy	Picture	87.925	n/a	2	4	9	n/a	69	117	3	n/a	n/a	n/a	n/a	163.975	BM25ANS.jpg
135.111	0.514	Blank	Blank	87.411	n/a	2	4	9	n/a	69	n/a	3	n/a	n/a	n/a	n/a	164.472	n/a
135.641	0.497	happy	Picture	86.897	n/a	2	4	10	n/a	70	90	3	n/a	n/a	n/a	n/a	165.002	AF18ANS.jpg
136.139	0.514	Blank	Blank	86.383	n/a	2	4	10	n/a	70	n/a	3	n/a	n/a	n/a	n/a	165.5	n/a
136.669	0.497	happy	Picture	85.869	n/a	2	4	11	n/a	71	83	3	n/a	n/a	n/a	n/a	166.03	BF04ANS.jpg
137.166	0.514	Blank	Blank	85.355	n/a	2	4	11	n/a	71	n/a	3	n/a	n/a	n/a	n/a	166.528	n/a
137.697	0.497	happy	Picture	84.841	n/a	2	4	12	n/a	72	112	3	n/a	n/a	n/a	n/a	167.058	AM14ANS.jpg
138.194	0.514	Blank	Blank	84.327	n/a	2	4	12	n/a	72	n/a	3	n/a	n/a	n/a	n/a	167.555	n/a
138.725	0.497	happy	Picture	83.813	n/a	2	4	13	n/a	73	102	3	n/a	n/a	n/a	n/a	168.086	BM03ANS.jpg
139.222	0.514	Blank	Blank	83.299	n/a	2	4	13	n/a	73	n/a	3	n/a	n/a	n/a	n/a	168.583	n/a
139.753	0.497	happy	Picture	82.785	n/a	2	4	14	n/a	74	95	3	n/a	n/a	n/a	n/a	169.114	AF25ANS.jpg
140.25	0.514	Blank	Blank	82.272	n/a	2	4	14	n/a	74	n/a	3	n/a	n/a	n/a	n/a	169.611	n/a
140.781	0.497	happy	Picture	81.758	n/a	2	4	15	n/a	75	113	3	n/a	n/a	n/a	n/a	170.142	AM21ANS.jpg
141.278	0.514	Blank	Blank	81.244	n/a	2	4	15	n/a	75	n/a	3	n/a	n/a	n/a	n/a	170.639	n/a
141.809	0.497	happy	Picture	80.73	n/a	2	4	16	n/a	76	88	3	n/a	n/a	n/a	n/a	171.17	AF14ANS.jpg
142.306	0.514	Blank	Blank	80.216	n/a	2	4	16	n/a	76	n/a	3	n/a	n/a	n/a	n/a	171.667	n/a
142.836	0.497	happy	Picture	79.702	n/a	2	4	17	n/a	77	93	3	n/a	n/a	n/a	n/a	172.198	BF22ANS.jpg
143.334	0.514	Blank	Blank	79.188	n/a	2	4	17	n/a	77	n/a	3	n/a	n/a	n/a	n/a	172.695	n/a
143.864	0.497	happy	Picture	78.674	n/a	2	4	18	n/a	78	86	3	n/a	n/a	n/a	n/a	173.225	AF09ANS.jpg
144.362	0.514	Blank	Blank	78.16	n/a	2	4	18	n/a	78	n/a	3	n/a	n/a	n/a	n/a	173.723	n/a
144.892	0.497	happy	Picture	77.646	n/a	2	4	19	n/a	79	92	3	n/a	n/a	n/a	n/a	174.253	AF21ANS.jpg
145.389	0.514	Blank	Blank	77.132	n/a	2	4	19	n/a	79	n/a	3	n/a	n/a	n/a	n/a	174.751	n/a
145.92	0.497	happy	Picture	76.618	n/a	2	4	20	n/a	80	84	3	n/a	n/a	n/a	n/a	175.281	AF05ANS.jpg
146.417	0.514	Blank	Blank	76.104	n/a	2	4	20	n/a	80	n/a	3	n/a	n/a	n/a	n/a	175.779	n/a
146.948	10.014	ITI	Fixation+	66.074	n/a	2	n/a	n/a	n/a	n/a	n/a	n/a	n/a	n/a	n/a	n/a	176.309	n/a
156.978	0.497	neutral	Picture	65.56	n/a	2	5	1	n/a	81	4	1	n/a	n/a	n/a	n/a	186.339	AF05NES.jpg
157.475	0.514	Blank	Blank	65.046	n/a	2	5	1	n/a	81	n/a	1	n/a	n/a	n/a	n/a	186.837	n/a
158.006	0.497	neutral	Picture	64.532	n/a	2	5	2	n/a	82	14	1	n/a	n/a	n/a	n/a	187.367	AF23NES.jpg
158.503	0.514	Blank	Blank	64.018	n/a	2	5	2	n/a	82	n/a	1	n/a	n/a	n/a	n/a	187.864	n/a
159.034	0.497	neutral	Picture	63.504	n/a	2	5	3	n/a	83	19	1	n/a	n/a	n/a	n/a	188.395	AF31NES.jpg
159.531	0.514	Blank	Blank	62.99	n/a	2	5	3	n/a	83	n/a	1	n/a	n/a	n/a	n/a	188.892	n/a
160.062	0.497	neutral	Picture	62.477	n/a	2	5	4	n/a	84	8	1	n/a	n/a	n/a	n/a	189.423	AF14NES.jpg
160.559	0.514	Blank	Blank	61.963	n/a	2	5	4	n/a	84	n/a	1	n/a	n/a	n/a	n/a	189.92	n/a
161.09	0.497	neutral	Picture	61.449	n/a	2	5	5	n/a	85	25	1	n/a	n/a	n/a	n/a	190.451	BM06NES.jpg
161.587	0.514	Blank	Blank	60.935	n/a	2	5	5	n/a	85	n/a	1	n/a	n/a	n/a	n/a	190.948	n/a
162.117	0.497	neutral	Picture	60.421	n/a	2	5	6	n/a	86	9	1	n/a	n/a	n/a	n/a	191.479	AF17NES.jpg
162.615	0.514	Blank	Blank	59.907	n/a	2	5	6	n/a	86	n/a	1	n/a	n/a	n/a	n/a	191.976	n/a
163.145	0.497	neutral	Picture	59.393	n/a	2	5	7	n/a	87	2	1	n/a	n/a	n/a	n/a	192.506	AF03NES.jpg
163.643	0.514	Blank	Blank	58.879	n/a	2	5	7	n/a	87	n/a	1	n/a	n/a	n/a	n/a	193.004	n/a
164.173	0.497	neutral	Picture	58.365	n/a	2	5	8	n/a	88	17	1	n/a	n/a	n/a	n/a	193.534	BF28NES.jpg
164.671	0.514	Blank	Blank	57.851	n/a	2	5	8	n/a	88	n/a	1	n/a	n/a	n/a	n/a	194.032	n/a
165.201	0.497	neutral	Picture	57.337	n/a	2	5	9	n/a	89	6	1	n/a	n/a	n/a	n/a	194.562	AF09NES.jpg
165.698	0.514	Blank	Blank	56.823	n/a	2	5	9	n/a	89	n/a	1	n/a	n/a	n/a	n/a	195.06	n/a
166.229	0.497	neutral	Picture	56.309	n/a	2	5	10	n/a	90	12	1	n/a	n/a	n/a	n/a	195.59	AF21NES.jpg
166.726	0.514	Blank	Blank	55.795	n/a	2	5	10	n/a	90	n/a	1	n/a	n/a	n/a	n/a	196.088	n/a
167.257	0.497	neutral	Picture	55.281	n/a	2	5	11	n/a	91	24	1	n/a	n/a	n/a	n/a	196.618	BM05NES.jpg
167.754	0.514	Blank	Blank	54.767	n/a	2	5	11	n/a	91	n/a	1	n/a	n/a	n/a	n/a	197.115	n/a
168.285	0.497	neutral	Picture	54.254	n/a	2	5	12	n/a	92	34	1	n/a	n/a	n/a	n/a	197.646	AM22NES.jpg
168.782	0.514	Blank	Blank	53.739	n/a	2	5	12	n/a	92	n/a	1	n/a	n/a	n/a	n/a	198.143	n/a
169.313	0.497	neutral	Picture	53.226	n/a	2	5	13	n/a	93	23	1	n/a	n/a	n/a	n/a	198.674	AM04NES.jpg
169.81	0.514	Blank	Blank	52.712	n/a	2	5	13	n/a	93	n/a	1	n/a	n/a	n/a	n/a	199.171	n/a
170.34	0.497	neutral	Picture	52.198	n/a	2	5	14	n/a	94	15	1	n/a	n/a	n/a	n/a	199.702	AF25NES.jpg
170.838	0.514	Blank	Blank	51.684	n/a	2	5	14	n/a	94	n/a	1	n/a	n/a	n/a	n/a	200.199	n/a
171.368	0.497	neutral	Picture	51.17	n/a	2	5	15	n/a	95	37	1	n/a	n/a	n/a	n/a	200.73	BM25NES.jpg
171.866	0.514	Blank	Blank	50.656	n/a	2	5	15	n/a	95	n/a	1	n/a	n/a	n/a	n/a	201.227	n/a
172.396	0.497	neutral	Picture	50.142	n/a	2	5	16	n/a	96	32	1	n/a	n/a	n/a	n/a	201.757	AM14NES.jpg
172.894	0.514	Blank	Blank	49.628	n/a	2	5	16	n/a	96	n/a	1	n/a	n/a	n/a	n/a	202.255	n/a
173.424	0.497	neutral	Picture	49.114	n/a	2	5	17	n/a	97	3	1	n/a	n/a	n/a	n/a	202.785	BF04NES.jpg
173.921	0.514	Blank	Blank	48.6	n/a	2	5	17	n/a	97	n/a	1	n/a	n/a	n/a	n/a	203.283	n/a
174.452	0.497	neutral	Picture	48.086	n/a	2	5	18	n/a	98	16	1	n/a	n/a	n/a	n/a	203.813	AF26NES.jpg
174.949	0.514	Blank	Blank	47.572	n/a	2	5	18	n/a	98	n/a	1	n/a	n/a	n/a	n/a	204.31	n/a
175.48	0.497	neutral	Picture	47.058	n/a	2	5	19	n/a	99	27	1	n/a	n/a	n/a	n/a	204.841	BM08NES.jpg
175.977	0.514	Blank	Blank	46.544	n/a	2	5	19	n/a	99	n/a	1	n/a	n/a	n/a	n/a	205.338	n/a
176.508	0.497	neutral	Picture	46.031	n/a	2	5	20	n/a	100	28	1	n/a	n/a	n/a	n/a	205.869	AM09NES.jpg
177.005	0.514	Blank	Blank	45.517	n/a	2	5	20	n/a	100	n/a	1	n/a	n/a	n/a	n/a	206.366	n/a
177.536	10.014	ITI	Fixation+	35.486	n/a	2	n/a	n/a	n/a	n/a	n/a	n/a	n/a	n/a	n/a	n/a	206.897	n/a
187.566	0.497	happy	Picture	34.973	n/a	2	6	1	n/a	101	81	3	n/a	n/a	n/a	n/a	216.927	AF01ANS.jpg
188.063	0.514	Blank	Blank	34.458	n/a	2	6	1	n/a	101	n/a	3	n/a	n/a	n/a	n/a	217.424	n/a
188.594	0.497	happy	Picture	33.945	n/a	2	6	2	n/a	102	120	3	n/a	n/a	n/a	n/a	217.955	AM35ANS.jpg
189.091	0.514	Blank	Blank	33.431	n/a	2	6	2	n/a	102	n/a	3	n/a	n/a	n/a	n/a	218.452	n/a
189.621	0.497	happy	Picture	32.917	n/a	2	6	3	n/a	103	114	3	n/a	n/a	n/a	n/a	218.983	AM22ANS.jpg
190.119	0.514	Blank	Blank	32.403	n/a	2	6	3	n/a	103	n/a	3	n/a	n/a	n/a	n/a	219.48	n/a
190.649	0.497	happy	Picture	31.889	n/a	2	6	4	n/a	104	109	3	n/a	n/a	n/a	n/a	220.011	AM10ANS.jpg
191.147	0.514	Blank	Blank	31.375	n/a	2	6	4	n/a	104	n/a	3	n/a	n/a	n/a	n/a	220.508	n/a
191.677	0.497	happy	Picture	30.861	n/a	2	6	5	n/a	105	96	3	n/a	n/a	n/a	n/a	221.038	AF26ANS.jpg
192.175	0.514	Blank	Blank	30.347	n/a	2	6	5	n/a	105	n/a	3	n/a	n/a	n/a	n/a	221.536	n/a
192.705	0.497	happy	Picture	29.833	n/a	2	6	6	n/a	106	82	3	n/a	n/a	n/a	n/a	222.066	AF03ANS.jpg
193.202	0.514	Blank	Blank	29.319	n/a	2	6	6	n/a	106	n/a	3	n/a	n/a	n/a	n/a	222.564	n/a
193.733	0.497	happy	Picture	28.805	n/a	2	6	7	n/a	107	97	3	n/a	n/a	n/a	n/a	223.094	BF28ANS.jpg
194.23	0.514	Blank	Blank	28.291	n/a	2	6	7	n/a	107	n/a	3	n/a	n/a	n/a	n/a	223.591	n/a
194.761	0.497	happy	Picture	27.777	n/a	2	6	8	n/a	108	115	3	n/a	n/a	n/a	n/a	224.122	AM23ANS.jpg
195.258	0.514	Blank	Blank	27.263	n/a	2	6	8	n/a	108	n/a	3	n/a	n/a	n/a	n/a	224.619	n/a
195.789	0.497	happy	Picture	26.749	n/a	2	6	9	n/a	109	91	3	n/a	n/a	n/a	n/a	225.15	AF20ANS.jpg
196.286	0.514	Blank	Blank	26.236	n/a	2	6	9	n/a	109	n/a	3	n/a	n/a	n/a	n/a	225.647	n/a
196.817	0.497	happy	Picture	25.722	n/a	2	6	10	n/a	110	87	3	n/a	n/a	n/a	n/a	226.178	BF11ANS.jpg
197.314	0.514	Blank	Blank	25.208	n/a	2	6	10	n/a	110	n/a	3	n/a	n/a	n/a	n/a	226.675	n/a
197.845	0.497	happy	Picture	24.694	n/a	2	6	11	n/a	111	85	3	n/a	n/a	n/a	n/a	227.206	BF07ANS.jpg
198.342	0.514	Blank	Blank	24.18	n/a	2	6	11	n/a	111	n/a	3	n/a	n/a	n/a	n/a	227.703	n/a
198.872	0.497	happy	Picture	23.666	n/a	2	6	12	n/a	112	110	3	n/a	n/a	n/a	n/a	228.233	AM11ANS.jpg
199.37	0.514	Blank	Blank	23.152	n/a	2	6	12	n/a	112	n/a	3	n/a	n/a	n/a	n/a	228.731	n/a
199.9	0.497	happy	Picture	22.638	n/a	2	6	13	n/a	113	111	3	n/a	n/a	n/a	n/a	229.261	BM12ANS.jpg
200.398	0.514	Blank	Blank	22.124	n/a	2	6	13	n/a	113	n/a	3	n/a	n/a	n/a	n/a	229.759	n/a
200.928	0.497	happy	Picture	21.61	n/a	2	6	14	n/a	114	103	3	n/a	n/a	n/a	n/a	230.289	AM04ANS.jpg
201.425	0.514	Blank	Blank	21.096	n/a	2	6	14	n/a	114	n/a	3	n/a	n/a	n/a	n/a	230.787	n/a
201.956	0.497	happy	Picture	20.582	n/a	2	6	15	n/a	115	101	3	n/a	n/a	n/a	n/a	231.317	AM01ANS.jpg
202.453	0.514	Blank	Blank	20.068	n/a	2	6	15	n/a	115	n/a	3	n/a	n/a	n/a	n/a	231.815	n/a
202.984	0.497	happy	Picture	19.554	n/a	2	6	16	n/a	116	104	3	n/a	n/a	n/a	n/a	232.345	BM05ANS.jpg
203.481	0.514	Blank	Blank	19.04	n/a	2	6	16	n/a	116	n/a	3	n/a	n/a	n/a	n/a	232.842	n/a
204.012	0.497	happy	Picture	18.526	n/a	2	6	17	n/a	117	107	3	n/a	n/a	n/a	n/a	233.373	BM08ANS.jpg
204.509	0.514	Blank	Blank	18.013	n/a	2	6	17	n/a	117	n/a	3	n/a	n/a	n/a	n/a	233.87	n/a
205.04	0.497	happy	Picture	17.499	n/a	2	6	18	n/a	118	98	3	n/a	n/a	n/a	n/a	234.401	BF29ANS.jpg
205.537	0.514	Blank	Blank	16.985	n/a	2	6	18	n/a	118	n/a	3	n/a	n/a	n/a	n/a	234.898	n/a
206.067	0.497	happy	Picture	16.471	n/a	2	6	19	n/a	119	99	3	n/a	n/a	n/a	n/a	235.429	AF31ANS.jpg
206.565	0.514	Blank	Blank	15.957	n/a	2	6	19	n/a	119	n/a	3	n/a	n/a	n/a	n/a	235.926	n/a
207.095	0.497	happy	Picture	15.443	n/a	2	6	20	n/a	120	108	3	n/a	n/a	n/a	n/a	236.457	AM09ANS.jpg
207.593	0.514	Blank	Blank	14.929	n/a	2	6	20	n/a	120	n/a	3	n/a	n/a	n/a	n/a	236.954	n/a
208.123	10.014	ITI	Fixation+	4.899	n/a	2	n/a	n/a	n/a	n/a	n/a	n/a	n/a	n/a	n/a	n/a	237.484	n/a
223.036	n/a	ConfirmRating	Rate	n/a	4.891	2	n/a	n/a	0	n/a	n/a	n/a	2	Happy	70	52	252.397	n/a
227.12	n/a	ConfirmRating	Rate	n/a	4.062	2	n/a	n/a	1	n/a	n/a	n/a	3	Happy	14	48	256.482	n/a
227.139	15.004	Rest	Picture	n/a	n/a	n/a	n/a	n/a	n/a	n/a	n/a	n/a	0	n/a	0	0	256.5	n/a
242.159	10.014	ITI	Fixation+	95.827	n/a	3	n/a	n/a	n/a	n/a	n/a	n/a	n/a	n/a	n/a	n/a	271.521	n/a
252.189	0.497	angry	Picture	95.313	n/a	3	7	1	n/a	1	46	2	n/a	n/a	n/a	n/a	281.551	AF09HAS.jpg
252.687	0.514	Blank	Blank	94.799	n/a	3	7	1	n/a	1	n/a	2	n/a	n/a	n/a	n/a	282.048	n/a
253.217	0.497	angry	Picture	94.285	n/a	3	7	2	n/a	2	69	2	n/a	n/a	n/a	n/a	282.579	AM10HAS.jpg
253.715	0.514	Blank	Blank	93.772	n/a	3	7	2	n/a	2	n/a	2	n/a	n/a	n/a	n/a	283.076	n/a
254.245	0.497	angry	Picture	93.258	n/a	3	7	3	n/a	3	71	2	n/a	n/a	n/a	n/a	283.606	BM12HAS.jpg
254.743	0.514	Blank	Blank	92.744	n/a	3	7	3	n/a	3	n/a	2	n/a	n/a	n/a	n/a	284.104	n/a
255.273	0.497	angry	Picture	92.23	n/a	3	7	4	n/a	4	51	2	n/a	n/a	n/a	n/a	284.634	AF20HAS.jpg
255.77	0.514	Blank	Blank	91.716	n/a	3	7	4	n/a	4	n/a	2	n/a	n/a	n/a	n/a	285.132	n/a
256.301	0.497	angry	Picture	91.202	n/a	3	7	5	n/a	5	67	2	n/a	n/a	n/a	n/a	285.662	BM08HAS.jpg
256.798	0.514	Blank	Blank	90.688	n/a	3	7	5	n/a	5	n/a	2	n/a	n/a	n/a	n/a	286.159	n/a
257.329	0.497	angry	Picture	90.174	n/a	3	7	6	n/a	6	60	2	n/a	n/a	n/a	n/a	286.69	AF32HAS.jpg
257.826	0.514	Blank	Blank	89.66	n/a	3	7	6	n/a	6	n/a	2	n/a	n/a	n/a	n/a	287.187	n/a
258.357	0.497	angry	Picture	89.146	n/a	3	7	7	n/a	7	42	2	n/a	n/a	n/a	n/a	287.718	AF03HAS.jpg
258.854	0.514	Blank	Blank	88.632	n/a	3	7	7	n/a	7	n/a	2	n/a	n/a	n/a	n/a	288.215	n/a
259.385	0.497	angry	Picture	88.118	n/a	3	7	8	n/a	8	55	2	n/a	n/a	n/a	n/a	288.746	AF25HAS.jpg
259.882	0.514	Blank	Blank	87.604	n/a	3	7	8	n/a	8	n/a	2	n/a	n/a	n/a	n/a	289.243	n/a
260.413	0.497	angry	Picture	87.09	n/a	3	7	9	n/a	9	72	2	n/a	n/a	n/a	n/a	289.774	AM14HAS.jpg
260.91	0.514	Blank	Blank	86.576	n/a	3	7	9	n/a	9	n/a	2	n/a	n/a	n/a	n/a	290.271	n/a
261.44	0.497	angry	Picture	86.063	n/a	3	7	10	n/a	10	63	2	n/a	n/a	n/a	n/a	290.801	AM04HAS.jpg
261.938	0.514	Blank	Blank	85.549	n/a	3	7	10	n/a	10	n/a	2	n/a	n/a	n/a	n/a	291.299	n/a
262.468	0.497	angry	Picture	85.035	n/a	3	7	11	n/a	11	58	2	n/a	n/a	n/a	n/a	291.829	BF29HAS.jpg
262.966	0.514	Blank	Blank	84.521	n/a	3	7	11	n/a	11	n/a	2	n/a	n/a	n/a	n/a	292.327	n/a
263.496	0.497	angry	Picture	84.007	n/a	3	7	12	n/a	12	48	2	n/a	n/a	n/a	n/a	292.857	AF14HAS.jpg
263.993	0.514	Blank	Blank	83.493	n/a	3	7	12	n/a	12	n/a	2	n/a	n/a	n/a	n/a	293.355	n/a
264.524	0.497	angry	Picture	82.979	n/a	3	7	13	n/a	13	66	2	n/a	n/a	n/a	n/a	293.885	BM07HAS.jpg
265.021	0.514	Blank	Blank	82.465	n/a	3	7	13	n/a	13	n/a	2	n/a	n/a	n/a	n/a	294.382	n/a
265.552	0.497	angry	Picture	81.951	n/a	3	7	14	n/a	14	70	2	n/a	n/a	n/a	n/a	294.913	BM11HAS.jpg
266.049	0.514	Blank	Blank	81.437	n/a	3	7	14	n/a	14	n/a	2	n/a	n/a	n/a	n/a	295.41	n/a
266.58	0.497	angry	Picture	80.923	n/a	3	7	15	n/a	15	43	2	n/a	n/a	n/a	n/a	295.941	BF04HAS.jpg
267.077	0.514	Blank	Blank	80.409	n/a	3	7	15	n/a	15	n/a	2	n/a	n/a	n/a	n/a	296.438	n/a
267.608	0.497	angry	Picture	79.895	n/a	3	7	16	n/a	16	49	2	n/a	n/a	n/a	n/a	296.969	AF17HAS.jpg
268.105	0.514	Blank	Blank	79.381	n/a	3	7	16	n/a	16	n/a	2	n/a	n/a	n/a	n/a	297.466	n/a
268.635	0.497	angry	Picture	78.867	n/a	3	7	17	n/a	17	75	2	n/a	n/a	n/a	n/a	297.997	AM23HAS.jpg
269.133	0.514	Blank	Blank	78.353	n/a	3	7	17	n/a	17	n/a	2	n/a	n/a	n/a	n/a	298.494	n/a
269.663	0.497	angry	Picture	77.839	n/a	3	7	18	n/a	18	80	2	n/a	n/a	n/a	n/a	299.025	BM35HAS.jpg
270.161	0.514	Blank	Blank	77.325	n/a	3	7	18	n/a	18	n/a	2	n/a	n/a	n/a	n/a	299.522	n/a
270.691	0.497	angry	Picture	76.812	n/a	3	7	19	n/a	19	76	2	n/a	n/a	n/a	n/a	300.052	BM24HAS.jpg
271.189	0.514	Blank	Blank	76.298	n/a	3	7	19	n/a	19	n/a	2	n/a	n/a	n/a	n/a	300.55	n/a
271.719	0.497	angry	Picture	75.784	n/a	3	7	20	n/a	20	74	2	n/a	n/a	n/a	n/a	301.08	AM22HAS.jpg
272.216	0.514	Blank	Blank	75.27	n/a	3	7	20	n/a	20	n/a	2	n/a	n/a	n/a	n/a	301.578	n/a
272.747	10.014	ITI	Fixation+	65.24	n/a	3	n/a	n/a	n/a	n/a	n/a	n/a	n/a	n/a	n/a	n/a	302.108	n/a
282.777	0.497	neutral	Picture	64.726	n/a	3	8	1	n/a	21	33	1	n/a	n/a	n/a	n/a	312.138	AM21NES.jpg
283.274	0.514	Blank	Blank	64.212	n/a	3	8	1	n/a	21	n/a	1	n/a	n/a	n/a	n/a	312.636	n/a
283.805	0.497	neutral	Picture	63.698	n/a	3	8	2	n/a	22	39	1	n/a	n/a	n/a	n/a	313.166	AM28NES.jpg
284.302	0.514	Blank	Blank	63.184	n/a	3	8	2	n/a	22	n/a	1	n/a	n/a	n/a	n/a	313.664	n/a
284.833	0.497	neutral	Picture	62.67	n/a	3	8	3	n/a	23	25	1	n/a	n/a	n/a	n/a	314.194	BM06NES.jpg
285.33	0.514	Blank	Blank	62.156	n/a	3	8	3	n/a	23	n/a	1	n/a	n/a	n/a	n/a	314.691	n/a
285.861	0.497	neutral	Picture	61.642	n/a	3	8	4	n/a	24	5	1	n/a	n/a	n/a	n/a	315.222	BF07NES.jpg
286.358	0.514	Blank	Blank	61.128	n/a	3	8	4	n/a	24	n/a	1	n/a	n/a	n/a	n/a	315.719	n/a
286.889	0.497	neutral	Picture	60.614	n/a	3	8	5	n/a	25	10	1	n/a	n/a	n/a	n/a	316.25	AF18NES.jpg
287.386	0.514	Blank	Blank	60.1	n/a	3	8	5	n/a	25	n/a	1	n/a	n/a	n/a	n/a	316.747	n/a
287.916	0.497	neutral	Picture	59.586	n/a	3	8	6	n/a	26	34	1	n/a	n/a	n/a	n/a	317.278	AM22NES.jpg
288.414	0.514	Blank	Blank	59.072	n/a	3	8	6	n/a	26	n/a	1	n/a	n/a	n/a	n/a	317.775	n/a
288.944	0.497	neutral	Picture	58.558	n/a	3	8	7	n/a	27	36	1	n/a	n/a	n/a	n/a	318.306	BM24NES.jpg
289.442	0.514	Blank	Blank	58.045	n/a	3	8	7	n/a	27	n/a	1	n/a	n/a	n/a	n/a	318.803	n/a
289.972	0.497	neutral	Picture	57.531	n/a	3	8	8	n/a	28	14	1	n/a	n/a	n/a	n/a	319.334	AF23NES.jpg
290.47	0.514	Blank	Blank	57.017	n/a	3	8	8	n/a	28	n/a	1	n/a	n/a	n/a	n/a	319.831	n/a
291.0	0.497	neutral	Picture	56.503	n/a	3	8	9	n/a	29	9	1	n/a	n/a	n/a	n/a	320.361	AF17NES.jpg
291.498	0.514	Blank	Blank	55.989	n/a	3	8	9	n/a	29	n/a	1	n/a	n/a	n/a	n/a	320.859	n/a
292.028	0.497	neutral	Picture	55.475	n/a	3	8	10	n/a	30	19	1	n/a	n/a	n/a	n/a	321.389	AF31NES.jpg
292.525	0.514	Blank	Blank	54.961	n/a	3	8	10	n/a	30	n/a	1	n/a	n/a	n/a	n/a	321.887	n/a
293.056	0.497	neutral	Picture	54.447	n/a	3	8	11	n/a	31	15	1	n/a	n/a	n/a	n/a	322.417	AF25NES.jpg
293.553	0.514	Blank	Blank	53.933	n/a	3	8	11	n/a	31	n/a	1	n/a	n/a	n/a	n/a	322.914	n/a
294.084	0.497	neutral	Picture	53.419	n/a	3	8	12	n/a	32	22	1	n/a	n/a	n/a	n/a	323.445	BM03NES.jpg
294.581	0.514	Blank	Blank	52.905	n/a	3	8	12	n/a	32	n/a	1	n/a	n/a	n/a	n/a	323.942	n/a
295.112	0.497	neutral	Picture	52.391	n/a	3	8	13	n/a	33	11	1	n/a	n/a	n/a	n/a	324.473	AF20NES.jpg
295.609	0.514	Blank	Blank	51.877	n/a	3	8	13	n/a	33	n/a	1	n/a	n/a	n/a	n/a	324.97	n/a
296.139	0.497	neutral	Picture	51.363	n/a	3	8	14	n/a	34	4	1	n/a	n/a	n/a	n/a	325.501	AF05NES.jpg
296.637	0.514	Blank	Blank	50.849	n/a	3	8	14	n/a	34	n/a	1	n/a	n/a	n/a	n/a	325.998	n/a
297.167	0.497	neutral	Picture	50.335	n/a	3	8	15	n/a	35	17	1	n/a	n/a	n/a	n/a	326.529	BF28NES.jpg
297.665	0.514	Blank	Blank	49.822	n/a	3	8	15	n/a	35	n/a	1	n/a	n/a	n/a	n/a	327.026	n/a
298.195	0.497	neutral	Picture	49.307	n/a	3	8	16	n/a	36	13	1	n/a	n/a	n/a	n/a	327.557	BF22NES.jpg
298.693	0.514	Blank	Blank	48.794	n/a	3	8	16	n/a	36	n/a	1	n/a	n/a	n/a	n/a	328.054	n/a
299.223	0.497	neutral	Picture	48.28	n/a	3	8	17	n/a	37	12	1	n/a	n/a	n/a	n/a	328.584	AF21NES.jpg
299.721	0.514	Blank	Blank	47.766	n/a	3	8	17	n/a	37	n/a	1	n/a	n/a	n/a	n/a	329.082	n/a
300.251	0.497	neutral	Picture	47.252	n/a	3	8	18	n/a	38	24	1	n/a	n/a	n/a	n/a	329.612	BM05NES.jpg
300.748	0.514	Blank	Blank	46.738	n/a	3	8	18	n/a	38	n/a	1	n/a	n/a	n/a	n/a	330.11	n/a
301.279	0.497	neutral	Picture	46.224	n/a	3	8	19	n/a	39	29	1	n/a	n/a	n/a	n/a	330.64	AM10NES.jpg
301.776	0.514	Blank	Blank	45.71	n/a	3	8	19	n/a	39	n/a	1	n/a	n/a	n/a	n/a	331.137	n/a
302.307	0.497	neutral	Picture	45.196	n/a	3	8	20	n/a	40	23	1	n/a	n/a	n/a	n/a	331.668	AM04NES.jpg
302.804	0.514	Blank	Blank	44.682	n/a	3	8	20	n/a	40	n/a	1	n/a	n/a	n/a	n/a	332.165	n/a
303.335	10.014	ITI	Fixation+	34.652	n/a	3	n/a	n/a	n/a	n/a	n/a	n/a	n/a	n/a	n/a	n/a	332.696	n/a
313.365	0.497	angry	Picture	34.138	n/a	3	9	1	n/a	41	62	2	n/a	n/a	n/a	n/a	342.726	BM03HAS.jpg
313.862	0.514	Blank	Blank	33.624	n/a	3	9	1	n/a	41	n/a	2	n/a	n/a	n/a	n/a	343.223	n/a
314.393	0.497	angry	Picture	33.11	n/a	3	9	2	n/a	42	52	2	n/a	n/a	n/a	n/a	343.754	AF21HAS.jpg
314.89	0.514	Blank	Blank	32.596	n/a	3	9	2	n/a	42	n/a	2	n/a	n/a	n/a	n/a	344.251	n/a
315.421	0.497	angry	Picture	32.082	n/a	3	9	3	n/a	43	44	2	n/a	n/a	n/a	n/a	344.782	AF05HAS.jpg
315.918	0.514	Blank	Blank	31.568	n/a	3	9	3	n/a	43	n/a	2	n/a	n/a	n/a	n/a	345.279	n/a
316.448	0.497	angry	Picture	31.054	n/a	3	9	4	n/a	44	53	2	n/a	n/a	n/a	n/a	345.81	BF22HAS.jpg
316.946	0.514	Blank	Blank	30.541	n/a	3	9	4	n/a	44	n/a	2	n/a	n/a	n/a	n/a	346.307	n/a
317.476	0.497	angry	Picture	30.026	n/a	3	9	5	n/a	45	54	2	n/a	n/a	n/a	n/a	346.837	AF23HAS.jpg
317.974	0.514	Blank	Blank	29.513	n/a	3	9	5	n/a	45	n/a	2	n/a	n/a	n/a	n/a	347.335	n/a
318.504	0.497	angry	Picture	28.999	n/a	3	9	6	n/a	46	68	2	n/a	n/a	n/a	n/a	347.865	AM09HAS.jpg
319.002	0.514	Blank	Blank	28.485	n/a	3	9	6	n/a	46	n/a	2	n/a	n/a	n/a	n/a	348.363	n/a
319.532	0.497	angry	Picture	27.971	n/a	3	9	7	n/a	47	64	2	n/a	n/a	n/a	n/a	348.893	BM05HAS.jpg
320.029	0.514	Blank	Blank	27.457	n/a	3	9	7	n/a	47	n/a	2	n/a	n/a	n/a	n/a	349.391	n/a
320.56	0.497	angry	Picture	26.943	n/a	3	9	8	n/a	48	59	2	n/a	n/a	n/a	n/a	349.921	AF31HAS.jpg
321.057	0.514	Blank	Blank	26.429	n/a	3	9	8	n/a	48	n/a	2	n/a	n/a	n/a	n/a	350.418	n/a
321.588	0.497	angry	Picture	25.915	n/a	3	9	9	n/a	49	41	2	n/a	n/a	n/a	n/a	350.949	AF01HAS.jpg
322.085	0.514	Blank	Blank	25.401	n/a	3	9	9	n/a	49	n/a	2	n/a	n/a	n/a	n/a	351.446	n/a
322.616	0.497	angry	Picture	24.887	n/a	3	9	10	n/a	50	73	2	n/a	n/a	n/a	n/a	351.977	AM21HAS.jpg
323.113	0.514	Blank	Blank	24.373	n/a	3	9	10	n/a	50	n/a	2	n/a	n/a	n/a	n/a	352.474	n/a
323.644	0.497	angry	Picture	23.859	n/a	3	9	11	n/a	51	65	2	n/a	n/a	n/a	n/a	353.005	BM06HAS.jpg
324.141	0.514	Blank	Blank	23.345	n/a	3	9	11	n/a	51	n/a	2	n/a	n/a	n/a	n/a	353.502	n/a
324.671	0.497	angry	Picture	22.831	n/a	3	9	12	n/a	52	56	2	n/a	n/a	n/a	n/a	354.033	AF26HAS.jpg
325.169	0.514	Blank	Blank	22.317	n/a	3	9	12	n/a	52	n/a	2	n/a	n/a	n/a	n/a	354.53	n/a
325.699	0.497	angry	Picture	21.803	n/a	3	9	13	n/a	53	45	2	n/a	n/a	n/a	n/a	355.061	BF07HAS.jpg
326.197	0.514	Blank	Blank	21.289	n/a	3	9	13	n/a	53	n/a	2	n/a	n/a	n/a	n/a	355.558	n/a
326.727	0.497	angry	Picture	20.776	n/a	3	9	14	n/a	54	78	2	n/a	n/a	n/a	n/a	356.088	BM26HAS.jpg
327.225	0.514	Blank	Blank	20.262	n/a	3	9	14	n/a	54	n/a	2	n/a	n/a	n/a	n/a	356.586	n/a
327.755	0.497	angry	Picture	19.748	n/a	3	9	15	n/a	55	50	2	n/a	n/a	n/a	n/a	357.116	AF18HAS.jpg
328.252	0.514	Blank	Blank	19.234	n/a	3	9	15	n/a	55	n/a	2	n/a	n/a	n/a	n/a	357.614	n/a
328.783	0.497	angry	Picture	18.72	n/a	3	9	16	n/a	56	47	2	n/a	n/a	n/a	n/a	358.144	BF11HAS.jpg
329.28	0.514	Blank	Blank	18.206	n/a	3	9	16	n/a	56	n/a	2	n/a	n/a	n/a	n/a	358.642	n/a
329.811	0.497	angry	Picture	17.692	n/a	3	9	17	n/a	57	77	2	n/a	n/a	n/a	n/a	359.172	BM25HAS.jpg
330.308	0.514	Blank	Blank	17.178	n/a	3	9	17	n/a	57	n/a	2	n/a	n/a	n/a	n/a	359.669	n/a
330.839	0.497	angry	Picture	16.664	n/a	3	9	18	n/a	58	57	2	n/a	n/a	n/a	n/a	360.2	BF28HAS.jpg
331.336	0.514	Blank	Blank	16.15	n/a	3	9	18	n/a	58	n/a	2	n/a	n/a	n/a	n/a	360.697	n/a
331.867	0.497	angry	Picture	15.636	n/a	3	9	19	n/a	59	61	2	n/a	n/a	n/a	n/a	361.228	AM01HAS.jpg
332.364	0.514	Blank	Blank	15.122	n/a	3	9	19	n/a	59	n/a	2	n/a	n/a	n/a	n/a	361.725	n/a
332.894	0.497	angry	Picture	14.608	n/a	3	9	20	n/a	60	79	2	n/a	n/a	n/a	n/a	362.256	BM28HAS.jpg
333.392	0.514	Blank	Blank	14.094	n/a	3	9	20	n/a	60	n/a	2	n/a	n/a	n/a	n/a	362.753	n/a
333.922	10.014	ITI	Fixation+	4.064	n/a	3	n/a	n/a	n/a	n/a	n/a	n/a	n/a	n/a	n/a	n/a	363.284	n/a
348.0	n/a	ConfirmRating	Rate	n/a	4.062	3	n/a	n/a	0	n/a	n/a	n/a	2	Angry	76	53	377.361	n/a
351.566	n/a	ConfirmRating	Rate	n/a	3.547	3	n/a	n/a	1	n/a	n/a	n/a	3	Angry	9	48	380.927	n/a
351.595	10.014	ITI	Fixation+	96.197	n/a	4	n/a	n/a	n/a	n/a	n/a	n/a	n/a	n/a	n/a	n/a	380.957	n/a
361.625	0.497	happy	Picture	95.683	n/a	4	10	1	n/a	61	119	3	n/a	n/a	n/a	n/a	390.987	BM28ANS.jpg
362.123	0.514	Blank	Blank	95.169	n/a	4	10	1	n/a	61	n/a	3	n/a	n/a	n/a	n/a	391.484	n/a
362.653	0.497	happy	Picture	94.656	n/a	4	10	2	n/a	62	100	3	n/a	n/a	n/a	n/a	392.014	AF32ANS.jpg
363.151	0.514	Blank	Blank	94.142	n/a	4	10	2	n/a	62	n/a	3	n/a	n/a	n/a	n/a	392.512	n/a
363.681	0.497	happy	Picture	93.628	n/a	4	10	3	n/a	63	118	3	n/a	n/a	n/a	n/a	393.042	BM26ANS.jpg
364.178	0.514	Blank	Blank	93.114	n/a	4	10	3	n/a	63	n/a	3	n/a	n/a	n/a	n/a	393.54	n/a
364.709	0.497	happy	Picture	92.6	n/a	4	10	4	n/a	64	89	3	n/a	n/a	n/a	n/a	394.07	AF17ANS.jpg
365.206	0.514	Blank	Blank	92.086	n/a	4	10	4	n/a	64	n/a	3	n/a	n/a	n/a	n/a	394.568	n/a
365.737	0.497	happy	Picture	91.572	n/a	4	10	5	n/a	65	116	3	n/a	n/a	n/a	n/a	395.098	BM24ANS.jpg
366.234	0.514	Blank	Blank	91.058	n/a	4	10	5	n/a	65	n/a	3	n/a	n/a	n/a	n/a	395.596	n/a
366.765	0.497	happy	Picture	90.544	n/a	4	10	6	n/a	66	105	3	n/a	n/a	n/a	n/a	396.126	BM06ANS.jpg
367.262	0.514	Blank	Blank	90.03	n/a	4	10	6	n/a	66	n/a	3	n/a	n/a	n/a	n/a	396.623	n/a
367.793	0.497	happy	Picture	89.516	n/a	4	10	7	n/a	67	106	3	n/a	n/a	n/a	n/a	397.154	AM07ANS.jpg
368.29	0.514	Blank	Blank	89.002	n/a	4	10	7	n/a	67	n/a	3	n/a	n/a	n/a	n/a	397.651	n/a
368.82	0.497	happy	Picture	88.488	n/a	4	10	8	n/a	68	94	3	n/a	n/a	n/a	n/a	398.182	AF23ANS.jpg
369.318	0.514	Blank	Blank	87.974	n/a	4	10	8	n/a	68	n/a	3	n/a	n/a	n/a	n/a	398.679	n/a
369.848	0.497	happy	Picture	87.46	n/a	4	10	9	n/a	69	117	3	n/a	n/a	n/a	n/a	399.21	BM25ANS.jpg
370.346	0.514	Blank	Blank	86.947	n/a	4	10	9	n/a	69	n/a	3	n/a	n/a	n/a	n/a	399.707	n/a
370.876	0.497	happy	Picture	86.432	n/a	4	10	10	n/a	70	90	3	n/a	n/a	n/a	n/a	400.238	AF18ANS.jpg
371.374	0.514	Blank	Blank	85.919	n/a	4	10	10	n/a	70	n/a	3	n/a	n/a	n/a	n/a	400.735	n/a
371.904	0.497	happy	Picture	85.405	n/a	4	10	11	n/a	71	83	3	n/a	n/a	n/a	n/a	401.265	BF04ANS.jpg
372.401	0.514	Blank	Blank	84.891	n/a	4	10	11	n/a	71	n/a	3	n/a	n/a	n/a	n/a	401.763	n/a
372.932	0.497	happy	Picture	84.377	n/a	4	10	12	n/a	72	112	3	n/a	n/a	n/a	n/a	402.293	AM14ANS.jpg
373.429	0.514	Blank	Blank	83.863	n/a	4	10	12	n/a	72	n/a	3	n/a	n/a	n/a	n/a	402.791	n/a
373.96	0.497	happy	Picture	83.349	n/a	4	10	13	n/a	73	102	3	n/a	n/a	n/a	n/a	403.321	BM03ANS.jpg
374.457	0.514	Blank	Blank	82.835	n/a	4	10	13	n/a	73	n/a	3	n/a	n/a	n/a	n/a	403.818	n/a
374.988	0.497	happy	Picture	82.321	n/a	4	10	14	n/a	74	95	3	n/a	n/a	n/a	n/a	404.349	AF25ANS.jpg
375.485	0.514	Blank	Blank	81.807	n/a	4	10	14	n/a	74	n/a	3	n/a	n/a	n/a	n/a	404.846	n/a
376.016	0.497	happy	Picture	81.293	n/a	4	10	15	n/a	75	113	3	n/a	n/a	n/a	n/a	405.377	AM21ANS.jpg
376.513	0.514	Blank	Blank	80.779	n/a	4	10	15	n/a	75	n/a	3	n/a	n/a	n/a	n/a	405.874	n/a
377.044	0.497	happy	Picture	80.265	n/a	4	10	16	n/a	76	88	3	n/a	n/a	n/a	n/a	406.405	AF14ANS.jpg
377.541	0.514	Blank	Blank	79.751	n/a	4	10	16	n/a	76	n/a	3	n/a	n/a	n/a	n/a	406.902	n/a
378.071	0.497	happy	Picture	79.237	n/a	4	10	17	n/a	77	93	3	n/a	n/a	n/a	n/a	407.433	BF22ANS.jpg
378.569	0.514	Blank	Blank	78.724	n/a	4	10	17	n/a	77	n/a	3	n/a	n/a	n/a	n/a	407.93	n/a
379.099	0.497	happy	Picture	78.209	n/a	4	10	18	n/a	78	86	3	n/a	n/a	n/a	n/a	408.461	AF09ANS.jpg
379.597	0.514	Blank	Blank	77.696	n/a	4	10	18	n/a	78	n/a	3	n/a	n/a	n/a	n/a	408.958	n/a
380.127	0.497	happy	Picture	77.182	n/a	4	10	19	n/a	79	92	3	n/a	n/a	n/a	n/a	409.488	AF21ANS.jpg
380.625	0.514	Blank	Blank	76.668	n/a	4	10	19	n/a	79	n/a	3	n/a	n/a	n/a	n/a	409.986	n/a
381.155	0.497	happy	Picture	76.154	n/a	4	10	20	n/a	80	84	3	n/a	n/a	n/a	n/a	410.516	AF05ANS.jpg
381.652	0.514	Blank	Blank	75.64	n/a	4	10	20	n/a	80	n/a	3	n/a	n/a	n/a	n/a	411.014	n/a
382.183	10.014	ITI	Fixation+	65.61	n/a	4	n/a	n/a	n/a	n/a	n/a	n/a	n/a	n/a	n/a	n/a	411.544	n/a
392.213	0.497	neutral	Picture	65.096	n/a	4	11	1	n/a	81	4	1	n/a	n/a	n/a	n/a	421.574	AF05NES.jpg
392.71	0.514	Blank	Blank	64.582	n/a	4	11	1	n/a	81	n/a	1	n/a	n/a	n/a	n/a	422.072	n/a
393.241	0.497	neutral	Picture	64.068	n/a	4	11	2	n/a	82	14	1	n/a	n/a	n/a	n/a	422.602	AF23NES.jpg
393.738	0.514	Blank	Blank	63.554	n/a	4	11	2	n/a	82	n/a	1	n/a	n/a	n/a	n/a	423.099	n/a
394.269	0.497	neutral	Picture	63.04	n/a	4	11	3	n/a	83	19	1	n/a	n/a	n/a	n/a	423.63	AF31NES.jpg
394.766	0.514	Blank	Blank	62.526	n/a	4	11	3	n/a	83	n/a	1	n/a	n/a	n/a	n/a	424.127	n/a
395.297	0.497	neutral	Picture	62.012	n/a	4	11	4	n/a	84	8	1	n/a	n/a	n/a	n/a	424.658	AF14NES.jpg
395.794	0.514	Blank	Blank	61.498	n/a	4	11	4	n/a	84	n/a	1	n/a	n/a	n/a	n/a	425.155	n/a
396.325	0.497	neutral	Picture	60.984	n/a	4	11	5	n/a	85	25	1	n/a	n/a	n/a	n/a	425.686	BM06NES.jpg
396.822	0.514	Blank	Blank	60.47	n/a	4	11	5	n/a	85	n/a	1	n/a	n/a	n/a	n/a	426.183	n/a
397.35	0.5	neutral	Picture	59.956	n/a	4	11	6	n/a	86	9	1	n/a	n/a	n/a	n/a	426.711	AF17NES.jpg
397.85	0.514	Blank	Blank	59.442	n/a	4	11	6	n/a	86	n/a	1	n/a	n/a	n/a	n/a	427.211	n/a
398.38	0.497	neutral	Picture	58.928	n/a	4	11	7	n/a	87	2	1	n/a	n/a	n/a	n/a	427.742	AF03NES.jpg
398.878	0.514	Blank	Blank	58.415	n/a	4	11	7	n/a	87	n/a	1	n/a	n/a	n/a	n/a	428.239	n/a
399.408	0.497	neutral	Picture	57.901	n/a	4	11	8	n/a	88	17	1	n/a	n/a	n/a	n/a	428.769	BF28NES.jpg
399.906	0.514	Blank	Blank	57.387	n/a	4	11	8	n/a	88	n/a	1	n/a	n/a	n/a	n/a	429.267	n/a
400.436	0.497	neutral	Picture	56.873	n/a	4	11	9	n/a	89	6	1	n/a	n/a	n/a	n/a	429.797	AF09NES.jpg
400.933	0.514	Blank	Blank	56.359	n/a	4	11	9	n/a	89	n/a	1	n/a	n/a	n/a	n/a	430.295	n/a
401.464	0.497	neutral	Picture	55.845	n/a	4	11	10	n/a	90	12	1	n/a	n/a	n/a	n/a	430.825	AF21NES.jpg
401.961	0.514	Blank	Blank	55.331	n/a	4	11	10	n/a	90	n/a	1	n/a	n/a	n/a	n/a	431.322	n/a
402.492	0.497	neutral	Picture	54.817	n/a	4	11	11	n/a	91	24	1	n/a	n/a	n/a	n/a	431.853	BM05NES.jpg
402.989	0.514	Blank	Blank	54.303	n/a	4	11	11	n/a	91	n/a	1	n/a	n/a	n/a	n/a	432.35	n/a
403.52	0.497	neutral	Picture	53.789	n/a	4	11	12	n/a	92	34	1	n/a	n/a	n/a	n/a	432.881	AM22NES.jpg
404.017	0.514	Blank	Blank	53.275	n/a	4	11	12	n/a	92	n/a	1	n/a	n/a	n/a	n/a	433.378	n/a
404.548	0.497	neutral	Picture	52.761	n/a	4	11	13	n/a	93	23	1	n/a	n/a	n/a	n/a	433.909	AM04NES.jpg
405.045	0.514	Blank	Blank	52.247	n/a	4	11	13	n/a	93	n/a	1	n/a	n/a	n/a	n/a	434.406	n/a
405.575	0.497	neutral	Picture	51.733	n/a	4	11	14	n/a	94	15	1	n/a	n/a	n/a	n/a	434.937	AF25NES.jpg
406.073	0.514	Blank	Blank	51.219	n/a	4	11	14	n/a	94	n/a	1	n/a	n/a	n/a	n/a	435.434	n/a
406.603	0.497	neutral	Picture	50.705	n/a	4	11	15	n/a	95	37	1	n/a	n/a	n/a	n/a	435.965	BM25NES.jpg
407.101	0.514	Blank	Blank	50.191	n/a	4	11	15	n/a	95	n/a	1	n/a	n/a	n/a	n/a	436.462	n/a
407.631	0.497	neutral	Picture	49.678	n/a	4	11	16	n/a	96	32	1	n/a	n/a	n/a	n/a	436.993	AM14NES.jpg
408.129	0.514	Blank	Blank	49.164	n/a	4	11	16	n/a	96	n/a	1	n/a	n/a	n/a	n/a	437.49	n/a
408.659	0.497	neutral	Picture	48.65	n/a	4	11	17	n/a	97	3	1	n/a	n/a	n/a	n/a	438.02	BF04NES.jpg
409.156	0.514	Blank	Blank	48.136	n/a	4	11	17	n/a	97	n/a	1	n/a	n/a	n/a	n/a	438.518	n/a
409.687	0.497	neutral	Picture	47.622	n/a	4	11	18	n/a	98	16	1	n/a	n/a	n/a	n/a	439.048	AF26NES.jpg
410.184	0.514	Blank	Blank	47.108	n/a	4	11	18	n/a	98	n/a	1	n/a	n/a	n/a	n/a	439.546	n/a
410.715	0.497	neutral	Picture	46.594	n/a	4	11	19	n/a	99	27	1	n/a	n/a	n/a	n/a	440.076	BM08NES.jpg
411.212	0.514	Blank	Blank	46.08	n/a	4	11	19	n/a	99	n/a	1	n/a	n/a	n/a	n/a	440.574	n/a
411.743	0.497	neutral	Picture	45.566	n/a	4	11	20	n/a	100	28	1	n/a	n/a	n/a	n/a	441.104	AM09NES.jpg
412.24	0.514	Blank	Blank	45.052	n/a	4	11	20	n/a	100	n/a	1	n/a	n/a	n/a	n/a	441.601	n/a
412.771	10.014	ITI	Fixation+	35.022	n/a	4	n/a	n/a	n/a	n/a	n/a	n/a	n/a	n/a	n/a	n/a	442.132	n/a
422.801	0.497	happy	Picture	34.508	n/a	4	12	1	n/a	101	81	3	n/a	n/a	n/a	n/a	452.162	AF01ANS.jpg
423.298	0.514	Blank	Blank	33.994	n/a	4	12	1	n/a	101	n/a	3	n/a	n/a	n/a	n/a	452.659	n/a
423.829	0.497	happy	Picture	33.48	n/a	4	12	2	n/a	102	120	3	n/a	n/a	n/a	n/a	453.19	AM35ANS.jpg
424.326	0.514	Blank	Blank	32.966	n/a	4	12	2	n/a	102	n/a	3	n/a	n/a	n/a	n/a	453.687	n/a
424.856	0.497	happy	Picture	32.452	n/a	4	12	3	n/a	103	114	3	n/a	n/a	n/a	n/a	454.218	AM22ANS.jpg
425.354	0.514	Blank	Blank	31.938	n/a	4	12	3	n/a	103	n/a	3	n/a	n/a	n/a	n/a	454.715	n/a
425.884	0.497	happy	Picture	31.424	n/a	4	12	4	n/a	104	109	3	n/a	n/a	n/a	n/a	455.246	AM10ANS.jpg
426.382	0.514	Blank	Blank	30.911	n/a	4	12	4	n/a	104	n/a	3	n/a	n/a	n/a	n/a	455.743	n/a
426.912	0.497	happy	Picture	30.397	n/a	4	12	5	n/a	105	96	3	n/a	n/a	n/a	n/a	456.274	AF26ANS.jpg
427.41	0.514	Blank	Blank	29.883	n/a	4	12	5	n/a	105	n/a	3	n/a	n/a	n/a	n/a	456.771	n/a
427.94	0.497	happy	Picture	29.369	n/a	4	12	6	n/a	106	82	3	n/a	n/a	n/a	n/a	457.301	AF03ANS.jpg
428.438	0.514	Blank	Blank	28.855	n/a	4	12	6	n/a	106	n/a	3	n/a	n/a	n/a	n/a	457.799	n/a
428.968	0.497	happy	Picture	28.341	n/a	4	12	7	n/a	107	97	3	n/a	n/a	n/a	n/a	458.329	BF28ANS.jpg
429.465	0.514	Blank	Blank	27.827	n/a	4	12	7	n/a	107	n/a	3	n/a	n/a	n/a	n/a	458.827	n/a
429.996	0.497	happy	Picture	27.313	n/a	4	12	8	n/a	108	115	3	n/a	n/a	n/a	n/a	459.357	AM23ANS.jpg
430.493	0.514	Blank	Blank	26.799	n/a	4	12	8	n/a	108	n/a	3	n/a	n/a	n/a	n/a	459.854	n/a
431.024	0.497	happy	Picture	26.285	n/a	4	12	9	n/a	109	91	3	n/a	n/a	n/a	n/a	460.385	AF20ANS.jpg
431.521	0.514	Blank	Blank	25.771	n/a	4	12	9	n/a	109	n/a	3	n/a	n/a	n/a	n/a	460.882	n/a
432.052	0.497	happy	Picture	25.257	n/a	4	12	10	n/a	110	87	3	n/a	n/a	n/a	n/a	461.413	BF11ANS.jpg
432.549	0.514	Blank	Blank	24.743	n/a	4	12	10	n/a	110	n/a	3	n/a	n/a	n/a	n/a	461.91	n/a
433.079	0.497	happy	Picture	24.229	n/a	4	12	11	n/a	111	85	3	n/a	n/a	n/a	n/a	462.441	BF07ANS.jpg
433.577	0.514	Blank	Blank	23.715	n/a	4	12	11	n/a	111	n/a	3	n/a	n/a	n/a	n/a	462.938	n/a
434.107	0.497	happy	Picture	23.201	n/a	4	12	12	n/a	112	110	3	n/a	n/a	n/a	n/a	463.469	AM11ANS.jpg
434.605	0.514	Blank	Blank	22.688	n/a	4	12	12	n/a	112	n/a	3	n/a	n/a	n/a	n/a	463.966	n/a
435.135	0.497	happy	Picture	22.173	n/a	4	12	13	n/a	113	111	3	n/a	n/a	n/a	n/a	464.497	BM12ANS.jpg
435.633	0.514	Blank	Blank	21.66	n/a	4	12	13	n/a	113	n/a	3	n/a	n/a	n/a	n/a	464.994	n/a
436.163	0.497	happy	Picture	21.146	n/a	4	12	14	n/a	114	103	3	n/a	n/a	n/a	n/a	465.524	AM04ANS.jpg
436.661	0.514	Blank	Blank	20.632	n/a	4	12	14	n/a	114	n/a	3	n/a	n/a	n/a	n/a	466.022	n/a
437.191	0.497	happy	Picture	20.118	n/a	4	12	15	n/a	115	101	3	n/a	n/a	n/a	n/a	466.552	AM01ANS.jpg
437.688	0.514	Blank	Blank	19.604	n/a	4	12	15	n/a	115	n/a	3	n/a	n/a	n/a	n/a	467.05	n/a
438.219	0.497	happy	Picture	19.09	n/a	4	12	16	n/a	116	104	3	n/a	n/a	n/a	n/a	467.58	BM05ANS.jpg
438.716	0.514	Blank	Blank	18.576	n/a	4	12	16	n/a	116	n/a	3	n/a	n/a	n/a	n/a	468.077	n/a
439.247	0.497	happy	Picture	18.062	n/a	4	12	17	n/a	117	107	3	n/a	n/a	n/a	n/a	468.608	BM08ANS.jpg
439.744	0.514	Blank	Blank	17.548	n/a	4	12	17	n/a	117	n/a	3	n/a	n/a	n/a	n/a	469.105	n/a
440.275	0.497	happy	Picture	17.034	n/a	4	12	18	n/a	118	98	3	n/a	n/a	n/a	n/a	469.636	BF29ANS.jpg
440.772	0.514	Blank	Blank	16.52	n/a	4	12	18	n/a	118	n/a	3	n/a	n/a	n/a	n/a	470.133	n/a
441.303	0.497	happy	Picture	16.006	n/a	4	12	19	n/a	119	99	3	n/a	n/a	n/a	n/a	470.664	AF31ANS.jpg
441.8	0.514	Blank	Blank	15.492	n/a	4	12	19	n/a	119	n/a	3	n/a	n/a	n/a	n/a	471.161	n/a
442.331	0.497	happy	Picture	14.978	n/a	4	12	20	n/a	120	108	3	n/a	n/a	n/a	n/a	471.692	AM09ANS.jpg
442.828	0.514	Blank	Blank	14.464	n/a	4	12	20	n/a	120	n/a	3	n/a	n/a	n/a	n/a	472.189	n/a
443.358	10.014	ITI	Fixation+	4.434	n/a	4	n/a	n/a	n/a	n/a	n/a	n/a	n/a	n/a	n/a	n/a	472.719	n/a
457.806	n/a	ConfirmRating	Rate	n/a	4.427	4	n/a	n/a	0	n/a	n/a	n/a	2	Happy	78	53	487.167	n/a
460.387	n/a	ConfirmRating	Rate	n/a	2.57	4	n/a	n/a	1	n/a	n/a	n/a	3	Happy	13	46	489.748	n/a
