onset	duration	trial_type	event_type	time_until_response	response_time	trial_number	block_num_within_trial	image_seq_num_within_block	question_seq_num_within_block	image_seq_num	picture_number	condition	question_type	block_type	rating	rating_computed	onset_uncorrected	KDEV_imagefile
0.013	10.014	ITI	Fixation+	98.726	n/a	1	n/a	n/a	n/a	n/a	n/a	n/a	n/a	n/a	n/a	n/a	71.333	n/a
10.044	0.497	happy	Picture	98.212	n/a	1	1	1	n/a	1	108	3	n/a	n/a	n/a	n/a	81.364	AM09ANS.jpg
10.541	0.514	Blank	Blank	97.698	n/a	1	1	1	n/a	1	n/a	3	n/a	n/a	n/a	n/a	81.861	n/a
11.071	0.497	happy	Picture	97.185	n/a	1	1	2	n/a	2	99	3	n/a	n/a	n/a	n/a	82.391	AF31ANS.jpg
11.569	0.514	Blank	Blank	96.671	n/a	1	1	2	n/a	2	n/a	3	n/a	n/a	n/a	n/a	82.889	n/a
12.099	0.497	happy	Picture	96.157	n/a	1	1	3	n/a	3	98	3	n/a	n/a	n/a	n/a	83.419	BF29ANS.jpg
12.597	0.514	Blank	Blank	95.643	n/a	1	1	3	n/a	3	n/a	3	n/a	n/a	n/a	n/a	83.917	n/a
13.127	0.497	happy	Picture	95.129	n/a	1	1	4	n/a	4	107	3	n/a	n/a	n/a	n/a	84.447	BM08ANS.jpg
13.625	0.514	Blank	Blank	94.615	n/a	1	1	4	n/a	4	n/a	3	n/a	n/a	n/a	n/a	84.945	n/a
14.155	0.497	happy	Picture	94.101	n/a	1	1	5	n/a	5	104	3	n/a	n/a	n/a	n/a	85.475	BM05ANS.jpg
14.652	0.514	Blank	Blank	93.587	n/a	1	1	5	n/a	5	n/a	3	n/a	n/a	n/a	n/a	85.972	n/a
15.183	0.497	happy	Picture	93.073	n/a	1	1	6	n/a	6	101	3	n/a	n/a	n/a	n/a	86.503	AM01ANS.jpg
15.68	0.514	Blank	Blank	92.559	n/a	1	1	6	n/a	6	n/a	3	n/a	n/a	n/a	n/a	87.0	n/a
16.211	0.497	happy	Picture	92.045	n/a	1	1	7	n/a	7	103	3	n/a	n/a	n/a	n/a	87.531	AM04ANS.jpg
16.708	0.514	Blank	Blank	91.531	n/a	1	1	7	n/a	7	n/a	3	n/a	n/a	n/a	n/a	88.028	n/a
17.239	0.497	happy	Picture	91.017	n/a	1	1	8	n/a	8	111	3	n/a	n/a	n/a	n/a	88.559	BM12ANS.jpg
17.736	0.514	Blank	Blank	90.503	n/a	1	1	8	n/a	8	n/a	3	n/a	n/a	n/a	n/a	89.056	n/a
18.267	0.497	happy	Picture	89.989	n/a	1	1	9	n/a	9	110	3	n/a	n/a	n/a	n/a	89.587	AM11ANS.jpg
18.764	0.514	Blank	Blank	89.475	n/a	1	1	9	n/a	9	n/a	3	n/a	n/a	n/a	n/a	90.084	n/a
19.294	0.497	happy	Picture	88.961	n/a	1	1	10	n/a	10	85	3	n/a	n/a	n/a	n/a	90.614	BF07ANS.jpg
19.792	0.514	Blank	Blank	88.448	n/a	1	1	10	n/a	10	n/a	3	n/a	n/a	n/a	n/a	91.112	n/a
20.322	0.497	happy	Picture	87.934	n/a	1	1	11	n/a	11	87	3	n/a	n/a	n/a	n/a	91.642	BF11ANS.jpg
20.82	0.514	Blank	Blank	87.42	n/a	1	1	11	n/a	11	n/a	3	n/a	n/a	n/a	n/a	92.14	n/a
21.35	0.497	happy	Picture	86.906	n/a	1	1	12	n/a	12	91	3	n/a	n/a	n/a	n/a	92.67	AF20ANS.jpg
21.848	0.514	Blank	Blank	86.392	n/a	1	1	12	n/a	12	n/a	3	n/a	n/a	n/a	n/a	93.168	n/a
22.378	0.497	happy	Picture	85.878	n/a	1	1	13	n/a	13	115	3	n/a	n/a	n/a	n/a	93.698	AM23ANS.jpg
22.876	0.514	Blank	Blank	85.364	n/a	1	1	13	n/a	13	n/a	3	n/a	n/a	n/a	n/a	94.195	n/a
23.406	0.497	happy	Picture	84.85	n/a	1	1	14	n/a	14	97	3	n/a	n/a	n/a	n/a	94.726	BF28ANS.jpg
23.903	0.514	Blank	Blank	84.336	n/a	1	1	14	n/a	14	n/a	3	n/a	n/a	n/a	n/a	95.223	n/a
24.434	0.497	happy	Picture	83.822	n/a	1	1	15	n/a	15	82	3	n/a	n/a	n/a	n/a	95.754	AF03ANS.jpg
24.931	0.514	Blank	Blank	83.308	n/a	1	1	15	n/a	15	n/a	3	n/a	n/a	n/a	n/a	96.251	n/a
25.462	0.497	happy	Picture	82.794	n/a	1	1	16	n/a	16	96	3	n/a	n/a	n/a	n/a	96.782	AF26ANS.jpg
25.959	0.514	Blank	Blank	82.28	n/a	1	1	16	n/a	16	n/a	3	n/a	n/a	n/a	n/a	97.279	n/a
26.49	0.497	happy	Picture	81.766	n/a	1	1	17	n/a	17	109	3	n/a	n/a	n/a	n/a	97.81	AM10ANS.jpg
26.987	0.514	Blank	Blank	81.252	n/a	1	1	17	n/a	17	n/a	3	n/a	n/a	n/a	n/a	98.307	n/a
27.518	0.497	happy	Picture	80.738	n/a	1	1	18	n/a	18	114	3	n/a	n/a	n/a	n/a	98.838	AM22ANS.jpg
28.015	0.514	Blank	Blank	80.224	n/a	1	1	18	n/a	18	n/a	3	n/a	n/a	n/a	n/a	99.335	n/a
28.545	0.497	happy	Picture	79.71	n/a	1	1	19	n/a	19	120	3	n/a	n/a	n/a	n/a	99.865	AM35ANS.jpg
29.043	0.514	Blank	Blank	79.197	n/a	1	1	19	n/a	19	n/a	3	n/a	n/a	n/a	n/a	100.363	n/a
29.573	0.497	happy	Picture	78.683	n/a	1	1	20	n/a	20	81	3	n/a	n/a	n/a	n/a	100.893	AF01ANS.jpg
30.071	0.514	Blank	Blank	78.169	n/a	1	1	20	n/a	20	n/a	3	n/a	n/a	n/a	n/a	101.391	n/a
30.601	10.014	ITI	Fixation+	68.138	n/a	1	n/a	n/a	n/a	n/a	n/a	n/a	n/a	n/a	n/a	n/a	101.921	n/a
40.632	0.497	neutral	Picture	67.625	n/a	1	2	1	n/a	21	28	1	n/a	n/a	n/a	n/a	111.951	AM09NES.jpg
41.129	0.514	Blank	Blank	67.111	n/a	1	2	1	n/a	21	n/a	1	n/a	n/a	n/a	n/a	112.449	n/a
41.659	0.497	neutral	Picture	66.597	n/a	1	2	2	n/a	22	27	1	n/a	n/a	n/a	n/a	112.979	BM08NES.jpg
42.157	0.514	Blank	Blank	66.083	n/a	1	2	2	n/a	22	n/a	1	n/a	n/a	n/a	n/a	113.477	n/a
42.687	0.497	neutral	Picture	65.569	n/a	1	2	3	n/a	23	16	1	n/a	n/a	n/a	n/a	114.007	AF26NES.jpg
43.185	0.514	Blank	Blank	65.055	n/a	1	2	3	n/a	23	n/a	1	n/a	n/a	n/a	n/a	114.504	n/a
43.715	0.497	neutral	Picture	64.541	n/a	1	2	4	n/a	24	3	1	n/a	n/a	n/a	n/a	115.035	BF04NES.jpg
44.212	0.514	Blank	Blank	64.027	n/a	1	2	4	n/a	24	n/a	1	n/a	n/a	n/a	n/a	115.532	n/a
44.743	0.497	neutral	Picture	63.513	n/a	1	2	5	n/a	25	32	1	n/a	n/a	n/a	n/a	116.063	AM14NES.jpg
45.24	0.514	Blank	Blank	62.999	n/a	1	2	5	n/a	25	n/a	1	n/a	n/a	n/a	n/a	116.56	n/a
45.771	0.497	neutral	Picture	62.485	n/a	1	2	6	n/a	26	37	1	n/a	n/a	n/a	n/a	117.091	BM25NES.jpg
46.268	0.514	Blank	Blank	61.971	n/a	1	2	6	n/a	26	n/a	1	n/a	n/a	n/a	n/a	117.588	n/a
46.799	0.497	neutral	Picture	61.457	n/a	1	2	7	n/a	27	15	1	n/a	n/a	n/a	n/a	118.119	AF25NES.jpg
47.296	0.514	Blank	Blank	60.943	n/a	1	2	7	n/a	27	n/a	1	n/a	n/a	n/a	n/a	118.616	n/a
47.827	0.497	neutral	Picture	60.429	n/a	1	2	8	n/a	28	23	1	n/a	n/a	n/a	n/a	119.147	AM04NES.jpg
48.324	0.514	Blank	Blank	59.915	n/a	1	2	8	n/a	28	n/a	1	n/a	n/a	n/a	n/a	119.644	n/a
48.855	0.497	neutral	Picture	59.401	n/a	1	2	9	n/a	29	34	1	n/a	n/a	n/a	n/a	120.174	AM22NES.jpg
49.352	0.514	Blank	Blank	58.887	n/a	1	2	9	n/a	29	n/a	1	n/a	n/a	n/a	n/a	120.672	n/a
49.882	0.497	neutral	Picture	58.374	n/a	1	2	10	n/a	30	24	1	n/a	n/a	n/a	n/a	121.202	BM05NES.jpg
50.38	0.514	Blank	Blank	57.86	n/a	1	2	10	n/a	30	n/a	1	n/a	n/a	n/a	n/a	121.7	n/a
50.91	0.497	neutral	Picture	57.346	n/a	1	2	11	n/a	31	12	1	n/a	n/a	n/a	n/a	122.23	AF21NES.jpg
51.408	0.514	Blank	Blank	56.832	n/a	1	2	11	n/a	31	n/a	1	n/a	n/a	n/a	n/a	122.728	n/a
51.938	0.497	neutral	Picture	56.318	n/a	1	2	12	n/a	32	6	1	n/a	n/a	n/a	n/a	123.258	AF09NES.jpg
52.436	0.514	Blank	Blank	55.804	n/a	1	2	12	n/a	32	n/a	1	n/a	n/a	n/a	n/a	123.755	n/a
52.966	0.497	neutral	Picture	55.29	n/a	1	2	13	n/a	33	17	1	n/a	n/a	n/a	n/a	124.286	BF28NES.jpg
53.463	0.514	Blank	Blank	54.776	n/a	1	2	13	n/a	33	n/a	1	n/a	n/a	n/a	n/a	124.783	n/a
53.994	0.497	neutral	Picture	54.262	n/a	1	2	14	n/a	34	2	1	n/a	n/a	n/a	n/a	125.314	AF03NES.jpg
54.491	0.514	Blank	Blank	53.748	n/a	1	2	14	n/a	34	n/a	1	n/a	n/a	n/a	n/a	125.811	n/a
55.022	0.497	neutral	Picture	53.234	n/a	1	2	15	n/a	35	9	1	n/a	n/a	n/a	n/a	126.342	AF17NES.jpg
55.519	0.514	Blank	Blank	52.72	n/a	1	2	15	n/a	35	n/a	1	n/a	n/a	n/a	n/a	126.839	n/a
56.05	0.497	neutral	Picture	52.206	n/a	1	2	16	n/a	36	25	1	n/a	n/a	n/a	n/a	127.37	BM06NES.jpg
56.547	0.514	Blank	Blank	51.692	n/a	1	2	16	n/a	36	n/a	1	n/a	n/a	n/a	n/a	127.867	n/a
57.078	0.497	neutral	Picture	51.178	n/a	1	2	17	n/a	37	8	1	n/a	n/a	n/a	n/a	128.398	AF14NES.jpg
57.575	0.514	Blank	Blank	50.664	n/a	1	2	17	n/a	37	n/a	1	n/a	n/a	n/a	n/a	128.895	n/a
58.105	0.497	neutral	Picture	50.15	n/a	1	2	18	n/a	38	19	1	n/a	n/a	n/a	n/a	129.425	AF31NES.jpg
58.603	0.514	Blank	Blank	49.637	n/a	1	2	18	n/a	38	n/a	1	n/a	n/a	n/a	n/a	129.923	n/a
59.133	0.497	neutral	Picture	49.123	n/a	1	2	19	n/a	39	14	1	n/a	n/a	n/a	n/a	130.453	AF23NES.jpg
59.631	0.514	Blank	Blank	48.609	n/a	1	2	19	n/a	39	n/a	1	n/a	n/a	n/a	n/a	130.951	n/a
60.161	0.497	neutral	Picture	48.095	n/a	1	2	20	n/a	40	4	1	n/a	n/a	n/a	n/a	131.481	AF05NES.jpg
60.659	0.514	Blank	Blank	47.581	n/a	1	2	20	n/a	40	n/a	1	n/a	n/a	n/a	n/a	131.979	n/a
61.189	10.014	ITI	Fixation+	37.551	n/a	1	n/a	n/a	n/a	n/a	n/a	n/a	n/a	n/a	n/a	n/a	132.509	n/a
71.219	0.497	happy	Picture	37.037	n/a	1	3	1	n/a	41	84	3	n/a	n/a	n/a	n/a	142.539	AF05ANS.jpg
71.717	0.514	Blank	Blank	36.523	n/a	1	3	1	n/a	41	n/a	3	n/a	n/a	n/a	n/a	143.037	n/a
72.247	0.497	happy	Picture	36.009	n/a	1	3	2	n/a	42	92	3	n/a	n/a	n/a	n/a	143.567	AF21ANS.jpg
72.745	0.514	Blank	Blank	35.495	n/a	1	3	2	n/a	42	n/a	3	n/a	n/a	n/a	n/a	144.065	n/a
73.275	0.497	happy	Picture	34.981	n/a	1	3	3	n/a	43	86	3	n/a	n/a	n/a	n/a	144.595	AF09ANS.jpg
73.772	0.514	Blank	Blank	34.467	n/a	1	3	3	n/a	43	n/a	3	n/a	n/a	n/a	n/a	145.092	n/a
74.303	0.497	happy	Picture	33.953	n/a	1	3	4	n/a	44	93	3	n/a	n/a	n/a	n/a	145.623	BF22ANS.jpg
74.8	0.514	Blank	Blank	33.439	n/a	1	3	4	n/a	44	n/a	3	n/a	n/a	n/a	n/a	146.12	n/a
75.331	0.497	happy	Picture	32.925	n/a	1	3	5	n/a	45	88	3	n/a	n/a	n/a	n/a	146.651	AF14ANS.jpg
75.828	0.514	Blank	Blank	32.411	n/a	1	3	5	n/a	45	n/a	3	n/a	n/a	n/a	n/a	147.148	n/a
76.359	0.497	happy	Picture	31.897	n/a	1	3	6	n/a	46	113	3	n/a	n/a	n/a	n/a	147.679	AM21ANS.jpg
76.856	0.514	Blank	Blank	31.383	n/a	1	3	6	n/a	46	n/a	3	n/a	n/a	n/a	n/a	148.176	n/a
77.387	0.497	happy	Picture	30.869	n/a	1	3	7	n/a	47	95	3	n/a	n/a	n/a	n/a	148.707	AF25ANS.jpg
77.884	0.514	Blank	Blank	30.355	n/a	1	3	7	n/a	47	n/a	3	n/a	n/a	n/a	n/a	149.204	n/a
78.415	0.497	happy	Picture	29.841	n/a	1	3	8	n/a	48	102	3	n/a	n/a	n/a	n/a	149.734	BM03ANS.jpg
78.912	0.514	Blank	Blank	29.328	n/a	1	3	8	n/a	48	n/a	3	n/a	n/a	n/a	n/a	150.232	n/a
79.443	0.497	happy	Picture	28.814	n/a	1	3	9	n/a	49	112	3	n/a	n/a	n/a	n/a	150.762	AM14ANS.jpg
79.94	0.514	Blank	Blank	28.3	n/a	1	3	9	n/a	49	n/a	3	n/a	n/a	n/a	n/a	151.26	n/a
80.47	0.497	happy	Picture	27.786	n/a	1	3	10	n/a	50	83	3	n/a	n/a	n/a	n/a	151.79	BF04ANS.jpg
80.968	0.514	Blank	Blank	27.272	n/a	1	3	10	n/a	50	n/a	3	n/a	n/a	n/a	n/a	152.288	n/a
81.498	0.497	happy	Picture	26.758	n/a	1	3	11	n/a	51	90	3	n/a	n/a	n/a	n/a	152.818	AF18ANS.jpg
81.996	0.514	Blank	Blank	26.244	n/a	1	3	11	n/a	51	n/a	3	n/a	n/a	n/a	n/a	153.315	n/a
82.526	0.497	happy	Picture	25.73	n/a	1	3	12	n/a	52	117	3	n/a	n/a	n/a	n/a	153.846	BM25ANS.jpg
83.023	0.514	Blank	Blank	25.216	n/a	1	3	12	n/a	52	n/a	3	n/a	n/a	n/a	n/a	154.343	n/a
83.554	0.497	happy	Picture	24.702	n/a	1	3	13	n/a	53	94	3	n/a	n/a	n/a	n/a	154.874	AF23ANS.jpg
84.051	0.514	Blank	Blank	24.188	n/a	1	3	13	n/a	53	n/a	3	n/a	n/a	n/a	n/a	155.371	n/a
84.582	0.497	happy	Picture	23.674	n/a	1	3	14	n/a	54	106	3	n/a	n/a	n/a	n/a	155.902	AM07ANS.jpg
85.079	0.514	Blank	Blank	23.16	n/a	1	3	14	n/a	54	n/a	3	n/a	n/a	n/a	n/a	156.399	n/a
85.61	0.497	happy	Picture	22.646	n/a	1	3	15	n/a	55	105	3	n/a	n/a	n/a	n/a	156.93	BM06ANS.jpg
86.107	0.514	Blank	Blank	22.132	n/a	1	3	15	n/a	55	n/a	3	n/a	n/a	n/a	n/a	157.427	n/a
86.638	0.497	happy	Picture	21.618	n/a	1	3	16	n/a	56	116	3	n/a	n/a	n/a	n/a	157.958	BM24ANS.jpg
87.135	0.514	Blank	Blank	21.104	n/a	1	3	16	n/a	56	n/a	3	n/a	n/a	n/a	n/a	158.455	n/a
87.665	0.497	happy	Picture	20.59	n/a	1	3	17	n/a	57	89	3	n/a	n/a	n/a	n/a	158.985	AF17ANS.jpg
88.163	0.514	Blank	Blank	20.076	n/a	1	3	17	n/a	57	n/a	3	n/a	n/a	n/a	n/a	159.483	n/a
88.693	0.497	happy	Picture	19.563	n/a	1	3	18	n/a	58	118	3	n/a	n/a	n/a	n/a	160.013	BM26ANS.jpg
89.191	0.514	Blank	Blank	19.049	n/a	1	3	18	n/a	58	n/a	3	n/a	n/a	n/a	n/a	160.511	n/a
89.721	0.497	happy	Picture	18.535	n/a	1	3	19	n/a	59	100	3	n/a	n/a	n/a	n/a	161.041	AF32ANS.jpg
90.219	0.514	Blank	Blank	18.021	n/a	1	3	19	n/a	59	n/a	3	n/a	n/a	n/a	n/a	161.539	n/a
90.749	0.497	happy	Picture	17.507	n/a	1	3	20	n/a	60	119	3	n/a	n/a	n/a	n/a	162.069	BM28ANS.jpg
91.247	0.514	Blank	Blank	16.993	n/a	1	3	20	n/a	60	n/a	3	n/a	n/a	n/a	n/a	162.566	n/a
91.777	10.014	ITI	Fixation+	6.963	n/a	1	n/a	n/a	n/a	n/a	n/a	n/a	n/a	n/a	n/a	n/a	163.097	n/a
108.753	n/a	ConfirmRating	Rate	n/a	6.93	1	n/a	n/a	0	n/a	n/a	n/a	2	Happy	20	49	180.073	n/a
113.607	n/a	ConfirmRating	Rate	n/a	4.841	1	n/a	n/a	1	n/a	n/a	n/a	3	Happy	15	49	184.927	n/a
113.628	10.014	ITI	Fixation+	94.163	n/a	2	n/a	n/a	n/a	n/a	n/a	n/a	n/a	n/a	n/a	n/a	184.948	n/a
123.658	0.497	angry	Picture	93.649	n/a	2	4	1	n/a	61	79	2	n/a	n/a	n/a	n/a	194.978	BM28HAS.jpg
124.156	0.514	Blank	Blank	93.135	n/a	2	4	1	n/a	61	n/a	2	n/a	n/a	n/a	n/a	195.475	n/a
124.686	0.497	angry	Picture	92.621	n/a	2	4	2	n/a	62	61	2	n/a	n/a	n/a	n/a	196.006	AM01HAS.jpg
125.183	0.514	Blank	Blank	92.108	n/a	2	4	2	n/a	62	n/a	2	n/a	n/a	n/a	n/a	196.503	n/a
125.714	0.497	angry	Picture	91.593	n/a	2	4	3	n/a	63	57	2	n/a	n/a	n/a	n/a	197.034	BF28HAS.jpg
126.211	0.514	Blank	Blank	91.08	n/a	2	4	3	n/a	63	n/a	2	n/a	n/a	n/a	n/a	197.531	n/a
126.742	0.497	angry	Picture	90.566	n/a	2	4	4	n/a	64	77	2	n/a	n/a	n/a	n/a	198.062	BM25HAS.jpg
127.239	0.514	Blank	Blank	90.052	n/a	2	4	4	n/a	64	n/a	2	n/a	n/a	n/a	n/a	198.559	n/a
127.77	0.497	angry	Picture	89.538	n/a	2	4	5	n/a	65	47	2	n/a	n/a	n/a	n/a	199.09	BF11HAS.jpg
128.267	0.514	Blank	Blank	89.024	n/a	2	4	5	n/a	65	n/a	2	n/a	n/a	n/a	n/a	199.587	n/a
128.798	0.497	angry	Picture	88.51	n/a	2	4	6	n/a	66	50	2	n/a	n/a	n/a	n/a	200.118	AF18HAS.jpg
129.295	0.514	Blank	Blank	87.996	n/a	2	4	6	n/a	66	n/a	2	n/a	n/a	n/a	n/a	200.615	n/a
129.825	0.497	angry	Picture	87.482	n/a	2	4	7	n/a	67	78	2	n/a	n/a	n/a	n/a	201.145	BM26HAS.jpg
130.323	0.514	Blank	Blank	86.968	n/a	2	4	7	n/a	67	n/a	2	n/a	n/a	n/a	n/a	201.643	n/a
130.853	0.497	angry	Picture	86.454	n/a	2	4	8	n/a	68	45	2	n/a	n/a	n/a	n/a	202.173	BF07HAS.jpg
131.351	0.514	Blank	Blank	85.94	n/a	2	4	8	n/a	68	n/a	2	n/a	n/a	n/a	n/a	202.671	n/a
131.881	0.497	angry	Picture	85.426	n/a	2	4	9	n/a	69	56	2	n/a	n/a	n/a	n/a	203.201	AF26HAS.jpg
132.379	0.514	Blank	Blank	84.912	n/a	2	4	9	n/a	69	n/a	2	n/a	n/a	n/a	n/a	203.698	n/a
132.909	0.497	angry	Picture	84.398	n/a	2	4	10	n/a	70	65	2	n/a	n/a	n/a	n/a	204.229	BM06HAS.jpg
133.406	0.514	Blank	Blank	83.884	n/a	2	4	10	n/a	70	n/a	2	n/a	n/a	n/a	n/a	204.726	n/a
133.937	0.497	angry	Picture	83.37	n/a	2	4	11	n/a	71	73	2	n/a	n/a	n/a	n/a	205.257	AM21HAS.jpg
134.434	0.514	Blank	Blank	82.857	n/a	2	4	11	n/a	71	n/a	2	n/a	n/a	n/a	n/a	205.754	n/a
134.965	0.497	angry	Picture	82.343	n/a	2	4	12	n/a	72	41	2	n/a	n/a	n/a	n/a	206.285	AF01HAS.jpg
135.462	0.514	Blank	Blank	81.829	n/a	2	4	12	n/a	72	n/a	2	n/a	n/a	n/a	n/a	206.782	n/a
135.993	0.497	angry	Picture	81.315	n/a	2	4	13	n/a	73	59	2	n/a	n/a	n/a	n/a	207.313	AF31HAS.jpg
136.49	0.514	Blank	Blank	80.801	n/a	2	4	13	n/a	73	n/a	2	n/a	n/a	n/a	n/a	207.81	n/a
137.021	0.497	angry	Picture	80.287	n/a	2	4	14	n/a	74	64	2	n/a	n/a	n/a	n/a	208.341	BM05HAS.jpg
137.518	0.514	Blank	Blank	79.773	n/a	2	4	14	n/a	74	n/a	2	n/a	n/a	n/a	n/a	208.838	n/a
138.048	0.497	angry	Picture	79.259	n/a	2	4	15	n/a	75	68	2	n/a	n/a	n/a	n/a	209.368	AM09HAS.jpg
138.546	0.514	Blank	Blank	78.745	n/a	2	4	15	n/a	75	n/a	2	n/a	n/a	n/a	n/a	209.866	n/a
139.076	0.497	angry	Picture	78.231	n/a	2	4	16	n/a	76	54	2	n/a	n/a	n/a	n/a	210.396	AF23HAS.jpg
139.574	0.514	Blank	Blank	77.717	n/a	2	4	16	n/a	76	n/a	2	n/a	n/a	n/a	n/a	210.894	n/a
140.104	0.497	angry	Picture	77.203	n/a	2	4	17	n/a	77	53	2	n/a	n/a	n/a	n/a	211.424	BF22HAS.jpg
140.602	0.514	Blank	Blank	76.689	n/a	2	4	17	n/a	77	n/a	2	n/a	n/a	n/a	n/a	211.922	n/a
141.132	0.497	angry	Picture	76.175	n/a	2	4	18	n/a	78	44	2	n/a	n/a	n/a	n/a	212.452	AF05HAS.jpg
141.63	0.514	Blank	Blank	75.661	n/a	2	4	18	n/a	78	n/a	2	n/a	n/a	n/a	n/a	212.95	n/a
142.16	0.497	angry	Picture	75.147	n/a	2	4	19	n/a	79	52	2	n/a	n/a	n/a	n/a	213.48	AF21HAS.jpg
142.657	0.514	Blank	Blank	74.633	n/a	2	4	19	n/a	79	n/a	2	n/a	n/a	n/a	n/a	213.977	n/a
143.188	0.497	angry	Picture	74.12	n/a	2	4	20	n/a	80	62	2	n/a	n/a	n/a	n/a	214.508	BM03HAS.jpg
143.685	0.514	Blank	Blank	73.606	n/a	2	4	20	n/a	80	n/a	2	n/a	n/a	n/a	n/a	215.005	n/a
144.216	10.014	ITI	Fixation+	63.575	n/a	2	n/a	n/a	n/a	n/a	n/a	n/a	n/a	n/a	n/a	n/a	215.536	n/a
154.246	0.497	neutral	Picture	63.061	n/a	2	5	1	n/a	81	23	1	n/a	n/a	n/a	n/a	225.566	AM04NES.jpg
154.743	0.514	Blank	Blank	62.547	n/a	2	5	1	n/a	81	n/a	1	n/a	n/a	n/a	n/a	226.063	n/a
155.274	0.497	neutral	Picture	62.034	n/a	2	5	2	n/a	82	29	1	n/a	n/a	n/a	n/a	226.594	AM10NES.jpg
155.771	0.514	Blank	Blank	61.52	n/a	2	5	2	n/a	82	n/a	1	n/a	n/a	n/a	n/a	227.091	n/a
156.302	0.497	neutral	Picture	61.006	n/a	2	5	3	n/a	83	24	1	n/a	n/a	n/a	n/a	227.622	BM05NES.jpg
156.799	0.514	Blank	Blank	60.492	n/a	2	5	3	n/a	83	n/a	1	n/a	n/a	n/a	n/a	228.119	n/a
157.33	0.497	neutral	Picture	59.978	n/a	2	5	4	n/a	84	12	1	n/a	n/a	n/a	n/a	228.65	AF21NES.jpg
157.827	0.514	Blank	Blank	59.464	n/a	2	5	4	n/a	84	n/a	1	n/a	n/a	n/a	n/a	229.147	n/a
158.358	0.497	neutral	Picture	58.95	n/a	2	5	5	n/a	85	13	1	n/a	n/a	n/a	n/a	229.678	BF22NES.jpg
158.855	0.514	Blank	Blank	58.436	n/a	2	5	5	n/a	85	n/a	1	n/a	n/a	n/a	n/a	230.175	n/a
159.385	0.497	neutral	Picture	57.922	n/a	2	5	6	n/a	86	17	1	n/a	n/a	n/a	n/a	230.705	BF28NES.jpg
159.883	0.514	Blank	Blank	57.408	n/a	2	5	6	n/a	86	n/a	1	n/a	n/a	n/a	n/a	231.203	n/a
160.413	0.497	neutral	Picture	56.894	n/a	2	5	7	n/a	87	4	1	n/a	n/a	n/a	n/a	231.733	AF05NES.jpg
160.911	0.514	Blank	Blank	56.38	n/a	2	5	7	n/a	87	n/a	1	n/a	n/a	n/a	n/a	232.231	n/a
161.441	0.497	neutral	Picture	55.866	n/a	2	5	8	n/a	88	11	1	n/a	n/a	n/a	n/a	232.761	AF20NES.jpg
161.939	0.514	Blank	Blank	55.352	n/a	2	5	8	n/a	88	n/a	1	n/a	n/a	n/a	n/a	233.258	n/a
162.469	0.497	neutral	Picture	54.838	n/a	2	5	9	n/a	89	22	1	n/a	n/a	n/a	n/a	233.789	BM03NES.jpg
162.966	0.514	Blank	Blank	54.324	n/a	2	5	9	n/a	89	n/a	1	n/a	n/a	n/a	n/a	234.286	n/a
163.497	0.497	neutral	Picture	53.81	n/a	2	5	10	n/a	90	15	1	n/a	n/a	n/a	n/a	234.817	AF25NES.jpg
163.994	0.514	Blank	Blank	53.297	n/a	2	5	10	n/a	90	n/a	1	n/a	n/a	n/a	n/a	235.314	n/a
164.525	0.497	neutral	Picture	52.782	n/a	2	5	11	n/a	91	19	1	n/a	n/a	n/a	n/a	235.845	AF31NES.jpg
165.022	0.514	Blank	Blank	52.269	n/a	2	5	11	n/a	91	n/a	1	n/a	n/a	n/a	n/a	236.342	n/a
165.553	0.497	neutral	Picture	51.755	n/a	2	5	12	n/a	92	9	1	n/a	n/a	n/a	n/a	236.873	AF17NES.jpg
166.05	0.514	Blank	Blank	51.241	n/a	2	5	12	n/a	92	n/a	1	n/a	n/a	n/a	n/a	237.37	n/a
166.581	0.497	neutral	Picture	50.727	n/a	2	5	13	n/a	93	14	1	n/a	n/a	n/a	n/a	237.901	AF23NES.jpg
167.078	0.514	Blank	Blank	50.213	n/a	2	5	13	n/a	93	n/a	1	n/a	n/a	n/a	n/a	238.398	n/a
167.609	0.497	neutral	Picture	49.699	n/a	2	5	14	n/a	94	36	1	n/a	n/a	n/a	n/a	238.929	BM24NES.jpg
168.106	0.514	Blank	Blank	49.185	n/a	2	5	14	n/a	94	n/a	1	n/a	n/a	n/a	n/a	239.426	n/a
168.636	0.497	neutral	Picture	48.671	n/a	2	5	15	n/a	95	34	1	n/a	n/a	n/a	n/a	239.956	AM22NES.jpg
169.134	0.514	Blank	Blank	48.157	n/a	2	5	15	n/a	95	n/a	1	n/a	n/a	n/a	n/a	240.454	n/a
169.664	0.497	neutral	Picture	47.643	n/a	2	5	16	n/a	96	10	1	n/a	n/a	n/a	n/a	240.984	AF18NES.jpg
170.162	0.514	Blank	Blank	47.129	n/a	2	5	16	n/a	96	n/a	1	n/a	n/a	n/a	n/a	241.482	n/a
170.692	0.497	neutral	Picture	46.615	n/a	2	5	17	n/a	97	5	1	n/a	n/a	n/a	n/a	242.012	BF07NES.jpg
171.19	0.514	Blank	Blank	46.101	n/a	2	5	17	n/a	97	n/a	1	n/a	n/a	n/a	n/a	242.51	n/a
171.72	0.497	neutral	Picture	45.587	n/a	2	5	18	n/a	98	25	1	n/a	n/a	n/a	n/a	243.04	BM06NES.jpg
172.217	0.514	Blank	Blank	45.073	n/a	2	5	18	n/a	98	n/a	1	n/a	n/a	n/a	n/a	243.537	n/a
172.748	0.497	neutral	Picture	44.559	n/a	2	5	19	n/a	99	39	1	n/a	n/a	n/a	n/a	244.068	AM28NES.jpg
173.245	0.514	Blank	Blank	44.045	n/a	2	5	19	n/a	99	n/a	1	n/a	n/a	n/a	n/a	244.565	n/a
173.776	0.497	neutral	Picture	43.532	n/a	2	5	20	n/a	100	33	1	n/a	n/a	n/a	n/a	245.096	AM21NES.jpg
174.273	0.514	Blank	Blank	43.018	n/a	2	5	20	n/a	100	n/a	1	n/a	n/a	n/a	n/a	245.593	n/a
174.804	10.014	ITI	Fixation+	32.987	n/a	2	n/a	n/a	n/a	n/a	n/a	n/a	n/a	n/a	n/a	n/a	246.124	n/a
184.834	0.497	angry	Picture	32.474	n/a	2	6	1	n/a	101	74	2	n/a	n/a	n/a	n/a	256.154	AM22HAS.jpg
185.331	0.514	Blank	Blank	31.959	n/a	2	6	1	n/a	101	n/a	2	n/a	n/a	n/a	n/a	256.651	n/a
185.862	0.497	angry	Picture	31.446	n/a	2	6	2	n/a	102	76	2	n/a	n/a	n/a	n/a	257.182	BM24HAS.jpg
186.359	0.514	Blank	Blank	30.932	n/a	2	6	2	n/a	102	n/a	2	n/a	n/a	n/a	n/a	257.679	n/a
186.89	0.497	angry	Picture	30.418	n/a	2	6	3	n/a	103	80	2	n/a	n/a	n/a	n/a	258.21	BM35HAS.jpg
187.387	0.514	Blank	Blank	29.904	n/a	2	6	3	n/a	103	n/a	2	n/a	n/a	n/a	n/a	258.707	n/a
187.918	0.497	angry	Picture	29.39	n/a	2	6	4	n/a	104	75	2	n/a	n/a	n/a	n/a	259.238	AM23HAS.jpg
188.415	0.514	Blank	Blank	28.876	n/a	2	6	4	n/a	104	n/a	2	n/a	n/a	n/a	n/a	259.735	n/a
188.945	0.497	angry	Picture	28.362	n/a	2	6	5	n/a	105	49	2	n/a	n/a	n/a	n/a	260.265	AF17HAS.jpg
189.443	0.514	Blank	Blank	27.848	n/a	2	6	5	n/a	105	n/a	2	n/a	n/a	n/a	n/a	260.763	n/a
189.973	0.497	angry	Picture	27.334	n/a	2	6	6	n/a	106	43	2	n/a	n/a	n/a	n/a	261.293	BF04HAS.jpg
190.471	0.514	Blank	Blank	26.82	n/a	2	6	6	n/a	106	n/a	2	n/a	n/a	n/a	n/a	261.791	n/a
191.001	0.497	angry	Picture	26.306	n/a	2	6	7	n/a	107	70	2	n/a	n/a	n/a	n/a	262.321	BM11HAS.jpg
191.499	0.514	Blank	Blank	25.792	n/a	2	6	7	n/a	107	n/a	2	n/a	n/a	n/a	n/a	262.818	n/a
192.029	0.497	angry	Picture	25.278	n/a	2	6	8	n/a	108	66	2	n/a	n/a	n/a	n/a	263.349	BM07HAS.jpg
192.526	0.514	Blank	Blank	24.764	n/a	2	6	8	n/a	108	n/a	2	n/a	n/a	n/a	n/a	263.846	n/a
193.057	0.497	angry	Picture	24.25	n/a	2	6	9	n/a	109	48	2	n/a	n/a	n/a	n/a	264.377	AF14HAS.jpg
193.554	0.514	Blank	Blank	23.737	n/a	2	6	9	n/a	109	n/a	2	n/a	n/a	n/a	n/a	264.874	n/a
194.085	0.497	angry	Picture	23.222	n/a	2	6	10	n/a	110	58	2	n/a	n/a	n/a	n/a	265.405	BF29HAS.jpg
194.582	0.514	Blank	Blank	22.709	n/a	2	6	10	n/a	110	n/a	2	n/a	n/a	n/a	n/a	265.902	n/a
195.113	0.497	angry	Picture	22.195	n/a	2	6	11	n/a	111	63	2	n/a	n/a	n/a	n/a	266.433	AM04HAS.jpg
195.61	0.514	Blank	Blank	21.681	n/a	2	6	11	n/a	111	n/a	2	n/a	n/a	n/a	n/a	266.93	n/a
196.141	0.497	angry	Picture	21.167	n/a	2	6	12	n/a	112	72	2	n/a	n/a	n/a	n/a	267.461	AM14HAS.jpg
196.638	0.514	Blank	Blank	20.653	n/a	2	6	12	n/a	112	n/a	2	n/a	n/a	n/a	n/a	267.958	n/a
197.169	0.497	angry	Picture	20.139	n/a	2	6	13	n/a	113	55	2	n/a	n/a	n/a	n/a	268.488	AF25HAS.jpg
197.666	0.514	Blank	Blank	19.625	n/a	2	6	13	n/a	113	n/a	2	n/a	n/a	n/a	n/a	268.986	n/a
198.196	0.497	angry	Picture	19.111	n/a	2	6	14	n/a	114	42	2	n/a	n/a	n/a	n/a	269.516	AF03HAS.jpg
198.694	0.514	Blank	Blank	18.597	n/a	2	6	14	n/a	114	n/a	2	n/a	n/a	n/a	n/a	270.014	n/a
199.224	0.497	angry	Picture	18.083	n/a	2	6	15	n/a	115	60	2	n/a	n/a	n/a	n/a	270.544	AF32HAS.jpg
199.722	0.514	Blank	Blank	17.569	n/a	2	6	15	n/a	115	n/a	2	n/a	n/a	n/a	n/a	271.042	n/a
200.252	0.497	angry	Picture	17.055	n/a	2	6	16	n/a	116	67	2	n/a	n/a	n/a	n/a	271.572	BM08HAS.jpg
200.75	0.514	Blank	Blank	16.541	n/a	2	6	16	n/a	116	n/a	2	n/a	n/a	n/a	n/a	272.07	n/a
201.28	0.497	angry	Picture	16.027	n/a	2	6	17	n/a	117	51	2	n/a	n/a	n/a	n/a	272.6	AF20HAS.jpg
201.777	0.514	Blank	Blank	15.513	n/a	2	6	17	n/a	117	n/a	2	n/a	n/a	n/a	n/a	273.097	n/a
202.308	0.497	angry	Picture	14.999	n/a	2	6	18	n/a	118	71	2	n/a	n/a	n/a	n/a	273.628	BM12HAS.jpg
202.805	0.514	Blank	Blank	14.486	n/a	2	6	18	n/a	118	n/a	2	n/a	n/a	n/a	n/a	274.125	n/a
203.336	0.497	angry	Picture	13.972	n/a	2	6	19	n/a	119	69	2	n/a	n/a	n/a	n/a	274.656	AM10HAS.jpg
203.833	0.514	Blank	Blank	13.458	n/a	2	6	19	n/a	119	n/a	2	n/a	n/a	n/a	n/a	275.153	n/a
204.364	0.497	angry	Picture	12.944	n/a	2	6	20	n/a	120	46	2	n/a	n/a	n/a	n/a	275.684	AF09HAS.jpg
204.861	0.514	Blank	Blank	12.43	n/a	2	6	20	n/a	120	n/a	2	n/a	n/a	n/a	n/a	276.181	n/a
205.392	10.014	ITI	Fixation+	2.4	n/a	2	n/a	n/a	n/a	n/a	n/a	n/a	n/a	n/a	n/a	n/a	276.712	n/a
217.805	n/a	ConfirmRating	Rate	n/a	2.388	2	n/a	n/a	0	n/a	n/a	n/a	2	Angry	12	49	289.125	n/a
220.496	n/a	ConfirmRating	Rate	n/a	2.686	2	n/a	n/a	1	n/a	n/a	n/a	3	Angry	16	49	291.816	n/a
220.528	15.004	Rest	Picture	n/a	n/a	n/a	n/a	n/a	n/a	n/a	n/a	n/a	0	n/a	0	0	291.848	n/a
235.548	10.014	ITI	Fixation+	93.833	n/a	3	n/a	n/a	n/a	n/a	n/a	n/a	n/a	n/a	n/a	n/a	306.868	n/a
245.579	0.497	happy	Picture	93.319	n/a	3	7	1	n/a	1	108	3	n/a	n/a	n/a	n/a	316.899	AM09ANS.jpg
246.076	0.514	Blank	Blank	92.805	n/a	3	7	1	n/a	1	n/a	3	n/a	n/a	n/a	n/a	317.396	n/a
246.607	0.497	happy	Picture	92.291	n/a	3	7	2	n/a	2	99	3	n/a	n/a	n/a	n/a	317.926	AF31ANS.jpg
247.104	0.514	Blank	Blank	91.777	n/a	3	7	2	n/a	2	n/a	3	n/a	n/a	n/a	n/a	318.424	n/a
247.635	0.497	happy	Picture	91.263	n/a	3	7	3	n/a	3	98	3	n/a	n/a	n/a	n/a	318.954	BF29ANS.jpg
248.132	0.514	Blank	Blank	90.749	n/a	3	7	3	n/a	3	n/a	3	n/a	n/a	n/a	n/a	319.452	n/a
248.662	0.497	happy	Picture	90.235	n/a	3	7	4	n/a	4	107	3	n/a	n/a	n/a	n/a	319.982	BM08ANS.jpg
249.16	0.514	Blank	Blank	89.721	n/a	3	7	4	n/a	4	n/a	3	n/a	n/a	n/a	n/a	320.48	n/a
249.69	0.497	happy	Picture	89.207	n/a	3	7	5	n/a	5	104	3	n/a	n/a	n/a	n/a	321.01	BM05ANS.jpg
250.188	0.514	Blank	Blank	88.693	n/a	3	7	5	n/a	5	n/a	3	n/a	n/a	n/a	n/a	321.507	n/a
250.718	0.497	happy	Picture	88.18	n/a	3	7	6	n/a	6	101	3	n/a	n/a	n/a	n/a	322.038	AM01ANS.jpg
251.215	0.514	Blank	Blank	87.666	n/a	3	7	6	n/a	6	n/a	3	n/a	n/a	n/a	n/a	322.535	n/a
251.746	0.497	happy	Picture	87.152	n/a	3	7	7	n/a	7	103	3	n/a	n/a	n/a	n/a	323.066	AM04ANS.jpg
252.243	0.514	Blank	Blank	86.638	n/a	3	7	7	n/a	7	n/a	3	n/a	n/a	n/a	n/a	323.563	n/a
252.774	0.497	happy	Picture	86.124	n/a	3	7	8	n/a	8	111	3	n/a	n/a	n/a	n/a	324.094	BM12ANS.jpg
253.271	0.514	Blank	Blank	85.61	n/a	3	7	8	n/a	8	n/a	3	n/a	n/a	n/a	n/a	324.591	n/a
253.802	0.497	happy	Picture	85.096	n/a	3	7	9	n/a	9	110	3	n/a	n/a	n/a	n/a	325.122	AM11ANS.jpg
254.299	0.514	Blank	Blank	84.582	n/a	3	7	9	n/a	9	n/a	3	n/a	n/a	n/a	n/a	325.619	n/a
254.83	0.497	happy	Picture	84.068	n/a	3	7	10	n/a	10	85	3	n/a	n/a	n/a	n/a	326.15	BF07ANS.jpg
255.327	0.514	Blank	Blank	83.554	n/a	3	7	10	n/a	10	n/a	3	n/a	n/a	n/a	n/a	326.647	n/a
255.858	0.497	happy	Picture	83.04	n/a	3	7	11	n/a	11	87	3	n/a	n/a	n/a	n/a	327.178	BF11ANS.jpg
256.355	0.514	Blank	Blank	82.526	n/a	3	7	11	n/a	11	n/a	3	n/a	n/a	n/a	n/a	327.675	n/a
256.885	0.497	happy	Picture	82.012	n/a	3	7	12	n/a	12	91	3	n/a	n/a	n/a	n/a	328.205	AF20ANS.jpg
257.383	0.514	Blank	Blank	81.498	n/a	3	7	12	n/a	12	n/a	3	n/a	n/a	n/a	n/a	328.703	n/a
257.913	0.497	happy	Picture	80.984	n/a	3	7	13	n/a	13	115	3	n/a	n/a	n/a	n/a	329.233	AM23ANS.jpg
258.411	0.514	Blank	Blank	80.47	n/a	3	7	13	n/a	13	n/a	3	n/a	n/a	n/a	n/a	329.731	n/a
258.941	0.497	happy	Picture	79.956	n/a	3	7	14	n/a	14	97	3	n/a	n/a	n/a	n/a	330.261	BF28ANS.jpg
259.439	0.514	Blank	Blank	79.443	n/a	3	7	14	n/a	14	n/a	3	n/a	n/a	n/a	n/a	330.759	n/a
259.969	0.497	happy	Picture	78.929	n/a	3	7	15	n/a	15	82	3	n/a	n/a	n/a	n/a	331.289	AF03ANS.jpg
260.466	0.514	Blank	Blank	78.415	n/a	3	7	15	n/a	15	n/a	3	n/a	n/a	n/a	n/a	331.786	n/a
260.997	0.497	happy	Picture	77.901	n/a	3	7	16	n/a	16	96	3	n/a	n/a	n/a	n/a	332.317	AF26ANS.jpg
261.494	0.514	Blank	Blank	77.387	n/a	3	7	16	n/a	16	n/a	3	n/a	n/a	n/a	n/a	332.814	n/a
262.025	0.497	happy	Picture	76.873	n/a	3	7	17	n/a	17	109	3	n/a	n/a	n/a	n/a	333.345	AM10ANS.jpg
262.522	0.514	Blank	Blank	76.359	n/a	3	7	17	n/a	17	n/a	3	n/a	n/a	n/a	n/a	333.842	n/a
263.053	0.497	happy	Picture	75.845	n/a	3	7	18	n/a	18	114	3	n/a	n/a	n/a	n/a	334.373	AM22ANS.jpg
263.55	0.514	Blank	Blank	75.331	n/a	3	7	18	n/a	18	n/a	3	n/a	n/a	n/a	n/a	334.87	n/a
264.081	0.497	happy	Picture	74.817	n/a	3	7	19	n/a	19	120	3	n/a	n/a	n/a	n/a	335.401	AM35ANS.jpg
264.578	0.514	Blank	Blank	74.303	n/a	3	7	19	n/a	19	n/a	3	n/a	n/a	n/a	n/a	335.898	n/a
265.108	0.497	happy	Picture	73.789	n/a	3	7	20	n/a	20	81	3	n/a	n/a	n/a	n/a	336.428	AF01ANS.jpg
265.606	0.514	Blank	Blank	73.275	n/a	3	7	20	n/a	20	n/a	3	n/a	n/a	n/a	n/a	336.926	n/a
266.136	10.014	ITI	Fixation+	63.245	n/a	3	n/a	n/a	n/a	n/a	n/a	n/a	n/a	n/a	n/a	n/a	337.456	n/a
276.167	0.497	neutral	Picture	62.731	n/a	3	8	1	n/a	21	28	1	n/a	n/a	n/a	n/a	347.486	AM09NES.jpg
276.664	0.514	Blank	Blank	62.217	n/a	3	8	1	n/a	21	n/a	1	n/a	n/a	n/a	n/a	347.984	n/a
277.195	0.497	neutral	Picture	61.703	n/a	3	8	2	n/a	22	27	1	n/a	n/a	n/a	n/a	348.514	BM08NES.jpg
277.692	0.514	Blank	Blank	61.189	n/a	3	8	2	n/a	22	n/a	1	n/a	n/a	n/a	n/a	349.012	n/a
278.222	0.497	neutral	Picture	60.675	n/a	3	8	3	n/a	23	16	1	n/a	n/a	n/a	n/a	349.542	AF26NES.jpg
278.72	0.514	Blank	Blank	60.161	n/a	3	8	3	n/a	23	n/a	1	n/a	n/a	n/a	n/a	350.04	n/a
279.25	0.497	neutral	Picture	59.647	n/a	3	8	4	n/a	24	3	1	n/a	n/a	n/a	n/a	350.57	BF04NES.jpg
279.748	0.514	Blank	Blank	59.133	n/a	3	8	4	n/a	24	n/a	1	n/a	n/a	n/a	n/a	351.067	n/a
280.278	0.497	neutral	Picture	58.62	n/a	3	8	5	n/a	25	32	1	n/a	n/a	n/a	n/a	351.598	AM14NES.jpg
280.775	0.514	Blank	Blank	58.106	n/a	3	8	5	n/a	25	n/a	1	n/a	n/a	n/a	n/a	352.095	n/a
281.306	0.497	neutral	Picture	57.592	n/a	3	8	6	n/a	26	37	1	n/a	n/a	n/a	n/a	352.626	BM25NES.jpg
281.803	0.514	Blank	Blank	57.078	n/a	3	8	6	n/a	26	n/a	1	n/a	n/a	n/a	n/a	353.123	n/a
282.334	0.497	neutral	Picture	56.564	n/a	3	8	7	n/a	27	15	1	n/a	n/a	n/a	n/a	353.654	AF25NES.jpg
282.831	0.514	Blank	Blank	56.05	n/a	3	8	7	n/a	27	n/a	1	n/a	n/a	n/a	n/a	354.151	n/a
283.362	0.497	neutral	Picture	55.536	n/a	3	8	8	n/a	28	23	1	n/a	n/a	n/a	n/a	354.682	AM04NES.jpg
283.859	0.514	Blank	Blank	55.022	n/a	3	8	8	n/a	28	n/a	1	n/a	n/a	n/a	n/a	355.179	n/a
284.39	0.497	neutral	Picture	54.508	n/a	3	8	9	n/a	29	34	1	n/a	n/a	n/a	n/a	355.71	AM22NES.jpg
284.887	0.514	Blank	Blank	53.994	n/a	3	8	9	n/a	29	n/a	1	n/a	n/a	n/a	n/a	356.207	n/a
285.418	0.497	neutral	Picture	53.48	n/a	3	8	10	n/a	30	24	1	n/a	n/a	n/a	n/a	356.738	BM05NES.jpg
285.915	0.514	Blank	Blank	52.966	n/a	3	8	10	n/a	30	n/a	1	n/a	n/a	n/a	n/a	357.235	n/a
286.445	0.497	neutral	Picture	52.452	n/a	3	8	11	n/a	31	12	1	n/a	n/a	n/a	n/a	357.765	AF21NES.jpg
286.943	0.514	Blank	Blank	51.938	n/a	3	8	11	n/a	31	n/a	1	n/a	n/a	n/a	n/a	358.263	n/a
287.473	0.497	neutral	Picture	51.424	n/a	3	8	12	n/a	32	6	1	n/a	n/a	n/a	n/a	358.793	AF09NES.jpg
287.971	0.514	Blank	Blank	50.91	n/a	3	8	12	n/a	32	n/a	1	n/a	n/a	n/a	n/a	359.291	n/a
288.501	0.497	neutral	Picture	50.396	n/a	3	8	13	n/a	33	17	1	n/a	n/a	n/a	n/a	359.821	BF28NES.jpg
288.999	0.514	Blank	Blank	49.882	n/a	3	8	13	n/a	33	n/a	1	n/a	n/a	n/a	n/a	360.318	n/a
289.529	0.497	neutral	Picture	49.369	n/a	3	8	14	n/a	34	2	1	n/a	n/a	n/a	n/a	360.849	AF03NES.jpg
290.026	0.514	Blank	Blank	48.855	n/a	3	8	14	n/a	34	n/a	1	n/a	n/a	n/a	n/a	361.346	n/a
290.557	0.497	neutral	Picture	48.341	n/a	3	8	15	n/a	35	9	1	n/a	n/a	n/a	n/a	361.877	AF17NES.jpg
291.054	0.514	Blank	Blank	47.827	n/a	3	8	15	n/a	35	n/a	1	n/a	n/a	n/a	n/a	362.374	n/a
291.585	0.497	neutral	Picture	47.313	n/a	3	8	16	n/a	36	25	1	n/a	n/a	n/a	n/a	362.905	BM06NES.jpg
292.082	0.514	Blank	Blank	46.799	n/a	3	8	16	n/a	36	n/a	1	n/a	n/a	n/a	n/a	363.402	n/a
292.613	0.497	neutral	Picture	46.285	n/a	3	8	17	n/a	37	8	1	n/a	n/a	n/a	n/a	363.933	AF14NES.jpg
293.11	0.514	Blank	Blank	45.771	n/a	3	8	17	n/a	37	n/a	1	n/a	n/a	n/a	n/a	364.43	n/a
293.641	0.497	neutral	Picture	45.257	n/a	3	8	18	n/a	38	19	1	n/a	n/a	n/a	n/a	364.961	AF31NES.jpg
294.138	0.514	Blank	Blank	44.743	n/a	3	8	18	n/a	38	n/a	1	n/a	n/a	n/a	n/a	365.458	n/a
294.669	0.497	neutral	Picture	44.229	n/a	3	8	19	n/a	39	14	1	n/a	n/a	n/a	n/a	365.988	AF23NES.jpg
295.166	0.514	Blank	Blank	43.715	n/a	3	8	19	n/a	39	n/a	1	n/a	n/a	n/a	n/a	366.486	n/a
295.696	0.497	neutral	Picture	43.201	n/a	3	8	20	n/a	40	4	1	n/a	n/a	n/a	n/a	367.016	AF05NES.jpg
296.194	0.514	Blank	Blank	42.687	n/a	3	8	20	n/a	40	n/a	1	n/a	n/a	n/a	n/a	367.514	n/a
296.724	10.014	ITI	Fixation+	32.657	n/a	3	n/a	n/a	n/a	n/a	n/a	n/a	n/a	n/a	n/a	n/a	368.044	n/a
306.755	0.497	happy	Picture	32.143	n/a	3	9	1	n/a	41	84	3	n/a	n/a	n/a	n/a	378.074	AF05ANS.jpg
307.252	0.514	Blank	Blank	31.629	n/a	3	9	1	n/a	41	n/a	3	n/a	n/a	n/a	n/a	378.572	n/a
307.782	0.497	happy	Picture	31.115	n/a	3	9	2	n/a	42	92	3	n/a	n/a	n/a	n/a	379.102	AF21ANS.jpg
308.28	0.514	Blank	Blank	30.601	n/a	3	9	2	n/a	42	n/a	3	n/a	n/a	n/a	n/a	379.6	n/a
308.81	0.497	happy	Picture	30.087	n/a	3	9	3	n/a	43	86	3	n/a	n/a	n/a	n/a	380.13	AF09ANS.jpg
309.308	0.514	Blank	Blank	29.574	n/a	3	9	3	n/a	43	n/a	3	n/a	n/a	n/a	n/a	380.628	n/a
309.838	0.497	happy	Picture	29.06	n/a	3	9	4	n/a	44	93	3	n/a	n/a	n/a	n/a	381.158	BF22ANS.jpg
310.335	0.514	Blank	Blank	28.546	n/a	3	9	4	n/a	44	n/a	3	n/a	n/a	n/a	n/a	381.655	n/a
310.866	0.497	happy	Picture	28.032	n/a	3	9	5	n/a	45	88	3	n/a	n/a	n/a	n/a	382.186	AF14ANS.jpg
311.363	0.514	Blank	Blank	27.518	n/a	3	9	5	n/a	45	n/a	3	n/a	n/a	n/a	n/a	382.683	n/a
311.894	0.497	happy	Picture	27.004	n/a	3	9	6	n/a	46	113	3	n/a	n/a	n/a	n/a	383.214	AM21ANS.jpg
312.391	0.514	Blank	Blank	26.49	n/a	3	9	6	n/a	46	n/a	3	n/a	n/a	n/a	n/a	383.711	n/a
312.922	0.497	happy	Picture	25.976	n/a	3	9	7	n/a	47	95	3	n/a	n/a	n/a	n/a	384.242	AF25ANS.jpg
313.419	0.514	Blank	Blank	25.462	n/a	3	9	7	n/a	47	n/a	3	n/a	n/a	n/a	n/a	384.739	n/a
313.95	0.497	happy	Picture	24.948	n/a	3	9	8	n/a	48	102	3	n/a	n/a	n/a	n/a	385.27	BM03ANS.jpg
314.447	0.514	Blank	Blank	24.434	n/a	3	9	8	n/a	48	n/a	3	n/a	n/a	n/a	n/a	385.767	n/a
314.978	0.497	happy	Picture	23.92	n/a	3	9	9	n/a	49	112	3	n/a	n/a	n/a	n/a	386.298	AM14ANS.jpg
315.475	0.514	Blank	Blank	23.406	n/a	3	9	9	n/a	49	n/a	3	n/a	n/a	n/a	n/a	386.795	n/a
316.005	0.497	happy	Picture	22.892	n/a	3	9	10	n/a	50	83	3	n/a	n/a	n/a	n/a	387.325	BF04ANS.jpg
316.503	0.514	Blank	Blank	22.378	n/a	3	9	10	n/a	50	n/a	3	n/a	n/a	n/a	n/a	387.823	n/a
317.033	0.497	happy	Picture	21.864	n/a	3	9	11	n/a	51	90	3	n/a	n/a	n/a	n/a	388.353	AF18ANS.jpg
317.531	0.514	Blank	Blank	21.35	n/a	3	9	11	n/a	51	n/a	3	n/a	n/a	n/a	n/a	388.851	n/a
318.061	0.497	happy	Picture	20.837	n/a	3	9	12	n/a	52	117	3	n/a	n/a	n/a	n/a	389.381	BM25ANS.jpg
318.559	0.514	Blank	Blank	20.322	n/a	3	9	12	n/a	52	n/a	3	n/a	n/a	n/a	n/a	389.878	n/a
319.089	0.497	happy	Picture	19.809	n/a	3	9	13	n/a	53	94	3	n/a	n/a	n/a	n/a	390.409	AF23ANS.jpg
319.587	0.514	Blank	Blank	19.295	n/a	3	9	13	n/a	53	n/a	3	n/a	n/a	n/a	n/a	390.906	n/a
320.117	0.497	happy	Picture	18.781	n/a	3	9	14	n/a	54	106	3	n/a	n/a	n/a	n/a	391.437	AM07ANS.jpg
320.614	0.514	Blank	Blank	18.267	n/a	3	9	14	n/a	54	n/a	3	n/a	n/a	n/a	n/a	391.934	n/a
321.145	0.497	happy	Picture	17.753	n/a	3	9	15	n/a	55	105	3	n/a	n/a	n/a	n/a	392.465	BM06ANS.jpg
321.642	0.514	Blank	Blank	17.239	n/a	3	9	15	n/a	55	n/a	3	n/a	n/a	n/a	n/a	392.962	n/a
322.173	0.497	happy	Picture	16.725	n/a	3	9	16	n/a	56	116	3	n/a	n/a	n/a	n/a	393.493	BM24ANS.jpg
322.67	0.514	Blank	Blank	16.211	n/a	3	9	16	n/a	56	n/a	3	n/a	n/a	n/a	n/a	393.99	n/a
323.201	0.497	happy	Picture	15.697	n/a	3	9	17	n/a	57	89	3	n/a	n/a	n/a	n/a	394.521	AF17ANS.jpg
323.698	0.514	Blank	Blank	15.183	n/a	3	9	17	n/a	57	n/a	3	n/a	n/a	n/a	n/a	395.018	n/a
324.229	0.497	happy	Picture	14.669	n/a	3	9	18	n/a	58	118	3	n/a	n/a	n/a	n/a	395.548	BM26ANS.jpg
324.726	0.514	Blank	Blank	14.155	n/a	3	9	18	n/a	58	n/a	3	n/a	n/a	n/a	n/a	396.046	n/a
325.256	0.497	happy	Picture	13.641	n/a	3	9	19	n/a	59	100	3	n/a	n/a	n/a	n/a	396.576	AF32ANS.jpg
325.754	0.514	Blank	Blank	13.127	n/a	3	9	19	n/a	59	n/a	3	n/a	n/a	n/a	n/a	397.074	n/a
326.284	0.497	happy	Picture	12.613	n/a	3	9	20	n/a	60	119	3	n/a	n/a	n/a	n/a	397.604	BM28ANS.jpg
326.782	0.514	Blank	Blank	12.099	n/a	3	9	20	n/a	60	n/a	3	n/a	n/a	n/a	n/a	398.102	n/a
327.312	10.014	ITI	Fixation+	2.069	n/a	3	n/a	n/a	n/a	n/a	n/a	n/a	n/a	n/a	n/a	n/a	398.632	n/a
339.395	n/a	ConfirmRating	Rate	n/a	2.056	3	n/a	n/a	0	n/a	n/a	n/a	2	Happy	70	51	410.715	n/a
342.257	n/a	ConfirmRating	Rate	n/a	2.852	3	n/a	n/a	1	n/a	n/a	n/a	3	Happy	18	49	413.577	n/a
342.283	10.014	ITI	Fixation+	92.329	n/a	4	n/a	n/a	n/a	n/a	n/a	n/a	n/a	n/a	n/a	n/a	413.603	n/a
352.313	0.497	angry	Picture	91.815	n/a	4	10	1	n/a	61	79	2	n/a	n/a	n/a	n/a	423.633	BM28HAS.jpg
352.81	0.514	Blank	Blank	91.301	n/a	4	10	1	n/a	61	n/a	2	n/a	n/a	n/a	n/a	424.13	n/a
353.341	0.497	angry	Picture	90.787	n/a	4	10	2	n/a	62	61	2	n/a	n/a	n/a	n/a	424.661	AM01HAS.jpg
353.838	0.514	Blank	Blank	90.273	n/a	4	10	2	n/a	62	n/a	2	n/a	n/a	n/a	n/a	425.158	n/a
354.369	0.497	angry	Picture	89.759	n/a	4	10	3	n/a	63	57	2	n/a	n/a	n/a	n/a	425.689	BF28HAS.jpg
354.866	0.514	Blank	Blank	89.245	n/a	4	10	3	n/a	63	n/a	2	n/a	n/a	n/a	n/a	426.186	n/a
355.397	0.497	angry	Picture	88.731	n/a	4	10	4	n/a	64	77	2	n/a	n/a	n/a	n/a	426.717	BM25HAS.jpg
355.894	0.514	Blank	Blank	88.217	n/a	4	10	4	n/a	64	n/a	2	n/a	n/a	n/a	n/a	427.214	n/a
356.425	0.497	angry	Picture	87.703	n/a	4	10	5	n/a	65	47	2	n/a	n/a	n/a	n/a	427.745	BF11HAS.jpg
356.922	0.514	Blank	Blank	87.19	n/a	4	10	5	n/a	65	n/a	2	n/a	n/a	n/a	n/a	428.242	n/a
357.452	0.497	angry	Picture	86.676	n/a	4	10	6	n/a	66	50	2	n/a	n/a	n/a	n/a	428.772	AF18HAS.jpg
357.95	0.514	Blank	Blank	86.162	n/a	4	10	6	n/a	66	n/a	2	n/a	n/a	n/a	n/a	429.27	n/a
358.48	0.497	angry	Picture	85.648	n/a	4	10	7	n/a	67	78	2	n/a	n/a	n/a	n/a	429.8	BM26HAS.jpg
358.978	0.514	Blank	Blank	85.134	n/a	4	10	7	n/a	67	n/a	2	n/a	n/a	n/a	n/a	430.298	n/a
359.508	0.497	angry	Picture	84.62	n/a	4	10	8	n/a	68	45	2	n/a	n/a	n/a	n/a	430.828	BF07HAS.jpg
360.006	0.514	Blank	Blank	84.106	n/a	4	10	8	n/a	68	n/a	2	n/a	n/a	n/a	n/a	431.325	n/a
360.536	0.497	angry	Picture	83.592	n/a	4	10	9	n/a	69	56	2	n/a	n/a	n/a	n/a	431.856	AF26HAS.jpg
361.034	0.514	Blank	Blank	83.078	n/a	4	10	9	n/a	69	n/a	2	n/a	n/a	n/a	n/a	432.353	n/a
361.564	0.497	angry	Picture	82.564	n/a	4	10	10	n/a	70	65	2	n/a	n/a	n/a	n/a	432.884	BM06HAS.jpg
362.061	0.514	Blank	Blank	82.05	n/a	4	10	10	n/a	70	n/a	2	n/a	n/a	n/a	n/a	433.381	n/a
362.592	0.497	angry	Picture	81.536	n/a	4	10	11	n/a	71	73	2	n/a	n/a	n/a	n/a	433.912	AM21HAS.jpg
363.089	0.514	Blank	Blank	81.022	n/a	4	10	11	n/a	71	n/a	2	n/a	n/a	n/a	n/a	434.409	n/a
363.62	0.497	angry	Picture	80.508	n/a	4	10	12	n/a	72	41	2	n/a	n/a	n/a	n/a	434.94	AF01HAS.jpg
364.117	0.514	Blank	Blank	79.994	n/a	4	10	12	n/a	72	n/a	2	n/a	n/a	n/a	n/a	435.437	n/a
364.648	0.497	angry	Picture	79.48	n/a	4	10	13	n/a	73	59	2	n/a	n/a	n/a	n/a	435.968	AF31HAS.jpg
365.145	0.514	Blank	Blank	78.966	n/a	4	10	13	n/a	73	n/a	2	n/a	n/a	n/a	n/a	436.465	n/a
365.676	0.497	angry	Picture	78.452	n/a	4	10	14	n/a	74	64	2	n/a	n/a	n/a	n/a	436.995	BM05HAS.jpg
366.173	0.514	Blank	Blank	77.939	n/a	4	10	14	n/a	74	n/a	2	n/a	n/a	n/a	n/a	437.493	n/a
366.703	0.497	angry	Picture	77.425	n/a	4	10	15	n/a	75	68	2	n/a	n/a	n/a	n/a	438.023	AM09HAS.jpg
367.201	0.514	Blank	Blank	76.911	n/a	4	10	15	n/a	75	n/a	2	n/a	n/a	n/a	n/a	438.521	n/a
367.731	0.497	angry	Picture	76.397	n/a	4	10	16	n/a	76	54	2	n/a	n/a	n/a	n/a	439.051	AF23HAS.jpg
368.229	0.514	Blank	Blank	75.883	n/a	4	10	16	n/a	76	n/a	2	n/a	n/a	n/a	n/a	439.549	n/a
368.759	0.497	angry	Picture	75.369	n/a	4	10	17	n/a	77	53	2	n/a	n/a	n/a	n/a	440.079	BF22HAS.jpg
369.257	0.514	Blank	Blank	74.855	n/a	4	10	17	n/a	77	n/a	2	n/a	n/a	n/a	n/a	440.577	n/a
369.787	0.497	angry	Picture	74.341	n/a	4	10	18	n/a	78	44	2	n/a	n/a	n/a	n/a	441.107	AF05HAS.jpg
370.284	0.514	Blank	Blank	73.827	n/a	4	10	18	n/a	78	n/a	2	n/a	n/a	n/a	n/a	441.604	n/a
370.815	0.497	angry	Picture	73.313	n/a	4	10	19	n/a	79	52	2	n/a	n/a	n/a	n/a	442.135	AF21HAS.jpg
371.312	0.514	Blank	Blank	72.799	n/a	4	10	19	n/a	79	n/a	2	n/a	n/a	n/a	n/a	442.632	n/a
371.843	0.497	angry	Picture	72.285	n/a	4	10	20	n/a	80	62	2	n/a	n/a	n/a	n/a	443.163	BM03HAS.jpg
372.34	0.514	Blank	Blank	71.771	n/a	4	10	20	n/a	80	n/a	2	n/a	n/a	n/a	n/a	443.66	n/a
372.871	10.014	ITI	Fixation+	61.741	n/a	4	n/a	n/a	n/a	n/a	n/a	n/a	n/a	n/a	n/a	n/a	444.191	n/a
382.901	0.497	neutral	Picture	61.227	n/a	4	11	1	n/a	81	23	1	n/a	n/a	n/a	n/a	454.221	AM04NES.jpg
383.398	0.514	Blank	Blank	60.713	n/a	4	11	1	n/a	81	n/a	1	n/a	n/a	n/a	n/a	454.718	n/a
383.929	0.497	neutral	Picture	60.199	n/a	4	11	2	n/a	82	29	1	n/a	n/a	n/a	n/a	455.249	AM10NES.jpg
384.426	0.514	Blank	Blank	59.685	n/a	4	11	2	n/a	82	n/a	1	n/a	n/a	n/a	n/a	455.746	n/a
384.957	0.497	neutral	Picture	59.171	n/a	4	11	3	n/a	83	24	1	n/a	n/a	n/a	n/a	456.277	BM05NES.jpg
385.454	0.514	Blank	Blank	58.657	n/a	4	11	3	n/a	83	n/a	1	n/a	n/a	n/a	n/a	456.774	n/a
385.985	0.497	neutral	Picture	58.143	n/a	4	11	4	n/a	84	12	1	n/a	n/a	n/a	n/a	457.305	AF21NES.jpg
386.482	0.514	Blank	Blank	57.629	n/a	4	11	4	n/a	84	n/a	1	n/a	n/a	n/a	n/a	457.802	n/a
387.012	0.497	neutral	Picture	57.116	n/a	4	11	5	n/a	85	13	1	n/a	n/a	n/a	n/a	458.332	BF22NES.jpg
387.51	0.514	Blank	Blank	56.602	n/a	4	11	5	n/a	85	n/a	1	n/a	n/a	n/a	n/a	458.83	n/a
388.04	0.497	neutral	Picture	56.088	n/a	4	11	6	n/a	86	17	1	n/a	n/a	n/a	n/a	459.36	BF28NES.jpg
388.538	0.514	Blank	Blank	55.574	n/a	4	11	6	n/a	86	n/a	1	n/a	n/a	n/a	n/a	459.858	n/a
389.068	0.497	neutral	Picture	55.06	n/a	4	11	7	n/a	87	4	1	n/a	n/a	n/a	n/a	460.388	AF05NES.jpg
389.566	0.514	Blank	Blank	54.546	n/a	4	11	7	n/a	87	n/a	1	n/a	n/a	n/a	n/a	460.886	n/a
390.096	0.497	neutral	Picture	54.032	n/a	4	11	8	n/a	88	11	1	n/a	n/a	n/a	n/a	461.416	AF20NES.jpg
390.594	0.514	Blank	Blank	53.518	n/a	4	11	8	n/a	88	n/a	1	n/a	n/a	n/a	n/a	461.913	n/a
391.124	0.497	neutral	Picture	53.004	n/a	4	11	9	n/a	89	22	1	n/a	n/a	n/a	n/a	462.444	BM03NES.jpg
391.621	0.514	Blank	Blank	52.49	n/a	4	11	9	n/a	89	n/a	1	n/a	n/a	n/a	n/a	462.941	n/a
392.152	0.497	neutral	Picture	51.976	n/a	4	11	10	n/a	90	15	1	n/a	n/a	n/a	n/a	463.472	AF25NES.jpg
392.649	0.514	Blank	Blank	51.462	n/a	4	11	10	n/a	90	n/a	1	n/a	n/a	n/a	n/a	463.969	n/a
393.18	0.497	neutral	Picture	50.948	n/a	4	11	11	n/a	91	19	1	n/a	n/a	n/a	n/a	464.5	AF31NES.jpg
393.677	0.514	Blank	Blank	50.434	n/a	4	11	11	n/a	91	n/a	1	n/a	n/a	n/a	n/a	464.997	n/a
394.208	0.497	neutral	Picture	49.92	n/a	4	11	12	n/a	92	9	1	n/a	n/a	n/a	n/a	465.528	AF17NES.jpg
394.705	0.514	Blank	Blank	49.406	n/a	4	11	12	n/a	92	n/a	1	n/a	n/a	n/a	n/a	466.025	n/a
395.236	0.497	neutral	Picture	48.892	n/a	4	11	13	n/a	93	14	1	n/a	n/a	n/a	n/a	466.555	AF23NES.jpg
395.733	0.514	Blank	Blank	48.379	n/a	4	11	13	n/a	93	n/a	1	n/a	n/a	n/a	n/a	467.053	n/a
396.263	0.497	neutral	Picture	47.865	n/a	4	11	14	n/a	94	36	1	n/a	n/a	n/a	n/a	467.583	BM24NES.jpg
396.761	0.514	Blank	Blank	47.351	n/a	4	11	14	n/a	94	n/a	1	n/a	n/a	n/a	n/a	468.081	n/a
397.291	0.497	neutral	Picture	46.837	n/a	4	11	15	n/a	95	34	1	n/a	n/a	n/a	n/a	468.611	AM22NES.jpg
397.789	0.514	Blank	Blank	46.323	n/a	4	11	15	n/a	95	n/a	1	n/a	n/a	n/a	n/a	469.109	n/a
398.319	0.497	neutral	Picture	45.809	n/a	4	11	16	n/a	96	10	1	n/a	n/a	n/a	n/a	469.639	AF18NES.jpg
398.817	0.514	Blank	Blank	45.295	n/a	4	11	16	n/a	96	n/a	1	n/a	n/a	n/a	n/a	470.137	n/a
399.347	0.497	neutral	Picture	44.781	n/a	4	11	17	n/a	97	5	1	n/a	n/a	n/a	n/a	470.667	BF07NES.jpg
399.844	0.514	Blank	Blank	44.267	n/a	4	11	17	n/a	97	n/a	1	n/a	n/a	n/a	n/a	471.164	n/a
400.375	0.497	neutral	Picture	43.753	n/a	4	11	18	n/a	98	25	1	n/a	n/a	n/a	n/a	471.695	BM06NES.jpg
400.872	0.514	Blank	Blank	43.239	n/a	4	11	18	n/a	98	n/a	1	n/a	n/a	n/a	n/a	472.192	n/a
401.403	0.497	neutral	Picture	42.725	n/a	4	11	19	n/a	99	39	1	n/a	n/a	n/a	n/a	472.723	AM28NES.jpg
401.9	0.514	Blank	Blank	42.211	n/a	4	11	19	n/a	99	n/a	1	n/a	n/a	n/a	n/a	473.22	n/a
402.431	0.497	neutral	Picture	41.697	n/a	4	11	20	n/a	100	33	1	n/a	n/a	n/a	n/a	473.751	AM21NES.jpg
402.928	0.514	Blank	Blank	41.183	n/a	4	11	20	n/a	100	n/a	1	n/a	n/a	n/a	n/a	474.248	n/a
403.459	10.014	ITI	Fixation+	31.153	n/a	4	n/a	n/a	n/a	n/a	n/a	n/a	n/a	n/a	n/a	n/a	474.779	n/a
413.489	0.497	angry	Picture	30.639	n/a	4	12	1	n/a	101	74	2	n/a	n/a	n/a	n/a	484.809	AM22HAS.jpg
413.986	0.514	Blank	Blank	30.125	n/a	4	12	1	n/a	101	n/a	2	n/a	n/a	n/a	n/a	485.306	n/a
414.517	0.497	angry	Picture	29.611	n/a	4	12	2	n/a	102	76	2	n/a	n/a	n/a	n/a	485.837	BM24HAS.jpg
415.014	0.514	Blank	Blank	29.097	n/a	4	12	2	n/a	102	n/a	2	n/a	n/a	n/a	n/a	486.334	n/a
415.545	0.497	angry	Picture	28.583	n/a	4	12	3	n/a	103	80	2	n/a	n/a	n/a	n/a	486.865	BM35HAS.jpg
416.042	0.514	Blank	Blank	28.069	n/a	4	12	3	n/a	103	n/a	2	n/a	n/a	n/a	n/a	487.362	n/a
416.573	0.497	angry	Picture	27.556	n/a	4	12	4	n/a	104	75	2	n/a	n/a	n/a	n/a	487.892	AM23HAS.jpg
417.07	0.514	Blank	Blank	27.042	n/a	4	12	4	n/a	104	n/a	2	n/a	n/a	n/a	n/a	488.39	n/a
417.6	0.497	angry	Picture	26.528	n/a	4	12	5	n/a	105	49	2	n/a	n/a	n/a	n/a	488.92	AF17HAS.jpg
418.098	0.514	Blank	Blank	26.014	n/a	4	12	5	n/a	105	n/a	2	n/a	n/a	n/a	n/a	489.418	n/a
418.628	0.497	angry	Picture	25.5	n/a	4	12	6	n/a	106	43	2	n/a	n/a	n/a	n/a	489.948	BF04HAS.jpg
419.126	0.514	Blank	Blank	24.986	n/a	4	12	6	n/a	106	n/a	2	n/a	n/a	n/a	n/a	490.446	n/a
419.656	0.497	angry	Picture	24.472	n/a	4	12	7	n/a	107	70	2	n/a	n/a	n/a	n/a	490.976	BM11HAS.jpg
420.154	0.514	Blank	Blank	23.958	n/a	4	12	7	n/a	107	n/a	2	n/a	n/a	n/a	n/a	491.474	n/a
420.684	0.497	angry	Picture	23.444	n/a	4	12	8	n/a	108	66	2	n/a	n/a	n/a	n/a	492.004	BM07HAS.jpg
421.181	0.514	Blank	Blank	22.93	n/a	4	12	8	n/a	108	n/a	2	n/a	n/a	n/a	n/a	492.501	n/a
421.712	0.497	angry	Picture	22.416	n/a	4	12	9	n/a	109	48	2	n/a	n/a	n/a	n/a	493.032	AF14HAS.jpg
422.209	0.514	Blank	Blank	21.902	n/a	4	12	9	n/a	109	n/a	2	n/a	n/a	n/a	n/a	493.529	n/a
422.74	0.497	angry	Picture	21.388	n/a	4	12	10	n/a	110	58	2	n/a	n/a	n/a	n/a	494.06	BF29HAS.jpg
423.237	0.514	Blank	Blank	20.874	n/a	4	12	10	n/a	110	n/a	2	n/a	n/a	n/a	n/a	494.557	n/a
423.768	0.497	angry	Picture	20.36	n/a	4	12	11	n/a	111	63	2	n/a	n/a	n/a	n/a	495.088	AM04HAS.jpg
424.265	0.514	Blank	Blank	19.846	n/a	4	12	11	n/a	111	n/a	2	n/a	n/a	n/a	n/a	495.585	n/a
424.796	0.497	angry	Picture	19.332	n/a	4	12	12	n/a	112	72	2	n/a	n/a	n/a	n/a	496.115	AM14HAS.jpg
425.293	0.514	Blank	Blank	18.819	n/a	4	12	12	n/a	112	n/a	2	n/a	n/a	n/a	n/a	496.613	n/a
425.823	0.497	angry	Picture	18.305	n/a	4	12	13	n/a	113	55	2	n/a	n/a	n/a	n/a	497.143	AF25HAS.jpg
426.321	0.514	Blank	Blank	17.791	n/a	4	12	13	n/a	113	n/a	2	n/a	n/a	n/a	n/a	497.641	n/a
426.851	0.497	angry	Picture	17.277	n/a	4	12	14	n/a	114	42	2	n/a	n/a	n/a	n/a	498.171	AF03HAS.jpg
427.349	0.514	Blank	Blank	16.763	n/a	4	12	14	n/a	114	n/a	2	n/a	n/a	n/a	n/a	498.669	n/a
427.879	0.497	angry	Picture	16.249	n/a	4	12	15	n/a	115	60	2	n/a	n/a	n/a	n/a	499.199	AF32HAS.jpg
428.377	0.514	Blank	Blank	15.735	n/a	4	12	15	n/a	115	n/a	2	n/a	n/a	n/a	n/a	499.697	n/a
428.907	0.497	angry	Picture	15.221	n/a	4	12	16	n/a	116	67	2	n/a	n/a	n/a	n/a	500.227	BM08HAS.jpg
429.405	0.514	Blank	Blank	14.707	n/a	4	12	16	n/a	116	n/a	2	n/a	n/a	n/a	n/a	500.724	n/a
429.935	0.497	angry	Picture	14.193	n/a	4	12	17	n/a	117	51	2	n/a	n/a	n/a	n/a	501.255	AF20HAS.jpg
430.432	0.514	Blank	Blank	13.679	n/a	4	12	17	n/a	117	n/a	2	n/a	n/a	n/a	n/a	501.752	n/a
430.963	0.497	angry	Picture	13.165	n/a	4	12	18	n/a	118	71	2	n/a	n/a	n/a	n/a	502.283	BM12HAS.jpg
431.46	0.514	Blank	Blank	12.651	n/a	4	12	18	n/a	118	n/a	2	n/a	n/a	n/a	n/a	502.78	n/a
431.991	0.497	angry	Picture	12.137	n/a	4	12	19	n/a	119	69	2	n/a	n/a	n/a	n/a	503.311	AM10HAS.jpg
432.488	0.514	Blank	Blank	11.623	n/a	4	12	19	n/a	119	n/a	2	n/a	n/a	n/a	n/a	503.808	n/a
433.019	0.497	angry	Picture	11.109	n/a	4	12	20	n/a	120	46	2	n/a	n/a	n/a	n/a	504.339	AF09HAS.jpg
433.516	0.514	Blank	Blank	10.595	n/a	4	12	20	n/a	120	n/a	2	n/a	n/a	n/a	n/a	504.836	n/a
434.047	10.014	ITI	Fixation+	0.565	n/a	4	n/a	n/a	n/a	n/a	n/a	n/a	n/a	n/a	n/a	n/a	505.366	n/a
444.625	n/a	ConfirmRating	Rate	n/a	0.564	4	n/a	n/a	0	n/a	n/a	n/a	2	Angry	50	50	515.945	n/a
455.401	n/a	ConfirmRating	Rate	n/a	10.759	4	n/a	n/a	1	n/a	n/a	n/a	3	Angry	50	50	526.721	n/a
