onset	duration	trial_type	event_type	time_until_response	response_time	trial_number	block_num_within_trial	image_seq_num_within_block	question_seq_num_within_block	image_seq_num	picture_number	condition	question_type	block_type	rating	rating_computed	onset_uncorrected	KDEV_imagefile
0.008	10.014	ITI	Fixation+	96.937	n/a	1	n/a	n/a	n/a	n/a	n/a	n/a	n/a	n/a	n/a	n/a	31.909	n/a
10.038	0.497	happy	Picture	96.424	n/a	1	1	1	n/a	1	46	2	n/a	n/a	n/a	n/a	41.939	AF09HAS.jpg
10.536	0.514	Blank	Blank	95.91	n/a	1	1	1	n/a	1	n/a	2	n/a	n/a	n/a	n/a	42.436	n/a
11.066	0.497	happy	Picture	95.396	n/a	1	1	2	n/a	2	69	2	n/a	n/a	n/a	n/a	42.967	AM10HAS.jpg
11.564	0.514	Blank	Blank	94.882	n/a	1	1	2	n/a	2	n/a	2	n/a	n/a	n/a	n/a	43.464	n/a
12.094	0.497	happy	Picture	94.368	n/a	1	1	3	n/a	3	71	2	n/a	n/a	n/a	n/a	43.995	BM12HAS.jpg
12.591	0.514	Blank	Blank	93.854	n/a	1	1	3	n/a	3	n/a	2	n/a	n/a	n/a	n/a	44.492	n/a
13.122	0.497	happy	Picture	93.34	n/a	1	1	4	n/a	4	51	2	n/a	n/a	n/a	n/a	45.023	AF20HAS.jpg
13.619	0.514	Blank	Blank	92.826	n/a	1	1	4	n/a	4	n/a	2	n/a	n/a	n/a	n/a	45.52	n/a
14.15	0.497	happy	Picture	92.312	n/a	1	1	5	n/a	5	67	2	n/a	n/a	n/a	n/a	46.051	BM08HAS.jpg
14.647	0.514	Blank	Blank	91.798	n/a	1	1	5	n/a	5	n/a	2	n/a	n/a	n/a	n/a	46.548	n/a
15.178	0.497	happy	Picture	91.284	n/a	1	1	6	n/a	6	60	2	n/a	n/a	n/a	n/a	47.078	AF32HAS.jpg
15.675	0.514	Blank	Blank	90.77	n/a	1	1	6	n/a	6	n/a	2	n/a	n/a	n/a	n/a	47.576	n/a
16.206	0.497	happy	Picture	90.256	n/a	1	1	7	n/a	7	42	2	n/a	n/a	n/a	n/a	48.106	AF03HAS.jpg
16.703	0.514	Blank	Blank	89.742	n/a	1	1	7	n/a	7	n/a	2	n/a	n/a	n/a	n/a	48.604	n/a
17.234	0.497	happy	Picture	89.228	n/a	1	1	8	n/a	8	55	2	n/a	n/a	n/a	n/a	49.134	AF25HAS.jpg
17.731	0.514	Blank	Blank	88.714	n/a	1	1	8	n/a	8	n/a	2	n/a	n/a	n/a	n/a	49.632	n/a
18.262	0.497	happy	Picture	88.2	n/a	1	1	9	n/a	9	72	2	n/a	n/a	n/a	n/a	50.162	AM14HAS.jpg
18.759	0.514	Blank	Blank	87.687	n/a	1	1	9	n/a	9	n/a	2	n/a	n/a	n/a	n/a	50.66	n/a
19.289	0.497	happy	Picture	87.173	n/a	1	1	10	n/a	10	63	2	n/a	n/a	n/a	n/a	51.19	AM04HAS.jpg
19.787	0.514	Blank	Blank	86.659	n/a	1	1	10	n/a	10	n/a	2	n/a	n/a	n/a	n/a	51.687	n/a
20.317	0.497	happy	Picture	86.145	n/a	1	1	11	n/a	11	58	2	n/a	n/a	n/a	n/a	52.218	BF29HAS.jpg
20.815	0.514	Blank	Blank	85.631	n/a	1	1	11	n/a	11	n/a	2	n/a	n/a	n/a	n/a	52.715	n/a
21.345	0.497	happy	Picture	85.117	n/a	1	1	12	n/a	12	48	2	n/a	n/a	n/a	n/a	53.246	AF14HAS.jpg
21.843	0.514	Blank	Blank	84.603	n/a	1	1	12	n/a	12	n/a	2	n/a	n/a	n/a	n/a	53.743	n/a
22.373	0.497	happy	Picture	84.089	n/a	1	1	13	n/a	13	66	2	n/a	n/a	n/a	n/a	54.274	BM07HAS.jpg
22.87	0.514	Blank	Blank	83.575	n/a	1	1	13	n/a	13	n/a	2	n/a	n/a	n/a	n/a	54.771	n/a
23.401	0.497	happy	Picture	83.061	n/a	1	1	14	n/a	14	70	2	n/a	n/a	n/a	n/a	55.302	BM11HAS.jpg
23.898	0.514	Blank	Blank	82.547	n/a	1	1	14	n/a	14	n/a	2	n/a	n/a	n/a	n/a	55.799	n/a
24.429	0.497	happy	Picture	82.033	n/a	1	1	15	n/a	15	43	2	n/a	n/a	n/a	n/a	56.329	BF04HAS.jpg
24.926	0.514	Blank	Blank	81.519	n/a	1	1	15	n/a	15	n/a	2	n/a	n/a	n/a	n/a	56.827	n/a
25.457	0.497	happy	Picture	81.005	n/a	1	1	16	n/a	16	49	2	n/a	n/a	n/a	n/a	57.357	AF17HAS.jpg
25.954	0.514	Blank	Blank	80.491	n/a	1	1	16	n/a	16	n/a	2	n/a	n/a	n/a	n/a	57.855	n/a
26.485	0.497	happy	Picture	79.977	n/a	1	1	17	n/a	17	75	2	n/a	n/a	n/a	n/a	58.385	AM23HAS.jpg
26.982	0.514	Blank	Blank	79.463	n/a	1	1	17	n/a	17	n/a	2	n/a	n/a	n/a	n/a	58.883	n/a
27.512	0.497	happy	Picture	78.949	n/a	1	1	18	n/a	18	80	2	n/a	n/a	n/a	n/a	59.413	BM35HAS.jpg
28.01	0.514	Blank	Blank	78.436	n/a	1	1	18	n/a	18	n/a	2	n/a	n/a	n/a	n/a	59.91	n/a
28.54	0.497	happy	Picture	77.922	n/a	1	1	19	n/a	19	76	2	n/a	n/a	n/a	n/a	60.441	BM24HAS.jpg
29.038	0.514	Blank	Blank	77.408	n/a	1	1	19	n/a	19	n/a	2	n/a	n/a	n/a	n/a	60.938	n/a
29.568	0.497	happy	Picture	76.894	n/a	1	1	20	n/a	20	74	2	n/a	n/a	n/a	n/a	61.469	AM22HAS.jpg
30.066	0.514	Blank	Blank	76.38	n/a	1	1	20	n/a	20	n/a	2	n/a	n/a	n/a	n/a	61.966	n/a
30.596	10.014	ITI	Fixation+	66.35	n/a	1	n/a	n/a	n/a	n/a	n/a	n/a	n/a	n/a	n/a	n/a	62.497	n/a
40.626	0.497	neutral	Picture	65.836	n/a	1	2	1	n/a	21	33	1	n/a	n/a	n/a	n/a	72.527	AM21NES.jpg
41.124	0.514	Blank	Blank	65.322	n/a	1	2	1	n/a	21	n/a	1	n/a	n/a	n/a	n/a	73.024	n/a
41.654	0.497	neutral	Picture	64.808	n/a	1	2	2	n/a	22	39	1	n/a	n/a	n/a	n/a	73.555	AM28NES.jpg
42.152	0.514	Blank	Blank	64.294	n/a	1	2	2	n/a	22	n/a	1	n/a	n/a	n/a	n/a	74.052	n/a
42.682	0.497	neutral	Picture	63.78	n/a	1	2	3	n/a	23	25	1	n/a	n/a	n/a	n/a	74.583	BM06NES.jpg
43.18	0.514	Blank	Blank	63.266	n/a	1	2	3	n/a	23	n/a	1	n/a	n/a	n/a	n/a	75.08	n/a
43.71	0.497	neutral	Picture	62.752	n/a	1	2	4	n/a	24	5	1	n/a	n/a	n/a	n/a	75.611	BF07NES.jpg
44.207	0.514	Blank	Blank	62.238	n/a	1	2	4	n/a	24	n/a	1	n/a	n/a	n/a	n/a	76.108	n/a
44.738	0.497	neutral	Picture	61.724	n/a	1	2	5	n/a	25	10	1	n/a	n/a	n/a	n/a	76.638	AF18NES.jpg
45.235	0.514	Blank	Blank	61.21	n/a	1	2	5	n/a	25	n/a	1	n/a	n/a	n/a	n/a	77.136	n/a
45.766	0.497	neutral	Picture	60.696	n/a	1	2	6	n/a	26	34	1	n/a	n/a	n/a	n/a	77.666	AM22NES.jpg
46.263	0.514	Blank	Blank	60.182	n/a	1	2	6	n/a	26	n/a	1	n/a	n/a	n/a	n/a	78.164	n/a
46.794	0.497	neutral	Picture	59.668	n/a	1	2	7	n/a	27	36	1	n/a	n/a	n/a	n/a	78.694	BM24NES.jpg
47.291	0.514	Blank	Blank	59.154	n/a	1	2	7	n/a	27	n/a	1	n/a	n/a	n/a	n/a	79.192	n/a
47.822	0.497	neutral	Picture	58.64	n/a	1	2	8	n/a	28	14	1	n/a	n/a	n/a	n/a	79.722	AF23NES.jpg
48.319	0.514	Blank	Blank	58.126	n/a	1	2	8	n/a	28	n/a	1	n/a	n/a	n/a	n/a	80.219	n/a
48.849	0.497	neutral	Picture	57.613	n/a	1	2	9	n/a	29	9	1	n/a	n/a	n/a	n/a	80.75	AF17NES.jpg
49.347	0.514	Blank	Blank	57.099	n/a	1	2	9	n/a	29	n/a	1	n/a	n/a	n/a	n/a	81.247	n/a
49.877	0.497	neutral	Picture	56.585	n/a	1	2	10	n/a	30	19	1	n/a	n/a	n/a	n/a	81.778	AF31NES.jpg
50.375	0.514	Blank	Blank	56.071	n/a	1	2	10	n/a	30	n/a	1	n/a	n/a	n/a	n/a	82.275	n/a
50.905	0.497	neutral	Picture	55.557	n/a	1	2	11	n/a	31	15	1	n/a	n/a	n/a	n/a	82.806	AF25NES.jpg
51.403	0.514	Blank	Blank	55.043	n/a	1	2	11	n/a	31	n/a	1	n/a	n/a	n/a	n/a	83.303	n/a
51.933	0.497	neutral	Picture	54.529	n/a	1	2	12	n/a	32	22	1	n/a	n/a	n/a	n/a	83.834	BM03NES.jpg
52.431	0.514	Blank	Blank	54.015	n/a	1	2	12	n/a	32	n/a	1	n/a	n/a	n/a	n/a	84.331	n/a
52.961	0.497	neutral	Picture	53.501	n/a	1	2	13	n/a	33	11	1	n/a	n/a	n/a	n/a	84.862	AF20NES.jpg
53.458	0.514	Blank	Blank	52.987	n/a	1	2	13	n/a	33	n/a	1	n/a	n/a	n/a	n/a	85.359	n/a
53.989	0.497	neutral	Picture	52.473	n/a	1	2	14	n/a	34	4	1	n/a	n/a	n/a	n/a	85.889	AF05NES.jpg
54.486	0.514	Blank	Blank	51.959	n/a	1	2	14	n/a	34	n/a	1	n/a	n/a	n/a	n/a	86.387	n/a
55.017	0.497	neutral	Picture	51.445	n/a	1	2	15	n/a	35	17	1	n/a	n/a	n/a	n/a	86.917	BF28NES.jpg
55.514	0.514	Blank	Blank	50.931	n/a	1	2	15	n/a	35	n/a	1	n/a	n/a	n/a	n/a	87.415	n/a
56.045	0.497	neutral	Picture	50.417	n/a	1	2	16	n/a	36	13	1	n/a	n/a	n/a	n/a	87.945	BF22NES.jpg
56.542	0.514	Blank	Blank	49.903	n/a	1	2	16	n/a	36	n/a	1	n/a	n/a	n/a	n/a	88.443	n/a
57.073	0.497	neutral	Picture	49.389	n/a	1	2	17	n/a	37	12	1	n/a	n/a	n/a	n/a	88.973	AF21NES.jpg
57.57	0.514	Blank	Blank	48.876	n/a	1	2	17	n/a	37	n/a	1	n/a	n/a	n/a	n/a	89.471	n/a
58.1	0.497	neutral	Picture	48.362	n/a	1	2	18	n/a	38	24	1	n/a	n/a	n/a	n/a	90.001	BM05NES.jpg
58.598	0.514	Blank	Blank	47.848	n/a	1	2	18	n/a	38	n/a	1	n/a	n/a	n/a	n/a	90.498	n/a
59.128	0.497	neutral	Picture	47.334	n/a	1	2	19	n/a	39	29	1	n/a	n/a	n/a	n/a	91.029	AM10NES.jpg
59.626	0.514	Blank	Blank	46.82	n/a	1	2	19	n/a	39	n/a	1	n/a	n/a	n/a	n/a	91.526	n/a
60.156	0.497	neutral	Picture	46.306	n/a	1	2	20	n/a	40	23	1	n/a	n/a	n/a	n/a	92.057	AM04NES.jpg
60.654	0.514	Blank	Blank	45.792	n/a	1	2	20	n/a	40	n/a	1	n/a	n/a	n/a	n/a	92.554	n/a
61.184	10.014	ITI	Fixation+	35.762	n/a	1	n/a	n/a	n/a	n/a	n/a	n/a	n/a	n/a	n/a	n/a	93.085	n/a
71.214	0.497	happy	Picture	35.248	n/a	1	3	1	n/a	41	62	2	n/a	n/a	n/a	n/a	103.115	BM03HAS.jpg
71.712	0.514	Blank	Blank	34.734	n/a	1	3	1	n/a	41	n/a	2	n/a	n/a	n/a	n/a	103.612	n/a
72.242	0.497	happy	Picture	34.22	n/a	1	3	2	n/a	42	52	2	n/a	n/a	n/a	n/a	104.143	AF21HAS.jpg
72.74	0.514	Blank	Blank	33.706	n/a	1	3	2	n/a	42	n/a	2	n/a	n/a	n/a	n/a	104.64	n/a
73.27	0.497	happy	Picture	33.192	n/a	1	3	3	n/a	43	44	2	n/a	n/a	n/a	n/a	105.171	AF05HAS.jpg
73.767	0.514	Blank	Blank	32.678	n/a	1	3	3	n/a	43	n/a	2	n/a	n/a	n/a	n/a	105.668	n/a
74.298	0.497	happy	Picture	32.164	n/a	1	3	4	n/a	44	53	2	n/a	n/a	n/a	n/a	106.198	BF22HAS.jpg
74.795	0.514	Blank	Blank	31.65	n/a	1	3	4	n/a	44	n/a	2	n/a	n/a	n/a	n/a	106.696	n/a
75.326	0.497	happy	Picture	31.136	n/a	1	3	5	n/a	45	54	2	n/a	n/a	n/a	n/a	107.226	AF23HAS.jpg
75.823	0.514	Blank	Blank	30.622	n/a	1	3	5	n/a	45	n/a	2	n/a	n/a	n/a	n/a	107.724	n/a
76.354	0.497	happy	Picture	30.108	n/a	1	3	6	n/a	46	68	2	n/a	n/a	n/a	n/a	108.254	AM09HAS.jpg
76.851	0.514	Blank	Blank	29.594	n/a	1	3	6	n/a	46	n/a	2	n/a	n/a	n/a	n/a	108.752	n/a
77.382	0.497	happy	Picture	29.08	n/a	1	3	7	n/a	47	64	2	n/a	n/a	n/a	n/a	109.282	BM05HAS.jpg
77.879	0.514	Blank	Blank	28.566	n/a	1	3	7	n/a	47	n/a	2	n/a	n/a	n/a	n/a	109.779	n/a
78.409	0.497	happy	Picture	28.053	n/a	1	3	8	n/a	48	59	2	n/a	n/a	n/a	n/a	110.31	AF31HAS.jpg
78.907	0.514	Blank	Blank	27.539	n/a	1	3	8	n/a	48	n/a	2	n/a	n/a	n/a	n/a	110.807	n/a
79.437	0.497	happy	Picture	27.025	n/a	1	3	9	n/a	49	41	2	n/a	n/a	n/a	n/a	111.338	AF01HAS.jpg
79.935	0.514	Blank	Blank	26.511	n/a	1	3	9	n/a	49	n/a	2	n/a	n/a	n/a	n/a	111.835	n/a
80.465	0.497	happy	Picture	25.997	n/a	1	3	10	n/a	50	73	2	n/a	n/a	n/a	n/a	112.366	AM21HAS.jpg
80.963	0.514	Blank	Blank	25.483	n/a	1	3	10	n/a	50	n/a	2	n/a	n/a	n/a	n/a	112.863	n/a
81.493	0.497	happy	Picture	24.969	n/a	1	3	11	n/a	51	65	2	n/a	n/a	n/a	n/a	113.394	BM06HAS.jpg
81.99	0.514	Blank	Blank	24.455	n/a	1	3	11	n/a	51	n/a	2	n/a	n/a	n/a	n/a	113.891	n/a
82.521	0.497	happy	Picture	23.941	n/a	1	3	12	n/a	52	56	2	n/a	n/a	n/a	n/a	114.422	AF26HAS.jpg
83.018	0.514	Blank	Blank	23.427	n/a	1	3	12	n/a	52	n/a	2	n/a	n/a	n/a	n/a	114.919	n/a
83.549	0.497	happy	Picture	22.913	n/a	1	3	13	n/a	53	45	2	n/a	n/a	n/a	n/a	115.45	BF07HAS.jpg
84.046	0.514	Blank	Blank	22.399	n/a	1	3	13	n/a	53	n/a	2	n/a	n/a	n/a	n/a	115.947	n/a
84.577	0.497	happy	Picture	21.885	n/a	1	3	14	n/a	54	78	2	n/a	n/a	n/a	n/a	116.477	BM26HAS.jpg
85.074	0.514	Blank	Blank	21.371	n/a	1	3	14	n/a	54	n/a	2	n/a	n/a	n/a	n/a	116.975	n/a
85.605	0.497	happy	Picture	20.857	n/a	1	3	15	n/a	55	50	2	n/a	n/a	n/a	n/a	117.505	AF18HAS.jpg
86.102	0.514	Blank	Blank	20.343	n/a	1	3	15	n/a	55	n/a	2	n/a	n/a	n/a	n/a	118.003	n/a
86.633	0.497	happy	Picture	19.829	n/a	1	3	16	n/a	56	47	2	n/a	n/a	n/a	n/a	118.533	BF11HAS.jpg
87.13	0.514	Blank	Blank	19.316	n/a	1	3	16	n/a	56	n/a	2	n/a	n/a	n/a	n/a	119.031	n/a
87.66	0.497	happy	Picture	18.802	n/a	1	3	17	n/a	57	77	2	n/a	n/a	n/a	n/a	119.561	BM25HAS.jpg
88.158	0.514	Blank	Blank	18.288	n/a	1	3	17	n/a	57	n/a	2	n/a	n/a	n/a	n/a	120.058	n/a
88.688	0.497	happy	Picture	17.774	n/a	1	3	18	n/a	58	57	2	n/a	n/a	n/a	n/a	120.589	BF28HAS.jpg
89.186	0.514	Blank	Blank	17.26	n/a	1	3	18	n/a	58	n/a	2	n/a	n/a	n/a	n/a	121.086	n/a
89.716	0.497	happy	Picture	16.746	n/a	1	3	19	n/a	59	61	2	n/a	n/a	n/a	n/a	121.617	AM01HAS.jpg
90.214	0.514	Blank	Blank	16.232	n/a	1	3	19	n/a	59	n/a	2	n/a	n/a	n/a	n/a	122.114	n/a
90.744	0.497	happy	Picture	15.718	n/a	1	3	20	n/a	60	79	2	n/a	n/a	n/a	n/a	122.645	BM28HAS.jpg
91.241	0.514	Blank	Blank	15.204	n/a	1	3	20	n/a	60	n/a	2	n/a	n/a	n/a	n/a	123.142	n/a
91.772	10.014	ITI	Fixation+	5.174	n/a	1	n/a	n/a	n/a	n/a	n/a	n/a	n/a	n/a	n/a	n/a	123.673	n/a
106.959	n/a	ConfirmRating	Rate	n/a	5.156	1	n/a	n/a	0	n/a	n/a	n/a	2	Happy	58	58	138.86	n/a
117.512	n/a	ConfirmRating	Rate	n/a	10.528	1	n/a	n/a	1	n/a	n/a	n/a	3	Happy	15	15	149.413	n/a
117.535	10.014	ITI	Fixation+	97.352	n/a	2	n/a	n/a	n/a	n/a	n/a	n/a	n/a	n/a	n/a	n/a	149.436	n/a
127.566	0.497	angry	Picture	96.839	n/a	2	4	1	n/a	61	119	3	n/a	n/a	n/a	n/a	159.466	BM28ANS.jpg
128.063	0.514	Blank	Blank	96.325	n/a	2	4	1	n/a	61	n/a	3	n/a	n/a	n/a	n/a	159.964	n/a
128.594	0.497	angry	Picture	95.811	n/a	2	4	2	n/a	62	100	3	n/a	n/a	n/a	n/a	160.494	AF32ANS.jpg
129.091	0.514	Blank	Blank	95.297	n/a	2	4	2	n/a	62	n/a	3	n/a	n/a	n/a	n/a	160.992	n/a
129.621	0.497	angry	Picture	94.783	n/a	2	4	3	n/a	63	118	3	n/a	n/a	n/a	n/a	161.522	BM26ANS.jpg
130.119	0.514	Blank	Blank	94.269	n/a	2	4	3	n/a	63	n/a	3	n/a	n/a	n/a	n/a	162.019	n/a
130.649	0.497	angry	Picture	93.755	n/a	2	4	4	n/a	64	89	3	n/a	n/a	n/a	n/a	162.55	AF17ANS.jpg
131.147	0.514	Blank	Blank	93.241	n/a	2	4	4	n/a	64	n/a	3	n/a	n/a	n/a	n/a	163.047	n/a
131.677	0.497	angry	Picture	92.727	n/a	2	4	5	n/a	65	116	3	n/a	n/a	n/a	n/a	163.578	BM24ANS.jpg
132.174	0.514	Blank	Blank	92.213	n/a	2	4	5	n/a	65	n/a	3	n/a	n/a	n/a	n/a	164.075	n/a
132.705	0.497	angry	Picture	91.699	n/a	2	4	6	n/a	66	105	3	n/a	n/a	n/a	n/a	164.606	BM06ANS.jpg
133.202	0.514	Blank	Blank	91.185	n/a	2	4	6	n/a	66	n/a	3	n/a	n/a	n/a	n/a	165.103	n/a
133.733	0.497	angry	Picture	90.671	n/a	2	4	7	n/a	67	106	3	n/a	n/a	n/a	n/a	165.633	AM07ANS.jpg
134.23	0.514	Blank	Blank	90.157	n/a	2	4	7	n/a	67	n/a	3	n/a	n/a	n/a	n/a	166.131	n/a
134.761	0.497	angry	Picture	89.643	n/a	2	4	8	n/a	68	94	3	n/a	n/a	n/a	n/a	166.661	AF23ANS.jpg
135.258	0.514	Blank	Blank	89.129	n/a	2	4	8	n/a	68	n/a	3	n/a	n/a	n/a	n/a	167.159	n/a
135.789	0.497	angry	Picture	88.615	n/a	2	4	9	n/a	69	117	3	n/a	n/a	n/a	n/a	167.689	BM25ANS.jpg
136.286	0.514	Blank	Blank	88.101	n/a	2	4	9	n/a	69	n/a	3	n/a	n/a	n/a	n/a	168.187	n/a
136.817	0.497	angry	Picture	87.588	n/a	2	4	10	n/a	70	90	3	n/a	n/a	n/a	n/a	168.717	AF18ANS.jpg
137.314	0.514	Blank	Blank	87.074	n/a	2	4	10	n/a	70	n/a	3	n/a	n/a	n/a	n/a	169.215	n/a
137.845	0.497	angry	Picture	86.56	n/a	2	4	11	n/a	71	83	3	n/a	n/a	n/a	n/a	169.745	BF04ANS.jpg
138.342	0.514	Blank	Blank	86.046	n/a	2	4	11	n/a	71	n/a	3	n/a	n/a	n/a	n/a	170.242	n/a
138.872	0.497	angry	Picture	85.532	n/a	2	4	12	n/a	72	112	3	n/a	n/a	n/a	n/a	170.773	AM14ANS.jpg
139.37	0.514	Blank	Blank	85.018	n/a	2	4	12	n/a	72	n/a	3	n/a	n/a	n/a	n/a	171.27	n/a
139.9	0.497	angry	Picture	84.504	n/a	2	4	13	n/a	73	102	3	n/a	n/a	n/a	n/a	171.801	BM03ANS.jpg
140.398	0.514	Blank	Blank	83.99	n/a	2	4	13	n/a	73	n/a	3	n/a	n/a	n/a	n/a	172.298	n/a
140.928	0.497	angry	Picture	83.476	n/a	2	4	14	n/a	74	95	3	n/a	n/a	n/a	n/a	172.829	AF25ANS.jpg
141.425	0.514	Blank	Blank	82.962	n/a	2	4	14	n/a	74	n/a	3	n/a	n/a	n/a	n/a	173.326	n/a
141.956	0.497	angry	Picture	82.448	n/a	2	4	15	n/a	75	113	3	n/a	n/a	n/a	n/a	173.857	AM21ANS.jpg
142.453	0.514	Blank	Blank	81.934	n/a	2	4	15	n/a	75	n/a	3	n/a	n/a	n/a	n/a	174.354	n/a
142.984	0.497	angry	Picture	81.42	n/a	2	4	16	n/a	76	88	3	n/a	n/a	n/a	n/a	174.885	AF14ANS.jpg
143.481	0.514	Blank	Blank	80.906	n/a	2	4	16	n/a	76	n/a	3	n/a	n/a	n/a	n/a	175.382	n/a
144.012	0.497	angry	Picture	80.392	n/a	2	4	17	n/a	77	93	3	n/a	n/a	n/a	n/a	175.912	BF22ANS.jpg
144.509	0.514	Blank	Blank	79.878	n/a	2	4	17	n/a	77	n/a	3	n/a	n/a	n/a	n/a	176.41	n/a
145.04	0.497	angry	Picture	79.364	n/a	2	4	18	n/a	78	86	3	n/a	n/a	n/a	n/a	176.94	AF09ANS.jpg
145.537	0.514	Blank	Blank	78.85	n/a	2	4	18	n/a	78	n/a	3	n/a	n/a	n/a	n/a	177.438	n/a
146.068	0.497	angry	Picture	78.337	n/a	2	4	19	n/a	79	92	3	n/a	n/a	n/a	n/a	177.968	AF21ANS.jpg
146.565	0.514	Blank	Blank	77.823	n/a	2	4	19	n/a	79	n/a	3	n/a	n/a	n/a	n/a	178.465	n/a
147.095	0.497	angry	Picture	77.309	n/a	2	4	20	n/a	80	84	3	n/a	n/a	n/a	n/a	178.996	AF05ANS.jpg
147.593	0.514	Blank	Blank	76.795	n/a	2	4	20	n/a	80	n/a	3	n/a	n/a	n/a	n/a	179.493	n/a
148.123	10.014	ITI	Fixation+	66.765	n/a	2	n/a	n/a	n/a	n/a	n/a	n/a	n/a	n/a	n/a	n/a	180.024	n/a
158.154	0.497	neutral	Picture	66.251	n/a	2	5	1	n/a	81	4	1	n/a	n/a	n/a	n/a	190.054	AF05NES.jpg
158.651	0.514	Blank	Blank	65.737	n/a	2	5	1	n/a	81	n/a	1	n/a	n/a	n/a	n/a	190.552	n/a
159.181	0.497	neutral	Picture	65.223	n/a	2	5	2	n/a	82	14	1	n/a	n/a	n/a	n/a	191.082	AF23NES.jpg
159.679	0.514	Blank	Blank	64.709	n/a	2	5	2	n/a	82	n/a	1	n/a	n/a	n/a	n/a	191.579	n/a
160.209	0.497	neutral	Picture	64.195	n/a	2	5	3	n/a	83	19	1	n/a	n/a	n/a	n/a	192.11	AF31NES.jpg
160.707	0.514	Blank	Blank	63.681	n/a	2	5	3	n/a	83	n/a	1	n/a	n/a	n/a	n/a	192.607	n/a
161.237	0.497	neutral	Picture	63.167	n/a	2	5	4	n/a	84	8	1	n/a	n/a	n/a	n/a	193.138	AF14NES.jpg
161.734	0.514	Blank	Blank	62.653	n/a	2	5	4	n/a	84	n/a	1	n/a	n/a	n/a	n/a	193.635	n/a
162.265	0.497	neutral	Picture	62.139	n/a	2	5	5	n/a	85	25	1	n/a	n/a	n/a	n/a	194.166	BM06NES.jpg
162.762	0.514	Blank	Blank	61.625	n/a	2	5	5	n/a	85	n/a	1	n/a	n/a	n/a	n/a	194.663	n/a
163.293	0.497	neutral	Picture	61.111	n/a	2	5	6	n/a	86	9	1	n/a	n/a	n/a	n/a	195.194	AF17NES.jpg
163.79	0.514	Blank	Blank	60.597	n/a	2	5	6	n/a	86	n/a	1	n/a	n/a	n/a	n/a	195.691	n/a
164.321	0.497	neutral	Picture	60.083	n/a	2	5	7	n/a	87	2	1	n/a	n/a	n/a	n/a	196.221	AF03NES.jpg
164.818	0.514	Blank	Blank	59.569	n/a	2	5	7	n/a	87	n/a	1	n/a	n/a	n/a	n/a	196.719	n/a
165.349	0.497	neutral	Picture	59.055	n/a	2	5	8	n/a	88	17	1	n/a	n/a	n/a	n/a	197.249	BF28NES.jpg
165.846	0.514	Blank	Blank	58.541	n/a	2	5	8	n/a	88	n/a	1	n/a	n/a	n/a	n/a	197.747	n/a
166.377	0.497	neutral	Picture	58.028	n/a	2	5	9	n/a	89	6	1	n/a	n/a	n/a	n/a	198.277	AF09NES.jpg
166.874	0.514	Blank	Blank	57.514	n/a	2	5	9	n/a	89	n/a	1	n/a	n/a	n/a	n/a	198.775	n/a
167.405	0.497	neutral	Picture	57.0	n/a	2	5	10	n/a	90	12	1	n/a	n/a	n/a	n/a	199.305	AF21NES.jpg
167.902	0.514	Blank	Blank	56.486	n/a	2	5	10	n/a	90	n/a	1	n/a	n/a	n/a	n/a	199.802	n/a
168.432	0.497	neutral	Picture	55.972	n/a	2	5	11	n/a	91	24	1	n/a	n/a	n/a	n/a	200.333	BM05NES.jpg
168.93	0.514	Blank	Blank	55.458	n/a	2	5	11	n/a	91	n/a	1	n/a	n/a	n/a	n/a	200.83	n/a
169.46	0.497	neutral	Picture	54.944	n/a	2	5	12	n/a	92	34	1	n/a	n/a	n/a	n/a	201.361	AM22NES.jpg
169.958	0.514	Blank	Blank	54.43	n/a	2	5	12	n/a	92	n/a	1	n/a	n/a	n/a	n/a	201.858	n/a
170.488	0.497	neutral	Picture	53.916	n/a	2	5	13	n/a	93	23	1	n/a	n/a	n/a	n/a	202.389	AM04NES.jpg
170.986	0.514	Blank	Blank	53.402	n/a	2	5	13	n/a	93	n/a	1	n/a	n/a	n/a	n/a	202.886	n/a
171.516	0.497	neutral	Picture	52.888	n/a	2	5	14	n/a	94	15	1	n/a	n/a	n/a	n/a	203.417	AF25NES.jpg
172.013	0.514	Blank	Blank	52.374	n/a	2	5	14	n/a	94	n/a	1	n/a	n/a	n/a	n/a	203.914	n/a
172.544	0.497	neutral	Picture	51.86	n/a	2	5	15	n/a	95	37	1	n/a	n/a	n/a	n/a	204.445	BM25NES.jpg
173.041	0.514	Blank	Blank	51.346	n/a	2	5	15	n/a	95	n/a	1	n/a	n/a	n/a	n/a	204.942	n/a
173.572	0.497	neutral	Picture	50.832	n/a	2	5	16	n/a	96	32	1	n/a	n/a	n/a	n/a	205.472	AM14NES.jpg
174.069	0.514	Blank	Blank	50.318	n/a	2	5	16	n/a	96	n/a	1	n/a	n/a	n/a	n/a	205.97	n/a
174.6	0.497	neutral	Picture	49.804	n/a	2	5	17	n/a	97	3	1	n/a	n/a	n/a	n/a	206.5	BF04NES.jpg
175.097	0.514	Blank	Blank	49.29	n/a	2	5	17	n/a	97	n/a	1	n/a	n/a	n/a	n/a	206.998	n/a
175.628	0.497	neutral	Picture	48.777	n/a	2	5	18	n/a	98	16	1	n/a	n/a	n/a	n/a	207.528	AF26NES.jpg
176.125	0.514	Blank	Blank	48.263	n/a	2	5	18	n/a	98	n/a	1	n/a	n/a	n/a	n/a	208.025	n/a
176.655	0.497	neutral	Picture	47.749	n/a	2	5	19	n/a	99	27	1	n/a	n/a	n/a	n/a	208.556	BM08NES.jpg
177.153	0.514	Blank	Blank	47.235	n/a	2	5	19	n/a	99	n/a	1	n/a	n/a	n/a	n/a	209.053	n/a
177.683	0.497	neutral	Picture	46.721	n/a	2	5	20	n/a	100	28	1	n/a	n/a	n/a	n/a	209.584	AM09NES.jpg
178.181	0.514	Blank	Blank	46.207	n/a	2	5	20	n/a	100	n/a	1	n/a	n/a	n/a	n/a	210.081	n/a
178.711	10.014	ITI	Fixation+	36.177	n/a	2	n/a	n/a	n/a	n/a	n/a	n/a	n/a	n/a	n/a	n/a	210.612	n/a
188.741	0.497	angry	Picture	35.663	n/a	2	6	1	n/a	101	81	3	n/a	n/a	n/a	n/a	220.642	AF01ANS.jpg
189.239	0.514	Blank	Blank	35.149	n/a	2	6	1	n/a	101	n/a	3	n/a	n/a	n/a	n/a	221.139	n/a
189.769	0.497	angry	Picture	34.635	n/a	2	6	2	n/a	102	120	3	n/a	n/a	n/a	n/a	221.67	AM35ANS.jpg
190.267	0.514	Blank	Blank	34.121	n/a	2	6	2	n/a	102	n/a	3	n/a	n/a	n/a	n/a	222.167	n/a
190.797	0.497	angry	Picture	33.607	n/a	2	6	3	n/a	103	114	3	n/a	n/a	n/a	n/a	222.698	AM22ANS.jpg
191.294	0.514	Blank	Blank	33.093	n/a	2	6	3	n/a	103	n/a	3	n/a	n/a	n/a	n/a	223.195	n/a
191.825	0.497	angry	Picture	32.579	n/a	2	6	4	n/a	104	109	3	n/a	n/a	n/a	n/a	223.726	AM10ANS.jpg
192.322	0.514	Blank	Blank	32.065	n/a	2	6	4	n/a	104	n/a	3	n/a	n/a	n/a	n/a	224.223	n/a
192.853	0.497	angry	Picture	31.551	n/a	2	6	5	n/a	105	96	3	n/a	n/a	n/a	n/a	224.754	AF26ANS.jpg
193.35	0.514	Blank	Blank	31.037	n/a	2	6	5	n/a	105	n/a	3	n/a	n/a	n/a	n/a	225.251	n/a
193.881	0.497	angry	Picture	30.523	n/a	2	6	6	n/a	106	82	3	n/a	n/a	n/a	n/a	225.781	AF03ANS.jpg
194.378	0.514	Blank	Blank	30.009	n/a	2	6	6	n/a	106	n/a	3	n/a	n/a	n/a	n/a	226.279	n/a
194.909	0.497	angry	Picture	29.495	n/a	2	6	7	n/a	107	97	3	n/a	n/a	n/a	n/a	226.809	BF28ANS.jpg
195.406	0.514	Blank	Blank	28.981	n/a	2	6	7	n/a	107	n/a	3	n/a	n/a	n/a	n/a	227.307	n/a
195.937	0.497	angry	Picture	28.468	n/a	2	6	8	n/a	108	115	3	n/a	n/a	n/a	n/a	227.837	AM23ANS.jpg
196.434	0.514	Blank	Blank	27.954	n/a	2	6	8	n/a	108	n/a	3	n/a	n/a	n/a	n/a	228.335	n/a
196.965	0.497	angry	Picture	27.44	n/a	2	6	9	n/a	109	91	3	n/a	n/a	n/a	n/a	228.865	AF20ANS.jpg
197.462	0.514	Blank	Blank	26.926	n/a	2	6	9	n/a	109	n/a	3	n/a	n/a	n/a	n/a	229.363	n/a
197.992	0.497	angry	Picture	26.412	n/a	2	6	10	n/a	110	87	3	n/a	n/a	n/a	n/a	229.893	BF11ANS.jpg
198.49	0.514	Blank	Blank	25.898	n/a	2	6	10	n/a	110	n/a	3	n/a	n/a	n/a	n/a	230.39	n/a
199.02	0.497	angry	Picture	25.384	n/a	2	6	11	n/a	111	85	3	n/a	n/a	n/a	n/a	230.921	BF07ANS.jpg
199.518	0.514	Blank	Blank	24.87	n/a	2	6	11	n/a	111	n/a	3	n/a	n/a	n/a	n/a	231.418	n/a
200.048	0.497	angry	Picture	24.356	n/a	2	6	12	n/a	112	110	3	n/a	n/a	n/a	n/a	231.949	AM11ANS.jpg
200.546	0.514	Blank	Blank	23.842	n/a	2	6	12	n/a	112	n/a	3	n/a	n/a	n/a	n/a	232.446	n/a
201.076	0.497	angry	Picture	23.328	n/a	2	6	13	n/a	113	111	3	n/a	n/a	n/a	n/a	232.977	BM12ANS.jpg
201.573	0.514	Blank	Blank	22.814	n/a	2	6	13	n/a	113	n/a	3	n/a	n/a	n/a	n/a	233.474	n/a
202.104	0.497	angry	Picture	22.3	n/a	2	6	14	n/a	114	103	3	n/a	n/a	n/a	n/a	234.005	AM04ANS.jpg
202.601	0.514	Blank	Blank	21.786	n/a	2	6	14	n/a	114	n/a	3	n/a	n/a	n/a	n/a	234.502	n/a
203.132	0.497	angry	Picture	21.272	n/a	2	6	15	n/a	115	101	3	n/a	n/a	n/a	n/a	235.032	AM01ANS.jpg
203.629	0.514	Blank	Blank	20.758	n/a	2	6	15	n/a	115	n/a	3	n/a	n/a	n/a	n/a	235.53	n/a
204.16	0.497	angry	Picture	20.244	n/a	2	6	16	n/a	116	104	3	n/a	n/a	n/a	n/a	236.06	BM05ANS.jpg
204.657	0.514	Blank	Blank	19.73	n/a	2	6	16	n/a	116	n/a	3	n/a	n/a	n/a	n/a	236.558	n/a
205.188	0.497	angry	Picture	19.216	n/a	2	6	17	n/a	117	107	3	n/a	n/a	n/a	n/a	237.088	BM08ANS.jpg
205.685	0.514	Blank	Blank	18.703	n/a	2	6	17	n/a	117	n/a	3	n/a	n/a	n/a	n/a	237.586	n/a
206.215	0.497	angry	Picture	18.189	n/a	2	6	18	n/a	118	98	3	n/a	n/a	n/a	n/a	238.116	BF29ANS.jpg
206.713	0.514	Blank	Blank	17.675	n/a	2	6	18	n/a	118	n/a	3	n/a	n/a	n/a	n/a	238.613	n/a
207.243	0.497	angry	Picture	17.161	n/a	2	6	19	n/a	119	99	3	n/a	n/a	n/a	n/a	239.144	AF31ANS.jpg
207.741	0.514	Blank	Blank	16.647	n/a	2	6	19	n/a	119	n/a	3	n/a	n/a	n/a	n/a	239.641	n/a
208.271	0.497	angry	Picture	16.133	n/a	2	6	20	n/a	120	108	3	n/a	n/a	n/a	n/a	240.172	AM09ANS.jpg
208.769	0.514	Blank	Blank	15.619	n/a	2	6	20	n/a	120	n/a	3	n/a	n/a	n/a	n/a	240.669	n/a
209.299	10.014	ITI	Fixation+	5.589	n/a	2	n/a	n/a	n/a	n/a	n/a	n/a	n/a	n/a	n/a	n/a	241.2	n/a
224.901	n/a	ConfirmRating	Rate	n/a	5.588	2	n/a	n/a	0	n/a	n/a	n/a	2	Angry	57	57	256.802	n/a
233.747	n/a	ConfirmRating	Rate	n/a	8.82	2	n/a	n/a	1	n/a	n/a	n/a	3	Angry	16	16	265.648	n/a
233.769	15.004	Rest	Picture	n/a	n/a	n/a	n/a	n/a	n/a	n/a	n/a	n/a	0	n/a	0	0	265.67	n/a
248.79	10.014	ITI	Fixation+	97.676	n/a	3	n/a	n/a	n/a	n/a	n/a	n/a	n/a	n/a	n/a	n/a	280.69	n/a
258.82	0.497	happy	Picture	97.162	n/a	3	7	1	n/a	1	46	2	n/a	n/a	n/a	n/a	290.721	AF09HAS.jpg
259.317	0.514	Blank	Blank	96.648	n/a	3	7	1	n/a	1	n/a	2	n/a	n/a	n/a	n/a	291.218	n/a
259.848	0.497	happy	Picture	96.134	n/a	3	7	2	n/a	2	69	2	n/a	n/a	n/a	n/a	291.748	AM10HAS.jpg
260.345	0.514	Blank	Blank	95.62	n/a	3	7	2	n/a	2	n/a	2	n/a	n/a	n/a	n/a	292.246	n/a
260.876	0.497	happy	Picture	95.106	n/a	3	7	3	n/a	3	71	2	n/a	n/a	n/a	n/a	292.776	BM12HAS.jpg
261.373	0.514	Blank	Blank	94.593	n/a	3	7	3	n/a	3	n/a	2	n/a	n/a	n/a	n/a	293.274	n/a
261.904	0.497	happy	Picture	94.079	n/a	3	7	4	n/a	4	51	2	n/a	n/a	n/a	n/a	293.804	AF20HAS.jpg
262.401	0.514	Blank	Blank	93.565	n/a	3	7	4	n/a	4	n/a	2	n/a	n/a	n/a	n/a	294.302	n/a
262.932	0.497	happy	Picture	93.051	n/a	3	7	5	n/a	5	67	2	n/a	n/a	n/a	n/a	294.832	BM08HAS.jpg
263.429	0.514	Blank	Blank	92.537	n/a	3	7	5	n/a	5	n/a	2	n/a	n/a	n/a	n/a	295.329	n/a
263.959	0.497	happy	Picture	92.023	n/a	3	7	6	n/a	6	60	2	n/a	n/a	n/a	n/a	295.86	AF32HAS.jpg
264.457	0.514	Blank	Blank	91.509	n/a	3	7	6	n/a	6	n/a	2	n/a	n/a	n/a	n/a	296.357	n/a
264.987	0.497	happy	Picture	90.995	n/a	3	7	7	n/a	7	42	2	n/a	n/a	n/a	n/a	296.888	AF03HAS.jpg
265.485	0.514	Blank	Blank	90.481	n/a	3	7	7	n/a	7	n/a	2	n/a	n/a	n/a	n/a	297.385	n/a
266.015	0.497	happy	Picture	89.967	n/a	3	7	8	n/a	8	55	2	n/a	n/a	n/a	n/a	297.916	AF25HAS.jpg
266.513	0.514	Blank	Blank	89.453	n/a	3	7	8	n/a	8	n/a	2	n/a	n/a	n/a	n/a	298.413	n/a
267.043	0.497	happy	Picture	88.939	n/a	3	7	9	n/a	9	72	2	n/a	n/a	n/a	n/a	298.944	AM14HAS.jpg
267.541	0.514	Blank	Blank	88.425	n/a	3	7	9	n/a	9	n/a	2	n/a	n/a	n/a	n/a	299.441	n/a
268.071	0.497	happy	Picture	87.911	n/a	3	7	10	n/a	10	63	2	n/a	n/a	n/a	n/a	299.972	AM04HAS.jpg
268.568	0.514	Blank	Blank	87.397	n/a	3	7	10	n/a	10	n/a	2	n/a	n/a	n/a	n/a	300.469	n/a
269.099	0.497	happy	Picture	86.883	n/a	3	7	11	n/a	11	58	2	n/a	n/a	n/a	n/a	301.0	BF29HAS.jpg
269.596	0.514	Blank	Blank	86.37	n/a	3	7	11	n/a	11	n/a	2	n/a	n/a	n/a	n/a	301.497	n/a
270.127	0.497	happy	Picture	85.856	n/a	3	7	12	n/a	12	48	2	n/a	n/a	n/a	n/a	302.027	AF14HAS.jpg
270.624	0.514	Blank	Blank	85.342	n/a	3	7	12	n/a	12	n/a	2	n/a	n/a	n/a	n/a	302.525	n/a
271.155	0.497	happy	Picture	84.828	n/a	3	7	13	n/a	13	66	2	n/a	n/a	n/a	n/a	303.055	BM07HAS.jpg
271.652	0.514	Blank	Blank	84.314	n/a	3	7	13	n/a	13	n/a	2	n/a	n/a	n/a	n/a	303.553	n/a
272.183	0.497	happy	Picture	83.8	n/a	3	7	14	n/a	14	70	2	n/a	n/a	n/a	n/a	304.083	BM11HAS.jpg
272.68	0.514	Blank	Blank	83.286	n/a	3	7	14	n/a	14	n/a	2	n/a	n/a	n/a	n/a	304.58	n/a
273.21	0.497	happy	Picture	82.772	n/a	3	7	15	n/a	15	43	2	n/a	n/a	n/a	n/a	305.111	BF04HAS.jpg
273.708	0.514	Blank	Blank	82.258	n/a	3	7	15	n/a	15	n/a	2	n/a	n/a	n/a	n/a	305.608	n/a
274.238	0.497	happy	Picture	81.744	n/a	3	7	16	n/a	16	49	2	n/a	n/a	n/a	n/a	306.139	AF17HAS.jpg
274.736	0.514	Blank	Blank	81.23	n/a	3	7	16	n/a	16	n/a	2	n/a	n/a	n/a	n/a	306.636	n/a
275.266	0.497	happy	Picture	80.716	n/a	3	7	17	n/a	17	75	2	n/a	n/a	n/a	n/a	307.167	AM23HAS.jpg
275.764	0.514	Blank	Blank	80.202	n/a	3	7	17	n/a	17	n/a	2	n/a	n/a	n/a	n/a	307.664	n/a
276.294	0.497	happy	Picture	79.688	n/a	3	7	18	n/a	18	80	2	n/a	n/a	n/a	n/a	308.195	BM35HAS.jpg
276.791	0.514	Blank	Blank	79.174	n/a	3	7	18	n/a	18	n/a	2	n/a	n/a	n/a	n/a	308.692	n/a
277.322	0.497	happy	Picture	78.66	n/a	3	7	19	n/a	19	76	2	n/a	n/a	n/a	n/a	309.223	BM24HAS.jpg
277.819	0.514	Blank	Blank	78.146	n/a	3	7	19	n/a	19	n/a	2	n/a	n/a	n/a	n/a	309.72	n/a
278.35	0.497	happy	Picture	77.632	n/a	3	7	20	n/a	20	74	2	n/a	n/a	n/a	n/a	310.25	AM22HAS.jpg
278.847	0.514	Blank	Blank	77.118	n/a	3	7	20	n/a	20	n/a	2	n/a	n/a	n/a	n/a	310.748	n/a
279.378	10.014	ITI	Fixation+	67.088	n/a	3	n/a	n/a	n/a	n/a	n/a	n/a	n/a	n/a	n/a	n/a	311.278	n/a
289.408	0.497	neutral	Picture	66.574	n/a	3	8	1	n/a	21	33	1	n/a	n/a	n/a	n/a	321.308	AM21NES.jpg
289.905	0.514	Blank	Blank	66.06	n/a	3	8	1	n/a	21	n/a	1	n/a	n/a	n/a	n/a	321.806	n/a
290.436	0.497	neutral	Picture	65.546	n/a	3	8	2	n/a	22	39	1	n/a	n/a	n/a	n/a	322.336	AM28NES.jpg
290.933	0.514	Blank	Blank	65.033	n/a	3	8	2	n/a	22	n/a	1	n/a	n/a	n/a	n/a	322.834	n/a
291.464	0.497	neutral	Picture	64.519	n/a	3	8	3	n/a	23	25	1	n/a	n/a	n/a	n/a	323.364	BM06NES.jpg
291.961	0.514	Blank	Blank	64.005	n/a	3	8	3	n/a	23	n/a	1	n/a	n/a	n/a	n/a	323.862	n/a
292.492	0.497	neutral	Picture	63.491	n/a	3	8	4	n/a	24	5	1	n/a	n/a	n/a	n/a	324.392	BF07NES.jpg
292.989	0.514	Blank	Blank	62.977	n/a	3	8	4	n/a	24	n/a	1	n/a	n/a	n/a	n/a	324.89	n/a
293.519	0.497	neutral	Picture	62.463	n/a	3	8	5	n/a	25	10	1	n/a	n/a	n/a	n/a	325.42	AF18NES.jpg
294.017	0.514	Blank	Blank	61.949	n/a	3	8	5	n/a	25	n/a	1	n/a	n/a	n/a	n/a	325.917	n/a
294.547	0.497	neutral	Picture	61.435	n/a	3	8	6	n/a	26	34	1	n/a	n/a	n/a	n/a	326.448	AM22NES.jpg
295.045	0.514	Blank	Blank	60.921	n/a	3	8	6	n/a	26	n/a	1	n/a	n/a	n/a	n/a	326.945	n/a
295.575	0.497	neutral	Picture	60.407	n/a	3	8	7	n/a	27	36	1	n/a	n/a	n/a	n/a	327.476	BM24NES.jpg
296.073	0.514	Blank	Blank	59.893	n/a	3	8	7	n/a	27	n/a	1	n/a	n/a	n/a	n/a	327.973	n/a
296.603	0.497	neutral	Picture	59.379	n/a	3	8	8	n/a	28	14	1	n/a	n/a	n/a	n/a	328.504	AF23NES.jpg
297.101	0.514	Blank	Blank	58.865	n/a	3	8	8	n/a	28	n/a	1	n/a	n/a	n/a	n/a	329.001	n/a
297.631	0.497	neutral	Picture	58.351	n/a	3	8	9	n/a	29	9	1	n/a	n/a	n/a	n/a	329.532	AF17NES.jpg
298.128	0.514	Blank	Blank	57.837	n/a	3	8	9	n/a	29	n/a	1	n/a	n/a	n/a	n/a	330.029	n/a
298.659	0.497	neutral	Picture	57.323	n/a	3	8	10	n/a	30	19	1	n/a	n/a	n/a	n/a	330.56	AF31NES.jpg
299.156	0.514	Blank	Blank	56.81	n/a	3	8	10	n/a	30	n/a	1	n/a	n/a	n/a	n/a	331.057	n/a
299.687	0.497	neutral	Picture	56.295	n/a	3	8	11	n/a	31	15	1	n/a	n/a	n/a	n/a	331.587	AF25NES.jpg
300.184	0.514	Blank	Blank	55.782	n/a	3	8	11	n/a	31	n/a	1	n/a	n/a	n/a	n/a	332.085	n/a
300.715	0.497	neutral	Picture	55.268	n/a	3	8	12	n/a	32	22	1	n/a	n/a	n/a	n/a	332.615	BM03NES.jpg
301.212	0.514	Blank	Blank	54.754	n/a	3	8	12	n/a	32	n/a	1	n/a	n/a	n/a	n/a	333.113	n/a
301.743	0.497	neutral	Picture	54.24	n/a	3	8	13	n/a	33	11	1	n/a	n/a	n/a	n/a	333.643	AF20NES.jpg
302.24	0.514	Blank	Blank	53.726	n/a	3	8	13	n/a	33	n/a	1	n/a	n/a	n/a	n/a	334.14	n/a
302.77	0.497	neutral	Picture	53.212	n/a	3	8	14	n/a	34	4	1	n/a	n/a	n/a	n/a	334.671	AF05NES.jpg
303.268	0.514	Blank	Blank	52.698	n/a	3	8	14	n/a	34	n/a	1	n/a	n/a	n/a	n/a	335.168	n/a
303.798	0.497	neutral	Picture	52.184	n/a	3	8	15	n/a	35	17	1	n/a	n/a	n/a	n/a	335.699	BF28NES.jpg
304.296	0.514	Blank	Blank	51.67	n/a	3	8	15	n/a	35	n/a	1	n/a	n/a	n/a	n/a	336.196	n/a
304.826	0.497	neutral	Picture	51.156	n/a	3	8	16	n/a	36	13	1	n/a	n/a	n/a	n/a	336.727	BF22NES.jpg
305.324	0.514	Blank	Blank	50.642	n/a	3	8	16	n/a	36	n/a	1	n/a	n/a	n/a	n/a	337.224	n/a
305.854	0.497	neutral	Picture	50.128	n/a	3	8	17	n/a	37	12	1	n/a	n/a	n/a	n/a	337.755	AF21NES.jpg
306.351	0.514	Blank	Blank	49.614	n/a	3	8	17	n/a	37	n/a	1	n/a	n/a	n/a	n/a	338.252	n/a
306.882	0.497	neutral	Picture	49.1	n/a	3	8	18	n/a	38	24	1	n/a	n/a	n/a	n/a	338.783	BM05NES.jpg
307.379	0.514	Blank	Blank	48.586	n/a	3	8	18	n/a	38	n/a	1	n/a	n/a	n/a	n/a	339.28	n/a
307.91	0.497	neutral	Picture	48.072	n/a	3	8	19	n/a	39	29	1	n/a	n/a	n/a	n/a	339.81	AM10NES.jpg
308.407	0.514	Blank	Blank	47.558	n/a	3	8	19	n/a	39	n/a	1	n/a	n/a	n/a	n/a	340.308	n/a
308.938	0.497	neutral	Picture	47.045	n/a	3	8	20	n/a	40	23	1	n/a	n/a	n/a	n/a	340.838	AM04NES.jpg
309.435	0.514	Blank	Blank	46.531	n/a	3	8	20	n/a	40	n/a	1	n/a	n/a	n/a	n/a	341.336	n/a
309.966	10.014	ITI	Fixation+	36.5	n/a	3	n/a	n/a	n/a	n/a	n/a	n/a	n/a	n/a	n/a	n/a	341.866	n/a
319.996	0.497	happy	Picture	35.986	n/a	3	9	1	n/a	41	62	2	n/a	n/a	n/a	n/a	351.896	BM03HAS.jpg
320.493	0.514	Blank	Blank	35.473	n/a	3	9	1	n/a	41	n/a	2	n/a	n/a	n/a	n/a	352.394	n/a
321.024	0.497	happy	Picture	34.959	n/a	3	9	2	n/a	42	52	2	n/a	n/a	n/a	n/a	352.924	AF21HAS.jpg
321.521	0.514	Blank	Blank	34.445	n/a	3	9	2	n/a	42	n/a	2	n/a	n/a	n/a	n/a	353.422	n/a
322.052	0.497	happy	Picture	33.931	n/a	3	9	3	n/a	43	44	2	n/a	n/a	n/a	n/a	353.952	AF05HAS.jpg
322.549	0.514	Blank	Blank	33.417	n/a	3	9	3	n/a	43	n/a	2	n/a	n/a	n/a	n/a	354.45	n/a
323.079	0.497	happy	Picture	32.903	n/a	3	9	4	n/a	44	53	2	n/a	n/a	n/a	n/a	354.98	BF22HAS.jpg
323.577	0.514	Blank	Blank	32.389	n/a	3	9	4	n/a	44	n/a	2	n/a	n/a	n/a	n/a	355.478	n/a
324.107	0.497	happy	Picture	31.875	n/a	3	9	5	n/a	45	54	2	n/a	n/a	n/a	n/a	356.008	AF23HAS.jpg
324.605	0.514	Blank	Blank	31.361	n/a	3	9	5	n/a	45	n/a	2	n/a	n/a	n/a	n/a	356.505	n/a
325.135	0.497	happy	Picture	30.847	n/a	3	9	6	n/a	46	68	2	n/a	n/a	n/a	n/a	357.036	AM09HAS.jpg
325.633	0.514	Blank	Blank	30.333	n/a	3	9	6	n/a	46	n/a	2	n/a	n/a	n/a	n/a	357.533	n/a
326.163	0.497	happy	Picture	29.819	n/a	3	9	7	n/a	47	64	2	n/a	n/a	n/a	n/a	358.064	BM05HAS.jpg
326.661	0.514	Blank	Blank	29.305	n/a	3	9	7	n/a	47	n/a	2	n/a	n/a	n/a	n/a	358.561	n/a
327.191	0.497	happy	Picture	28.791	n/a	3	9	8	n/a	48	59	2	n/a	n/a	n/a	n/a	359.092	AF31HAS.jpg
327.688	0.514	Blank	Blank	28.277	n/a	3	9	8	n/a	48	n/a	2	n/a	n/a	n/a	n/a	359.589	n/a
328.219	0.497	happy	Picture	27.763	n/a	3	9	9	n/a	49	41	2	n/a	n/a	n/a	n/a	360.12	AF01HAS.jpg
328.716	0.514	Blank	Blank	27.25	n/a	3	9	9	n/a	49	n/a	2	n/a	n/a	n/a	n/a	360.617	n/a
329.247	0.497	happy	Picture	26.735	n/a	3	9	10	n/a	50	73	2	n/a	n/a	n/a	n/a	361.147	AM21HAS.jpg
329.744	0.514	Blank	Blank	26.222	n/a	3	9	10	n/a	50	n/a	2	n/a	n/a	n/a	n/a	361.645	n/a
330.275	0.497	happy	Picture	25.708	n/a	3	9	11	n/a	51	65	2	n/a	n/a	n/a	n/a	362.175	BM06HAS.jpg
330.772	0.514	Blank	Blank	25.194	n/a	3	9	11	n/a	51	n/a	2	n/a	n/a	n/a	n/a	362.673	n/a
331.303	0.497	happy	Picture	24.68	n/a	3	9	12	n/a	52	56	2	n/a	n/a	n/a	n/a	363.203	AF26HAS.jpg
331.8	0.514	Blank	Blank	24.166	n/a	3	9	12	n/a	52	n/a	2	n/a	n/a	n/a	n/a	363.7	n/a
332.331	0.497	happy	Picture	23.652	n/a	3	9	13	n/a	53	45	2	n/a	n/a	n/a	n/a	364.231	BF07HAS.jpg
332.828	0.514	Blank	Blank	23.138	n/a	3	9	13	n/a	53	n/a	2	n/a	n/a	n/a	n/a	364.728	n/a
333.358	0.497	happy	Picture	22.624	n/a	3	9	14	n/a	54	78	2	n/a	n/a	n/a	n/a	365.259	BM26HAS.jpg
333.856	0.514	Blank	Blank	22.11	n/a	3	9	14	n/a	54	n/a	2	n/a	n/a	n/a	n/a	365.756	n/a
334.386	0.497	happy	Picture	21.596	n/a	3	9	15	n/a	55	50	2	n/a	n/a	n/a	n/a	366.287	AF18HAS.jpg
334.884	0.514	Blank	Blank	21.082	n/a	3	9	15	n/a	55	n/a	2	n/a	n/a	n/a	n/a	366.784	n/a
335.414	0.497	happy	Picture	20.568	n/a	3	9	16	n/a	56	47	2	n/a	n/a	n/a	n/a	367.315	BF11HAS.jpg
335.911	0.514	Blank	Blank	20.054	n/a	3	9	16	n/a	56	n/a	2	n/a	n/a	n/a	n/a	367.812	n/a
336.442	0.497	happy	Picture	19.54	n/a	3	9	17	n/a	57	77	2	n/a	n/a	n/a	n/a	368.343	BM25HAS.jpg
336.939	0.514	Blank	Blank	19.026	n/a	3	9	17	n/a	57	n/a	2	n/a	n/a	n/a	n/a	368.84	n/a
337.47	0.497	happy	Picture	18.512	n/a	3	9	18	n/a	58	57	2	n/a	n/a	n/a	n/a	369.37	BF28HAS.jpg
337.967	0.514	Blank	Blank	17.998	n/a	3	9	18	n/a	58	n/a	2	n/a	n/a	n/a	n/a	369.868	n/a
338.498	0.497	happy	Picture	17.485	n/a	3	9	19	n/a	59	61	2	n/a	n/a	n/a	n/a	370.398	AM01HAS.jpg
338.995	0.514	Blank	Blank	16.971	n/a	3	9	19	n/a	59	n/a	2	n/a	n/a	n/a	n/a	370.896	n/a
339.526	0.497	happy	Picture	16.457	n/a	3	9	20	n/a	60	79	2	n/a	n/a	n/a	n/a	371.426	BM28HAS.jpg
340.023	0.514	Blank	Blank	15.943	n/a	3	9	20	n/a	60	n/a	2	n/a	n/a	n/a	n/a	371.924	n/a
340.554	10.014	ITI	Fixation+	5.912	n/a	3	n/a	n/a	n/a	n/a	n/a	n/a	n/a	n/a	n/a	n/a	372.454	n/a
356.48	n/a	ConfirmRating	Rate	n/a	5.902	3	n/a	n/a	0	n/a	n/a	n/a	2	Happy	46	46	388.38	n/a
362.44	n/a	ConfirmRating	Rate	n/a	5.951	3	n/a	n/a	1	n/a	n/a	n/a	3	Happy	26	26	394.341	n/a
362.471	10.014	ITI	Fixation+	97.378	n/a	4	n/a	n/a	n/a	n/a	n/a	n/a	n/a	n/a	n/a	n/a	394.371	n/a
372.501	0.497	angry	Picture	96.864	n/a	4	10	1	n/a	61	119	3	n/a	n/a	n/a	n/a	404.401	BM28ANS.jpg
372.998	0.514	Blank	Blank	96.35	n/a	4	10	1	n/a	61	n/a	3	n/a	n/a	n/a	n/a	404.899	n/a
373.529	0.497	angry	Picture	95.836	n/a	4	10	2	n/a	62	100	3	n/a	n/a	n/a	n/a	405.429	AF32ANS.jpg
374.026	0.514	Blank	Blank	95.322	n/a	4	10	2	n/a	62	n/a	3	n/a	n/a	n/a	n/a	405.927	n/a
374.557	0.497	angry	Picture	94.808	n/a	4	10	3	n/a	63	118	3	n/a	n/a	n/a	n/a	406.457	BM26ANS.jpg
375.054	0.514	Blank	Blank	94.294	n/a	4	10	3	n/a	63	n/a	3	n/a	n/a	n/a	n/a	406.955	n/a
375.585	0.497	angry	Picture	93.78	n/a	4	10	4	n/a	64	89	3	n/a	n/a	n/a	n/a	407.485	AF17ANS.jpg
376.082	0.514	Blank	Blank	93.266	n/a	4	10	4	n/a	64	n/a	3	n/a	n/a	n/a	n/a	407.983	n/a
376.613	0.497	angry	Picture	92.752	n/a	4	10	5	n/a	65	116	3	n/a	n/a	n/a	n/a	408.513	BM24ANS.jpg
377.11	0.514	Blank	Blank	92.238	n/a	4	10	5	n/a	65	n/a	3	n/a	n/a	n/a	n/a	409.01	n/a
377.64	0.497	angry	Picture	91.724	n/a	4	10	6	n/a	66	105	3	n/a	n/a	n/a	n/a	409.541	BM06ANS.jpg
378.138	0.514	Blank	Blank	91.21	n/a	4	10	6	n/a	66	n/a	3	n/a	n/a	n/a	n/a	410.038	n/a
378.668	0.497	angry	Picture	90.696	n/a	4	10	7	n/a	67	106	3	n/a	n/a	n/a	n/a	410.569	AM07ANS.jpg
379.166	0.514	Blank	Blank	90.183	n/a	4	10	7	n/a	67	n/a	3	n/a	n/a	n/a	n/a	411.066	n/a
379.696	0.497	angry	Picture	89.668	n/a	4	10	8	n/a	68	94	3	n/a	n/a	n/a	n/a	411.597	AF23ANS.jpg
380.194	0.514	Blank	Blank	89.155	n/a	4	10	8	n/a	68	n/a	3	n/a	n/a	n/a	n/a	412.094	n/a
380.724	0.497	angry	Picture	88.641	n/a	4	10	9	n/a	69	117	3	n/a	n/a	n/a	n/a	412.625	BM25ANS.jpg
381.221	0.514	Blank	Blank	88.127	n/a	4	10	9	n/a	69	n/a	3	n/a	n/a	n/a	n/a	413.122	n/a
381.752	0.497	angry	Picture	87.613	n/a	4	10	10	n/a	70	90	3	n/a	n/a	n/a	n/a	413.652	AF18ANS.jpg
382.249	0.514	Blank	Blank	87.099	n/a	4	10	10	n/a	70	n/a	3	n/a	n/a	n/a	n/a	414.15	n/a
382.78	0.497	angry	Picture	86.585	n/a	4	10	11	n/a	71	83	3	n/a	n/a	n/a	n/a	414.68	BF04ANS.jpg
383.277	0.514	Blank	Blank	86.071	n/a	4	10	11	n/a	71	n/a	3	n/a	n/a	n/a	n/a	415.178	n/a
383.808	0.497	angry	Picture	85.557	n/a	4	10	12	n/a	72	112	3	n/a	n/a	n/a	n/a	415.708	AM14ANS.jpg
384.305	0.514	Blank	Blank	85.043	n/a	4	10	12	n/a	72	n/a	3	n/a	n/a	n/a	n/a	416.206	n/a
384.836	0.497	angry	Picture	84.529	n/a	4	10	13	n/a	73	102	3	n/a	n/a	n/a	n/a	416.736	BM03ANS.jpg
385.333	0.514	Blank	Blank	84.015	n/a	4	10	13	n/a	73	n/a	3	n/a	n/a	n/a	n/a	417.233	n/a
385.863	0.497	angry	Picture	83.501	n/a	4	10	14	n/a	74	95	3	n/a	n/a	n/a	n/a	417.764	AF25ANS.jpg
386.361	0.514	Blank	Blank	82.987	n/a	4	10	14	n/a	74	n/a	3	n/a	n/a	n/a	n/a	418.261	n/a
386.891	0.497	angry	Picture	82.473	n/a	4	10	15	n/a	75	113	3	n/a	n/a	n/a	n/a	418.792	AM21ANS.jpg
387.389	0.514	Blank	Blank	81.959	n/a	4	10	15	n/a	75	n/a	3	n/a	n/a	n/a	n/a	419.289	n/a
387.919	0.497	angry	Picture	81.445	n/a	4	10	16	n/a	76	88	3	n/a	n/a	n/a	n/a	419.82	AF14ANS.jpg
388.417	0.514	Blank	Blank	80.932	n/a	4	10	16	n/a	76	n/a	3	n/a	n/a	n/a	n/a	420.317	n/a
388.947	0.497	angry	Picture	80.418	n/a	4	10	17	n/a	77	93	3	n/a	n/a	n/a	n/a	420.848	BF22ANS.jpg
389.445	0.514	Blank	Blank	79.904	n/a	4	10	17	n/a	77	n/a	3	n/a	n/a	n/a	n/a	421.345	n/a
389.975	0.497	angry	Picture	79.39	n/a	4	10	18	n/a	78	86	3	n/a	n/a	n/a	n/a	421.876	AF09ANS.jpg
390.472	0.514	Blank	Blank	78.876	n/a	4	10	18	n/a	78	n/a	3	n/a	n/a	n/a	n/a	422.373	n/a
391.003	0.497	angry	Picture	78.362	n/a	4	10	19	n/a	79	92	3	n/a	n/a	n/a	n/a	422.904	AF21ANS.jpg
391.5	0.514	Blank	Blank	77.848	n/a	4	10	19	n/a	79	n/a	3	n/a	n/a	n/a	n/a	423.401	n/a
392.031	0.497	angry	Picture	77.334	n/a	4	10	20	n/a	80	84	3	n/a	n/a	n/a	n/a	423.931	AF05ANS.jpg
392.528	0.514	Blank	Blank	76.82	n/a	4	10	20	n/a	80	n/a	3	n/a	n/a	n/a	n/a	424.429	n/a
393.059	10.014	ITI	Fixation+	66.79	n/a	4	n/a	n/a	n/a	n/a	n/a	n/a	n/a	n/a	n/a	n/a	424.959	n/a
403.089	0.497	neutral	Picture	66.276	n/a	4	11	1	n/a	81	4	1	n/a	n/a	n/a	n/a	434.989	AF05NES.jpg
403.586	0.514	Blank	Blank	65.762	n/a	4	11	1	n/a	81	n/a	1	n/a	n/a	n/a	n/a	435.487	n/a
404.117	0.497	neutral	Picture	65.248	n/a	4	11	2	n/a	82	14	1	n/a	n/a	n/a	n/a	436.017	AF23NES.jpg
404.614	0.514	Blank	Blank	64.734	n/a	4	11	2	n/a	82	n/a	1	n/a	n/a	n/a	n/a	436.515	n/a
405.145	0.497	neutral	Picture	64.22	n/a	4	11	3	n/a	83	19	1	n/a	n/a	n/a	n/a	437.045	AF31NES.jpg
405.642	0.514	Blank	Blank	63.706	n/a	4	11	3	n/a	83	n/a	1	n/a	n/a	n/a	n/a	437.543	n/a
406.173	0.497	neutral	Picture	63.192	n/a	4	11	4	n/a	84	8	1	n/a	n/a	n/a	n/a	438.073	AF14NES.jpg
406.67	0.514	Blank	Blank	62.678	n/a	4	11	4	n/a	84	n/a	1	n/a	n/a	n/a	n/a	438.57	n/a
407.2	0.497	neutral	Picture	62.164	n/a	4	11	5	n/a	85	25	1	n/a	n/a	n/a	n/a	439.101	BM06NES.jpg
407.698	0.514	Blank	Blank	61.65	n/a	4	11	5	n/a	85	n/a	1	n/a	n/a	n/a	n/a	439.598	n/a
408.228	0.497	neutral	Picture	61.136	n/a	4	11	6	n/a	86	9	1	n/a	n/a	n/a	n/a	440.129	AF17NES.jpg
408.726	0.514	Blank	Blank	60.622	n/a	4	11	6	n/a	86	n/a	1	n/a	n/a	n/a	n/a	440.626	n/a
409.256	0.497	neutral	Picture	60.108	n/a	4	11	7	n/a	87	2	1	n/a	n/a	n/a	n/a	441.157	AF03NES.jpg
409.754	0.514	Blank	Blank	59.595	n/a	4	11	7	n/a	87	n/a	1	n/a	n/a	n/a	n/a	441.654	n/a
410.284	0.497	neutral	Picture	59.081	n/a	4	11	8	n/a	88	17	1	n/a	n/a	n/a	n/a	442.185	BF28NES.jpg
410.781	0.514	Blank	Blank	58.567	n/a	4	11	8	n/a	88	n/a	1	n/a	n/a	n/a	n/a	442.682	n/a
411.312	0.497	neutral	Picture	58.053	n/a	4	11	9	n/a	89	6	1	n/a	n/a	n/a	n/a	443.212	AF09NES.jpg
411.809	0.514	Blank	Blank	57.539	n/a	4	11	9	n/a	89	n/a	1	n/a	n/a	n/a	n/a	443.71	n/a
412.34	0.497	neutral	Picture	57.025	n/a	4	11	10	n/a	90	12	1	n/a	n/a	n/a	n/a	444.24	AF21NES.jpg
412.837	0.514	Blank	Blank	56.511	n/a	4	11	10	n/a	90	n/a	1	n/a	n/a	n/a	n/a	444.738	n/a
413.368	0.497	neutral	Picture	55.997	n/a	4	11	11	n/a	91	24	1	n/a	n/a	n/a	n/a	445.268	BM05NES.jpg
413.865	0.514	Blank	Blank	55.483	n/a	4	11	11	n/a	91	n/a	1	n/a	n/a	n/a	n/a	445.766	n/a
414.396	0.497	neutral	Picture	54.969	n/a	4	11	12	n/a	92	34	1	n/a	n/a	n/a	n/a	446.296	AM22NES.jpg
414.893	0.514	Blank	Blank	54.455	n/a	4	11	12	n/a	92	n/a	1	n/a	n/a	n/a	n/a	446.793	n/a
415.423	0.497	neutral	Picture	53.941	n/a	4	11	13	n/a	93	23	1	n/a	n/a	n/a	n/a	447.324	AM04NES.jpg
415.921	0.514	Blank	Blank	53.427	n/a	4	11	13	n/a	93	n/a	1	n/a	n/a	n/a	n/a	447.821	n/a
416.451	0.497	neutral	Picture	52.913	n/a	4	11	14	n/a	94	15	1	n/a	n/a	n/a	n/a	448.352	AF25NES.jpg
416.949	0.514	Blank	Blank	52.399	n/a	4	11	14	n/a	94	n/a	1	n/a	n/a	n/a	n/a	448.849	n/a
417.479	0.497	neutral	Picture	51.885	n/a	4	11	15	n/a	95	37	1	n/a	n/a	n/a	n/a	449.38	BM25NES.jpg
417.977	0.514	Blank	Blank	51.372	n/a	4	11	15	n/a	95	n/a	1	n/a	n/a	n/a	n/a	449.877	n/a
418.507	0.497	neutral	Picture	50.858	n/a	4	11	16	n/a	96	32	1	n/a	n/a	n/a	n/a	450.408	AM14NES.jpg
419.005	0.514	Blank	Blank	50.344	n/a	4	11	16	n/a	96	n/a	1	n/a	n/a	n/a	n/a	450.905	n/a
419.535	0.497	neutral	Picture	49.83	n/a	4	11	17	n/a	97	3	1	n/a	n/a	n/a	n/a	451.436	BF04NES.jpg
420.032	0.514	Blank	Blank	49.316	n/a	4	11	17	n/a	97	n/a	1	n/a	n/a	n/a	n/a	451.933	n/a
420.563	0.497	neutral	Picture	48.802	n/a	4	11	18	n/a	98	16	1	n/a	n/a	n/a	n/a	452.464	AF26NES.jpg
421.06	0.514	Blank	Blank	48.288	n/a	4	11	18	n/a	98	n/a	1	n/a	n/a	n/a	n/a	452.961	n/a
421.591	0.497	neutral	Picture	47.774	n/a	4	11	19	n/a	99	27	1	n/a	n/a	n/a	n/a	453.491	BM08NES.jpg
422.088	0.514	Blank	Blank	47.26	n/a	4	11	19	n/a	99	n/a	1	n/a	n/a	n/a	n/a	453.989	n/a
422.619	0.497	neutral	Picture	46.746	n/a	4	11	20	n/a	100	28	1	n/a	n/a	n/a	n/a	454.519	AM09NES.jpg
423.116	0.514	Blank	Blank	46.232	n/a	4	11	20	n/a	100	n/a	1	n/a	n/a	n/a	n/a	455.017	n/a
423.647	10.014	ITI	Fixation+	36.202	n/a	4	n/a	n/a	n/a	n/a	n/a	n/a	n/a	n/a	n/a	n/a	455.547	n/a
433.677	0.497	angry	Picture	35.688	n/a	4	12	1	n/a	101	81	3	n/a	n/a	n/a	n/a	465.577	AF01ANS.jpg
434.174	0.514	Blank	Blank	35.174	n/a	4	12	1	n/a	101	n/a	3	n/a	n/a	n/a	n/a	466.075	n/a
434.705	0.497	angry	Picture	34.66	n/a	4	12	2	n/a	102	120	3	n/a	n/a	n/a	n/a	466.605	AM35ANS.jpg
435.202	0.514	Blank	Blank	34.146	n/a	4	12	2	n/a	102	n/a	3	n/a	n/a	n/a	n/a	467.103	n/a
435.733	0.497	angry	Picture	33.632	n/a	4	12	3	n/a	103	114	3	n/a	n/a	n/a	n/a	467.633	AM22ANS.jpg
436.23	0.514	Blank	Blank	33.118	n/a	4	12	3	n/a	103	n/a	3	n/a	n/a	n/a	n/a	468.13	n/a
436.76	0.497	angry	Picture	32.604	n/a	4	12	4	n/a	104	109	3	n/a	n/a	n/a	n/a	468.661	AM10ANS.jpg
437.258	0.514	Blank	Blank	32.09	n/a	4	12	4	n/a	104	n/a	3	n/a	n/a	n/a	n/a	469.158	n/a
437.788	0.497	angry	Picture	31.576	n/a	4	12	5	n/a	105	96	3	n/a	n/a	n/a	n/a	469.689	AF26ANS.jpg
438.286	0.514	Blank	Blank	31.062	n/a	4	12	5	n/a	105	n/a	3	n/a	n/a	n/a	n/a	470.186	n/a
438.816	0.497	angry	Picture	30.548	n/a	4	12	6	n/a	106	82	3	n/a	n/a	n/a	n/a	470.717	AF03ANS.jpg
439.313	0.514	Blank	Blank	30.035	n/a	4	12	6	n/a	106	n/a	3	n/a	n/a	n/a	n/a	471.214	n/a
439.844	0.497	angry	Picture	29.521	n/a	4	12	7	n/a	107	97	3	n/a	n/a	n/a	n/a	471.745	BF28ANS.jpg
440.341	0.514	Blank	Blank	29.007	n/a	4	12	7	n/a	107	n/a	3	n/a	n/a	n/a	n/a	472.242	n/a
440.872	0.497	angry	Picture	28.493	n/a	4	12	8	n/a	108	115	3	n/a	n/a	n/a	n/a	472.772	AM23ANS.jpg
441.369	0.514	Blank	Blank	27.979	n/a	4	12	8	n/a	108	n/a	3	n/a	n/a	n/a	n/a	473.27	n/a
441.9	0.497	angry	Picture	27.465	n/a	4	12	9	n/a	109	91	3	n/a	n/a	n/a	n/a	473.8	AF20ANS.jpg
442.397	0.514	Blank	Blank	26.951	n/a	4	12	9	n/a	109	n/a	3	n/a	n/a	n/a	n/a	474.298	n/a
442.928	0.497	angry	Picture	26.437	n/a	4	12	10	n/a	110	87	3	n/a	n/a	n/a	n/a	474.828	BF11ANS.jpg
443.425	0.514	Blank	Blank	25.923	n/a	4	12	10	n/a	110	n/a	3	n/a	n/a	n/a	n/a	475.326	n/a
443.956	0.497	angry	Picture	25.409	n/a	4	12	11	n/a	111	85	3	n/a	n/a	n/a	n/a	475.856	BF07ANS.jpg
444.453	0.514	Blank	Blank	24.895	n/a	4	12	11	n/a	111	n/a	3	n/a	n/a	n/a	n/a	476.353	n/a
444.983	0.497	angry	Picture	24.381	n/a	4	12	12	n/a	112	110	3	n/a	n/a	n/a	n/a	476.884	AM11ANS.jpg
445.481	0.514	Blank	Blank	23.867	n/a	4	12	12	n/a	112	n/a	3	n/a	n/a	n/a	n/a	477.381	n/a
446.011	0.497	angry	Picture	23.353	n/a	4	12	13	n/a	113	111	3	n/a	n/a	n/a	n/a	477.912	BM12ANS.jpg
446.509	0.514	Blank	Blank	22.839	n/a	4	12	13	n/a	113	n/a	3	n/a	n/a	n/a	n/a	478.409	n/a
447.039	0.497	angry	Picture	22.325	n/a	4	12	14	n/a	114	103	3	n/a	n/a	n/a	n/a	478.94	AM04ANS.jpg
447.537	0.514	Blank	Blank	21.812	n/a	4	12	14	n/a	114	n/a	3	n/a	n/a	n/a	n/a	479.437	n/a
448.067	0.497	angry	Picture	21.298	n/a	4	12	15	n/a	115	101	3	n/a	n/a	n/a	n/a	479.968	AM01ANS.jpg
448.565	0.514	Blank	Blank	20.784	n/a	4	12	15	n/a	115	n/a	3	n/a	n/a	n/a	n/a	480.465	n/a
449.095	0.497	angry	Picture	20.27	n/a	4	12	16	n/a	116	104	3	n/a	n/a	n/a	n/a	480.996	BM05ANS.jpg
449.592	0.514	Blank	Blank	19.756	n/a	4	12	16	n/a	116	n/a	3	n/a	n/a	n/a	n/a	481.493	n/a
450.123	0.497	angry	Picture	19.242	n/a	4	12	17	n/a	117	107	3	n/a	n/a	n/a	n/a	482.024	BM08ANS.jpg
450.62	0.514	Blank	Blank	18.728	n/a	4	12	17	n/a	117	n/a	3	n/a	n/a	n/a	n/a	482.521	n/a
451.151	0.497	angry	Picture	18.214	n/a	4	12	18	n/a	118	98	3	n/a	n/a	n/a	n/a	483.051	BF29ANS.jpg
451.648	0.514	Blank	Blank	17.7	n/a	4	12	18	n/a	118	n/a	3	n/a	n/a	n/a	n/a	483.549	n/a
452.179	0.497	angry	Picture	17.186	n/a	4	12	19	n/a	119	99	3	n/a	n/a	n/a	n/a	484.079	AF31ANS.jpg
452.676	0.514	Blank	Blank	16.672	n/a	4	12	19	n/a	119	n/a	3	n/a	n/a	n/a	n/a	484.577	n/a
453.207	0.497	angry	Picture	16.158	n/a	4	12	20	n/a	120	108	3	n/a	n/a	n/a	n/a	485.107	AM09ANS.jpg
453.704	0.514	Blank	Blank	15.644	n/a	4	12	20	n/a	120	n/a	3	n/a	n/a	n/a	n/a	485.604	n/a
454.234	10.014	ITI	Fixation+	5.614	n/a	4	n/a	n/a	n/a	n/a	n/a	n/a	n/a	n/a	n/a	n/a	486.135	n/a
469.862	n/a	ConfirmRating	Rate	n/a	5.603	4	n/a	n/a	0	n/a	n/a	n/a	2	Angry	43	43	501.763	n/a
479.659	n/a	ConfirmRating	Rate	n/a	9.781	4	n/a	n/a	1	n/a	n/a	n/a	3	Angry	8	8	511.559	n/a
