onset	duration	trial_type	event_type	time_until_response	response_time	trial_number	block_num_within_trial	image_seq_num_within_block	question_seq_num_within_block	image_seq_num	picture_number	condition	question_type	block_type	rating	rating_computed	onset_uncorrected	KDEV_imagefile
0.013	10.014	ITI	Fixation+	96.682	n/a	1	n/a	n/a	n/a	n/a	n/a	n/a	n/a	n/a	n/a	n/a	29.323	n/a
10.043	0.497	angry	Picture	96.168	n/a	1	1	1	n/a	1	46	2	n/a	n/a	n/a	n/a	39.353	AF09HAS.jpg
10.541	0.514	Blank	Blank	95.654	n/a	1	1	1	n/a	1	n/a	2	n/a	n/a	n/a	n/a	39.85	n/a
11.071	0.497	angry	Picture	95.14	n/a	1	1	2	n/a	2	69	2	n/a	n/a	n/a	n/a	40.38	AM10HAS.jpg
11.569	0.514	Blank	Blank	94.626	n/a	1	1	2	n/a	2	n/a	2	n/a	n/a	n/a	n/a	40.878	n/a
12.099	0.497	angry	Picture	94.112	n/a	1	1	3	n/a	3	71	2	n/a	n/a	n/a	n/a	41.408	BM12HAS.jpg
12.597	0.514	Blank	Blank	93.598	n/a	1	1	3	n/a	3	n/a	2	n/a	n/a	n/a	n/a	41.906	n/a
13.127	0.497	angry	Picture	93.084	n/a	1	1	4	n/a	4	51	2	n/a	n/a	n/a	n/a	42.436	AF20HAS.jpg
13.624	0.514	Blank	Blank	92.57	n/a	1	1	4	n/a	4	n/a	2	n/a	n/a	n/a	n/a	42.934	n/a
14.155	0.497	angry	Picture	92.056	n/a	1	1	5	n/a	5	67	2	n/a	n/a	n/a	n/a	43.464	BM08HAS.jpg
14.652	0.514	Blank	Blank	91.542	n/a	1	1	5	n/a	5	n/a	2	n/a	n/a	n/a	n/a	43.962	n/a
15.183	0.497	angry	Picture	91.028	n/a	1	1	6	n/a	6	60	2	n/a	n/a	n/a	n/a	44.492	AF32HAS.jpg
15.68	0.514	Blank	Blank	90.514	n/a	1	1	6	n/a	6	n/a	2	n/a	n/a	n/a	n/a	44.989	n/a
16.211	0.497	angry	Picture	90.0	n/a	1	1	7	n/a	7	42	2	n/a	n/a	n/a	n/a	45.52	AF03HAS.jpg
16.708	0.514	Blank	Blank	89.486	n/a	1	1	7	n/a	7	n/a	2	n/a	n/a	n/a	n/a	46.017	n/a
17.239	0.497	angry	Picture	88.973	n/a	1	1	8	n/a	8	55	2	n/a	n/a	n/a	n/a	46.548	AF25HAS.jpg
17.736	0.514	Blank	Blank	88.459	n/a	1	1	8	n/a	8	n/a	2	n/a	n/a	n/a	n/a	47.045	n/a
18.266	0.497	angry	Picture	87.945	n/a	1	1	9	n/a	9	72	2	n/a	n/a	n/a	n/a	47.576	AM14HAS.jpg
18.764	0.514	Blank	Blank	87.431	n/a	1	1	9	n/a	9	n/a	2	n/a	n/a	n/a	n/a	48.073	n/a
19.294	0.497	angry	Picture	86.917	n/a	1	1	10	n/a	10	63	2	n/a	n/a	n/a	n/a	48.603	AM04HAS.jpg
19.792	0.514	Blank	Blank	86.403	n/a	1	1	10	n/a	10	n/a	2	n/a	n/a	n/a	n/a	49.101	n/a
20.322	0.497	angry	Picture	85.889	n/a	1	1	11	n/a	11	58	2	n/a	n/a	n/a	n/a	49.631	BF29HAS.jpg
20.82	0.514	Blank	Blank	85.375	n/a	1	1	11	n/a	11	n/a	2	n/a	n/a	n/a	n/a	50.129	n/a
21.35	0.497	angry	Picture	84.861	n/a	1	1	12	n/a	12	48	2	n/a	n/a	n/a	n/a	50.659	AF14HAS.jpg
21.848	0.514	Blank	Blank	84.347	n/a	1	1	12	n/a	12	n/a	2	n/a	n/a	n/a	n/a	51.157	n/a
22.378	0.497	angry	Picture	83.833	n/a	1	1	13	n/a	13	66	2	n/a	n/a	n/a	n/a	51.687	BM07HAS.jpg
22.875	0.514	Blank	Blank	83.319	n/a	1	1	13	n/a	13	n/a	2	n/a	n/a	n/a	n/a	52.184	n/a
23.406	0.497	angry	Picture	82.805	n/a	1	1	14	n/a	14	70	2	n/a	n/a	n/a	n/a	52.715	BM11HAS.jpg
23.903	0.514	Blank	Blank	82.291	n/a	1	1	14	n/a	14	n/a	2	n/a	n/a	n/a	n/a	53.212	n/a
24.434	0.497	angry	Picture	81.777	n/a	1	1	15	n/a	15	43	2	n/a	n/a	n/a	n/a	53.743	BF04HAS.jpg
24.931	0.514	Blank	Blank	81.263	n/a	1	1	15	n/a	15	n/a	2	n/a	n/a	n/a	n/a	54.24	n/a
25.462	0.497	angry	Picture	80.749	n/a	1	1	16	n/a	16	49	2	n/a	n/a	n/a	n/a	54.771	AF17HAS.jpg
25.959	0.514	Blank	Blank	80.236	n/a	1	1	16	n/a	16	n/a	2	n/a	n/a	n/a	n/a	55.268	n/a
26.489	0.497	angry	Picture	79.722	n/a	1	1	17	n/a	17	75	2	n/a	n/a	n/a	n/a	55.799	AM23HAS.jpg
26.987	0.514	Blank	Blank	79.208	n/a	1	1	17	n/a	17	n/a	2	n/a	n/a	n/a	n/a	56.296	n/a
27.517	0.497	angry	Picture	78.694	n/a	1	1	18	n/a	18	80	2	n/a	n/a	n/a	n/a	56.827	BM35HAS.jpg
28.015	0.514	Blank	Blank	78.18	n/a	1	1	18	n/a	18	n/a	2	n/a	n/a	n/a	n/a	57.324	n/a
28.545	0.497	angry	Picture	77.666	n/a	1	1	19	n/a	19	76	2	n/a	n/a	n/a	n/a	57.855	BM24HAS.jpg
29.043	0.514	Blank	Blank	77.152	n/a	1	1	19	n/a	19	n/a	2	n/a	n/a	n/a	n/a	58.352	n/a
29.573	0.497	angry	Picture	76.638	n/a	1	1	20	n/a	20	74	2	n/a	n/a	n/a	n/a	58.882	AM22HAS.jpg
30.07	0.514	Blank	Blank	76.124	n/a	1	1	20	n/a	20	n/a	2	n/a	n/a	n/a	n/a	59.38	n/a
30.601	10.014	ITI	Fixation+	66.094	n/a	1	n/a	n/a	n/a	n/a	n/a	n/a	n/a	n/a	n/a	n/a	59.91	n/a
40.631	0.497	neutral	Picture	65.58	n/a	1	2	1	n/a	21	33	1	n/a	n/a	n/a	n/a	69.94	AM21NES.jpg
41.129	0.514	Blank	Blank	65.066	n/a	1	2	1	n/a	21	n/a	1	n/a	n/a	n/a	n/a	70.438	n/a
41.659	0.497	neutral	Picture	64.552	n/a	1	2	2	n/a	22	39	1	n/a	n/a	n/a	n/a	70.968	AM28NES.jpg
42.156	0.514	Blank	Blank	64.038	n/a	1	2	2	n/a	22	n/a	1	n/a	n/a	n/a	n/a	71.466	n/a
42.687	0.497	neutral	Picture	63.524	n/a	1	2	3	n/a	23	25	1	n/a	n/a	n/a	n/a	71.996	BM06NES.jpg
43.184	0.514	Blank	Blank	63.01	n/a	1	2	3	n/a	23	n/a	1	n/a	n/a	n/a	n/a	72.493	n/a
43.715	0.497	neutral	Picture	62.496	n/a	1	2	4	n/a	24	5	1	n/a	n/a	n/a	n/a	73.024	BF07NES.jpg
44.212	0.514	Blank	Blank	61.982	n/a	1	2	4	n/a	24	n/a	1	n/a	n/a	n/a	n/a	73.521	n/a
44.743	0.497	neutral	Picture	61.468	n/a	1	2	5	n/a	25	10	1	n/a	n/a	n/a	n/a	74.052	AF18NES.jpg
45.24	0.514	Blank	Blank	60.954	n/a	1	2	5	n/a	25	n/a	1	n/a	n/a	n/a	n/a	74.549	n/a
45.771	0.497	neutral	Picture	60.441	n/a	1	2	6	n/a	26	34	1	n/a	n/a	n/a	n/a	75.08	AM22NES.jpg
46.268	0.514	Blank	Blank	59.927	n/a	1	2	6	n/a	26	n/a	1	n/a	n/a	n/a	n/a	75.577	n/a
46.798	0.497	neutral	Picture	59.413	n/a	1	2	7	n/a	27	36	1	n/a	n/a	n/a	n/a	76.108	BM24NES.jpg
47.296	0.514	Blank	Blank	58.899	n/a	1	2	7	n/a	27	n/a	1	n/a	n/a	n/a	n/a	76.605	n/a
47.826	0.497	neutral	Picture	58.385	n/a	1	2	8	n/a	28	14	1	n/a	n/a	n/a	n/a	77.136	AF23NES.jpg
48.324	0.514	Blank	Blank	57.871	n/a	1	2	8	n/a	28	n/a	1	n/a	n/a	n/a	n/a	77.633	n/a
48.854	0.497	neutral	Picture	57.357	n/a	1	2	9	n/a	29	9	1	n/a	n/a	n/a	n/a	78.163	AF17NES.jpg
49.352	0.514	Blank	Blank	56.843	n/a	1	2	9	n/a	29	n/a	1	n/a	n/a	n/a	n/a	78.661	n/a
49.882	0.497	neutral	Picture	56.329	n/a	1	2	10	n/a	30	19	1	n/a	n/a	n/a	n/a	79.191	AF31NES.jpg
50.379	0.514	Blank	Blank	55.815	n/a	1	2	10	n/a	30	n/a	1	n/a	n/a	n/a	n/a	79.689	n/a
50.91	0.497	neutral	Picture	55.301	n/a	1	2	11	n/a	31	15	1	n/a	n/a	n/a	n/a	80.219	AF25NES.jpg
51.407	0.514	Blank	Blank	54.787	n/a	1	2	11	n/a	31	n/a	1	n/a	n/a	n/a	n/a	80.717	n/a
51.938	0.497	neutral	Picture	54.273	n/a	1	2	12	n/a	32	22	1	n/a	n/a	n/a	n/a	81.247	BM03NES.jpg
52.435	0.514	Blank	Blank	53.759	n/a	1	2	12	n/a	32	n/a	1	n/a	n/a	n/a	n/a	81.744	n/a
52.966	0.497	neutral	Picture	53.245	n/a	1	2	13	n/a	33	11	1	n/a	n/a	n/a	n/a	82.275	AF20NES.jpg
53.463	0.514	Blank	Blank	52.731	n/a	1	2	13	n/a	33	n/a	1	n/a	n/a	n/a	n/a	82.772	n/a
53.994	0.497	neutral	Picture	52.217	n/a	1	2	14	n/a	34	4	1	n/a	n/a	n/a	n/a	83.303	AF05NES.jpg
54.491	0.514	Blank	Blank	51.704	n/a	1	2	14	n/a	34	n/a	1	n/a	n/a	n/a	n/a	83.8	n/a
55.021	0.497	neutral	Picture	51.19	n/a	1	2	15	n/a	35	17	1	n/a	n/a	n/a	n/a	84.331	BF28NES.jpg
55.519	0.514	Blank	Blank	50.676	n/a	1	2	15	n/a	35	n/a	1	n/a	n/a	n/a	n/a	84.828	n/a
56.049	0.497	neutral	Picture	50.162	n/a	1	2	16	n/a	36	13	1	n/a	n/a	n/a	n/a	85.359	BF22NES.jpg
56.547	0.514	Blank	Blank	49.648	n/a	1	2	16	n/a	36	n/a	1	n/a	n/a	n/a	n/a	85.856	n/a
57.077	0.497	neutral	Picture	49.134	n/a	1	2	17	n/a	37	12	1	n/a	n/a	n/a	n/a	86.386	AF21NES.jpg
57.575	0.514	Blank	Blank	48.62	n/a	1	2	17	n/a	37	n/a	1	n/a	n/a	n/a	n/a	86.884	n/a
58.105	0.497	neutral	Picture	48.106	n/a	1	2	18	n/a	38	24	1	n/a	n/a	n/a	n/a	87.414	BM05NES.jpg
58.602	0.514	Blank	Blank	47.592	n/a	1	2	18	n/a	38	n/a	1	n/a	n/a	n/a	n/a	87.912	n/a
59.133	0.497	neutral	Picture	47.078	n/a	1	2	19	n/a	39	29	1	n/a	n/a	n/a	n/a	88.442	AM10NES.jpg
59.63	0.514	Blank	Blank	46.564	n/a	1	2	19	n/a	39	n/a	1	n/a	n/a	n/a	n/a	88.94	n/a
60.161	0.497	neutral	Picture	46.05	n/a	1	2	20	n/a	40	23	1	n/a	n/a	n/a	n/a	89.47	AM04NES.jpg
60.658	0.514	Blank	Blank	45.536	n/a	1	2	20	n/a	40	n/a	1	n/a	n/a	n/a	n/a	89.968	n/a
61.189	10.014	ITI	Fixation+	35.506	n/a	1	n/a	n/a	n/a	n/a	n/a	n/a	n/a	n/a	n/a	n/a	90.498	n/a
71.219	0.497	angry	Picture	34.992	n/a	1	3	1	n/a	41	62	2	n/a	n/a	n/a	n/a	100.528	BM03HAS.jpg
71.716	0.514	Blank	Blank	34.478	n/a	1	3	1	n/a	41	n/a	2	n/a	n/a	n/a	n/a	101.025	n/a
72.247	0.497	angry	Picture	33.964	n/a	1	3	2	n/a	42	52	2	n/a	n/a	n/a	n/a	101.556	AF21HAS.jpg
72.744	0.514	Blank	Blank	33.45	n/a	1	3	2	n/a	42	n/a	2	n/a	n/a	n/a	n/a	102.053	n/a
73.275	0.497	angry	Picture	32.936	n/a	1	3	3	n/a	43	44	2	n/a	n/a	n/a	n/a	102.584	AF05HAS.jpg
73.772	0.514	Blank	Blank	32.422	n/a	1	3	3	n/a	43	n/a	2	n/a	n/a	n/a	n/a	103.081	n/a
74.303	0.497	angry	Picture	31.908	n/a	1	3	4	n/a	44	53	2	n/a	n/a	n/a	n/a	103.612	BF22HAS.jpg
74.8	0.514	Blank	Blank	31.395	n/a	1	3	4	n/a	44	n/a	2	n/a	n/a	n/a	n/a	104.109	n/a
75.331	0.497	angry	Picture	30.881	n/a	1	3	5	n/a	45	54	2	n/a	n/a	n/a	n/a	104.64	AF23HAS.jpg
75.828	0.514	Blank	Blank	30.367	n/a	1	3	5	n/a	45	n/a	2	n/a	n/a	n/a	n/a	105.137	n/a
76.358	0.497	angry	Picture	29.853	n/a	1	3	6	n/a	46	68	2	n/a	n/a	n/a	n/a	105.668	AM09HAS.jpg
76.856	0.514	Blank	Blank	29.339	n/a	1	3	6	n/a	46	n/a	2	n/a	n/a	n/a	n/a	106.165	n/a
77.386	0.497	angry	Picture	28.825	n/a	1	3	7	n/a	47	64	2	n/a	n/a	n/a	n/a	106.695	BM05HAS.jpg
77.884	0.514	Blank	Blank	28.311	n/a	1	3	7	n/a	47	n/a	2	n/a	n/a	n/a	n/a	107.193	n/a
78.414	0.497	angry	Picture	27.797	n/a	1	3	8	n/a	48	59	2	n/a	n/a	n/a	n/a	107.723	AF31HAS.jpg
78.911	0.514	Blank	Blank	27.283	n/a	1	3	8	n/a	48	n/a	2	n/a	n/a	n/a	n/a	108.221	n/a
79.442	0.497	angry	Picture	26.769	n/a	1	3	9	n/a	49	41	2	n/a	n/a	n/a	n/a	108.751	AF01HAS.jpg
79.939	0.514	Blank	Blank	26.255	n/a	1	3	9	n/a	49	n/a	2	n/a	n/a	n/a	n/a	109.249	n/a
80.47	0.497	angry	Picture	25.741	n/a	1	3	10	n/a	50	73	2	n/a	n/a	n/a	n/a	109.779	AM21HAS.jpg
80.967	0.514	Blank	Blank	25.227	n/a	1	3	10	n/a	50	n/a	2	n/a	n/a	n/a	n/a	110.276	n/a
81.498	0.497	angry	Picture	24.713	n/a	1	3	11	n/a	51	65	2	n/a	n/a	n/a	n/a	110.807	BM06HAS.jpg
81.995	0.514	Blank	Blank	24.199	n/a	1	3	11	n/a	51	n/a	2	n/a	n/a	n/a	n/a	111.304	n/a
82.526	0.497	angry	Picture	23.685	n/a	1	3	12	n/a	52	56	2	n/a	n/a	n/a	n/a	111.835	AF26HAS.jpg
83.023	0.514	Blank	Blank	23.171	n/a	1	3	12	n/a	52	n/a	2	n/a	n/a	n/a	n/a	112.332	n/a
83.553	0.497	angry	Picture	22.658	n/a	1	3	13	n/a	53	45	2	n/a	n/a	n/a	n/a	112.863	BF07HAS.jpg
84.051	0.514	Blank	Blank	22.144	n/a	1	3	13	n/a	53	n/a	2	n/a	n/a	n/a	n/a	113.36	n/a
84.581	0.497	angry	Picture	21.63	n/a	1	3	14	n/a	54	78	2	n/a	n/a	n/a	n/a	113.891	BM26HAS.jpg
85.079	0.514	Blank	Blank	21.116	n/a	1	3	14	n/a	54	n/a	2	n/a	n/a	n/a	n/a	114.388	n/a
85.609	0.497	angry	Picture	20.602	n/a	1	3	15	n/a	55	50	2	n/a	n/a	n/a	n/a	114.918	AF18HAS.jpg
86.107	0.514	Blank	Blank	20.088	n/a	1	3	15	n/a	55	n/a	2	n/a	n/a	n/a	n/a	115.416	n/a
86.637	0.497	angry	Picture	19.574	n/a	1	3	16	n/a	56	47	2	n/a	n/a	n/a	n/a	115.946	BF11HAS.jpg
87.135	0.514	Blank	Blank	19.06	n/a	1	3	16	n/a	56	n/a	2	n/a	n/a	n/a	n/a	116.444	n/a
87.665	0.497	angry	Picture	18.546	n/a	1	3	17	n/a	57	77	2	n/a	n/a	n/a	n/a	116.974	BM25HAS.jpg
88.162	0.514	Blank	Blank	18.032	n/a	1	3	17	n/a	57	n/a	2	n/a	n/a	n/a	n/a	117.472	n/a
88.693	0.497	angry	Picture	17.518	n/a	1	3	18	n/a	58	57	2	n/a	n/a	n/a	n/a	118.002	BF28HAS.jpg
89.19	0.514	Blank	Blank	17.004	n/a	1	3	18	n/a	58	n/a	2	n/a	n/a	n/a	n/a	118.499	n/a
89.721	0.497	angry	Picture	16.49	n/a	1	3	19	n/a	59	61	2	n/a	n/a	n/a	n/a	119.03	AM01HAS.jpg
90.218	0.514	Blank	Blank	15.976	n/a	1	3	19	n/a	59	n/a	2	n/a	n/a	n/a	n/a	119.527	n/a
90.749	0.497	angry	Picture	15.462	n/a	1	3	20	n/a	60	79	2	n/a	n/a	n/a	n/a	120.058	BM28HAS.jpg
91.246	0.514	Blank	Blank	14.948	n/a	1	3	20	n/a	60	n/a	2	n/a	n/a	n/a	n/a	120.555	n/a
91.777	10.014	ITI	Fixation+	4.918	n/a	1	n/a	n/a	n/a	n/a	n/a	n/a	n/a	n/a	n/a	n/a	121.086	n/a
106.708	n/a	ConfirmRating	Rate	n/a	4.907	1	n/a	n/a	0	n/a	n/a	n/a	2	Angry	14	46	136.018	n/a
110.437	n/a	ConfirmRating	Rate	n/a	3.714	1	n/a	n/a	1	n/a	n/a	n/a	3	Angry	50	50	139.747	n/a
110.461	10.014	ITI	Fixation+	96.015	n/a	2	n/a	n/a	n/a	n/a	n/a	n/a	n/a	n/a	n/a	n/a	139.77	n/a
120.491	0.497	happy	Picture	95.501	n/a	2	4	1	n/a	61	119	3	n/a	n/a	n/a	n/a	149.8	BM28ANS.jpg
120.988	0.514	Blank	Blank	94.987	n/a	2	4	1	n/a	61	n/a	3	n/a	n/a	n/a	n/a	150.298	n/a
121.519	0.497	happy	Picture	94.473	n/a	2	4	2	n/a	62	100	3	n/a	n/a	n/a	n/a	150.828	AF32ANS.jpg
122.016	0.514	Blank	Blank	93.959	n/a	2	4	2	n/a	62	n/a	3	n/a	n/a	n/a	n/a	151.325	n/a
122.547	0.497	happy	Picture	93.445	n/a	2	4	3	n/a	63	118	3	n/a	n/a	n/a	n/a	151.856	BM26ANS.jpg
123.044	0.514	Blank	Blank	92.931	n/a	2	4	3	n/a	63	n/a	3	n/a	n/a	n/a	n/a	152.353	n/a
123.575	0.497	happy	Picture	92.417	n/a	2	4	4	n/a	64	89	3	n/a	n/a	n/a	n/a	152.884	AF17ANS.jpg
124.072	0.514	Blank	Blank	91.903	n/a	2	4	4	n/a	64	n/a	3	n/a	n/a	n/a	n/a	153.381	n/a
124.602	0.497	happy	Picture	91.389	n/a	2	4	5	n/a	65	116	3	n/a	n/a	n/a	n/a	153.912	BM24ANS.jpg
125.1	0.514	Blank	Blank	90.876	n/a	2	4	5	n/a	65	n/a	3	n/a	n/a	n/a	n/a	154.409	n/a
125.63	0.497	happy	Picture	90.362	n/a	2	4	6	n/a	66	105	3	n/a	n/a	n/a	n/a	154.94	BM06ANS.jpg
126.128	0.514	Blank	Blank	89.848	n/a	2	4	6	n/a	66	n/a	3	n/a	n/a	n/a	n/a	155.437	n/a
126.658	0.497	happy	Picture	89.334	n/a	2	4	7	n/a	67	106	3	n/a	n/a	n/a	n/a	155.968	AM07ANS.jpg
127.156	0.514	Blank	Blank	88.82	n/a	2	4	7	n/a	67	n/a	3	n/a	n/a	n/a	n/a	156.465	n/a
127.686	0.497	happy	Picture	88.306	n/a	2	4	8	n/a	68	94	3	n/a	n/a	n/a	n/a	156.995	AF23ANS.jpg
128.184	0.514	Blank	Blank	87.792	n/a	2	4	8	n/a	68	n/a	3	n/a	n/a	n/a	n/a	157.493	n/a
128.714	0.497	happy	Picture	87.278	n/a	2	4	9	n/a	69	117	3	n/a	n/a	n/a	n/a	158.023	BM25ANS.jpg
129.211	0.514	Blank	Blank	86.764	n/a	2	4	9	n/a	69	n/a	3	n/a	n/a	n/a	n/a	158.521	n/a
129.742	0.497	happy	Picture	86.25	n/a	2	4	10	n/a	70	90	3	n/a	n/a	n/a	n/a	159.051	AF18ANS.jpg
130.239	0.514	Blank	Blank	85.736	n/a	2	4	10	n/a	70	n/a	3	n/a	n/a	n/a	n/a	159.548	n/a
130.77	0.497	happy	Picture	85.222	n/a	2	4	11	n/a	71	83	3	n/a	n/a	n/a	n/a	160.079	BF04ANS.jpg
131.267	0.514	Blank	Blank	84.708	n/a	2	4	11	n/a	71	n/a	3	n/a	n/a	n/a	n/a	160.576	n/a
131.798	0.497	happy	Picture	84.194	n/a	2	4	12	n/a	72	112	3	n/a	n/a	n/a	n/a	161.107	AM14ANS.jpg
132.295	0.514	Blank	Blank	83.68	n/a	2	4	12	n/a	72	n/a	3	n/a	n/a	n/a	n/a	161.604	n/a
132.826	0.497	happy	Picture	83.166	n/a	2	4	13	n/a	73	102	3	n/a	n/a	n/a	n/a	162.135	BM03ANS.jpg
133.323	0.514	Blank	Blank	82.652	n/a	2	4	13	n/a	73	n/a	3	n/a	n/a	n/a	n/a	162.632	n/a
133.853	0.497	happy	Picture	82.139	n/a	2	4	14	n/a	74	95	3	n/a	n/a	n/a	n/a	163.163	AF25ANS.jpg
134.351	0.514	Blank	Blank	81.625	n/a	2	4	14	n/a	74	n/a	3	n/a	n/a	n/a	n/a	163.66	n/a
134.881	0.497	happy	Picture	81.111	n/a	2	4	15	n/a	75	113	3	n/a	n/a	n/a	n/a	164.19	AM21ANS.jpg
135.379	0.514	Blank	Blank	80.597	n/a	2	4	15	n/a	75	n/a	3	n/a	n/a	n/a	n/a	164.688	n/a
135.909	0.497	happy	Picture	80.083	n/a	2	4	16	n/a	76	88	3	n/a	n/a	n/a	n/a	165.218	AF14ANS.jpg
136.407	0.514	Blank	Blank	79.569	n/a	2	4	16	n/a	76	n/a	3	n/a	n/a	n/a	n/a	165.716	n/a
136.937	0.497	happy	Picture	79.055	n/a	2	4	17	n/a	77	93	3	n/a	n/a	n/a	n/a	166.246	BF22ANS.jpg
137.434	0.514	Blank	Blank	78.541	n/a	2	4	17	n/a	77	n/a	3	n/a	n/a	n/a	n/a	166.744	n/a
137.965	0.497	happy	Picture	78.027	n/a	2	4	18	n/a	78	86	3	n/a	n/a	n/a	n/a	167.274	AF09ANS.jpg
138.462	0.514	Blank	Blank	77.513	n/a	2	4	18	n/a	78	n/a	3	n/a	n/a	n/a	n/a	167.772	n/a
138.993	0.497	happy	Picture	76.999	n/a	2	4	19	n/a	79	92	3	n/a	n/a	n/a	n/a	168.302	AF21ANS.jpg
139.49	0.514	Blank	Blank	76.485	n/a	2	4	19	n/a	79	n/a	3	n/a	n/a	n/a	n/a	168.799	n/a
140.021	0.497	happy	Picture	75.971	n/a	2	4	20	n/a	80	84	3	n/a	n/a	n/a	n/a	169.33	AF05ANS.jpg
140.518	0.514	Blank	Blank	75.457	n/a	2	4	20	n/a	80	n/a	3	n/a	n/a	n/a	n/a	169.827	n/a
141.049	10.014	ITI	Fixation+	65.427	n/a	2	n/a	n/a	n/a	n/a	n/a	n/a	n/a	n/a	n/a	n/a	170.358	n/a
151.079	0.497	neutral	Picture	64.913	n/a	2	5	1	n/a	81	4	1	n/a	n/a	n/a	n/a	180.388	AF05NES.jpg
151.576	0.514	Blank	Blank	64.399	n/a	2	5	1	n/a	81	n/a	1	n/a	n/a	n/a	n/a	180.885	n/a
152.107	0.497	neutral	Picture	63.885	n/a	2	5	2	n/a	82	14	1	n/a	n/a	n/a	n/a	181.416	AF23NES.jpg
152.604	0.514	Blank	Blank	63.371	n/a	2	5	2	n/a	82	n/a	1	n/a	n/a	n/a	n/a	181.913	n/a
153.135	0.497	neutral	Picture	62.857	n/a	2	5	3	n/a	83	19	1	n/a	n/a	n/a	n/a	182.444	AF31NES.jpg
153.632	0.514	Blank	Blank	62.344	n/a	2	5	3	n/a	83	n/a	1	n/a	n/a	n/a	n/a	182.941	n/a
154.162	0.497	neutral	Picture	61.83	n/a	2	5	4	n/a	84	8	1	n/a	n/a	n/a	n/a	183.472	AF14NES.jpg
154.66	0.514	Blank	Blank	61.316	n/a	2	5	4	n/a	84	n/a	1	n/a	n/a	n/a	n/a	183.969	n/a
155.19	0.497	neutral	Picture	60.802	n/a	2	5	5	n/a	85	25	1	n/a	n/a	n/a	n/a	184.5	BM06NES.jpg
155.688	0.514	Blank	Blank	60.288	n/a	2	5	5	n/a	85	n/a	1	n/a	n/a	n/a	n/a	184.997	n/a
156.218	0.497	neutral	Picture	59.774	n/a	2	5	6	n/a	86	9	1	n/a	n/a	n/a	n/a	185.527	AF17NES.jpg
156.715	0.514	Blank	Blank	59.26	n/a	2	5	6	n/a	86	n/a	1	n/a	n/a	n/a	n/a	186.025	n/a
157.246	0.497	neutral	Picture	58.746	n/a	2	5	7	n/a	87	2	1	n/a	n/a	n/a	n/a	186.555	AF03NES.jpg
157.743	0.514	Blank	Blank	58.232	n/a	2	5	7	n/a	87	n/a	1	n/a	n/a	n/a	n/a	187.053	n/a
158.274	0.497	neutral	Picture	57.718	n/a	2	5	8	n/a	88	17	1	n/a	n/a	n/a	n/a	187.583	BF28NES.jpg
158.771	0.514	Blank	Blank	57.204	n/a	2	5	8	n/a	88	n/a	1	n/a	n/a	n/a	n/a	188.081	n/a
159.302	0.497	neutral	Picture	56.69	n/a	2	5	9	n/a	89	6	1	n/a	n/a	n/a	n/a	188.611	AF09NES.jpg
159.799	0.514	Blank	Blank	56.176	n/a	2	5	9	n/a	89	n/a	1	n/a	n/a	n/a	n/a	189.108	n/a
160.33	0.497	neutral	Picture	55.662	n/a	2	5	10	n/a	90	12	1	n/a	n/a	n/a	n/a	189.639	AF21NES.jpg
160.827	0.514	Blank	Blank	55.148	n/a	2	5	10	n/a	90	n/a	1	n/a	n/a	n/a	n/a	190.136	n/a
161.358	0.497	neutral	Picture	54.635	n/a	2	5	11	n/a	91	24	1	n/a	n/a	n/a	n/a	190.667	BM05NES.jpg
161.855	0.514	Blank	Blank	54.12	n/a	2	5	11	n/a	91	n/a	1	n/a	n/a	n/a	n/a	191.164	n/a
162.386	0.497	neutral	Picture	53.607	n/a	2	5	12	n/a	92	34	1	n/a	n/a	n/a	n/a	191.695	AM22NES.jpg
162.883	0.514	Blank	Blank	53.093	n/a	2	5	12	n/a	92	n/a	1	n/a	n/a	n/a	n/a	192.192	n/a
163.413	0.497	neutral	Picture	52.579	n/a	2	5	13	n/a	93	23	1	n/a	n/a	n/a	n/a	192.722	AM04NES.jpg
163.911	0.514	Blank	Blank	52.065	n/a	2	5	13	n/a	93	n/a	1	n/a	n/a	n/a	n/a	193.22	n/a
164.441	0.497	neutral	Picture	51.551	n/a	2	5	14	n/a	94	15	1	n/a	n/a	n/a	n/a	193.75	AF25NES.jpg
164.939	0.514	Blank	Blank	51.037	n/a	2	5	14	n/a	94	n/a	1	n/a	n/a	n/a	n/a	194.248	n/a
165.469	0.497	neutral	Picture	50.523	n/a	2	5	15	n/a	95	37	1	n/a	n/a	n/a	n/a	194.778	BM25NES.jpg
165.966	0.514	Blank	Blank	50.009	n/a	2	5	15	n/a	95	n/a	1	n/a	n/a	n/a	n/a	195.276	n/a
166.497	0.497	neutral	Picture	49.495	n/a	2	5	16	n/a	96	32	1	n/a	n/a	n/a	n/a	195.806	AM14NES.jpg
166.994	0.514	Blank	Blank	48.981	n/a	2	5	16	n/a	96	n/a	1	n/a	n/a	n/a	n/a	196.304	n/a
167.525	0.497	neutral	Picture	48.467	n/a	2	5	17	n/a	97	3	1	n/a	n/a	n/a	n/a	196.834	BF04NES.jpg
168.022	0.514	Blank	Blank	47.953	n/a	2	5	17	n/a	97	n/a	1	n/a	n/a	n/a	n/a	197.331	n/a
168.553	0.497	neutral	Picture	47.439	n/a	2	5	18	n/a	98	16	1	n/a	n/a	n/a	n/a	197.862	AF26NES.jpg
169.05	0.514	Blank	Blank	46.925	n/a	2	5	18	n/a	98	n/a	1	n/a	n/a	n/a	n/a	198.359	n/a
169.581	0.497	neutral	Picture	46.411	n/a	2	5	19	n/a	99	27	1	n/a	n/a	n/a	n/a	198.89	BM08NES.jpg
170.078	0.514	Blank	Blank	45.897	n/a	2	5	19	n/a	99	n/a	1	n/a	n/a	n/a	n/a	199.387	n/a
170.608	0.497	neutral	Picture	45.383	n/a	2	5	20	n/a	100	28	1	n/a	n/a	n/a	n/a	199.918	AM09NES.jpg
171.106	0.514	Blank	Blank	44.87	n/a	2	5	20	n/a	100	n/a	1	n/a	n/a	n/a	n/a	200.415	n/a
171.636	10.014	ITI	Fixation+	34.839	n/a	2	n/a	n/a	n/a	n/a	n/a	n/a	n/a	n/a	n/a	n/a	200.946	n/a
181.666	0.497	happy	Picture	34.326	n/a	2	6	1	n/a	101	81	3	n/a	n/a	n/a	n/a	210.976	AF01ANS.jpg
182.164	0.514	Blank	Blank	33.812	n/a	2	6	1	n/a	101	n/a	3	n/a	n/a	n/a	n/a	211.473	n/a
182.694	0.497	happy	Picture	33.298	n/a	2	6	2	n/a	102	120	3	n/a	n/a	n/a	n/a	212.004	AM35ANS.jpg
183.192	0.514	Blank	Blank	32.784	n/a	2	6	2	n/a	102	n/a	3	n/a	n/a	n/a	n/a	212.501	n/a
183.722	0.497	happy	Picture	32.27	n/a	2	6	3	n/a	103	114	3	n/a	n/a	n/a	n/a	213.031	AM22ANS.jpg
184.22	0.514	Blank	Blank	31.756	n/a	2	6	3	n/a	103	n/a	3	n/a	n/a	n/a	n/a	213.529	n/a
184.75	0.497	happy	Picture	31.242	n/a	2	6	4	n/a	104	109	3	n/a	n/a	n/a	n/a	214.059	AM10ANS.jpg
185.248	0.514	Blank	Blank	30.728	n/a	2	6	4	n/a	104	n/a	3	n/a	n/a	n/a	n/a	214.557	n/a
185.778	0.497	happy	Picture	30.214	n/a	2	6	5	n/a	105	96	3	n/a	n/a	n/a	n/a	215.087	AF26ANS.jpg
186.275	0.514	Blank	Blank	29.7	n/a	2	6	5	n/a	105	n/a	3	n/a	n/a	n/a	n/a	215.585	n/a
186.806	0.497	happy	Picture	29.186	n/a	2	6	6	n/a	106	82	3	n/a	n/a	n/a	n/a	216.115	AF03ANS.jpg
187.303	0.514	Blank	Blank	28.672	n/a	2	6	6	n/a	106	n/a	3	n/a	n/a	n/a	n/a	216.613	n/a
187.834	0.497	happy	Picture	28.158	n/a	2	6	7	n/a	107	97	3	n/a	n/a	n/a	n/a	217.143	BF28ANS.jpg
188.331	0.514	Blank	Blank	27.644	n/a	2	6	7	n/a	107	n/a	3	n/a	n/a	n/a	n/a	217.64	n/a
188.862	0.497	happy	Picture	27.13	n/a	2	6	8	n/a	108	115	3	n/a	n/a	n/a	n/a	218.171	AM23ANS.jpg
189.359	0.514	Blank	Blank	26.616	n/a	2	6	8	n/a	108	n/a	3	n/a	n/a	n/a	n/a	218.668	n/a
189.89	0.497	happy	Picture	26.102	n/a	2	6	9	n/a	109	91	3	n/a	n/a	n/a	n/a	219.199	AF20ANS.jpg
190.387	0.514	Blank	Blank	25.588	n/a	2	6	9	n/a	109	n/a	3	n/a	n/a	n/a	n/a	219.696	n/a
190.917	0.497	happy	Picture	25.075	n/a	2	6	10	n/a	110	87	3	n/a	n/a	n/a	n/a	220.227	BF11ANS.jpg
191.415	0.514	Blank	Blank	24.561	n/a	2	6	10	n/a	110	n/a	3	n/a	n/a	n/a	n/a	220.724	n/a
191.945	0.497	happy	Picture	24.047	n/a	2	6	11	n/a	111	85	3	n/a	n/a	n/a	n/a	221.255	BF07ANS.jpg
192.443	0.514	Blank	Blank	23.533	n/a	2	6	11	n/a	111	n/a	3	n/a	n/a	n/a	n/a	221.752	n/a
192.973	0.497	happy	Picture	23.019	n/a	2	6	12	n/a	112	110	3	n/a	n/a	n/a	n/a	222.282	AM11ANS.jpg
193.471	0.514	Blank	Blank	22.505	n/a	2	6	12	n/a	112	n/a	3	n/a	n/a	n/a	n/a	222.78	n/a
194.001	0.497	happy	Picture	21.991	n/a	2	6	13	n/a	113	111	3	n/a	n/a	n/a	n/a	223.31	BM12ANS.jpg
194.499	0.514	Blank	Blank	21.477	n/a	2	6	13	n/a	113	n/a	3	n/a	n/a	n/a	n/a	223.808	n/a
195.029	0.497	happy	Picture	20.963	n/a	2	6	14	n/a	114	103	3	n/a	n/a	n/a	n/a	224.338	AM04ANS.jpg
195.526	0.514	Blank	Blank	20.449	n/a	2	6	14	n/a	114	n/a	3	n/a	n/a	n/a	n/a	224.836	n/a
196.057	0.497	happy	Picture	19.935	n/a	2	6	15	n/a	115	101	3	n/a	n/a	n/a	n/a	225.366	AM01ANS.jpg
196.554	0.514	Blank	Blank	19.421	n/a	2	6	15	n/a	115	n/a	3	n/a	n/a	n/a	n/a	225.863	n/a
197.085	0.497	happy	Picture	18.907	n/a	2	6	16	n/a	116	104	3	n/a	n/a	n/a	n/a	226.394	BM05ANS.jpg
197.582	0.514	Blank	Blank	18.393	n/a	2	6	16	n/a	116	n/a	3	n/a	n/a	n/a	n/a	226.891	n/a
198.113	0.497	happy	Picture	17.879	n/a	2	6	17	n/a	117	107	3	n/a	n/a	n/a	n/a	227.422	BM08ANS.jpg
198.61	0.514	Blank	Blank	17.365	n/a	2	6	17	n/a	117	n/a	3	n/a	n/a	n/a	n/a	227.919	n/a
199.141	0.497	happy	Picture	16.851	n/a	2	6	18	n/a	118	98	3	n/a	n/a	n/a	n/a	228.45	BF29ANS.jpg
199.638	0.514	Blank	Blank	16.338	n/a	2	6	18	n/a	118	n/a	3	n/a	n/a	n/a	n/a	228.947	n/a
200.168	0.497	happy	Picture	15.824	n/a	2	6	19	n/a	119	99	3	n/a	n/a	n/a	n/a	229.478	AF31ANS.jpg
200.666	0.514	Blank	Blank	15.31	n/a	2	6	19	n/a	119	n/a	3	n/a	n/a	n/a	n/a	229.975	n/a
201.196	0.497	happy	Picture	14.796	n/a	2	6	20	n/a	120	108	3	n/a	n/a	n/a	n/a	230.506	AM09ANS.jpg
201.694	0.514	Blank	Blank	14.282	n/a	2	6	20	n/a	120	n/a	3	n/a	n/a	n/a	n/a	231.003	n/a
202.224	10.014	ITI	Fixation+	4.252	n/a	2	n/a	n/a	n/a	n/a	n/a	n/a	n/a	n/a	n/a	n/a	231.533	n/a
216.489	n/a	ConfirmRating	Rate	n/a	4.244	2	n/a	n/a	0	n/a	n/a	n/a	2	Happy	83	54	245.799	n/a
221.096	n/a	ConfirmRating	Rate	n/a	4.592	2	n/a	n/a	1	n/a	n/a	n/a	3	Happy	22	48	250.406	n/a
221.124	15.004	Rest	Picture	n/a	n/a	n/a	n/a	n/a	n/a	n/a	n/a	n/a	0	n/a	0	0	250.433	n/a
236.144	10.014	ITI	Fixation+	94.16	n/a	3	n/a	n/a	n/a	n/a	n/a	n/a	n/a	n/a	n/a	n/a	265.454	n/a
246.174	0.497	angry	Picture	93.646	n/a	3	7	1	n/a	1	46	2	n/a	n/a	n/a	n/a	275.484	AF09HAS.jpg
246.672	0.514	Blank	Blank	93.133	n/a	3	7	1	n/a	1	n/a	2	n/a	n/a	n/a	n/a	275.981	n/a
247.202	0.497	angry	Picture	92.619	n/a	3	7	2	n/a	2	69	2	n/a	n/a	n/a	n/a	276.512	AM10HAS.jpg
247.7	0.514	Blank	Blank	92.105	n/a	3	7	2	n/a	2	n/a	2	n/a	n/a	n/a	n/a	277.009	n/a
248.23	0.497	angry	Picture	91.591	n/a	3	7	3	n/a	3	71	2	n/a	n/a	n/a	n/a	277.539	BM12HAS.jpg
248.728	0.514	Blank	Blank	91.077	n/a	3	7	3	n/a	3	n/a	2	n/a	n/a	n/a	n/a	278.037	n/a
249.258	0.497	angry	Picture	90.563	n/a	3	7	4	n/a	4	51	2	n/a	n/a	n/a	n/a	278.567	AF20HAS.jpg
249.755	0.514	Blank	Blank	90.049	n/a	3	7	4	n/a	4	n/a	2	n/a	n/a	n/a	n/a	279.065	n/a
250.286	0.497	angry	Picture	89.535	n/a	3	7	5	n/a	5	67	2	n/a	n/a	n/a	n/a	279.595	BM08HAS.jpg
250.783	0.514	Blank	Blank	89.021	n/a	3	7	5	n/a	5	n/a	2	n/a	n/a	n/a	n/a	280.092	n/a
251.314	0.497	angry	Picture	88.507	n/a	3	7	6	n/a	6	60	2	n/a	n/a	n/a	n/a	280.623	AF32HAS.jpg
251.811	0.514	Blank	Blank	87.993	n/a	3	7	6	n/a	6	n/a	2	n/a	n/a	n/a	n/a	281.12	n/a
252.342	0.497	angry	Picture	87.479	n/a	3	7	7	n/a	7	42	2	n/a	n/a	n/a	n/a	281.651	AF03HAS.jpg
252.839	0.514	Blank	Blank	86.965	n/a	3	7	7	n/a	7	n/a	2	n/a	n/a	n/a	n/a	282.148	n/a
253.37	0.497	angry	Picture	86.451	n/a	3	7	8	n/a	8	55	2	n/a	n/a	n/a	n/a	282.679	AF25HAS.jpg
253.867	0.514	Blank	Blank	85.937	n/a	3	7	8	n/a	8	n/a	2	n/a	n/a	n/a	n/a	283.176	n/a
254.398	0.497	angry	Picture	85.423	n/a	3	7	9	n/a	9	72	2	n/a	n/a	n/a	n/a	283.707	AM14HAS.jpg
254.895	0.514	Blank	Blank	84.909	n/a	3	7	9	n/a	9	n/a	2	n/a	n/a	n/a	n/a	284.204	n/a
255.425	0.497	angry	Picture	84.396	n/a	3	7	10	n/a	10	63	2	n/a	n/a	n/a	n/a	284.735	AM04HAS.jpg
255.923	0.514	Blank	Blank	83.882	n/a	3	7	10	n/a	10	n/a	2	n/a	n/a	n/a	n/a	285.232	n/a
256.453	0.497	angry	Picture	83.368	n/a	3	7	11	n/a	11	58	2	n/a	n/a	n/a	n/a	285.762	BF29HAS.jpg
256.951	0.514	Blank	Blank	82.854	n/a	3	7	11	n/a	11	n/a	2	n/a	n/a	n/a	n/a	286.26	n/a
257.481	0.497	angry	Picture	82.34	n/a	3	7	12	n/a	12	48	2	n/a	n/a	n/a	n/a	286.79	AF14HAS.jpg
257.978	0.514	Blank	Blank	81.826	n/a	3	7	12	n/a	12	n/a	2	n/a	n/a	n/a	n/a	287.288	n/a
258.509	0.497	angry	Picture	81.312	n/a	3	7	13	n/a	13	66	2	n/a	n/a	n/a	n/a	287.818	BM07HAS.jpg
259.006	0.514	Blank	Blank	80.798	n/a	3	7	13	n/a	13	n/a	2	n/a	n/a	n/a	n/a	288.316	n/a
259.537	0.497	angry	Picture	80.284	n/a	3	7	14	n/a	14	70	2	n/a	n/a	n/a	n/a	288.846	BM11HAS.jpg
260.034	0.514	Blank	Blank	79.77	n/a	3	7	14	n/a	14	n/a	2	n/a	n/a	n/a	n/a	289.344	n/a
260.565	0.497	angry	Picture	79.256	n/a	3	7	15	n/a	15	43	2	n/a	n/a	n/a	n/a	289.874	BF04HAS.jpg
261.062	0.514	Blank	Blank	78.742	n/a	3	7	15	n/a	15	n/a	2	n/a	n/a	n/a	n/a	290.371	n/a
261.593	0.497	angry	Picture	78.228	n/a	3	7	16	n/a	16	49	2	n/a	n/a	n/a	n/a	290.902	AF17HAS.jpg
262.09	0.514	Blank	Blank	77.714	n/a	3	7	16	n/a	16	n/a	2	n/a	n/a	n/a	n/a	291.399	n/a
262.621	0.497	angry	Picture	77.2	n/a	3	7	17	n/a	17	75	2	n/a	n/a	n/a	n/a	291.93	AM23HAS.jpg
263.118	0.514	Blank	Blank	76.686	n/a	3	7	17	n/a	17	n/a	2	n/a	n/a	n/a	n/a	292.427	n/a
263.648	0.497	angry	Picture	76.172	n/a	3	7	18	n/a	18	80	2	n/a	n/a	n/a	n/a	292.958	BM35HAS.jpg
264.146	0.514	Blank	Blank	75.659	n/a	3	7	18	n/a	18	n/a	2	n/a	n/a	n/a	n/a	293.455	n/a
264.676	0.497	angry	Picture	75.144	n/a	3	7	19	n/a	19	76	2	n/a	n/a	n/a	n/a	293.986	BM24HAS.jpg
265.174	0.514	Blank	Blank	74.631	n/a	3	7	19	n/a	19	n/a	2	n/a	n/a	n/a	n/a	294.483	n/a
265.704	0.497	angry	Picture	74.117	n/a	3	7	20	n/a	20	74	2	n/a	n/a	n/a	n/a	295.013	AM22HAS.jpg
266.202	0.514	Blank	Blank	73.603	n/a	3	7	20	n/a	20	n/a	2	n/a	n/a	n/a	n/a	295.511	n/a
266.732	10.014	ITI	Fixation+	63.573	n/a	3	n/a	n/a	n/a	n/a	n/a	n/a	n/a	n/a	n/a	n/a	296.041	n/a
276.762	0.497	neutral	Picture	63.059	n/a	3	8	1	n/a	21	33	1	n/a	n/a	n/a	n/a	306.071	AM21NES.jpg
277.26	0.514	Blank	Blank	62.545	n/a	3	8	1	n/a	21	n/a	1	n/a	n/a	n/a	n/a	306.569	n/a
277.79	0.497	neutral	Picture	62.031	n/a	3	8	2	n/a	22	39	1	n/a	n/a	n/a	n/a	307.099	AM28NES.jpg
278.288	0.514	Blank	Blank	61.517	n/a	3	8	2	n/a	22	n/a	1	n/a	n/a	n/a	n/a	307.597	n/a
278.818	0.497	neutral	Picture	61.003	n/a	3	8	3	n/a	23	25	1	n/a	n/a	n/a	n/a	308.127	BM06NES.jpg
279.315	0.514	Blank	Blank	60.489	n/a	3	8	3	n/a	23	n/a	1	n/a	n/a	n/a	n/a	308.625	n/a
279.846	0.497	neutral	Picture	59.975	n/a	3	8	4	n/a	24	5	1	n/a	n/a	n/a	n/a	309.155	BF07NES.jpg
280.343	0.514	Blank	Blank	59.461	n/a	3	8	4	n/a	24	n/a	1	n/a	n/a	n/a	n/a	309.652	n/a
280.874	0.497	neutral	Picture	58.947	n/a	3	8	5	n/a	25	10	1	n/a	n/a	n/a	n/a	310.183	AF18NES.jpg
281.371	0.514	Blank	Blank	58.433	n/a	3	8	5	n/a	25	n/a	1	n/a	n/a	n/a	n/a	310.68	n/a
281.902	0.497	neutral	Picture	57.919	n/a	3	8	6	n/a	26	34	1	n/a	n/a	n/a	n/a	311.211	AM22NES.jpg
282.399	0.514	Blank	Blank	57.405	n/a	3	8	6	n/a	26	n/a	1	n/a	n/a	n/a	n/a	311.708	n/a
282.93	0.497	neutral	Picture	56.891	n/a	3	8	7	n/a	27	36	1	n/a	n/a	n/a	n/a	312.239	BM24NES.jpg
283.427	0.514	Blank	Blank	56.377	n/a	3	8	7	n/a	27	n/a	1	n/a	n/a	n/a	n/a	312.736	n/a
283.957	0.497	neutral	Picture	55.863	n/a	3	8	8	n/a	28	14	1	n/a	n/a	n/a	n/a	313.267	AF23NES.jpg
284.455	0.514	Blank	Blank	55.35	n/a	3	8	8	n/a	28	n/a	1	n/a	n/a	n/a	n/a	313.764	n/a
284.985	0.497	neutral	Picture	54.836	n/a	3	8	9	n/a	29	9	1	n/a	n/a	n/a	n/a	314.295	AF17NES.jpg
285.483	0.514	Blank	Blank	54.322	n/a	3	8	9	n/a	29	n/a	1	n/a	n/a	n/a	n/a	314.792	n/a
286.013	0.497	neutral	Picture	53.808	n/a	3	8	10	n/a	30	19	1	n/a	n/a	n/a	n/a	315.322	AF31NES.jpg
286.511	0.514	Blank	Blank	53.294	n/a	3	8	10	n/a	30	n/a	1	n/a	n/a	n/a	n/a	315.82	n/a
287.041	0.497	neutral	Picture	52.78	n/a	3	8	11	n/a	31	15	1	n/a	n/a	n/a	n/a	316.35	AF25NES.jpg
287.538	0.514	Blank	Blank	52.266	n/a	3	8	11	n/a	31	n/a	1	n/a	n/a	n/a	n/a	316.848	n/a
288.069	0.497	neutral	Picture	51.752	n/a	3	8	12	n/a	32	22	1	n/a	n/a	n/a	n/a	317.378	BM03NES.jpg
288.566	0.514	Blank	Blank	51.238	n/a	3	8	12	n/a	32	n/a	1	n/a	n/a	n/a	n/a	317.875	n/a
289.097	0.497	neutral	Picture	50.724	n/a	3	8	13	n/a	33	11	1	n/a	n/a	n/a	n/a	318.406	AF20NES.jpg
289.594	0.514	Blank	Blank	50.21	n/a	3	8	13	n/a	33	n/a	1	n/a	n/a	n/a	n/a	318.903	n/a
290.125	0.497	neutral	Picture	49.696	n/a	3	8	14	n/a	34	4	1	n/a	n/a	n/a	n/a	319.434	AF05NES.jpg
290.622	0.514	Blank	Blank	49.182	n/a	3	8	14	n/a	34	n/a	1	n/a	n/a	n/a	n/a	319.931	n/a
291.153	0.497	neutral	Picture	48.668	n/a	3	8	15	n/a	35	17	1	n/a	n/a	n/a	n/a	320.462	BF28NES.jpg
291.65	0.514	Blank	Blank	48.154	n/a	3	8	15	n/a	35	n/a	1	n/a	n/a	n/a	n/a	320.959	n/a
292.18	0.497	neutral	Picture	47.64	n/a	3	8	16	n/a	36	13	1	n/a	n/a	n/a	n/a	321.49	BF22NES.jpg
292.678	0.514	Blank	Blank	47.127	n/a	3	8	16	n/a	36	n/a	1	n/a	n/a	n/a	n/a	321.987	n/a
293.208	0.497	neutral	Picture	46.613	n/a	3	8	17	n/a	37	12	1	n/a	n/a	n/a	n/a	322.517	AF21NES.jpg
293.706	0.514	Blank	Blank	46.099	n/a	3	8	17	n/a	37	n/a	1	n/a	n/a	n/a	n/a	323.015	n/a
294.236	0.497	neutral	Picture	45.585	n/a	3	8	18	n/a	38	24	1	n/a	n/a	n/a	n/a	323.545	BM05NES.jpg
294.734	0.514	Blank	Blank	45.071	n/a	3	8	18	n/a	38	n/a	1	n/a	n/a	n/a	n/a	324.043	n/a
295.264	0.497	neutral	Picture	44.557	n/a	3	8	19	n/a	39	29	1	n/a	n/a	n/a	n/a	324.573	AM10NES.jpg
295.762	0.514	Blank	Blank	44.043	n/a	3	8	19	n/a	39	n/a	1	n/a	n/a	n/a	n/a	325.071	n/a
296.292	0.497	neutral	Picture	43.529	n/a	3	8	20	n/a	40	23	1	n/a	n/a	n/a	n/a	325.601	AM04NES.jpg
296.789	0.514	Blank	Blank	43.015	n/a	3	8	20	n/a	40	n/a	1	n/a	n/a	n/a	n/a	326.099	n/a
297.32	10.014	ITI	Fixation+	32.985	n/a	3	n/a	n/a	n/a	n/a	n/a	n/a	n/a	n/a	n/a	n/a	326.629	n/a
307.35	0.497	angry	Picture	32.471	n/a	3	9	1	n/a	41	62	2	n/a	n/a	n/a	n/a	336.659	BM03HAS.jpg
307.847	0.514	Blank	Blank	31.957	n/a	3	9	1	n/a	41	n/a	2	n/a	n/a	n/a	n/a	337.157	n/a
308.378	0.497	angry	Picture	31.443	n/a	3	9	2	n/a	42	52	2	n/a	n/a	n/a	n/a	337.687	AF21HAS.jpg
308.875	0.514	Blank	Blank	30.929	n/a	3	9	2	n/a	42	n/a	2	n/a	n/a	n/a	n/a	338.184	n/a
309.406	0.497	angry	Picture	30.415	n/a	3	9	3	n/a	43	44	2	n/a	n/a	n/a	n/a	338.715	AF05HAS.jpg
309.903	0.514	Blank	Blank	29.901	n/a	3	9	3	n/a	43	n/a	2	n/a	n/a	n/a	n/a	339.212	n/a
310.434	0.497	angry	Picture	29.387	n/a	3	9	4	n/a	44	53	2	n/a	n/a	n/a	n/a	339.743	BF22HAS.jpg
310.931	0.514	Blank	Blank	28.873	n/a	3	9	4	n/a	44	n/a	2	n/a	n/a	n/a	n/a	340.24	n/a
311.462	0.497	angry	Picture	28.359	n/a	3	9	5	n/a	45	54	2	n/a	n/a	n/a	n/a	340.771	AF23HAS.jpg
311.959	0.514	Blank	Blank	27.845	n/a	3	9	5	n/a	45	n/a	2	n/a	n/a	n/a	n/a	341.268	n/a
312.489	0.497	angry	Picture	27.331	n/a	3	9	6	n/a	46	68	2	n/a	n/a	n/a	n/a	341.799	AM09HAS.jpg
312.987	0.514	Blank	Blank	26.818	n/a	3	9	6	n/a	46	n/a	2	n/a	n/a	n/a	n/a	342.296	n/a
313.517	0.497	angry	Picture	26.303	n/a	3	9	7	n/a	47	64	2	n/a	n/a	n/a	n/a	342.827	BM05HAS.jpg
314.015	0.514	Blank	Blank	25.79	n/a	3	9	7	n/a	47	n/a	2	n/a	n/a	n/a	n/a	343.324	n/a
314.545	0.497	angry	Picture	25.276	n/a	3	9	8	n/a	48	59	2	n/a	n/a	n/a	n/a	343.854	AF31HAS.jpg
315.043	0.514	Blank	Blank	24.762	n/a	3	9	8	n/a	48	n/a	2	n/a	n/a	n/a	n/a	344.352	n/a
315.573	0.497	angry	Picture	24.248	n/a	3	9	9	n/a	49	41	2	n/a	n/a	n/a	n/a	344.882	AF01HAS.jpg
316.07	0.514	Blank	Blank	23.734	n/a	3	9	9	n/a	49	n/a	2	n/a	n/a	n/a	n/a	345.38	n/a
316.601	0.497	angry	Picture	23.22	n/a	3	9	10	n/a	50	73	2	n/a	n/a	n/a	n/a	345.91	AM21HAS.jpg
317.098	0.514	Blank	Blank	22.706	n/a	3	9	10	n/a	50	n/a	2	n/a	n/a	n/a	n/a	346.408	n/a
317.629	0.497	angry	Picture	22.192	n/a	3	9	11	n/a	51	65	2	n/a	n/a	n/a	n/a	346.938	BM06HAS.jpg
318.126	0.514	Blank	Blank	21.678	n/a	3	9	11	n/a	51	n/a	2	n/a	n/a	n/a	n/a	347.435	n/a
318.657	0.497	angry	Picture	21.164	n/a	3	9	12	n/a	52	56	2	n/a	n/a	n/a	n/a	347.966	AF26HAS.jpg
319.154	0.514	Blank	Blank	20.65	n/a	3	9	12	n/a	52	n/a	2	n/a	n/a	n/a	n/a	348.463	n/a
319.685	0.497	angry	Picture	20.136	n/a	3	9	13	n/a	53	45	2	n/a	n/a	n/a	n/a	348.994	BF07HAS.jpg
320.182	0.514	Blank	Blank	19.622	n/a	3	9	13	n/a	53	n/a	2	n/a	n/a	n/a	n/a	349.491	n/a
320.713	0.497	angry	Picture	19.108	n/a	3	9	14	n/a	54	78	2	n/a	n/a	n/a	n/a	350.022	BM26HAS.jpg
321.21	0.514	Blank	Blank	18.594	n/a	3	9	14	n/a	54	n/a	2	n/a	n/a	n/a	n/a	350.519	n/a
321.74	0.497	angry	Picture	18.08	n/a	3	9	15	n/a	55	50	2	n/a	n/a	n/a	n/a	351.05	AF18HAS.jpg
322.238	0.514	Blank	Blank	17.567	n/a	3	9	15	n/a	55	n/a	2	n/a	n/a	n/a	n/a	351.547	n/a
322.768	0.497	angry	Picture	17.053	n/a	3	9	16	n/a	56	47	2	n/a	n/a	n/a	n/a	352.077	BF11HAS.jpg
323.266	0.514	Blank	Blank	16.539	n/a	3	9	16	n/a	56	n/a	2	n/a	n/a	n/a	n/a	352.575	n/a
323.796	0.497	angry	Picture	16.025	n/a	3	9	17	n/a	57	77	2	n/a	n/a	n/a	n/a	353.105	BM25HAS.jpg
324.294	0.514	Blank	Blank	15.511	n/a	3	9	17	n/a	57	n/a	2	n/a	n/a	n/a	n/a	353.603	n/a
324.824	0.497	angry	Picture	14.997	n/a	3	9	18	n/a	58	57	2	n/a	n/a	n/a	n/a	354.133	BF28HAS.jpg
325.321	0.514	Blank	Blank	14.483	n/a	3	9	18	n/a	58	n/a	2	n/a	n/a	n/a	n/a	354.631	n/a
325.852	0.497	angry	Picture	13.969	n/a	3	9	19	n/a	59	61	2	n/a	n/a	n/a	n/a	355.161	AM01HAS.jpg
326.349	0.514	Blank	Blank	13.455	n/a	3	9	19	n/a	59	n/a	2	n/a	n/a	n/a	n/a	355.658	n/a
326.88	0.497	angry	Picture	12.941	n/a	3	9	20	n/a	60	79	2	n/a	n/a	n/a	n/a	356.189	BM28HAS.jpg
327.377	0.514	Blank	Blank	12.427	n/a	3	9	20	n/a	60	n/a	2	n/a	n/a	n/a	n/a	356.686	n/a
327.908	10.014	ITI	Fixation+	2.397	n/a	3	n/a	n/a	n/a	n/a	n/a	n/a	n/a	n/a	n/a	n/a	357.217	n/a
340.318	n/a	ConfirmRating	Rate	n/a	2.387	3	n/a	n/a	0	n/a	n/a	n/a	2	Angry	60	51	369.627	n/a
343.969	n/a	ConfirmRating	Rate	n/a	3.631	3	n/a	n/a	1	n/a	n/a	n/a	3	Angry	59	51	373.278	n/a
343.989	10.014	ITI	Fixation+	95.58	n/a	4	n/a	n/a	n/a	n/a	n/a	n/a	n/a	n/a	n/a	n/a	373.298	n/a
354.019	0.497	happy	Picture	95.067	n/a	4	10	1	n/a	61	119	3	n/a	n/a	n/a	n/a	383.328	BM28ANS.jpg
354.517	0.514	Blank	Blank	94.553	n/a	4	10	1	n/a	61	n/a	3	n/a	n/a	n/a	n/a	383.826	n/a
355.047	0.497	happy	Picture	94.039	n/a	4	10	2	n/a	62	100	3	n/a	n/a	n/a	n/a	384.356	AF32ANS.jpg
355.544	0.514	Blank	Blank	93.525	n/a	4	10	2	n/a	62	n/a	3	n/a	n/a	n/a	n/a	384.854	n/a
356.075	0.497	happy	Picture	93.011	n/a	4	10	3	n/a	63	118	3	n/a	n/a	n/a	n/a	385.384	BM26ANS.jpg
356.572	0.514	Blank	Blank	92.497	n/a	4	10	3	n/a	63	n/a	3	n/a	n/a	n/a	n/a	385.882	n/a
357.103	0.497	happy	Picture	91.983	n/a	4	10	4	n/a	64	89	3	n/a	n/a	n/a	n/a	386.412	AF17ANS.jpg
357.6	0.514	Blank	Blank	91.469	n/a	4	10	4	n/a	64	n/a	3	n/a	n/a	n/a	n/a	386.909	n/a
358.131	0.497	happy	Picture	90.955	n/a	4	10	5	n/a	65	116	3	n/a	n/a	n/a	n/a	387.44	BM24ANS.jpg
358.628	0.514	Blank	Blank	90.441	n/a	4	10	5	n/a	65	n/a	3	n/a	n/a	n/a	n/a	387.937	n/a
359.159	0.497	happy	Picture	89.927	n/a	4	10	6	n/a	66	105	3	n/a	n/a	n/a	n/a	388.468	BM06ANS.jpg
359.656	0.514	Blank	Blank	89.413	n/a	4	10	6	n/a	66	n/a	3	n/a	n/a	n/a	n/a	388.965	n/a
360.187	0.497	happy	Picture	88.899	n/a	4	10	7	n/a	67	106	3	n/a	n/a	n/a	n/a	389.496	AM07ANS.jpg
360.684	0.514	Blank	Blank	88.385	n/a	4	10	7	n/a	67	n/a	3	n/a	n/a	n/a	n/a	389.993	n/a
361.214	0.497	happy	Picture	87.871	n/a	4	10	8	n/a	68	94	3	n/a	n/a	n/a	n/a	390.524	AF23ANS.jpg
361.712	0.514	Blank	Blank	87.358	n/a	4	10	8	n/a	68	n/a	3	n/a	n/a	n/a	n/a	391.021	n/a
362.242	0.497	happy	Picture	86.843	n/a	4	10	9	n/a	69	117	3	n/a	n/a	n/a	n/a	391.551	BM25ANS.jpg
362.74	0.514	Blank	Blank	86.33	n/a	4	10	9	n/a	69	n/a	3	n/a	n/a	n/a	n/a	392.049	n/a
363.27	0.497	happy	Picture	85.816	n/a	4	10	10	n/a	70	90	3	n/a	n/a	n/a	n/a	392.579	AF18ANS.jpg
363.768	0.514	Blank	Blank	85.302	n/a	4	10	10	n/a	70	n/a	3	n/a	n/a	n/a	n/a	393.077	n/a
364.298	0.497	happy	Picture	84.788	n/a	4	10	11	n/a	71	83	3	n/a	n/a	n/a	n/a	393.607	BF04ANS.jpg
364.795	0.514	Blank	Blank	84.274	n/a	4	10	11	n/a	71	n/a	3	n/a	n/a	n/a	n/a	394.104	n/a
365.326	0.497	happy	Picture	83.76	n/a	4	10	12	n/a	72	112	3	n/a	n/a	n/a	n/a	394.635	AM14ANS.jpg
365.823	0.514	Blank	Blank	83.246	n/a	4	10	12	n/a	72	n/a	3	n/a	n/a	n/a	n/a	395.132	n/a
366.354	0.497	happy	Picture	82.732	n/a	4	10	13	n/a	73	102	3	n/a	n/a	n/a	n/a	395.663	BM03ANS.jpg
366.851	0.514	Blank	Blank	82.218	n/a	4	10	13	n/a	73	n/a	3	n/a	n/a	n/a	n/a	396.16	n/a
367.382	0.497	happy	Picture	81.704	n/a	4	10	14	n/a	74	95	3	n/a	n/a	n/a	n/a	396.691	AF25ANS.jpg
367.879	0.514	Blank	Blank	81.19	n/a	4	10	14	n/a	74	n/a	3	n/a	n/a	n/a	n/a	397.188	n/a
368.41	0.497	happy	Picture	80.676	n/a	4	10	15	n/a	75	113	3	n/a	n/a	n/a	n/a	397.719	AM21ANS.jpg
368.907	0.514	Blank	Blank	80.162	n/a	4	10	15	n/a	75	n/a	3	n/a	n/a	n/a	n/a	398.216	n/a
369.437	0.497	happy	Picture	79.648	n/a	4	10	16	n/a	76	88	3	n/a	n/a	n/a	n/a	398.747	AF14ANS.jpg
369.935	0.514	Blank	Blank	79.134	n/a	4	10	16	n/a	76	n/a	3	n/a	n/a	n/a	n/a	399.244	n/a
370.465	0.497	happy	Picture	78.62	n/a	4	10	17	n/a	77	93	3	n/a	n/a	n/a	n/a	399.774	BF22ANS.jpg
370.963	0.514	Blank	Blank	78.106	n/a	4	10	17	n/a	77	n/a	3	n/a	n/a	n/a	n/a	400.272	n/a
371.493	0.497	happy	Picture	77.593	n/a	4	10	18	n/a	78	86	3	n/a	n/a	n/a	n/a	400.802	AF09ANS.jpg
371.99	0.514	Blank	Blank	77.079	n/a	4	10	18	n/a	78	n/a	3	n/a	n/a	n/a	n/a	401.3	n/a
372.521	0.497	happy	Picture	76.565	n/a	4	10	19	n/a	79	92	3	n/a	n/a	n/a	n/a	401.83	AF21ANS.jpg
373.018	0.514	Blank	Blank	76.051	n/a	4	10	19	n/a	79	n/a	3	n/a	n/a	n/a	n/a	402.328	n/a
373.549	0.497	happy	Picture	75.537	n/a	4	10	20	n/a	80	84	3	n/a	n/a	n/a	n/a	402.858	AF05ANS.jpg
374.046	0.514	Blank	Blank	75.023	n/a	4	10	20	n/a	80	n/a	3	n/a	n/a	n/a	n/a	403.356	n/a
374.577	10.014	ITI	Fixation+	64.993	n/a	4	n/a	n/a	n/a	n/a	n/a	n/a	n/a	n/a	n/a	n/a	403.886	n/a
384.607	0.497	neutral	Picture	64.479	n/a	4	11	1	n/a	81	4	1	n/a	n/a	n/a	n/a	413.916	AF05NES.jpg
385.104	0.514	Blank	Blank	63.965	n/a	4	11	1	n/a	81	n/a	1	n/a	n/a	n/a	n/a	414.413	n/a
385.635	0.497	neutral	Picture	63.451	n/a	4	11	2	n/a	82	14	1	n/a	n/a	n/a	n/a	414.944	AF23NES.jpg
386.132	0.514	Blank	Blank	62.937	n/a	4	11	2	n/a	82	n/a	1	n/a	n/a	n/a	n/a	415.441	n/a
386.663	0.497	neutral	Picture	62.423	n/a	4	11	3	n/a	83	19	1	n/a	n/a	n/a	n/a	415.972	AF31NES.jpg
387.16	0.514	Blank	Blank	61.909	n/a	4	11	3	n/a	83	n/a	1	n/a	n/a	n/a	n/a	416.469	n/a
387.691	0.497	neutral	Picture	61.395	n/a	4	11	4	n/a	84	8	1	n/a	n/a	n/a	n/a	417.0	AF14NES.jpg
388.188	0.514	Blank	Blank	60.881	n/a	4	11	4	n/a	84	n/a	1	n/a	n/a	n/a	n/a	417.497	n/a
388.719	0.497	neutral	Picture	60.367	n/a	4	11	5	n/a	85	25	1	n/a	n/a	n/a	n/a	418.028	BM06NES.jpg
389.216	0.514	Blank	Blank	59.853	n/a	4	11	5	n/a	85	n/a	1	n/a	n/a	n/a	n/a	418.525	n/a
389.746	0.497	neutral	Picture	59.339	n/a	4	11	6	n/a	86	9	1	n/a	n/a	n/a	n/a	419.055	AF17NES.jpg
390.244	0.514	Blank	Blank	58.825	n/a	4	11	6	n/a	86	n/a	1	n/a	n/a	n/a	n/a	419.553	n/a
390.774	0.497	neutral	Picture	58.311	n/a	4	11	7	n/a	87	2	1	n/a	n/a	n/a	n/a	420.083	AF03NES.jpg
391.272	0.514	Blank	Blank	57.798	n/a	4	11	7	n/a	87	n/a	1	n/a	n/a	n/a	n/a	420.581	n/a
391.802	0.497	neutral	Picture	57.284	n/a	4	11	8	n/a	88	17	1	n/a	n/a	n/a	n/a	421.111	BF28NES.jpg
392.3	0.514	Blank	Blank	56.77	n/a	4	11	8	n/a	88	n/a	1	n/a	n/a	n/a	n/a	421.609	n/a
392.83	0.497	neutral	Picture	56.256	n/a	4	11	9	n/a	89	6	1	n/a	n/a	n/a	n/a	422.139	AF09NES.jpg
393.327	0.514	Blank	Blank	55.742	n/a	4	11	9	n/a	89	n/a	1	n/a	n/a	n/a	n/a	422.637	n/a
393.858	0.497	neutral	Picture	55.228	n/a	4	11	10	n/a	90	12	1	n/a	n/a	n/a	n/a	423.167	AF21NES.jpg
394.355	0.514	Blank	Blank	54.714	n/a	4	11	10	n/a	90	n/a	1	n/a	n/a	n/a	n/a	423.664	n/a
394.886	0.497	neutral	Picture	54.2	n/a	4	11	11	n/a	91	24	1	n/a	n/a	n/a	n/a	424.195	BM05NES.jpg
395.383	0.514	Blank	Blank	53.686	n/a	4	11	11	n/a	91	n/a	1	n/a	n/a	n/a	n/a	424.692	n/a
395.914	0.497	neutral	Picture	53.172	n/a	4	11	12	n/a	92	34	1	n/a	n/a	n/a	n/a	425.223	AM22NES.jpg
396.411	0.514	Blank	Blank	52.658	n/a	4	11	12	n/a	92	n/a	1	n/a	n/a	n/a	n/a	425.72	n/a
396.942	0.497	neutral	Picture	52.144	n/a	4	11	13	n/a	93	23	1	n/a	n/a	n/a	n/a	426.251	AM04NES.jpg
397.439	0.514	Blank	Blank	51.63	n/a	4	11	13	n/a	93	n/a	1	n/a	n/a	n/a	n/a	426.748	n/a
397.969	0.497	neutral	Picture	51.116	n/a	4	11	14	n/a	94	15	1	n/a	n/a	n/a	n/a	427.279	AF25NES.jpg
398.467	0.514	Blank	Blank	50.602	n/a	4	11	14	n/a	94	n/a	1	n/a	n/a	n/a	n/a	427.776	n/a
398.997	0.497	neutral	Picture	50.088	n/a	4	11	15	n/a	95	37	1	n/a	n/a	n/a	n/a	428.307	BM25NES.jpg
399.495	0.514	Blank	Blank	49.574	n/a	4	11	15	n/a	95	n/a	1	n/a	n/a	n/a	n/a	428.804	n/a
400.025	0.497	neutral	Picture	49.061	n/a	4	11	16	n/a	96	32	1	n/a	n/a	n/a	n/a	429.334	AM14NES.jpg
400.523	0.514	Blank	Blank	48.547	n/a	4	11	16	n/a	96	n/a	1	n/a	n/a	n/a	n/a	429.832	n/a
401.053	0.497	neutral	Picture	48.033	n/a	4	11	17	n/a	97	3	1	n/a	n/a	n/a	n/a	430.362	BF04NES.jpg
401.55	0.514	Blank	Blank	47.519	n/a	4	11	17	n/a	97	n/a	1	n/a	n/a	n/a	n/a	430.86	n/a
402.081	0.497	neutral	Picture	47.005	n/a	4	11	18	n/a	98	16	1	n/a	n/a	n/a	n/a	431.39	AF26NES.jpg
402.578	0.514	Blank	Blank	46.491	n/a	4	11	18	n/a	98	n/a	1	n/a	n/a	n/a	n/a	431.887	n/a
403.109	0.497	neutral	Picture	45.977	n/a	4	11	19	n/a	99	27	1	n/a	n/a	n/a	n/a	432.418	BM08NES.jpg
403.606	0.514	Blank	Blank	45.463	n/a	4	11	19	n/a	99	n/a	1	n/a	n/a	n/a	n/a	432.915	n/a
404.137	0.497	neutral	Picture	44.949	n/a	4	11	20	n/a	100	28	1	n/a	n/a	n/a	n/a	433.446	AM09NES.jpg
404.634	0.514	Blank	Blank	44.435	n/a	4	11	20	n/a	100	n/a	1	n/a	n/a	n/a	n/a	433.943	n/a
405.165	10.014	ITI	Fixation+	34.405	n/a	4	n/a	n/a	n/a	n/a	n/a	n/a	n/a	n/a	n/a	n/a	434.474	n/a
415.195	0.497	happy	Picture	33.891	n/a	4	12	1	n/a	101	81	3	n/a	n/a	n/a	n/a	444.504	AF01ANS.jpg
415.692	0.514	Blank	Blank	33.377	n/a	4	12	1	n/a	101	n/a	3	n/a	n/a	n/a	n/a	445.001	n/a
416.223	0.497	happy	Picture	32.863	n/a	4	12	2	n/a	102	120	3	n/a	n/a	n/a	n/a	445.532	AM35ANS.jpg
416.72	0.514	Blank	Blank	32.349	n/a	4	12	2	n/a	102	n/a	3	n/a	n/a	n/a	n/a	446.029	n/a
417.251	0.497	happy	Picture	31.835	n/a	4	12	3	n/a	103	114	3	n/a	n/a	n/a	n/a	446.56	AM22ANS.jpg
417.748	0.514	Blank	Blank	31.321	n/a	4	12	3	n/a	103	n/a	3	n/a	n/a	n/a	n/a	447.057	n/a
418.278	0.497	happy	Picture	30.807	n/a	4	12	4	n/a	104	109	3	n/a	n/a	n/a	n/a	447.588	AM10ANS.jpg
418.776	0.514	Blank	Blank	30.293	n/a	4	12	4	n/a	104	n/a	3	n/a	n/a	n/a	n/a	448.085	n/a
419.306	0.497	happy	Picture	29.779	n/a	4	12	5	n/a	105	96	3	n/a	n/a	n/a	n/a	448.615	AF26ANS.jpg
419.804	0.514	Blank	Blank	29.265	n/a	4	12	5	n/a	105	n/a	3	n/a	n/a	n/a	n/a	449.113	n/a
420.334	0.497	happy	Picture	28.752	n/a	4	12	6	n/a	106	82	3	n/a	n/a	n/a	n/a	449.643	AF03ANS.jpg
420.832	0.514	Blank	Blank	28.238	n/a	4	12	6	n/a	106	n/a	3	n/a	n/a	n/a	n/a	450.141	n/a
421.362	0.497	happy	Picture	27.724	n/a	4	12	7	n/a	107	97	3	n/a	n/a	n/a	n/a	450.671	BF28ANS.jpg
421.859	0.514	Blank	Blank	27.21	n/a	4	12	7	n/a	107	n/a	3	n/a	n/a	n/a	n/a	451.169	n/a
422.39	0.497	happy	Picture	26.696	n/a	4	12	8	n/a	108	115	3	n/a	n/a	n/a	n/a	451.699	AM23ANS.jpg
422.887	0.514	Blank	Blank	26.182	n/a	4	12	8	n/a	108	n/a	3	n/a	n/a	n/a	n/a	452.197	n/a
423.418	0.497	happy	Picture	25.668	n/a	4	12	9	n/a	109	91	3	n/a	n/a	n/a	n/a	452.727	AF20ANS.jpg
423.915	0.514	Blank	Blank	25.154	n/a	4	12	9	n/a	109	n/a	3	n/a	n/a	n/a	n/a	453.224	n/a
424.446	0.497	happy	Picture	24.64	n/a	4	12	10	n/a	110	87	3	n/a	n/a	n/a	n/a	453.755	BF11ANS.jpg
424.943	0.514	Blank	Blank	24.126	n/a	4	12	10	n/a	110	n/a	3	n/a	n/a	n/a	n/a	454.252	n/a
425.474	0.497	happy	Picture	23.612	n/a	4	12	11	n/a	111	85	3	n/a	n/a	n/a	n/a	454.783	BF07ANS.jpg
425.971	0.514	Blank	Blank	23.098	n/a	4	12	11	n/a	111	n/a	3	n/a	n/a	n/a	n/a	455.28	n/a
426.501	0.497	happy	Picture	22.584	n/a	4	12	12	n/a	112	110	3	n/a	n/a	n/a	n/a	455.811	AM11ANS.jpg
426.999	0.514	Blank	Blank	22.07	n/a	4	12	12	n/a	112	n/a	3	n/a	n/a	n/a	n/a	456.308	n/a
427.529	0.497	happy	Picture	21.556	n/a	4	12	13	n/a	113	111	3	n/a	n/a	n/a	n/a	456.839	BM12ANS.jpg
428.027	0.514	Blank	Blank	21.043	n/a	4	12	13	n/a	113	n/a	3	n/a	n/a	n/a	n/a	457.336	n/a
428.557	0.497	happy	Picture	20.529	n/a	4	12	14	n/a	114	103	3	n/a	n/a	n/a	n/a	457.866	AM04ANS.jpg
429.055	0.514	Blank	Blank	20.015	n/a	4	12	14	n/a	114	n/a	3	n/a	n/a	n/a	n/a	458.364	n/a
429.585	0.497	happy	Picture	19.501	n/a	4	12	15	n/a	115	101	3	n/a	n/a	n/a	n/a	458.894	AM01ANS.jpg
430.082	0.514	Blank	Blank	18.987	n/a	4	12	15	n/a	115	n/a	3	n/a	n/a	n/a	n/a	459.392	n/a
430.613	0.497	happy	Picture	18.473	n/a	4	12	16	n/a	116	104	3	n/a	n/a	n/a	n/a	459.922	BM05ANS.jpg
431.11	0.514	Blank	Blank	17.959	n/a	4	12	16	n/a	116	n/a	3	n/a	n/a	n/a	n/a	460.42	n/a
431.641	0.497	happy	Picture	17.445	n/a	4	12	17	n/a	117	107	3	n/a	n/a	n/a	n/a	460.95	BM08ANS.jpg
432.138	0.514	Blank	Blank	16.931	n/a	4	12	17	n/a	117	n/a	3	n/a	n/a	n/a	n/a	461.447	n/a
432.669	0.497	happy	Picture	16.417	n/a	4	12	18	n/a	118	98	3	n/a	n/a	n/a	n/a	461.978	BF29ANS.jpg
433.166	0.514	Blank	Blank	15.903	n/a	4	12	18	n/a	118	n/a	3	n/a	n/a	n/a	n/a	462.475	n/a
433.697	0.497	happy	Picture	15.389	n/a	4	12	19	n/a	119	99	3	n/a	n/a	n/a	n/a	463.006	AF31ANS.jpg
434.194	0.514	Blank	Blank	14.875	n/a	4	12	19	n/a	119	n/a	3	n/a	n/a	n/a	n/a	463.503	n/a
434.725	0.497	happy	Picture	14.361	n/a	4	12	20	n/a	120	108	3	n/a	n/a	n/a	n/a	464.034	AM09ANS.jpg
435.222	0.514	Blank	Blank	13.847	n/a	4	12	20	n/a	120	n/a	3	n/a	n/a	n/a	n/a	464.531	n/a
435.752	10.014	ITI	Fixation+	3.817	n/a	4	n/a	n/a	n/a	n/a	n/a	n/a	n/a	n/a	n/a	n/a	465.062	n/a
449.583	n/a	ConfirmRating	Rate	n/a	3.813	4	n/a	n/a	0	n/a	n/a	n/a	2	Happy	91	55	478.892	n/a
453.682	n/a	ConfirmRating	Rate	n/a	4.078	4	n/a	n/a	1	n/a	n/a	n/a	3	Happy	25	47	482.991	n/a
