onset	duration	trial_type	trial_number	event_type	cue_to_participant	stimulus_type	time_until_response	rated_success_of_regulation	onset_uncorrected
0.006	10.014	Instruction	-1	Picture	Instruction	n/a	n/a	n/a	41.143
10.036	5.007	ITI	0	Picture	Fixation+	1	12.041	n/a	51.174
15.059	2.006	Cue	0	Picture	Maintain	1	10.018	n/a	56.197
17.066	4.99	Pic	0	Picture	IAPS_01	1	5.028	n/a	58.203
22.056	2.006	Blank	0	Picture	BLANK	1	3.022	n/a	63.193
27.084	n/a	ConfirmRating	0	Response	n/a	1	n/a	7	68.221
27.112	6.002	ITI	1	Picture	Fixation+	2	12.572	n/a	68.25
33.13	2.006	Cue	1	Picture	Enhance	2	10.549	n/a	74.268
35.137	4.99	Pic	1	Picture	IAPS_26	2	5.559	n/a	76.274
40.127	2.006	Blank	1	Picture	BLANK	2	3.553	n/a	81.264
45.685	n/a	ConfirmRating	1	Response	n/a	2	n/a	5	86.823
45.714	4.012	ITI	2	Picture	Fixation+	3	11.549	n/a	86.851
49.742	2.006	Cue	2	Picture	Suppress	3	9.527	n/a	90.88
51.749	4.99	Pic	2	Picture	IAPS_36	3	4.536	n/a	92.886
56.739	2.006	Blank	2	Picture	BLANK	3	2.53	n/a	97.876
61.275	n/a	ConfirmRating	2	Response	n/a	3	n/a	5	102.413
61.298	5.007	ITI	3	Picture	Fixation+	4	13.1	n/a	102.436
66.321	2.006	Cue	3	Picture	Maintain	4	11.078	n/a	107.459
68.328	4.99	Pic	3	Picture	IAPS_46	4	6.087	n/a	109.465
73.318	2.006	Blank	3	Picture	BLANK	4	4.081	n/a	114.455
79.405	n/a	ConfirmRating	3	Response	n/a	4	n/a	6	120.543
79.435	5.007	ITI	4	Picture	Fixation+	4	11.562	n/a	120.573
84.459	2.006	Cue	4	Picture	Maintain	4	9.539	n/a	125.596
86.465	4.99	Pic	4	Picture	IAPS_49	4	4.549	n/a	127.602
91.455	2.006	Blank	4	Picture	BLANK	4	2.543	n/a	132.593
96.004	n/a	ConfirmRating	4	Response	n/a	4	n/a	0	137.141
96.031	6.002	ITI	5	Picture	Fixation+	2	12.227	n/a	137.168
102.049	2.006	Cue	5	Picture	Enhance	2	10.205	n/a	143.186
104.055	4.99	Pic	5	Picture	IAPS_27	2	5.214	n/a	145.192
109.045	2.006	Blank	5	Picture	BLANK	2	3.208	n/a	150.183
114.26	n/a	ConfirmRating	5	Response	n/a	2	n/a	3	155.397
114.284	4.012	ITI	6	Picture	Fixation+	1	10.664	n/a	155.422
118.313	2.006	Cue	6	Picture	Maintain	1	8.642	n/a	159.45
120.319	4.99	Pic	6	Picture	IAPS_02	1	3.652	n/a	161.456
125.309	2.006	Blank	6	Picture	BLANK	1	1.645	n/a	166.446
128.961	n/a	ConfirmRating	6	Response	n/a	1	n/a	6	170.098
128.99	6.002	ITI	7	Picture	Fixation+	3	12.413	n/a	170.127
135.008	2.006	Cue	7	Picture	Suppress	3	10.391	n/a	176.145
137.014	4.99	Pic	7	Picture	IAPS_37	3	5.4	n/a	178.151
142.004	2.006	Blank	7	Picture	BLANK	3	3.394	n/a	183.142
147.404	n/a	ConfirmRating	7	Response	n/a	3	n/a	4	188.542
147.425	5.007	ITI	8	Picture	Fixation+	4	11.288	n/a	188.563
152.449	2.006	Cue	8	Picture	Maintain	4	9.265	n/a	193.586
154.455	4.99	Pic	8	Picture	IAPS_52	4	4.275	n/a	195.592
159.445	2.006	Blank	8	Picture	BLANK	4	2.269	n/a	200.582
163.72	n/a	ConfirmRating	8	Response	n/a	4	n/a	3	204.858
163.739	6.002	ITI	9	Picture	Fixation+	1	12.102	n/a	204.876
169.757	2.006	Cue	9	Picture	Maintain	1	10.079	n/a	210.894
171.763	4.99	Pic	9	Picture	IAPS_03	1	5.089	n/a	212.9
176.753	2.006	Blank	9	Picture	BLANK	1	3.083	n/a	217.891
181.842	n/a	ConfirmRating	9	Response	n/a	1	n/a	5	222.979
181.86	5.007	ITI	10	Picture	Fixation+	2	10.699	n/a	222.997
186.883	2.006	Cue	10	Picture	Enhance	2	8.677	n/a	228.02
188.889	4.99	Pic	10	Picture	IAPS_28	2	3.687	n/a	230.026
193.879	2.006	Blank	10	Picture	BLANK	2	1.681	n/a	235.017
197.566	n/a	ConfirmRating	10	Response	n/a	2	n/a	3	238.703
197.593	4.012	ITI	11	Picture	Fixation+	3	10.168	n/a	238.73
201.622	2.006	Cue	11	Picture	Suppress	3	8.145	n/a	242.759
203.628	4.99	Pic	11	Picture	IAPS_38	3	3.155	n/a	244.765
208.618	2.006	Blank	11	Picture	BLANK	3	1.149	n/a	249.755
211.773	n/a	ConfirmRating	11	Response	n/a	3	n/a	0	252.91
211.801	6.002	ITI	12	Picture	Fixation+	2	11.959	n/a	252.939
217.819	2.006	Cue	12	Picture	Enhance	2	9.936	n/a	258.957
219.825	4.99	Pic	12	Picture	IAPS_29	2	4.946	n/a	260.963
224.815	2.006	Blank	12	Picture	BLANK	2	2.94	n/a	265.953
229.762	n/a	ConfirmRating	12	Response	n/a	2	n/a	0	270.899
229.789	5.007	ITI	13	Picture	Fixation+	1	11.035	n/a	270.927
234.813	2.006	Cue	13	Picture	Maintain	1	9.013	n/a	275.95
236.819	4.99	Pic	13	Picture	IAPS_04	1	4.022	n/a	277.956
241.809	2.006	Blank	13	Picture	BLANK	1	2.016	n/a	282.946
245.831	n/a	ConfirmRating	13	Response	n/a	1	n/a	5	286.969
245.854	4.012	ITI	14	Picture	Fixation+	4	10.172	n/a	286.991
249.883	2.006	Cue	14	Picture	Maintain	4	8.149	n/a	291.02
251.889	4.99	Pic	14	Picture	IAPS_55	4	3.159	n/a	293.026
256.879	2.006	Blank	14	Picture	BLANK	4	1.153	n/a	298.017
260.038	n/a	ConfirmRating	14	Response	n/a	4	n/a	6	301.176
260.062	5.007	ITI	15	Picture	Fixation+	3	12.077	n/a	301.2
265.086	2.006	Cue	15	Picture	Suppress	3	10.054	n/a	306.223
267.092	4.99	Pic	15	Picture	IAPS_39	3	5.064	n/a	308.229
272.082	2.006	Blank	15	Picture	BLANK	3	3.058	n/a	313.219
277.146	n/a	ConfirmRating	15	Response	n/a	3	n/a	5	318.283
277.172	6.002	ITI	16	Picture	Fixation+	2	11.871	n/a	318.309
283.19	2.006	Cue	16	Picture	Enhance	2	9.848	n/a	324.327
285.196	4.99	Pic	16	Picture	IAPS_30	2	4.858	n/a	326.333
290.186	2.006	Blank	16	Picture	BLANK	2	2.852	n/a	331.323
295.044	n/a	ConfirmRating	16	Response	n/a	2	n/a	2	336.181
295.077	6.002	ITI	17	Picture	Fixation+	1	13.32	n/a	336.214
301.095	2.006	Cue	17	Picture	Maintain	1	11.298	n/a	342.232
303.101	4.99	Pic	17	Picture	IAPS_05	1	6.307	n/a	344.238
308.091	2.006	Blank	17	Picture	BLANK	1	4.301	n/a	349.229
314.399	n/a	ConfirmRating	17	Response	n/a	1	n/a	5	355.536
314.424	4.012	ITI	18	Picture	Fixation+	3	11.026	n/a	355.562
318.453	2.006	Cue	18	Picture	Suppress	3	9.004	n/a	359.59
320.459	4.99	Pic	18	Picture	IAPS_40	3	4.013	n/a	361.596
325.449	2.006	Blank	18	Picture	BLANK	3	2.007	n/a	366.587
329.462	n/a	ConfirmRating	18	Response	n/a	3	n/a	0	370.6
329.494	5.007	ITI	19	Picture	Fixation+	4	12.278	n/a	370.632
334.518	2.006	Cue	19	Picture	Maintain	4	10.255	n/a	375.655
336.524	4.99	Pic	19	Picture	IAPS_58	4	5.265	n/a	377.661
341.514	2.006	Blank	19	Picture	BLANK	4	3.259	n/a	382.652
346.779	n/a	ConfirmRating	19	Response	n/a	4	n/a	0	387.917
346.803	6.002	ITI	20	Picture	Fixation+	4	11.7	n/a	387.94
352.821	2.006	Cue	20	Picture	Maintain	4	9.677	n/a	393.958
354.827	4.99	Pic	20	Picture	IAPS_47	4	4.687	n/a	395.964
359.817	2.006	Blank	20	Picture	BLANK	4	2.681	n/a	400.955
364.504	n/a	ConfirmRating	20	Response	n/a	4	n/a	5	405.642
364.526	5.007	ITI	21	Picture	Fixation+	3	22.346	n/a	405.663
369.549	2.006	Cue	21	Picture	Suppress	3	20.324	n/a	410.687
371.555	4.99	Pic	21	Picture	IAPS_41	3	15.333	n/a	412.692
376.545	2.006	Blank	21	Picture	BLANK	3	13.327	n/a	417.683
391.879	n/a	ConfirmRating	21	Response	n/a	3	n/a	2	433.016
391.897	4.012	ITI	22	Picture	Fixation+	1	11.202	n/a	433.035
395.926	2.006	Cue	22	Picture	Maintain	1	9.18	n/a	437.063
397.932	4.99	Pic	22	Picture	IAPS_06	1	4.189	n/a	439.07
402.922	2.006	Blank	22	Picture	BLANK	1	2.183	n/a	444.06
407.112	n/a	ConfirmRating	22	Response	n/a	1	n/a	5	448.249
407.133	4.012	ITI	23	Picture	Fixation+	2	10.34	n/a	448.271
411.162	2.006	Cue	23	Picture	Enhance	2	8.317	n/a	452.3
413.168	4.99	Pic	23	Picture	IAPS_16	2	3.327	n/a	454.305
418.158	2.006	Blank	23	Picture	BLANK	2	1.321	n/a	459.296
421.485	n/a	ConfirmRating	23	Response	n/a	2	n/a	3	462.623
421.507	5.007	ITI	24	Picture	Fixation+	1	11.425	n/a	462.645
426.531	2.006	Cue	24	Picture	Maintain	1	9.403	n/a	467.668
428.537	4.99	Pic	24	Picture	IAPS_07	1	4.412	n/a	469.674
433.527	2.006	Blank	24	Picture	BLANK	1	2.406	n/a	474.664
437.939	n/a	ConfirmRating	24	Response	n/a	1	n/a	0	479.077
437.97	4.012	ITI	25	Picture	Fixation+	2	12.247	n/a	479.108
441.999	2.006	Cue	25	Picture	Enhance	2	10.224	n/a	483.136
444.005	4.99	Pic	25	Picture	IAPS_17	2	5.234	n/a	485.142
448.995	2.006	Blank	25	Picture	BLANK	2	3.228	n/a	490.132
454.229	n/a	ConfirmRating	25	Response	n/a	2	n/a	4	495.367
454.25	6.002	ITI	26	Picture	Fixation+	4	11.108	n/a	495.388
460.269	2.006	Cue	26	Picture	Maintain	4	9.085	n/a	501.406
462.275	4.99	Pic	26	Picture	IAPS_50	4	4.095	n/a	503.412
467.265	2.006	Blank	26	Picture	BLANK	4	2.089	n/a	508.402
471.36	n/a	ConfirmRating	26	Response	n/a	4	n/a	6	512.497
471.393	5.007	ITI	27	Picture	Fixation+	3	12.37	n/a	512.53
476.416	2.006	Cue	27	Picture	Suppress	3	10.347	n/a	517.554
478.422	4.99	Pic	27	Picture	IAPS_42	3	5.357	n/a	519.56
483.413	2.006	Blank	27	Picture	BLANK	3	3.351	n/a	524.55
488.77	n/a	ConfirmRating	27	Response	n/a	3	n/a	3	529.907
488.801	5.007	ITI	28	Picture	Fixation+	2	11.414	n/a	529.938
493.824	2.006	Cue	28	Picture	Enhance	2	9.391	n/a	534.962
495.83	4.99	Pic	28	Picture	IAPS_18	2	4.401	n/a	536.968
500.82	2.006	Blank	28	Picture	BLANK	2	2.395	n/a	541.958
505.222	n/a	ConfirmRating	28	Response	n/a	2	n/a	2	546.359
505.247	4.012	ITI	29	Picture	Fixation+	3	10.129	n/a	546.385
509.276	2.006	Cue	29	Picture	Suppress	3	8.107	n/a	550.413
511.282	4.99	Pic	29	Picture	IAPS_43	3	3.116	n/a	552.419
516.272	2.006	Blank	29	Picture	BLANK	3	1.11	n/a	557.409
519.388	n/a	ConfirmRating	29	Response	n/a	3	n/a	3	560.526
519.405	15.004	Rest	29	Picture	Rest	n/a	-15.021	n/a	560.543
534.426	5.007	ITI	30	Picture	Fixation+	4	10.467	n/a	575.563
539.449	2.006	Cue	30	Picture	Maintain	4	8.445	n/a	580.587
541.455	4.99	Pic	30	Picture	IAPS_53	4	3.454	n/a	582.593
546.446	2.006	Blank	30	Picture	BLANK	4	1.449	n/a	587.583
549.9	n/a	ConfirmRating	30	Response	n/a	4	n/a	0	591.038
549.927	6.002	ITI	31	Picture	Fixation+	1	10.854	n/a	591.065
555.945	2.006	Cue	31	Picture	Maintain	1	8.832	n/a	597.083
557.951	4.99	Pic	31	Picture	IAPS_08	1	3.841	n/a	599.089
562.941	2.006	Blank	31	Picture	BLANK	1	1.835	n/a	604.079
566.783	n/a	ConfirmRating	31	Response	n/a	1	n/a	1	607.92
566.804	4.012	ITI	32	Picture	Fixation+	3	11.189	n/a	607.942
570.833	2.006	Cue	32	Picture	Suppress	3	9.167	n/a	611.971
572.839	4.99	Pic	32	Picture	IAPS_44	3	4.176	n/a	613.977
577.829	2.006	Blank	32	Picture	BLANK	3	2.17	n/a	618.967
582.006	n/a	ConfirmRating	32	Response	n/a	3	n/a	3	623.143
582.024	5.007	ITI	33	Picture	Fixation+	1	9.636	n/a	623.161
587.047	2.006	Cue	33	Picture	Maintain	1	7.613	n/a	628.185
589.053	4.99	Pic	33	Picture	IAPS_09	1	2.623	n/a	630.191
594.043	2.006	Blank	33	Picture	BLANK	1	0.617	n/a	635.181
596.667	n/a	ConfirmRating	33	Response	n/a	1	n/a	5	637.804
596.696	4.012	ITI	34	Picture	Fixation+	2	10.723	n/a	637.834
600.725	2.006	Cue	34	Picture	Enhance	2	8.701	n/a	641.862
602.731	4.99	Pic	34	Picture	IAPS_19	2	3.71	n/a	643.868
607.721	2.006	Blank	34	Picture	BLANK	2	1.704	n/a	648.859
611.431	n/a	ConfirmRating	34	Response	n/a	2	n/a	0	652.569
611.451	6.002	ITI	35	Picture	Fixation+	4	13.572	n/a	652.589
617.469	2.006	Cue	35	Picture	Maintain	4	11.55	n/a	658.607
619.476	4.99	Pic	35	Picture	IAPS_56	4	6.559	n/a	660.613
624.466	2.006	Blank	35	Picture	BLANK	4	4.553	n/a	665.603
631.025	n/a	ConfirmRating	35	Response	n/a	4	n/a	3	672.163
631.047	5.007	ITI	36	Picture	Fixation+	3	11.368	n/a	672.185
636.071	2.006	Cue	36	Picture	Suppress	3	9.345	n/a	677.208
638.077	4.99	Pic	36	Picture	IAPS_45	3	4.355	n/a	679.215
643.067	2.006	Blank	36	Picture	BLANK	3	2.349	n/a	684.205
647.422	n/a	ConfirmRating	36	Response	n/a	3	n/a	0	688.559
647.444	6.002	ITI	37	Picture	Fixation+	4	12.764	n/a	688.582
653.462	2.006	Cue	37	Picture	Maintain	4	10.742	n/a	694.6
655.468	4.99	Pic	37	Picture	IAPS_59	4	5.751	n/a	696.606
660.458	2.006	Blank	37	Picture	BLANK	4	3.745	n/a	701.596
666.21	n/a	ConfirmRating	37	Response	n/a	4	n/a	1	707.347
666.228	5.007	ITI	38	Picture	Fixation+	2	16.804	n/a	707.365
671.251	2.006	Cue	38	Picture	Enhance	2	14.781	n/a	712.389
673.257	4.99	Pic	38	Picture	IAPS_20	2	9.791	n/a	714.395
678.248	2.006	Blank	38	Picture	BLANK	2	7.785	n/a	719.385
688.039	n/a	ConfirmRating	38	Response	n/a	2	n/a	4	729.176
688.062	4.012	ITI	39	Picture	Fixation+	1	11.538	n/a	729.2
692.091	2.006	Cue	39	Picture	Maintain	1	9.516	n/a	733.228
694.097	4.99	Pic	39	Picture	IAPS_10	1	4.525	n/a	735.235
699.087	2.006	Blank	39	Picture	BLANK	1	2.519	n/a	740.225
703.612	n/a	ConfirmRating	39	Response	n/a	1	n/a	5	744.75
703.63	6.002	ITI	40	Picture	Fixation+	4	11.158	n/a	744.767
709.648	2.006	Cue	40	Picture	Maintain	4	9.135	n/a	750.785
711.654	4.99	Pic	40	Picture	IAPS_48	4	4.145	n/a	752.792
716.644	2.006	Blank	40	Picture	BLANK	4	2.139	n/a	757.782
720.789	n/a	ConfirmRating	40	Response	n/a	4	n/a	1	761.927
720.822	5.007	ITI	41	Picture	Fixation+	3	11.281	n/a	761.96
725.845	2.006	Cue	41	Picture	Suppress	3	9.259	n/a	766.983
727.852	4.99	Pic	41	Picture	IAPS_31	3	4.268	n/a	768.989
732.842	2.006	Blank	41	Picture	BLANK	3	2.262	n/a	773.979
737.11	n/a	ConfirmRating	41	Response	n/a	3	n/a	4	778.248
737.136	6.002	ITI	42	Picture	Fixation+	2	10.096	n/a	778.273
743.154	2.006	Cue	42	Picture	Enhance	2	8.073	n/a	784.291
745.16	4.99	Pic	42	Picture	IAPS_21	2	3.083	n/a	786.297
750.15	2.006	Blank	42	Picture	BLANK	2	1.077	n/a	791.288
753.233	n/a	ConfirmRating	42	Response	n/a	2	n/a	0	794.37
753.25	4.012	ITI	43	Picture	Fixation+	1	9.856	n/a	794.388
757.279	2.006	Cue	43	Picture	Maintain	1	7.834	n/a	798.417
759.285	4.99	Pic	43	Picture	IAPS_11	1	2.843	n/a	800.423
764.275	2.006	Blank	43	Picture	BLANK	1	0.837	n/a	805.413
767.119	n/a	ConfirmRating	43	Response	n/a	1	n/a	0	808.256
767.143	5.007	ITI	44	Picture	Fixation+	2	60.597	n/a	808.281
772.167	2.006	Cue	44	Picture	Enhance	2	58.574	n/a	813.304
774.173	4.99	Pic	44	Picture	IAPS_22	2	53.584	n/a	815.31
779.163	2.006	Blank	44	Picture	BLANK	2	51.578	n/a	820.301
832.747	n/a	ConfirmRating	44	Response	n/a	2	n/a	1	873.885
832.779	5.007	ITI	45	Picture	Fixation+	4	11.541	n/a	873.917
837.803	2.006	Cue	45	Picture	Maintain	4	9.518	n/a	878.94
839.809	4.99	Pic	45	Picture	IAPS_51	4	4.528	n/a	880.946
844.799	2.006	Blank	45	Picture	BLANK	4	2.522	n/a	885.936
849.327	n/a	ConfirmRating	45	Response	n/a	4	n/a	5	890.464
849.358	4.012	ITI	46	Picture	Fixation+	3	9.727	n/a	890.496
853.387	2.006	Cue	46	Picture	Suppress	3	7.704	n/a	894.524
855.393	4.99	Pic	46	Picture	IAPS_32	3	2.714	n/a	896.53
860.383	2.006	Blank	46	Picture	BLANK	3	0.708	n/a	901.521
863.097	n/a	ConfirmRating	46	Response	n/a	3	n/a	3	904.234
863.119	5.007	ITI	47	Picture	Fixation+	1	10.46	n/a	904.256
868.142	2.006	Cue	47	Picture	Maintain	1	8.438	n/a	909.279
870.148	4.99	Pic	47	Picture	IAPS_12	1	3.447	n/a	911.285
875.138	2.006	Blank	47	Picture	BLANK	1	1.441	n/a	916.276
878.586	n/a	ConfirmRating	47	Response	n/a	1	n/a	0	919.723
878.603	4.012	ITI	48	Picture	Fixation+	3	12.488	n/a	919.741
882.632	2.006	Cue	48	Picture	Suppress	3	10.465	n/a	923.769
884.638	4.99	Pic	48	Picture	IAPS_33	3	5.475	n/a	925.775
889.628	2.006	Blank	48	Picture	BLANK	3	3.469	n/a	930.766
895.103	n/a	ConfirmRating	48	Response	n/a	3	n/a	3	936.241
895.132	5.007	ITI	49	Picture	Fixation+	4	10.935	n/a	936.27
900.156	2.006	Cue	49	Picture	Maintain	4	8.913	n/a	941.293
902.162	4.99	Pic	49	Picture	IAPS_54	4	3.922	n/a	943.299
907.152	2.006	Blank	49	Picture	BLANK	4	1.916	n/a	948.29
911.074	n/a	ConfirmRating	49	Response	n/a	4	n/a	5	952.212
911.098	5.007	ITI	50	Picture	Fixation+	1	10.243	n/a	952.235
916.121	2.006	Cue	50	Picture	Maintain	1	8.221	n/a	957.259
918.127	4.99	Pic	50	Picture	IAPS_13	1	3.231	n/a	959.265
923.117	2.006	Blank	50	Picture	BLANK	1	1.225	n/a	964.255
926.348	n/a	ConfirmRating	50	Response	n/a	1	n/a	0	967.486
926.367	4.012	ITI	51	Picture	Fixation+	2	12.306	n/a	967.505
930.396	2.006	Cue	51	Picture	Enhance	2	10.283	n/a	971.533
932.402	4.99	Pic	51	Picture	IAPS_23	2	5.293	n/a	973.539
937.392	2.006	Blank	51	Picture	BLANK	2	3.287	n/a	978.529
942.685	n/a	ConfirmRating	51	Response	n/a	2	n/a	3	983.822
942.714	5.007	ITI	52	Picture	Fixation+	1	9.944	n/a	983.851
947.737	2.006	Cue	52	Picture	Maintain	1	7.922	n/a	988.875
949.743	4.99	Pic	52	Picture	IAPS_14	1	2.931	n/a	990.881
954.733	2.006	Blank	52	Picture	BLANK	1	0.925	n/a	995.871
957.665	n/a	ConfirmRating	52	Response	n/a	1	n/a	5	998.802
957.684	5.007	ITI	53	Picture	Fixation+	4	10.782	n/a	998.822
962.708	2.006	Cue	53	Picture	Maintain	4	8.76	n/a	1003.845
964.714	4.99	Pic	53	Picture	IAPS_57	4	3.769	n/a	1005.851
969.704	2.006	Blank	53	Picture	BLANK	4	1.763	n/a	1010.842
973.474	n/a	ConfirmRating	53	Response	n/a	4	n/a	6	1014.611
973.501	6.002	ITI	54	Picture	Fixation+	3	11.197	n/a	1014.638
979.519	2.006	Cue	54	Picture	Suppress	3	9.175	n/a	1020.656
981.525	4.99	Pic	54	Picture	IAPS_34	3	4.184	n/a	1022.662
986.515	2.006	Blank	54	Picture	BLANK	3	2.178	n/a	1027.653
990.699	n/a	ConfirmRating	54	Response	n/a	3	n/a	3	1031.837
990.726	5.007	ITI	55	Picture	Fixation+	2	12.269	n/a	1031.864
995.75	2.006	Cue	55	Picture	Enhance	2	10.247	n/a	1036.887
997.756	4.99	Pic	55	Picture	IAPS_24	2	5.256	n/a	1038.893
1002.746	2.006	Blank	55	Picture	BLANK	2	3.25	n/a	1043.883
1008.002	n/a	ConfirmRating	55	Response	n/a	2	n/a	3	1049.14
1008.034	5.007	ITI	56	Picture	Fixation+	1	10.003	n/a	1049.172
1013.058	2.006	Cue	56	Picture	Maintain	1	7.98	n/a	1054.195
1015.064	4.99	Pic	56	Picture	IAPS_15	1	2.99	n/a	1056.201
1020.054	2.006	Blank	56	Picture	BLANK	1	0.984	n/a	1061.192
1023.044	n/a	ConfirmRating	56	Response	n/a	1	n/a	5	1064.182
1023.072	6.002	ITI	57	Picture	Fixation+	3	10.084	n/a	1064.209
1029.09	2.006	Cue	57	Picture	Suppress	3	8.061	n/a	1070.227
1031.096	4.99	Pic	57	Picture	IAPS_35	3	3.071	n/a	1072.233
1036.086	2.006	Blank	57	Picture	BLANK	3	1.065	n/a	1077.224
1039.157	n/a	ConfirmRating	57	Response	n/a	3	n/a	5	1080.294
1039.186	4.012	ITI	58	Picture	Fixation+	4	11.733	n/a	1080.324
1043.215	2.006	Cue	58	Picture	Maintain	4	9.71	n/a	1084.352
1045.221	4.99	Pic	58	Picture	IAPS_60	4	4.72	n/a	1086.358
1050.211	2.006	Blank	58	Picture	BLANK	4	2.714	n/a	1091.349
1054.931	n/a	ConfirmRating	58	Response	n/a	4	n/a	5	1096.068
1054.953	6.002	ITI	59	Picture	Fixation+	2	10.576	n/a	1096.09
1060.971	2.006	Cue	59	Picture	Enhance	2	8.554	n/a	1102.108
1062.977	4.99	Pic	59	Picture	IAPS_25	2	3.564	n/a	1104.114
1067.967	2.006	Blank	59	Picture	BLANK	2	1.557	n/a	1109.105
1071.531	n/a	ConfirmRating	59	Response	n/a	2	n/a	2	1112.668
