onset	duration	trial_type	trial_number	event_type	cue_to_participant	stimulus_type	time_until_response	rated_success_of_regulation	onset_uncorrected
0.006	10.014	Instruction	-1	Picture	Instruction	n/a	n/a	n/a	30.533
10.036	5.007	ITI	0	Picture	Fixation+	1	17.838	n/a	40.563
15.06	2.006	Cue	0	Picture	Maintain	1	15.816	n/a	45.587
17.066	4.99	Pic	0	Picture	IAPS_01	1	10.826	n/a	47.593
22.056	2.006	Blank	0	Picture	BLANK	1	8.82	n/a	52.583
32.881	n/a	ConfirmRating	0	Response	n/a	1	n/a	1	63.408
32.898	6.002	ITI	1	Picture	Fixation+	2	12.619	n/a	63.425
38.917	2.006	Cue	1	Picture	Enhance	2	10.597	n/a	69.444
40.923	4.99	Pic	1	Picture	IAPS_26	2	5.606	n/a	71.45
45.913	2.006	Blank	1	Picture	BLANK	2	3.6	n/a	76.44
51.519	n/a	ConfirmRating	1	Response	n/a	2	n/a	7	82.046
51.55	4.012	ITI	2	Picture	Fixation+	3	16.185	n/a	82.077
55.578	2.006	Cue	2	Picture	Suppress	3	14.163	n/a	86.105
57.584	4.99	Pic	2	Picture	IAPS_36	3	9.172	n/a	88.111
62.575	2.006	Blank	2	Picture	BLANK	3	7.166	n/a	93.102
71.747	n/a	ConfirmRating	2	Response	n/a	3	n/a	3	102.274
71.776	5.007	ITI	3	Picture	Fixation+	4	15.07	n/a	102.303
76.799	2.006	Cue	3	Picture	Maintain	4	13.047	n/a	107.326
78.805	4.99	Pic	3	Picture	IAPS_46	4	8.057	n/a	109.332
83.796	2.006	Blank	3	Picture	BLANK	4	6.051	n/a	114.323
91.853	n/a	ConfirmRating	3	Response	n/a	4	n/a	0	122.38
91.87	5.007	ITI	4	Picture	Fixation+	4	10.848	n/a	122.397
96.893	2.006	Cue	4	Picture	Maintain	4	8.826	n/a	127.42
98.899	4.99	Pic	4	Picture	IAPS_49	4	3.835	n/a	129.426
103.889	2.006	Blank	4	Picture	BLANK	4	1.829	n/a	134.416
107.725	n/a	ConfirmRating	4	Response	n/a	4	n/a	6	138.252
107.752	6.002	ITI	5	Picture	Fixation+	2	10.642	n/a	138.279
113.77	2.006	Cue	5	Picture	Enhance	2	8.619	n/a	144.297
115.776	4.99	Pic	5	Picture	IAPS_27	2	3.629	n/a	146.303
120.766	2.006	Blank	5	Picture	BLANK	2	1.623	n/a	151.293
124.395	n/a	ConfirmRating	5	Response	n/a	2	n/a	7	154.922
124.414	4.012	ITI	6	Picture	Fixation+	1	11.132	n/a	154.941
128.442	2.006	Cue	6	Picture	Maintain	1	9.11	n/a	158.97
130.449	4.99	Pic	6	Picture	IAPS_02	1	4.12	n/a	160.976
135.439	2.006	Blank	6	Picture	BLANK	1	2.113	n/a	165.966
139.558	n/a	ConfirmRating	6	Response	n/a	1	n/a	0	170.085
139.584	6.002	ITI	7	Picture	Fixation+	3	11.139	n/a	170.111
145.602	2.006	Cue	7	Picture	Suppress	3	9.117	n/a	176.129
147.608	4.99	Pic	7	Picture	IAPS_37	3	4.126	n/a	178.135
152.598	2.006	Blank	7	Picture	BLANK	3	2.12	n/a	183.125
156.724	n/a	ConfirmRating	7	Response	n/a	3	n/a	0	187.251
156.743	5.007	ITI	8	Picture	Fixation+	4	10.689	n/a	187.27
161.766	2.006	Cue	8	Picture	Maintain	4	8.666	n/a	192.293
163.772	4.99	Pic	8	Picture	IAPS_52	4	3.676	n/a	194.299
168.762	2.006	Blank	8	Picture	BLANK	4	1.67	n/a	199.289
172.438	n/a	ConfirmRating	8	Response	n/a	4	n/a	6	202.965
172.459	6.002	ITI	9	Picture	Fixation+	1	11.138	n/a	202.986
178.478	2.006	Cue	9	Picture	Maintain	1	9.115	n/a	209.005
180.483	4.99	Pic	9	Picture	IAPS_03	1	4.125	n/a	211.011
185.474	2.006	Blank	9	Picture	BLANK	1	2.119	n/a	216.001
189.599	n/a	ConfirmRating	9	Response	n/a	1	n/a	3	220.126
189.618	5.007	ITI	10	Picture	Fixation+	2	10.954	n/a	220.145
194.642	2.006	Cue	10	Picture	Enhance	2	8.932	n/a	225.169
196.648	4.99	Pic	10	Picture	IAPS_28	2	3.941	n/a	227.175
201.638	2.006	Blank	10	Picture	BLANK	2	1.935	n/a	232.165
205.58	n/a	ConfirmRating	10	Response	n/a	2	n/a	7	236.107
205.601	4.012	ITI	11	Picture	Fixation+	3	10.987	n/a	236.127
209.629	2.006	Cue	11	Picture	Suppress	3	8.964	n/a	240.156
211.635	4.99	Pic	11	Picture	IAPS_38	3	3.974	n/a	242.162
216.625	2.006	Blank	11	Picture	BLANK	3	1.968	n/a	247.153
220.599	n/a	ConfirmRating	11	Response	n/a	3	n/a	3	251.126
220.621	6.002	ITI	12	Picture	Fixation+	2	10.2	n/a	251.148
226.639	2.006	Cue	12	Picture	Enhance	2	8.177	n/a	257.166
228.645	4.99	Pic	12	Picture	IAPS_29	2	3.187	n/a	259.172
233.635	2.006	Blank	12	Picture	BLANK	2	1.181	n/a	264.162
236.822	n/a	ConfirmRating	12	Response	n/a	2	n/a	0	267.349
236.852	5.007	ITI	13	Picture	Fixation+	1	10.556	n/a	267.379
241.875	2.006	Cue	13	Picture	Maintain	1	8.533	n/a	272.402
243.881	4.99	Pic	13	Picture	IAPS_04	1	3.543	n/a	274.408
248.871	2.006	Blank	13	Picture	BLANK	1	1.537	n/a	279.398
252.414	n/a	ConfirmRating	13	Response	n/a	1	n/a	3	282.941
252.436	4.012	ITI	14	Picture	Fixation+	4	13.3	n/a	282.963
256.464	2.006	Cue	14	Picture	Maintain	4	11.277	n/a	286.991
258.471	4.99	Pic	14	Picture	IAPS_55	4	6.287	n/a	288.998
263.461	2.006	Blank	14	Picture	BLANK	4	4.281	n/a	293.988
269.748	n/a	ConfirmRating	14	Response	n/a	4	n/a	2	300.275
269.777	5.007	ITI	15	Picture	Fixation+	3	10.805	n/a	300.304
274.801	2.006	Cue	15	Picture	Suppress	3	8.783	n/a	305.328
276.807	4.99	Pic	15	Picture	IAPS_39	3	3.793	n/a	307.334
281.797	2.006	Blank	15	Picture	BLANK	3	1.787	n/a	312.324
285.59	n/a	ConfirmRating	15	Response	n/a	3	n/a	0	316.117
285.61	6.002	ITI	16	Picture	Fixation+	2	10.65	n/a	316.137
291.628	2.006	Cue	16	Picture	Enhance	2	8.627	n/a	322.155
293.634	4.99	Pic	16	Picture	IAPS_30	2	3.637	n/a	324.161
298.625	2.006	Blank	16	Picture	BLANK	2	1.631	n/a	329.152
302.262	n/a	ConfirmRating	16	Response	n/a	2	n/a	5	332.789
302.288	6.002	ITI	17	Picture	Fixation+	1	10.231	n/a	332.815
308.307	2.006	Cue	17	Picture	Maintain	1	8.209	n/a	338.834
310.313	4.99	Pic	17	Picture	IAPS_05	1	3.219	n/a	340.84
315.303	2.006	Blank	17	Picture	BLANK	1	1.212	n/a	345.83
318.521	n/a	ConfirmRating	17	Response	n/a	1	n/a	2	349.048
318.552	4.012	ITI	18	Picture	Fixation+	3	10.621	n/a	349.079
322.581	2.006	Cue	18	Picture	Suppress	3	8.598	n/a	353.108
324.587	4.99	Pic	18	Picture	IAPS_40	3	3.608	n/a	355.114
329.577	2.006	Blank	18	Picture	BLANK	3	1.602	n/a	360.104
333.185	n/a	ConfirmRating	18	Response	n/a	3	n/a	3	363.712
333.208	5.007	ITI	19	Picture	Fixation+	4	11.402	n/a	363.735
338.232	2.006	Cue	19	Picture	Maintain	4	9.38	n/a	368.759
340.238	4.99	Pic	19	Picture	IAPS_58	4	4.389	n/a	370.764
345.228	2.006	Blank	19	Picture	BLANK	4	2.383	n/a	375.755
349.617	n/a	ConfirmRating	19	Response	n/a	4	n/a	7	380.144
349.638	6.002	ITI	20	Picture	Fixation+	4	11.126	n/a	380.165
355.656	2.006	Cue	20	Picture	Maintain	4	9.103	n/a	386.183
357.662	4.99	Pic	20	Picture	IAPS_47	4	4.113	n/a	388.189
362.652	2.006	Blank	20	Picture	BLANK	4	2.107	n/a	393.179
366.765	n/a	ConfirmRating	20	Response	n/a	4	n/a	6	397.292
366.797	5.007	ITI	21	Picture	Fixation+	3	10.873	n/a	397.324
371.82	2.006	Cue	21	Picture	Suppress	3	8.85	n/a	402.347
373.826	4.99	Pic	21	Picture	IAPS_41	3	3.86	n/a	404.353
378.817	2.006	Blank	21	Picture	BLANK	3	1.854	n/a	409.344
382.677	n/a	ConfirmRating	21	Response	n/a	3	n/a	0	413.204
382.696	4.012	ITI	22	Picture	Fixation+	1	11.678	n/a	413.223
386.725	2.006	Cue	22	Picture	Maintain	1	9.655	n/a	417.252
388.731	4.99	Pic	22	Picture	IAPS_06	1	4.665	n/a	419.258
393.721	2.006	Blank	22	Picture	BLANK	1	2.659	n/a	424.248
398.386	n/a	ConfirmRating	22	Response	n/a	1	n/a	3	428.913
398.413	4.012	ITI	23	Picture	Fixation+	2	12.328	n/a	428.94
402.442	2.006	Cue	23	Picture	Enhance	2	10.305	n/a	432.969
404.447	4.99	Pic	23	Picture	IAPS_16	2	5.315	n/a	434.974
409.438	2.006	Blank	23	Picture	BLANK	2	3.309	n/a	439.965
414.752	n/a	ConfirmRating	23	Response	n/a	2	n/a	5	445.279
414.776	5.007	ITI	24	Picture	Fixation+	1	11.857	n/a	445.303
419.8	2.006	Cue	24	Picture	Maintain	1	9.835	n/a	450.327
421.806	4.99	Pic	24	Picture	IAPS_07	1	4.844	n/a	452.333
426.796	2.006	Blank	24	Picture	BLANK	1	2.838	n/a	457.323
431.64	n/a	ConfirmRating	24	Response	n/a	1	n/a	6	462.167
431.67	4.012	ITI	25	Picture	Fixation+	2	10.341	n/a	462.197
435.699	2.006	Cue	25	Picture	Enhance	2	8.318	n/a	466.226
437.705	4.99	Pic	25	Picture	IAPS_17	2	3.328	n/a	468.232
442.695	2.006	Blank	25	Picture	BLANK	2	1.322	n/a	473.222
446.023	n/a	ConfirmRating	25	Response	n/a	2	n/a	6	476.55
446.044	6.002	ITI	26	Picture	Fixation+	4	11.065	n/a	476.571
452.062	2.006	Cue	26	Picture	Maintain	4	9.042	n/a	482.589
454.068	4.99	Pic	26	Picture	IAPS_50	4	4.052	n/a	484.595
459.058	2.006	Blank	26	Picture	BLANK	4	2.046	n/a	489.585
463.11	n/a	ConfirmRating	26	Response	n/a	4	n/a	0	493.637
463.137	5.007	ITI	27	Picture	Fixation+	3	10.41	n/a	493.664
468.16	2.006	Cue	27	Picture	Suppress	3	8.388	n/a	498.687
470.166	4.99	Pic	27	Picture	IAPS_42	3	3.397	n/a	500.693
475.156	2.006	Blank	27	Picture	BLANK	3	1.391	n/a	505.683
478.554	n/a	ConfirmRating	27	Response	n/a	3	n/a	0	509.081
478.572	5.007	ITI	28	Picture	Fixation+	2	10.135	n/a	509.099
483.595	2.006	Cue	28	Picture	Enhance	2	8.113	n/a	514.122
485.601	4.99	Pic	28	Picture	IAPS_18	2	3.122	n/a	516.128
490.591	2.006	Blank	28	Picture	BLANK	2	1.116	n/a	521.118
493.714	n/a	ConfirmRating	28	Response	n/a	2	n/a	5	524.241
493.741	4.012	ITI	29	Picture	Fixation+	3	10.762	n/a	524.268
497.77	2.006	Cue	29	Picture	Suppress	3	8.739	n/a	528.297
499.776	4.99	Pic	29	Picture	IAPS_43	3	3.749	n/a	530.303
504.766	2.006	Blank	29	Picture	BLANK	3	1.743	n/a	535.293
508.515	n/a	ConfirmRating	29	Response	n/a	3	n/a	1	539.042
508.546	15.004	Rest	29	Picture	Rest	n/a	-15.035	n/a	539.073
523.567	5.007	ITI	30	Picture	Fixation+	4	10.272	n/a	554.094
528.59	2.006	Cue	30	Picture	Maintain	4	8.249	n/a	559.117
530.596	4.99	Pic	30	Picture	IAPS_53	4	3.259	n/a	561.123
535.586	2.006	Blank	30	Picture	BLANK	4	1.253	n/a	566.113
538.845	n/a	ConfirmRating	30	Response	n/a	4	n/a	5	569.372
538.869	6.002	ITI	31	Picture	Fixation+	1	10.35	n/a	569.396
544.887	2.006	Cue	31	Picture	Maintain	1	8.328	n/a	575.414
546.893	4.99	Pic	31	Picture	IAPS_08	1	3.337	n/a	577.42
551.883	2.006	Blank	31	Picture	BLANK	1	1.332	n/a	582.41
555.221	n/a	ConfirmRating	31	Response	n/a	1	n/a	3	585.748
555.249	4.012	ITI	32	Picture	Fixation+	3	10.504	n/a	585.776
559.278	2.006	Cue	32	Picture	Suppress	3	8.481	n/a	589.805
561.284	4.99	Pic	32	Picture	IAPS_44	3	3.491	n/a	591.811
566.274	2.006	Blank	32	Picture	BLANK	3	1.485	n/a	596.801
569.765	n/a	ConfirmRating	32	Response	n/a	3	n/a	1	600.292
569.789	5.007	ITI	33	Picture	Fixation+	1	10.34	n/a	600.316
574.812	2.006	Cue	33	Picture	Maintain	1	8.318	n/a	605.339
576.818	4.99	Pic	33	Picture	IAPS_09	1	3.327	n/a	607.345
581.808	2.006	Blank	33	Picture	BLANK	1	1.321	n/a	612.335
585.136	n/a	ConfirmRating	33	Response	n/a	1	n/a	0	615.663
585.157	4.012	ITI	34	Picture	Fixation+	2	11.073	n/a	615.684
589.186	2.006	Cue	34	Picture	Enhance	2	9.051	n/a	619.713
591.192	4.99	Pic	34	Picture	IAPS_19	2	4.06	n/a	621.719
596.182	2.006	Blank	34	Picture	BLANK	2	2.054	n/a	626.709
600.242	n/a	ConfirmRating	34	Response	n/a	2	n/a	5	630.769
600.26	6.002	ITI	35	Picture	Fixation+	4	10.673	n/a	630.788
606.279	2.006	Cue	35	Picture	Maintain	4	8.651	n/a	636.806
608.285	4.99	Pic	35	Picture	IAPS_56	4	3.66	n/a	638.812
613.275	2.006	Blank	35	Picture	BLANK	4	1.654	n/a	643.802
616.935	n/a	ConfirmRating	35	Response	n/a	4	n/a	6	647.462
616.955	5.007	ITI	36	Picture	Fixation+	3	10.393	n/a	647.482
621.979	2.006	Cue	36	Picture	Suppress	3	8.37	n/a	652.506
623.985	4.99	Pic	36	Picture	IAPS_45	3	3.38	n/a	654.512
628.975	2.006	Blank	36	Picture	BLANK	3	1.374	n/a	659.502
632.355	n/a	ConfirmRating	36	Response	n/a	3	n/a	2	662.882
632.374	6.002	ITI	37	Picture	Fixation+	4	10.658	n/a	662.901
638.392	2.006	Cue	37	Picture	Maintain	4	8.636	n/a	668.919
640.398	4.99	Pic	37	Picture	IAPS_59	4	3.646	n/a	670.925
645.388	2.006	Blank	37	Picture	BLANK	4	1.64	n/a	675.915
649.034	n/a	ConfirmRating	37	Response	n/a	4	n/a	7	679.561
649.052	5.007	ITI	38	Picture	Fixation+	2	10.659	n/a	679.579
654.075	2.006	Cue	38	Picture	Enhance	2	8.636	n/a	684.602
656.082	4.99	Pic	38	Picture	IAPS_20	2	3.646	n/a	686.609
661.072	2.006	Blank	38	Picture	BLANK	2	1.64	n/a	691.599
664.718	n/a	ConfirmRating	38	Response	n/a	2	n/a	7	695.245
664.736	4.012	ITI	39	Picture	Fixation+	1	10.3	n/a	695.263
668.764	2.006	Cue	39	Picture	Maintain	1	8.277	n/a	699.291
670.77	4.99	Pic	39	Picture	IAPS_10	1	3.287	n/a	701.298
675.761	2.006	Blank	39	Picture	BLANK	1	1.281	n/a	706.288
679.048	n/a	ConfirmRating	39	Response	n/a	1	n/a	1	709.575
679.077	6.002	ITI	40	Picture	Fixation+	4	10.471	n/a	709.604
685.095	2.006	Cue	40	Picture	Maintain	4	8.449	n/a	715.622
687.101	4.99	Pic	40	Picture	IAPS_48	4	3.459	n/a	717.628
692.091	2.006	Blank	40	Picture	BLANK	4	1.453	n/a	722.618
695.549	n/a	ConfirmRating	40	Response	n/a	4	n/a	7	726.076
695.572	5.007	ITI	41	Picture	Fixation+	3	10.515	n/a	726.1
700.596	2.006	Cue	41	Picture	Suppress	3	8.492	n/a	731.123
702.602	4.99	Pic	41	Picture	IAPS_31	3	3.502	n/a	733.129
707.592	2.006	Blank	41	Picture	BLANK	3	1.496	n/a	738.119
711.094	n/a	ConfirmRating	41	Response	n/a	3	n/a	1	741.621
711.123	6.002	ITI	42	Picture	Fixation+	2	10.652	n/a	741.65
717.142	2.006	Cue	42	Picture	Enhance	2	8.63	n/a	747.669
719.148	4.99	Pic	42	Picture	IAPS_21	2	3.639	n/a	749.675
724.138	2.006	Blank	42	Picture	BLANK	2	1.633	n/a	754.665
727.777	n/a	ConfirmRating	42	Response	n/a	2	n/a	5	758.304
727.802	4.012	ITI	43	Picture	Fixation+	1	10.678	n/a	758.329
731.83	2.006	Cue	43	Picture	Maintain	1	8.655	n/a	762.357
733.837	4.99	Pic	43	Picture	IAPS_11	1	3.665	n/a	764.364
738.827	2.006	Blank	43	Picture	BLANK	1	1.659	n/a	769.354
742.492	n/a	ConfirmRating	43	Response	n/a	1	n/a	2	773.019
742.524	5.007	ITI	44	Picture	Fixation+	2	9.939	n/a	773.051
747.547	2.006	Cue	44	Picture	Enhance	2	7.917	n/a	778.074
749.553	4.99	Pic	44	Picture	IAPS_22	2	2.926	n/a	780.08
754.543	2.006	Blank	44	Picture	BLANK	2	0.92	n/a	785.071
757.47	n/a	ConfirmRating	44	Response	n/a	2	n/a	5	787.997
757.494	5.007	ITI	45	Picture	Fixation+	4	9.497	n/a	788.021
762.518	2.006	Cue	45	Picture	Maintain	4	7.475	n/a	793.045
764.524	4.99	Pic	45	Picture	IAPS_51	4	2.484	n/a	795.051
769.514	2.006	Blank	45	Picture	BLANK	4	0.478	n/a	800.041
771.999	n/a	ConfirmRating	45	Response	n/a	4	n/a	0	802.526
772.018	4.012	ITI	46	Picture	Fixation+	3	11.415	n/a	802.545
776.046	2.006	Cue	46	Picture	Suppress	3	9.392	n/a	806.573
778.052	4.99	Pic	46	Picture	IAPS_32	3	4.402	n/a	808.579
783.043	2.006	Blank	46	Picture	BLANK	3	2.396	n/a	813.57
787.444	n/a	ConfirmRating	46	Response	n/a	3	n/a	2	817.971
787.469	5.007	ITI	47	Picture	Fixation+	1	10.817	n/a	817.996
792.492	2.006	Cue	47	Picture	Maintain	1	8.795	n/a	823.019
794.499	4.99	Pic	47	Picture	IAPS_12	1	3.804	n/a	825.026
799.489	2.006	Blank	47	Picture	BLANK	1	1.798	n/a	830.016
803.293	n/a	ConfirmRating	47	Response	n/a	1	n/a	3	833.82
803.318	4.012	ITI	48	Picture	Fixation+	3	10.357	n/a	833.846
807.347	2.006	Cue	48	Picture	Suppress	3	8.334	n/a	837.874
809.353	4.99	Pic	48	Picture	IAPS_33	3	3.344	n/a	839.88
814.343	2.006	Blank	48	Picture	BLANK	3	1.338	n/a	844.87
817.687	n/a	ConfirmRating	48	Response	n/a	3	n/a	0	848.214
817.709	5.007	ITI	49	Picture	Fixation+	4	10.649	n/a	848.236
822.732	2.006	Cue	49	Picture	Maintain	4	8.627	n/a	853.259
824.738	4.99	Pic	49	Picture	IAPS_54	4	3.636	n/a	855.265
829.729	2.006	Blank	49	Picture	BLANK	4	1.63	n/a	860.256
833.365	n/a	ConfirmRating	49	Response	n/a	4	n/a	6	863.892
833.393	5.007	ITI	50	Picture	Fixation+	1	10.356	n/a	863.92
838.416	2.006	Cue	50	Picture	Maintain	1	8.334	n/a	868.943
840.422	4.99	Pic	50	Picture	IAPS_13	1	3.343	n/a	870.949
845.412	2.006	Blank	50	Picture	BLANK	1	1.337	n/a	875.939
848.756	n/a	ConfirmRating	50	Response	n/a	1	n/a	0	879.283
848.778	4.012	ITI	51	Picture	Fixation+	2	10.779	n/a	879.305
852.806	2.006	Cue	51	Picture	Enhance	2	8.756	n/a	883.333
854.813	4.99	Pic	51	Picture	IAPS_23	2	3.766	n/a	885.34
859.803	2.006	Blank	51	Picture	BLANK	2	1.76	n/a	890.33
863.569	n/a	ConfirmRating	51	Response	n/a	2	n/a	7	894.096
863.599	5.007	ITI	52	Picture	Fixation+	1	10.423	n/a	894.126
868.623	2.006	Cue	52	Picture	Maintain	1	8.401	n/a	899.15
870.629	4.99	Pic	52	Picture	IAPS_14	1	3.41	n/a	901.156
875.619	2.006	Blank	52	Picture	BLANK	1	1.405	n/a	906.146
879.029	n/a	ConfirmRating	52	Response	n/a	1	n/a	3	909.557
879.051	5.007	ITI	53	Picture	Fixation+	4	10.08	n/a	909.578
884.074	2.006	Cue	53	Picture	Maintain	4	8.057	n/a	914.601
886.08	4.99	Pic	53	Picture	IAPS_57	4	3.067	n/a	916.607
891.07	2.006	Blank	53	Picture	BLANK	4	1.061	n/a	921.597
894.137	n/a	ConfirmRating	53	Response	n/a	4	n/a	5	924.664
894.154	6.002	ITI	54	Picture	Fixation+	3	10.505	n/a	924.681
900.172	2.006	Cue	54	Picture	Suppress	3	8.482	n/a	930.699
902.178	4.99	Pic	54	Picture	IAPS_34	3	3.492	n/a	932.705
907.169	2.006	Blank	54	Picture	BLANK	3	1.486	n/a	937.696
910.66	n/a	ConfirmRating	54	Response	n/a	3	n/a	0	941.187
910.683	5.007	ITI	55	Picture	Fixation+	2	10.595	n/a	941.21
915.707	2.006	Cue	55	Picture	Enhance	2	8.572	n/a	946.234
917.713	4.99	Pic	55	Picture	IAPS_24	2	3.582	n/a	948.24
922.703	2.006	Blank	55	Picture	BLANK	2	1.576	n/a	953.23
926.285	n/a	ConfirmRating	55	Response	n/a	2	n/a	6	956.812
926.317	5.007	ITI	56	Picture	Fixation+	1	10.311	n/a	956.844
931.341	2.006	Cue	56	Picture	Maintain	1	8.288	n/a	961.868
933.347	4.99	Pic	56	Picture	IAPS_15	1	3.298	n/a	963.874
938.337	2.006	Blank	56	Picture	BLANK	1	1.292	n/a	968.864
941.635	n/a	ConfirmRating	56	Response	n/a	1	n/a	2	972.162
941.653	6.002	ITI	57	Picture	Fixation+	3	10.344	n/a	972.18
947.671	2.006	Cue	57	Picture	Suppress	3	8.322	n/a	978.198
949.677	4.99	Pic	57	Picture	IAPS_35	3	3.332	n/a	980.204
954.667	2.006	Blank	57	Picture	BLANK	3	1.326	n/a	985.194
957.999	n/a	ConfirmRating	57	Response	n/a	3	n/a	2	988.526
958.016	4.012	ITI	58	Picture	Fixation+	4	11.131	n/a	988.543
962.045	2.006	Cue	58	Picture	Maintain	4	9.109	n/a	992.572
964.051	4.99	Pic	58	Picture	IAPS_60	4	4.119	n/a	994.578
969.041	2.006	Blank	58	Picture	BLANK	4	2.113	n/a	999.568
973.159	n/a	ConfirmRating	58	Response	n/a	4	n/a	5	1003.687
973.186	6.002	ITI	59	Picture	Fixation+	2	9.996	n/a	1003.713
979.204	2.006	Cue	59	Picture	Enhance	2	7.973	n/a	1009.731
981.21	4.99	Pic	59	Picture	IAPS_25	2	2.983	n/a	1011.737
986.2	2.006	Blank	59	Picture	BLANK	2	0.977	n/a	1016.727
989.183	n/a	ConfirmRating	59	Response	n/a	2	n/a	5	1019.71
