onset	duration	trial_type	event_type	time_until_response	response_time	trial_number	block_num_within_trial	image_seq_num_within_block	question_seq_num_within_block	image_seq_num	picture_number	condition	question_type	block_type	rating	rating_computed	onset_uncorrected	KDEV_imagefile
0.014	10.014	ITI	Fixation+	104.822	n/a	1	n/a	n/a	n/a	n/a	n/a	n/a	n/a	n/a	n/a	n/a	25.708	n/a
10.044	0.497	angry	Picture	104.308	n/a	1	1	1	n/a	1	46	2	n/a	n/a	n/a	n/a	35.739	AF09HAS.jpg
10.541	0.514	Blank	Blank	103.794	n/a	1	1	1	n/a	1	n/a	2	n/a	n/a	n/a	n/a	36.236	n/a
11.072	0.497	angry	Picture	103.28	n/a	1	1	2	n/a	2	69	2	n/a	n/a	n/a	n/a	36.767	AM10HAS.jpg
11.569	0.514	Blank	Blank	102.766	n/a	1	1	2	n/a	2	n/a	2	n/a	n/a	n/a	n/a	37.264	n/a
12.1	0.497	angry	Picture	102.252	n/a	1	1	3	n/a	3	71	2	n/a	n/a	n/a	n/a	37.794	BM12HAS.jpg
12.597	0.514	Blank	Blank	101.738	n/a	1	1	3	n/a	3	n/a	2	n/a	n/a	n/a	n/a	38.292	n/a
13.128	0.497	angry	Picture	101.224	n/a	1	1	4	n/a	4	51	2	n/a	n/a	n/a	n/a	38.822	AF20HAS.jpg
13.625	0.514	Blank	Blank	100.71	n/a	1	1	4	n/a	4	n/a	2	n/a	n/a	n/a	n/a	39.32	n/a
14.155	0.497	angry	Picture	100.196	n/a	1	1	5	n/a	5	67	2	n/a	n/a	n/a	n/a	39.85	BM08HAS.jpg
14.653	0.514	Blank	Blank	99.682	n/a	1	1	5	n/a	5	n/a	2	n/a	n/a	n/a	n/a	40.347	n/a
15.183	0.497	angry	Picture	99.168	n/a	1	1	6	n/a	6	60	2	n/a	n/a	n/a	n/a	40.878	AF32HAS.jpg
15.681	0.514	Blank	Blank	98.654	n/a	1	1	6	n/a	6	n/a	2	n/a	n/a	n/a	n/a	41.375	n/a
16.211	0.497	angry	Picture	98.141	n/a	1	1	7	n/a	7	42	2	n/a	n/a	n/a	n/a	41.906	AF03HAS.jpg
16.709	0.514	Blank	Blank	97.627	n/a	1	1	7	n/a	7	n/a	2	n/a	n/a	n/a	n/a	42.403	n/a
17.239	0.497	angry	Picture	97.113	n/a	1	1	8	n/a	8	55	2	n/a	n/a	n/a	n/a	42.934	AF25HAS.jpg
17.737	0.514	Blank	Blank	96.599	n/a	1	1	8	n/a	8	n/a	2	n/a	n/a	n/a	n/a	43.431	n/a
18.267	0.497	angry	Picture	96.085	n/a	1	1	9	n/a	9	72	2	n/a	n/a	n/a	n/a	43.962	AM14HAS.jpg
18.764	0.514	Blank	Blank	95.571	n/a	1	1	9	n/a	9	n/a	2	n/a	n/a	n/a	n/a	44.459	n/a
19.295	0.497	angry	Picture	95.057	n/a	1	1	10	n/a	10	63	2	n/a	n/a	n/a	n/a	44.99	AM04HAS.jpg
19.792	0.514	Blank	Blank	94.543	n/a	1	1	10	n/a	10	n/a	2	n/a	n/a	n/a	n/a	45.487	n/a
20.323	0.497	angry	Picture	94.029	n/a	1	1	11	n/a	11	58	2	n/a	n/a	n/a	n/a	46.017	BF29HAS.jpg
20.82	0.514	Blank	Blank	93.515	n/a	1	1	11	n/a	11	n/a	2	n/a	n/a	n/a	n/a	46.515	n/a
21.351	0.497	angry	Picture	93.001	n/a	1	1	12	n/a	12	48	2	n/a	n/a	n/a	n/a	47.045	AF14HAS.jpg
21.848	0.514	Blank	Blank	92.487	n/a	1	1	12	n/a	12	n/a	2	n/a	n/a	n/a	n/a	47.543	n/a
22.379	0.497	angry	Picture	91.973	n/a	1	1	13	n/a	13	66	2	n/a	n/a	n/a	n/a	48.073	BM07HAS.jpg
22.876	0.514	Blank	Blank	91.459	n/a	1	1	13	n/a	13	n/a	2	n/a	n/a	n/a	n/a	48.571	n/a
23.407	0.497	angry	Picture	90.945	n/a	1	1	14	n/a	14	70	2	n/a	n/a	n/a	n/a	49.101	BM11HAS.jpg
23.904	0.514	Blank	Blank	90.431	n/a	1	1	14	n/a	14	n/a	2	n/a	n/a	n/a	n/a	49.599	n/a
24.434	0.497	angry	Picture	89.917	n/a	1	1	15	n/a	15	43	2	n/a	n/a	n/a	n/a	50.129	BF04HAS.jpg
24.932	0.514	Blank	Blank	89.404	n/a	1	1	15	n/a	15	n/a	2	n/a	n/a	n/a	n/a	50.626	n/a
25.462	0.497	angry	Picture	88.89	n/a	1	1	16	n/a	16	49	2	n/a	n/a	n/a	n/a	51.157	AF17HAS.jpg
25.96	0.514	Blank	Blank	88.376	n/a	1	1	16	n/a	16	n/a	2	n/a	n/a	n/a	n/a	51.654	n/a
26.49	0.497	angry	Picture	87.862	n/a	1	1	17	n/a	17	75	2	n/a	n/a	n/a	n/a	52.185	AM23HAS.jpg
26.987	0.514	Blank	Blank	87.348	n/a	1	1	17	n/a	17	n/a	2	n/a	n/a	n/a	n/a	52.682	n/a
27.518	0.497	angry	Picture	86.834	n/a	1	1	18	n/a	18	80	2	n/a	n/a	n/a	n/a	53.213	BM35HAS.jpg
28.015	0.514	Blank	Blank	86.32	n/a	1	1	18	n/a	18	n/a	2	n/a	n/a	n/a	n/a	53.71	n/a
28.546	0.497	angry	Picture	85.806	n/a	1	1	19	n/a	19	76	2	n/a	n/a	n/a	n/a	54.24	BM24HAS.jpg
29.043	0.514	Blank	Blank	85.292	n/a	1	1	19	n/a	19	n/a	2	n/a	n/a	n/a	n/a	54.738	n/a
29.574	0.497	angry	Picture	84.778	n/a	1	1	20	n/a	20	74	2	n/a	n/a	n/a	n/a	55.268	AM22HAS.jpg
30.071	0.514	Blank	Blank	84.264	n/a	1	1	20	n/a	20	n/a	2	n/a	n/a	n/a	n/a	55.766	n/a
30.602	10.014	ITI	Fixation+	74.234	n/a	1	n/a	n/a	n/a	n/a	n/a	n/a	n/a	n/a	n/a	n/a	56.296	n/a
40.632	0.497	neutral	Picture	73.72	n/a	1	2	1	n/a	21	33	1	n/a	n/a	n/a	n/a	66.326	AM21NES.jpg
41.129	0.514	Blank	Blank	73.206	n/a	1	2	1	n/a	21	n/a	1	n/a	n/a	n/a	n/a	66.824	n/a
41.66	0.497	neutral	Picture	72.692	n/a	1	2	2	n/a	22	39	1	n/a	n/a	n/a	n/a	67.354	AM28NES.jpg
42.157	0.514	Blank	Blank	72.178	n/a	1	2	2	n/a	22	n/a	1	n/a	n/a	n/a	n/a	67.852	n/a
42.688	0.497	neutral	Picture	71.664	n/a	1	2	3	n/a	23	25	1	n/a	n/a	n/a	n/a	68.382	BM06NES.jpg
43.185	0.514	Blank	Blank	71.15	n/a	1	2	3	n/a	23	n/a	1	n/a	n/a	n/a	n/a	68.88	n/a
43.716	0.497	neutral	Picture	70.636	n/a	1	2	4	n/a	24	5	1	n/a	n/a	n/a	n/a	69.41	BF07NES.jpg
44.213	0.514	Blank	Blank	70.122	n/a	1	2	4	n/a	24	n/a	1	n/a	n/a	n/a	n/a	69.907	n/a
44.743	0.497	neutral	Picture	69.608	n/a	1	2	5	n/a	25	10	1	n/a	n/a	n/a	n/a	70.438	AF18NES.jpg
45.241	0.514	Blank	Blank	69.094	n/a	1	2	5	n/a	25	n/a	1	n/a	n/a	n/a	n/a	70.935	n/a
45.771	0.497	neutral	Picture	68.581	n/a	1	2	6	n/a	26	34	1	n/a	n/a	n/a	n/a	71.466	AM22NES.jpg
46.269	0.514	Blank	Blank	68.067	n/a	1	2	6	n/a	26	n/a	1	n/a	n/a	n/a	n/a	71.963	n/a
46.799	0.497	neutral	Picture	67.553	n/a	1	2	7	n/a	27	36	1	n/a	n/a	n/a	n/a	72.494	BM24NES.jpg
47.297	0.514	Blank	Blank	67.039	n/a	1	2	7	n/a	27	n/a	1	n/a	n/a	n/a	n/a	72.991	n/a
47.827	0.497	neutral	Picture	66.525	n/a	1	2	8	n/a	28	14	1	n/a	n/a	n/a	n/a	73.522	AF23NES.jpg
48.324	0.514	Blank	Blank	66.011	n/a	1	2	8	n/a	28	n/a	1	n/a	n/a	n/a	n/a	74.019	n/a
48.855	0.497	neutral	Picture	65.497	n/a	1	2	9	n/a	29	9	1	n/a	n/a	n/a	n/a	74.55	AF17NES.jpg
49.352	0.514	Blank	Blank	64.983	n/a	1	2	9	n/a	29	n/a	1	n/a	n/a	n/a	n/a	75.047	n/a
49.883	0.497	neutral	Picture	64.469	n/a	1	2	10	n/a	30	19	1	n/a	n/a	n/a	n/a	75.578	AF31NES.jpg
50.38	0.514	Blank	Blank	63.955	n/a	1	2	10	n/a	30	n/a	1	n/a	n/a	n/a	n/a	76.075	n/a
50.911	0.497	neutral	Picture	63.441	n/a	1	2	11	n/a	31	15	1	n/a	n/a	n/a	n/a	76.605	AF25NES.jpg
51.408	0.514	Blank	Blank	62.927	n/a	1	2	11	n/a	31	n/a	1	n/a	n/a	n/a	n/a	77.103	n/a
51.939	0.497	neutral	Picture	62.413	n/a	1	2	12	n/a	32	22	1	n/a	n/a	n/a	n/a	77.633	BM03NES.jpg
52.436	0.514	Blank	Blank	61.899	n/a	1	2	12	n/a	32	n/a	1	n/a	n/a	n/a	n/a	78.131	n/a
52.967	0.497	neutral	Picture	61.385	n/a	1	2	13	n/a	33	11	1	n/a	n/a	n/a	n/a	78.661	AF20NES.jpg
53.464	0.514	Blank	Blank	60.871	n/a	1	2	13	n/a	33	n/a	1	n/a	n/a	n/a	n/a	79.159	n/a
53.994	0.497	neutral	Picture	60.357	n/a	1	2	14	n/a	34	4	1	n/a	n/a	n/a	n/a	79.689	AF05NES.jpg
54.492	0.514	Blank	Blank	59.843	n/a	1	2	14	n/a	34	n/a	1	n/a	n/a	n/a	n/a	80.186	n/a
55.022	0.497	neutral	Picture	59.33	n/a	1	2	15	n/a	35	17	1	n/a	n/a	n/a	n/a	80.717	BF28NES.jpg
55.52	0.514	Blank	Blank	58.816	n/a	1	2	15	n/a	35	n/a	1	n/a	n/a	n/a	n/a	81.214	n/a
56.05	0.497	neutral	Picture	58.302	n/a	1	2	16	n/a	36	13	1	n/a	n/a	n/a	n/a	81.745	BF22NES.jpg
56.548	0.514	Blank	Blank	57.788	n/a	1	2	16	n/a	36	n/a	1	n/a	n/a	n/a	n/a	82.242	n/a
57.078	0.497	neutral	Picture	57.274	n/a	1	2	17	n/a	37	12	1	n/a	n/a	n/a	n/a	82.773	AF21NES.jpg
57.575	0.514	Blank	Blank	56.76	n/a	1	2	17	n/a	37	n/a	1	n/a	n/a	n/a	n/a	83.27	n/a
58.106	0.497	neutral	Picture	56.246	n/a	1	2	18	n/a	38	24	1	n/a	n/a	n/a	n/a	83.801	BM05NES.jpg
58.603	0.514	Blank	Blank	55.732	n/a	1	2	18	n/a	38	n/a	1	n/a	n/a	n/a	n/a	84.298	n/a
59.134	0.497	neutral	Picture	55.218	n/a	1	2	19	n/a	39	29	1	n/a	n/a	n/a	n/a	84.828	AM10NES.jpg
59.631	0.514	Blank	Blank	54.704	n/a	1	2	19	n/a	39	n/a	1	n/a	n/a	n/a	n/a	85.326	n/a
60.162	0.497	neutral	Picture	54.19	n/a	1	2	20	n/a	40	23	1	n/a	n/a	n/a	n/a	85.856	AM04NES.jpg
60.659	0.514	Blank	Blank	53.676	n/a	1	2	20	n/a	40	n/a	1	n/a	n/a	n/a	n/a	86.354	n/a
61.19	10.014	ITI	Fixation+	43.646	n/a	1	n/a	n/a	n/a	n/a	n/a	n/a	n/a	n/a	n/a	n/a	86.884	n/a
71.22	0.497	angry	Picture	43.132	n/a	1	3	1	n/a	41	62	2	n/a	n/a	n/a	n/a	96.914	BM03HAS.jpg
71.717	0.514	Blank	Blank	42.618	n/a	1	3	1	n/a	41	n/a	2	n/a	n/a	n/a	n/a	97.412	n/a
72.248	0.497	angry	Picture	42.104	n/a	1	3	2	n/a	42	52	2	n/a	n/a	n/a	n/a	97.942	AF21HAS.jpg
72.745	0.514	Blank	Blank	41.59	n/a	1	3	2	n/a	42	n/a	2	n/a	n/a	n/a	n/a	98.44	n/a
73.276	0.497	angry	Picture	41.076	n/a	1	3	3	n/a	43	44	2	n/a	n/a	n/a	n/a	98.97	AF05HAS.jpg
73.773	0.514	Blank	Blank	40.562	n/a	1	3	3	n/a	43	n/a	2	n/a	n/a	n/a	n/a	99.468	n/a
74.303	0.497	angry	Picture	40.048	n/a	1	3	4	n/a	44	53	2	n/a	n/a	n/a	n/a	99.998	BF22HAS.jpg
74.801	0.514	Blank	Blank	39.534	n/a	1	3	4	n/a	44	n/a	2	n/a	n/a	n/a	n/a	100.495	n/a
75.331	0.497	angry	Picture	39.02	n/a	1	3	5	n/a	45	54	2	n/a	n/a	n/a	n/a	101.026	AF23HAS.jpg
75.829	0.514	Blank	Blank	38.507	n/a	1	3	5	n/a	45	n/a	2	n/a	n/a	n/a	n/a	101.523	n/a
76.359	0.497	angry	Picture	37.993	n/a	1	3	6	n/a	46	68	2	n/a	n/a	n/a	n/a	102.054	AM09HAS.jpg
76.857	0.514	Blank	Blank	37.479	n/a	1	3	6	n/a	46	n/a	2	n/a	n/a	n/a	n/a	102.551	n/a
77.387	0.497	angry	Picture	36.965	n/a	1	3	7	n/a	47	64	2	n/a	n/a	n/a	n/a	103.082	BM05HAS.jpg
77.885	0.514	Blank	Blank	36.451	n/a	1	3	7	n/a	47	n/a	2	n/a	n/a	n/a	n/a	103.579	n/a
78.415	0.497	angry	Picture	35.937	n/a	1	3	8	n/a	48	59	2	n/a	n/a	n/a	n/a	104.11	AF31HAS.jpg
78.912	0.514	Blank	Blank	35.423	n/a	1	3	8	n/a	48	n/a	2	n/a	n/a	n/a	n/a	104.607	n/a
79.443	0.497	angry	Picture	34.909	n/a	1	3	9	n/a	49	41	2	n/a	n/a	n/a	n/a	105.138	AF01HAS.jpg
79.94	0.514	Blank	Blank	34.395	n/a	1	3	9	n/a	49	n/a	2	n/a	n/a	n/a	n/a	105.635	n/a
80.471	0.497	angry	Picture	33.881	n/a	1	3	10	n/a	50	73	2	n/a	n/a	n/a	n/a	106.165	AM21HAS.jpg
80.968	0.514	Blank	Blank	33.367	n/a	1	3	10	n/a	50	n/a	2	n/a	n/a	n/a	n/a	106.663	n/a
81.499	0.497	angry	Picture	32.853	n/a	1	3	11	n/a	51	65	2	n/a	n/a	n/a	n/a	107.193	BM06HAS.jpg
81.996	0.514	Blank	Blank	32.339	n/a	1	3	11	n/a	51	n/a	2	n/a	n/a	n/a	n/a	107.691	n/a
82.527	0.497	angry	Picture	31.825	n/a	1	3	12	n/a	52	56	2	n/a	n/a	n/a	n/a	108.221	AF26HAS.jpg
83.024	0.514	Blank	Blank	31.311	n/a	1	3	12	n/a	52	n/a	2	n/a	n/a	n/a	n/a	108.719	n/a
83.554	0.497	angry	Picture	30.797	n/a	1	3	13	n/a	53	45	2	n/a	n/a	n/a	n/a	109.249	BF07HAS.jpg
84.052	0.514	Blank	Blank	30.284	n/a	1	3	13	n/a	53	n/a	2	n/a	n/a	n/a	n/a	109.746	n/a
84.582	0.497	angry	Picture	29.769	n/a	1	3	14	n/a	54	78	2	n/a	n/a	n/a	n/a	110.277	BM26HAS.jpg
85.08	0.514	Blank	Blank	29.256	n/a	1	3	14	n/a	54	n/a	2	n/a	n/a	n/a	n/a	110.774	n/a
85.61	0.497	angry	Picture	28.742	n/a	1	3	15	n/a	55	50	2	n/a	n/a	n/a	n/a	111.305	AF18HAS.jpg
86.108	0.514	Blank	Blank	28.228	n/a	1	3	15	n/a	55	n/a	2	n/a	n/a	n/a	n/a	111.802	n/a
86.638	0.497	angry	Picture	27.714	n/a	1	3	16	n/a	56	47	2	n/a	n/a	n/a	n/a	112.333	BF11HAS.jpg
87.136	0.514	Blank	Blank	27.2	n/a	1	3	16	n/a	56	n/a	2	n/a	n/a	n/a	n/a	112.83	n/a
87.666	0.497	angry	Picture	26.686	n/a	1	3	17	n/a	57	77	2	n/a	n/a	n/a	n/a	113.361	BM25HAS.jpg
88.163	0.514	Blank	Blank	26.172	n/a	1	3	17	n/a	57	n/a	2	n/a	n/a	n/a	n/a	113.858	n/a
88.694	0.497	angry	Picture	25.658	n/a	1	3	18	n/a	58	57	2	n/a	n/a	n/a	n/a	114.388	BF28HAS.jpg
89.191	0.514	Blank	Blank	25.144	n/a	1	3	18	n/a	58	n/a	2	n/a	n/a	n/a	n/a	114.886	n/a
89.722	0.497	angry	Picture	24.63	n/a	1	3	19	n/a	59	61	2	n/a	n/a	n/a	n/a	115.416	AM01HAS.jpg
90.219	0.514	Blank	Blank	24.116	n/a	1	3	19	n/a	59	n/a	2	n/a	n/a	n/a	n/a	115.914	n/a
90.75	0.497	angry	Picture	23.602	n/a	1	3	20	n/a	60	79	2	n/a	n/a	n/a	n/a	116.444	BM28HAS.jpg
91.247	0.514	Blank	Blank	23.088	n/a	1	3	20	n/a	60	n/a	2	n/a	n/a	n/a	n/a	116.942	n/a
91.778	10.014	ITI	Fixation+	13.058	n/a	1	n/a	n/a	n/a	n/a	n/a	n/a	n/a	n/a	n/a	n/a	117.472	n/a
114.849	n/a	ConfirmRating	Rate	n/a	13.031	1	n/a	n/a	0	n/a	n/a	n/a	2	Angry	31	49	140.544	n/a
123.003	n/a	ConfirmRating	Rate	n/a	8.14	1	n/a	n/a	1	n/a	n/a	n/a	3	Angry	37	49	148.698	n/a
123.029	10.014	ITI	Fixation+	96.336	n/a	2	n/a	n/a	n/a	n/a	n/a	n/a	n/a	n/a	n/a	n/a	148.723	n/a
133.059	0.497	happy	Picture	95.822	n/a	2	4	1	n/a	61	119	3	n/a	n/a	n/a	n/a	158.753	BM28ANS.jpg
133.556	0.514	Blank	Blank	95.308	n/a	2	4	1	n/a	61	n/a	3	n/a	n/a	n/a	n/a	159.251	n/a
134.087	0.497	happy	Picture	94.795	n/a	2	4	2	n/a	62	100	3	n/a	n/a	n/a	n/a	159.781	AF32ANS.jpg
134.584	0.514	Blank	Blank	94.28	n/a	2	4	2	n/a	62	n/a	3	n/a	n/a	n/a	n/a	160.279	n/a
135.114	0.497	happy	Picture	93.767	n/a	2	4	3	n/a	63	118	3	n/a	n/a	n/a	n/a	160.809	BM26ANS.jpg
135.612	0.514	Blank	Blank	93.253	n/a	2	4	3	n/a	63	n/a	3	n/a	n/a	n/a	n/a	161.306	n/a
136.142	0.497	happy	Picture	92.739	n/a	2	4	4	n/a	64	89	3	n/a	n/a	n/a	n/a	161.837	AF17ANS.jpg
136.64	0.514	Blank	Blank	92.225	n/a	2	4	4	n/a	64	n/a	3	n/a	n/a	n/a	n/a	162.334	n/a
137.17	0.497	happy	Picture	91.711	n/a	2	4	5	n/a	65	116	3	n/a	n/a	n/a	n/a	162.865	BM24ANS.jpg
137.668	0.514	Blank	Blank	91.197	n/a	2	4	5	n/a	65	n/a	3	n/a	n/a	n/a	n/a	163.362	n/a
138.198	0.497	happy	Picture	90.683	n/a	2	4	6	n/a	66	105	3	n/a	n/a	n/a	n/a	163.893	BM06ANS.jpg
138.696	0.514	Blank	Blank	90.169	n/a	2	4	6	n/a	66	n/a	3	n/a	n/a	n/a	n/a	164.39	n/a
139.226	0.497	happy	Picture	89.655	n/a	2	4	7	n/a	67	106	3	n/a	n/a	n/a	n/a	164.921	AM07ANS.jpg
139.724	0.514	Blank	Blank	89.141	n/a	2	4	7	n/a	67	n/a	3	n/a	n/a	n/a	n/a	165.418	n/a
140.254	0.497	happy	Picture	88.627	n/a	2	4	8	n/a	68	94	3	n/a	n/a	n/a	n/a	165.949	AF23ANS.jpg
140.751	0.514	Blank	Blank	88.113	n/a	2	4	8	n/a	68	n/a	3	n/a	n/a	n/a	n/a	166.446	n/a
141.282	0.497	happy	Picture	87.599	n/a	2	4	9	n/a	69	117	3	n/a	n/a	n/a	n/a	166.976	BM25ANS.jpg
141.779	0.514	Blank	Blank	87.085	n/a	2	4	9	n/a	69	n/a	3	n/a	n/a	n/a	n/a	167.474	n/a
142.31	0.497	happy	Picture	86.571	n/a	2	4	10	n/a	70	90	3	n/a	n/a	n/a	n/a	168.004	AF18ANS.jpg
142.807	0.514	Blank	Blank	86.057	n/a	2	4	10	n/a	70	n/a	3	n/a	n/a	n/a	n/a	168.502	n/a
143.338	0.497	happy	Picture	85.544	n/a	2	4	11	n/a	71	83	3	n/a	n/a	n/a	n/a	169.032	BF04ANS.jpg
143.835	0.514	Blank	Blank	85.03	n/a	2	4	11	n/a	71	n/a	3	n/a	n/a	n/a	n/a	169.53	n/a
144.365	0.497	happy	Picture	84.516	n/a	2	4	12	n/a	72	112	3	n/a	n/a	n/a	n/a	170.06	AM14ANS.jpg
144.863	0.514	Blank	Blank	84.002	n/a	2	4	12	n/a	72	n/a	3	n/a	n/a	n/a	n/a	170.558	n/a
145.393	0.497	happy	Picture	83.488	n/a	2	4	13	n/a	73	102	3	n/a	n/a	n/a	n/a	171.088	BM03ANS.jpg
145.891	0.514	Blank	Blank	82.974	n/a	2	4	13	n/a	73	n/a	3	n/a	n/a	n/a	n/a	171.585	n/a
146.421	0.497	happy	Picture	82.46	n/a	2	4	14	n/a	74	95	3	n/a	n/a	n/a	n/a	172.116	AF25ANS.jpg
146.919	0.514	Blank	Blank	81.946	n/a	2	4	14	n/a	74	n/a	3	n/a	n/a	n/a	n/a	172.613	n/a
147.449	0.497	happy	Picture	81.432	n/a	2	4	15	n/a	75	113	3	n/a	n/a	n/a	n/a	173.144	AM21ANS.jpg
147.946	0.514	Blank	Blank	80.918	n/a	2	4	15	n/a	75	n/a	3	n/a	n/a	n/a	n/a	173.641	n/a
148.477	0.497	happy	Picture	80.404	n/a	2	4	16	n/a	76	88	3	n/a	n/a	n/a	n/a	174.172	AF14ANS.jpg
148.974	0.514	Blank	Blank	79.89	n/a	2	4	16	n/a	76	n/a	3	n/a	n/a	n/a	n/a	174.669	n/a
149.505	0.497	happy	Picture	79.376	n/a	2	4	17	n/a	77	93	3	n/a	n/a	n/a	n/a	175.2	BF22ANS.jpg
150.002	0.514	Blank	Blank	78.862	n/a	2	4	17	n/a	77	n/a	3	n/a	n/a	n/a	n/a	175.697	n/a
150.533	0.497	happy	Picture	78.348	n/a	2	4	18	n/a	78	86	3	n/a	n/a	n/a	n/a	176.227	AF09ANS.jpg
151.03	0.514	Blank	Blank	77.834	n/a	2	4	18	n/a	78	n/a	3	n/a	n/a	n/a	n/a	176.725	n/a
151.561	0.497	happy	Picture	77.32	n/a	2	4	19	n/a	79	92	3	n/a	n/a	n/a	n/a	177.255	AF21ANS.jpg
152.058	0.514	Blank	Blank	76.806	n/a	2	4	19	n/a	79	n/a	3	n/a	n/a	n/a	n/a	177.753	n/a
152.589	0.497	happy	Picture	76.293	n/a	2	4	20	n/a	80	84	3	n/a	n/a	n/a	n/a	178.283	AF05ANS.jpg
153.086	0.514	Blank	Blank	75.779	n/a	2	4	20	n/a	80	n/a	3	n/a	n/a	n/a	n/a	178.781	n/a
153.617	10.014	ITI	Fixation+	65.748	n/a	2	n/a	n/a	n/a	n/a	n/a	n/a	n/a	n/a	n/a	n/a	179.311	n/a
163.647	0.497	neutral	Picture	65.235	n/a	2	5	1	n/a	81	4	1	n/a	n/a	n/a	n/a	189.341	AF05NES.jpg
164.144	0.514	Blank	Blank	64.72	n/a	2	5	1	n/a	81	n/a	1	n/a	n/a	n/a	n/a	189.839	n/a
164.675	0.497	neutral	Picture	64.207	n/a	2	5	2	n/a	82	14	1	n/a	n/a	n/a	n/a	190.369	AF23NES.jpg
165.172	0.514	Blank	Blank	63.693	n/a	2	5	2	n/a	82	n/a	1	n/a	n/a	n/a	n/a	190.867	n/a
165.702	0.497	neutral	Picture	63.179	n/a	2	5	3	n/a	83	19	1	n/a	n/a	n/a	n/a	191.397	AF31NES.jpg
166.2	0.514	Blank	Blank	62.665	n/a	2	5	3	n/a	83	n/a	1	n/a	n/a	n/a	n/a	191.894	n/a
166.73	0.497	neutral	Picture	62.151	n/a	2	5	4	n/a	84	8	1	n/a	n/a	n/a	n/a	192.425	AF14NES.jpg
167.228	0.514	Blank	Blank	61.637	n/a	2	5	4	n/a	84	n/a	1	n/a	n/a	n/a	n/a	192.922	n/a
167.758	0.497	neutral	Picture	61.123	n/a	2	5	5	n/a	85	25	1	n/a	n/a	n/a	n/a	193.453	BM06NES.jpg
168.256	0.514	Blank	Blank	60.609	n/a	2	5	5	n/a	85	n/a	1	n/a	n/a	n/a	n/a	193.95	n/a
168.786	0.497	neutral	Picture	60.095	n/a	2	5	6	n/a	86	9	1	n/a	n/a	n/a	n/a	194.481	AF17NES.jpg
169.284	0.514	Blank	Blank	59.581	n/a	2	5	6	n/a	86	n/a	1	n/a	n/a	n/a	n/a	194.978	n/a
169.814	0.497	neutral	Picture	59.067	n/a	2	5	7	n/a	87	2	1	n/a	n/a	n/a	n/a	195.509	AF03NES.jpg
170.311	0.514	Blank	Blank	58.553	n/a	2	5	7	n/a	87	n/a	1	n/a	n/a	n/a	n/a	196.006	n/a
170.842	0.497	neutral	Picture	58.039	n/a	2	5	8	n/a	88	17	1	n/a	n/a	n/a	n/a	196.536	BF28NES.jpg
171.339	0.514	Blank	Blank	57.525	n/a	2	5	8	n/a	88	n/a	1	n/a	n/a	n/a	n/a	197.034	n/a
171.87	0.497	neutral	Picture	57.011	n/a	2	5	9	n/a	89	6	1	n/a	n/a	n/a	n/a	197.564	AF09NES.jpg
172.367	0.514	Blank	Blank	56.497	n/a	2	5	9	n/a	89	n/a	1	n/a	n/a	n/a	n/a	198.062	n/a
172.898	0.497	neutral	Picture	55.984	n/a	2	5	10	n/a	90	12	1	n/a	n/a	n/a	n/a	198.592	AF21NES.jpg
173.395	0.514	Blank	Blank	55.47	n/a	2	5	10	n/a	90	n/a	1	n/a	n/a	n/a	n/a	199.09	n/a
173.925	0.497	neutral	Picture	54.956	n/a	2	5	11	n/a	91	24	1	n/a	n/a	n/a	n/a	199.62	BM05NES.jpg
174.423	0.514	Blank	Blank	54.442	n/a	2	5	11	n/a	91	n/a	1	n/a	n/a	n/a	n/a	200.118	n/a
174.953	0.497	neutral	Picture	53.928	n/a	2	5	12	n/a	92	34	1	n/a	n/a	n/a	n/a	200.648	AM22NES.jpg
175.451	0.514	Blank	Blank	53.414	n/a	2	5	12	n/a	92	n/a	1	n/a	n/a	n/a	n/a	201.145	n/a
175.981	0.497	neutral	Picture	52.9	n/a	2	5	13	n/a	93	23	1	n/a	n/a	n/a	n/a	201.676	AM04NES.jpg
176.479	0.514	Blank	Blank	52.386	n/a	2	5	13	n/a	93	n/a	1	n/a	n/a	n/a	n/a	202.173	n/a
177.009	0.497	neutral	Picture	51.872	n/a	2	5	14	n/a	94	15	1	n/a	n/a	n/a	n/a	202.704	AF25NES.jpg
177.507	0.514	Blank	Blank	51.358	n/a	2	5	14	n/a	94	n/a	1	n/a	n/a	n/a	n/a	203.201	n/a
178.037	0.497	neutral	Picture	50.844	n/a	2	5	15	n/a	95	37	1	n/a	n/a	n/a	n/a	203.732	BM25NES.jpg
178.534	0.514	Blank	Blank	50.33	n/a	2	5	15	n/a	95	n/a	1	n/a	n/a	n/a	n/a	204.229	n/a
179.065	0.497	neutral	Picture	49.816	n/a	2	5	16	n/a	96	32	1	n/a	n/a	n/a	n/a	204.76	AM14NES.jpg
179.562	0.514	Blank	Blank	49.302	n/a	2	5	16	n/a	96	n/a	1	n/a	n/a	n/a	n/a	205.257	n/a
180.093	0.497	neutral	Picture	48.788	n/a	2	5	17	n/a	97	3	1	n/a	n/a	n/a	n/a	205.787	BF04NES.jpg
180.59	0.514	Blank	Blank	48.274	n/a	2	5	17	n/a	97	n/a	1	n/a	n/a	n/a	n/a	206.285	n/a
181.121	0.497	neutral	Picture	47.76	n/a	2	5	18	n/a	98	16	1	n/a	n/a	n/a	n/a	206.815	AF26NES.jpg
181.618	0.514	Blank	Blank	47.246	n/a	2	5	18	n/a	98	n/a	1	n/a	n/a	n/a	n/a	207.313	n/a
182.149	0.497	neutral	Picture	46.733	n/a	2	5	19	n/a	99	27	1	n/a	n/a	n/a	n/a	207.843	BM08NES.jpg
182.646	0.514	Blank	Blank	46.219	n/a	2	5	19	n/a	99	n/a	1	n/a	n/a	n/a	n/a	208.341	n/a
183.177	0.497	neutral	Picture	45.705	n/a	2	5	20	n/a	100	28	1	n/a	n/a	n/a	n/a	208.871	AM09NES.jpg
183.674	0.514	Blank	Blank	45.191	n/a	2	5	20	n/a	100	n/a	1	n/a	n/a	n/a	n/a	209.369	n/a
184.204	10.014	ITI	Fixation+	35.161	n/a	2	n/a	n/a	n/a	n/a	n/a	n/a	n/a	n/a	n/a	n/a	209.899	n/a
194.235	0.497	happy	Picture	34.647	n/a	2	6	1	n/a	101	81	3	n/a	n/a	n/a	n/a	219.929	AF01ANS.jpg
194.732	0.514	Blank	Blank	34.133	n/a	2	6	1	n/a	101	n/a	3	n/a	n/a	n/a	n/a	220.427	n/a
195.262	0.497	happy	Picture	33.619	n/a	2	6	2	n/a	102	120	3	n/a	n/a	n/a	n/a	220.957	AM35ANS.jpg
195.76	0.514	Blank	Blank	33.105	n/a	2	6	2	n/a	102	n/a	3	n/a	n/a	n/a	n/a	221.454	n/a
196.29	0.497	happy	Picture	32.591	n/a	2	6	3	n/a	103	114	3	n/a	n/a	n/a	n/a	221.985	AM22ANS.jpg
196.788	0.514	Blank	Blank	32.077	n/a	2	6	3	n/a	103	n/a	3	n/a	n/a	n/a	n/a	222.482	n/a
197.318	0.497	happy	Picture	31.563	n/a	2	6	4	n/a	104	109	3	n/a	n/a	n/a	n/a	223.013	AM10ANS.jpg
197.816	0.514	Blank	Blank	31.049	n/a	2	6	4	n/a	104	n/a	3	n/a	n/a	n/a	n/a	223.51	n/a
198.346	0.497	happy	Picture	30.535	n/a	2	6	5	n/a	105	96	3	n/a	n/a	n/a	n/a	224.041	AF26ANS.jpg
198.843	0.514	Blank	Blank	30.021	n/a	2	6	5	n/a	105	n/a	3	n/a	n/a	n/a	n/a	224.538	n/a
199.374	0.497	happy	Picture	29.507	n/a	2	6	6	n/a	106	82	3	n/a	n/a	n/a	n/a	225.069	AF03ANS.jpg
199.871	0.514	Blank	Blank	28.993	n/a	2	6	6	n/a	106	n/a	3	n/a	n/a	n/a	n/a	225.566	n/a
200.402	0.497	happy	Picture	28.479	n/a	2	6	7	n/a	107	97	3	n/a	n/a	n/a	n/a	226.096	BF28ANS.jpg
200.899	0.514	Blank	Blank	27.965	n/a	2	6	7	n/a	107	n/a	3	n/a	n/a	n/a	n/a	226.594	n/a
201.43	0.497	happy	Picture	27.451	n/a	2	6	8	n/a	108	115	3	n/a	n/a	n/a	n/a	227.124	AM23ANS.jpg
201.927	0.514	Blank	Blank	26.937	n/a	2	6	8	n/a	108	n/a	3	n/a	n/a	n/a	n/a	227.622	n/a
202.458	0.497	happy	Picture	26.424	n/a	2	6	9	n/a	109	91	3	n/a	n/a	n/a	n/a	228.152	AF20ANS.jpg
202.955	0.514	Blank	Blank	25.91	n/a	2	6	9	n/a	109	n/a	3	n/a	n/a	n/a	n/a	228.65	n/a
203.486	0.497	happy	Picture	25.396	n/a	2	6	10	n/a	110	87	3	n/a	n/a	n/a	n/a	229.18	BF11ANS.jpg
203.983	0.514	Blank	Blank	24.882	n/a	2	6	10	n/a	110	n/a	3	n/a	n/a	n/a	n/a	229.678	n/a
204.513	0.497	happy	Picture	24.368	n/a	2	6	11	n/a	111	85	3	n/a	n/a	n/a	n/a	230.208	BF07ANS.jpg
205.011	0.514	Blank	Blank	23.854	n/a	2	6	11	n/a	111	n/a	3	n/a	n/a	n/a	n/a	230.705	n/a
205.541	0.497	happy	Picture	23.34	n/a	2	6	12	n/a	112	110	3	n/a	n/a	n/a	n/a	231.236	AM11ANS.jpg
206.039	0.514	Blank	Blank	22.826	n/a	2	6	12	n/a	112	n/a	3	n/a	n/a	n/a	n/a	231.733	n/a
206.569	0.497	happy	Picture	22.312	n/a	2	6	13	n/a	113	111	3	n/a	n/a	n/a	n/a	232.264	BM12ANS.jpg
207.067	0.514	Blank	Blank	21.798	n/a	2	6	13	n/a	113	n/a	3	n/a	n/a	n/a	n/a	232.761	n/a
207.597	0.497	happy	Picture	21.284	n/a	2	6	14	n/a	114	103	3	n/a	n/a	n/a	n/a	233.292	AM04ANS.jpg
208.094	0.514	Blank	Blank	20.77	n/a	2	6	14	n/a	114	n/a	3	n/a	n/a	n/a	n/a	233.789	n/a
208.625	0.497	happy	Picture	20.256	n/a	2	6	15	n/a	115	101	3	n/a	n/a	n/a	n/a	234.32	AM01ANS.jpg
209.122	0.514	Blank	Blank	19.742	n/a	2	6	15	n/a	115	n/a	3	n/a	n/a	n/a	n/a	234.817	n/a
209.653	0.497	happy	Picture	19.228	n/a	2	6	16	n/a	116	104	3	n/a	n/a	n/a	n/a	235.347	BM05ANS.jpg
210.15	0.514	Blank	Blank	18.714	n/a	2	6	16	n/a	116	n/a	3	n/a	n/a	n/a	n/a	235.845	n/a
210.681	0.497	happy	Picture	18.2	n/a	2	6	17	n/a	117	107	3	n/a	n/a	n/a	n/a	236.375	BM08ANS.jpg
211.178	0.514	Blank	Blank	17.686	n/a	2	6	17	n/a	117	n/a	3	n/a	n/a	n/a	n/a	236.873	n/a
211.709	0.497	happy	Picture	17.173	n/a	2	6	18	n/a	118	98	3	n/a	n/a	n/a	n/a	237.403	BF29ANS.jpg
212.206	0.514	Blank	Blank	16.659	n/a	2	6	18	n/a	118	n/a	3	n/a	n/a	n/a	n/a	237.901	n/a
212.736	0.497	happy	Picture	16.145	n/a	2	6	19	n/a	119	99	3	n/a	n/a	n/a	n/a	238.431	AF31ANS.jpg
213.234	0.514	Blank	Blank	15.631	n/a	2	6	19	n/a	119	n/a	3	n/a	n/a	n/a	n/a	238.929	n/a
213.764	0.497	happy	Picture	15.117	n/a	2	6	20	n/a	120	108	3	n/a	n/a	n/a	n/a	239.459	AM09ANS.jpg
214.262	0.514	Blank	Blank	14.603	n/a	2	6	20	n/a	120	n/a	3	n/a	n/a	n/a	n/a	239.956	n/a
214.792	10.014	ITI	Fixation+	4.573	n/a	2	n/a	n/a	n/a	n/a	n/a	n/a	n/a	n/a	n/a	n/a	240.487	n/a
229.379	n/a	ConfirmRating	Rate	n/a	4.559	2	n/a	n/a	0	n/a	n/a	n/a	2	Happy	63	51	255.073	n/a
235.173	n/a	ConfirmRating	Rate	n/a	5.786	2	n/a	n/a	1	n/a	n/a	n/a	3	Happy	19	48	260.868	n/a
235.201	15.004	Rest	Picture	n/a	n/a	n/a	n/a	n/a	n/a	n/a	n/a	n/a	0	n/a	0	0	260.895	n/a
250.221	10.014	ITI	Fixation+	97.673	n/a	3	n/a	n/a	n/a	n/a	n/a	n/a	n/a	n/a	n/a	n/a	275.916	n/a
260.251	0.497	angry	Picture	97.159	n/a	3	7	1	n/a	1	46	2	n/a	n/a	n/a	n/a	285.946	AF09HAS.jpg
260.749	0.514	Blank	Blank	96.645	n/a	3	7	1	n/a	1	n/a	2	n/a	n/a	n/a	n/a	286.443	n/a
261.279	0.497	angry	Picture	96.131	n/a	3	7	2	n/a	2	69	2	n/a	n/a	n/a	n/a	286.974	AM10HAS.jpg
261.777	0.514	Blank	Blank	95.617	n/a	3	7	2	n/a	2	n/a	2	n/a	n/a	n/a	n/a	287.471	n/a
262.307	0.497	angry	Picture	95.103	n/a	3	7	3	n/a	3	71	2	n/a	n/a	n/a	n/a	288.002	BM12HAS.jpg
262.805	0.514	Blank	Blank	94.589	n/a	3	7	3	n/a	3	n/a	2	n/a	n/a	n/a	n/a	288.499	n/a
263.335	0.497	angry	Picture	94.075	n/a	3	7	4	n/a	4	51	2	n/a	n/a	n/a	n/a	289.03	AF20HAS.jpg
263.832	0.514	Blank	Blank	93.561	n/a	3	7	4	n/a	4	n/a	2	n/a	n/a	n/a	n/a	289.527	n/a
264.363	0.497	angry	Picture	93.047	n/a	3	7	5	n/a	5	67	2	n/a	n/a	n/a	n/a	290.058	BM08HAS.jpg
264.86	0.514	Blank	Blank	92.533	n/a	3	7	5	n/a	5	n/a	2	n/a	n/a	n/a	n/a	290.555	n/a
265.391	0.497	angry	Picture	92.019	n/a	3	7	6	n/a	6	60	2	n/a	n/a	n/a	n/a	291.086	AF32HAS.jpg
265.888	0.514	Blank	Blank	91.505	n/a	3	7	6	n/a	6	n/a	2	n/a	n/a	n/a	n/a	291.583	n/a
266.419	0.497	angry	Picture	90.991	n/a	3	7	7	n/a	7	42	2	n/a	n/a	n/a	n/a	292.113	AF03HAS.jpg
266.916	0.514	Blank	Blank	90.477	n/a	3	7	7	n/a	7	n/a	2	n/a	n/a	n/a	n/a	292.611	n/a
267.447	0.497	angry	Picture	89.964	n/a	3	7	8	n/a	8	55	2	n/a	n/a	n/a	n/a	293.141	AF25HAS.jpg
267.944	0.514	Blank	Blank	89.45	n/a	3	7	8	n/a	8	n/a	2	n/a	n/a	n/a	n/a	293.639	n/a
268.475	0.497	angry	Picture	88.936	n/a	3	7	9	n/a	9	72	2	n/a	n/a	n/a	n/a	294.169	AM14HAS.jpg
268.972	0.514	Blank	Blank	88.422	n/a	3	7	9	n/a	9	n/a	2	n/a	n/a	n/a	n/a	294.666	n/a
269.502	0.497	angry	Picture	87.908	n/a	3	7	10	n/a	10	63	2	n/a	n/a	n/a	n/a	295.197	AM04HAS.jpg
270.0	0.514	Blank	Blank	87.394	n/a	3	7	10	n/a	10	n/a	2	n/a	n/a	n/a	n/a	295.694	n/a
270.53	0.497	angry	Picture	86.88	n/a	3	7	11	n/a	11	58	2	n/a	n/a	n/a	n/a	296.225	BF29HAS.jpg
271.028	0.514	Blank	Blank	86.366	n/a	3	7	11	n/a	11	n/a	2	n/a	n/a	n/a	n/a	296.722	n/a
271.558	0.497	angry	Picture	85.852	n/a	3	7	12	n/a	12	48	2	n/a	n/a	n/a	n/a	297.253	AF14HAS.jpg
272.055	0.514	Blank	Blank	85.338	n/a	3	7	12	n/a	12	n/a	2	n/a	n/a	n/a	n/a	297.75	n/a
272.586	0.497	angry	Picture	84.824	n/a	3	7	13	n/a	13	66	2	n/a	n/a	n/a	n/a	298.281	BM07HAS.jpg
273.083	0.514	Blank	Blank	84.31	n/a	3	7	13	n/a	13	n/a	2	n/a	n/a	n/a	n/a	298.778	n/a
273.614	0.497	angry	Picture	83.796	n/a	3	7	14	n/a	14	70	2	n/a	n/a	n/a	n/a	299.308	BM11HAS.jpg
274.111	0.514	Blank	Blank	83.282	n/a	3	7	14	n/a	14	n/a	2	n/a	n/a	n/a	n/a	299.806	n/a
274.642	0.497	angry	Picture	82.768	n/a	3	7	15	n/a	15	43	2	n/a	n/a	n/a	n/a	300.336	BF04HAS.jpg
275.139	0.514	Blank	Blank	82.255	n/a	3	7	15	n/a	15	n/a	2	n/a	n/a	n/a	n/a	300.834	n/a
275.67	0.497	angry	Picture	81.74	n/a	3	7	16	n/a	16	49	2	n/a	n/a	n/a	n/a	301.364	AF17HAS.jpg
276.167	0.514	Blank	Blank	81.227	n/a	3	7	16	n/a	16	n/a	2	n/a	n/a	n/a	n/a	301.862	n/a
276.698	0.497	angry	Picture	80.713	n/a	3	7	17	n/a	17	75	2	n/a	n/a	n/a	n/a	302.392	AM23HAS.jpg
277.195	0.514	Blank	Blank	80.199	n/a	3	7	17	n/a	17	n/a	2	n/a	n/a	n/a	n/a	302.89	n/a
277.726	0.497	angry	Picture	79.685	n/a	3	7	18	n/a	18	80	2	n/a	n/a	n/a	n/a	303.42	BM35HAS.jpg
278.223	0.514	Blank	Blank	79.171	n/a	3	7	18	n/a	18	n/a	2	n/a	n/a	n/a	n/a	303.918	n/a
278.753	0.497	angry	Picture	78.657	n/a	3	7	19	n/a	19	76	2	n/a	n/a	n/a	n/a	304.448	BM24HAS.jpg
279.251	0.514	Blank	Blank	78.143	n/a	3	7	19	n/a	19	n/a	2	n/a	n/a	n/a	n/a	304.945	n/a
279.781	0.497	angry	Picture	77.629	n/a	3	7	20	n/a	20	74	2	n/a	n/a	n/a	n/a	305.476	AM22HAS.jpg
280.279	0.514	Blank	Blank	77.115	n/a	3	7	20	n/a	20	n/a	2	n/a	n/a	n/a	n/a	305.973	n/a
280.809	10.014	ITI	Fixation+	67.085	n/a	3	n/a	n/a	n/a	n/a	n/a	n/a	n/a	n/a	n/a	n/a	306.504	n/a
290.839	0.497	neutral	Picture	66.571	n/a	3	8	1	n/a	21	33	1	n/a	n/a	n/a	n/a	316.534	AM21NES.jpg
291.337	0.514	Blank	Blank	66.057	n/a	3	8	1	n/a	21	n/a	1	n/a	n/a	n/a	n/a	317.031	n/a
291.867	0.497	neutral	Picture	65.543	n/a	3	8	2	n/a	22	39	1	n/a	n/a	n/a	n/a	317.562	AM28NES.jpg
292.365	0.514	Blank	Blank	65.029	n/a	3	8	2	n/a	22	n/a	1	n/a	n/a	n/a	n/a	318.059	n/a
292.895	0.497	neutral	Picture	64.515	n/a	3	8	3	n/a	23	25	1	n/a	n/a	n/a	n/a	318.59	BM06NES.jpg
293.393	0.514	Blank	Blank	64.001	n/a	3	8	3	n/a	23	n/a	1	n/a	n/a	n/a	n/a	319.087	n/a
293.923	0.497	neutral	Picture	63.487	n/a	3	8	4	n/a	24	5	1	n/a	n/a	n/a	n/a	319.618	BF07NES.jpg
294.42	0.514	Blank	Blank	62.973	n/a	3	8	4	n/a	24	n/a	1	n/a	n/a	n/a	n/a	320.115	n/a
294.951	0.497	neutral	Picture	62.459	n/a	3	8	5	n/a	25	10	1	n/a	n/a	n/a	n/a	320.646	AF18NES.jpg
295.448	0.514	Blank	Blank	61.945	n/a	3	8	5	n/a	25	n/a	1	n/a	n/a	n/a	n/a	321.143	n/a
295.979	0.497	neutral	Picture	61.431	n/a	3	8	6	n/a	26	34	1	n/a	n/a	n/a	n/a	321.673	AM22NES.jpg
296.476	0.514	Blank	Blank	60.917	n/a	3	8	6	n/a	26	n/a	1	n/a	n/a	n/a	n/a	322.171	n/a
297.007	0.497	neutral	Picture	60.404	n/a	3	8	7	n/a	27	36	1	n/a	n/a	n/a	n/a	322.701	BM24NES.jpg
297.504	0.514	Blank	Blank	59.89	n/a	3	8	7	n/a	27	n/a	1	n/a	n/a	n/a	n/a	323.199	n/a
298.035	0.497	neutral	Picture	59.376	n/a	3	8	8	n/a	28	14	1	n/a	n/a	n/a	n/a	323.729	AF23NES.jpg
298.532	0.514	Blank	Blank	58.862	n/a	3	8	8	n/a	28	n/a	1	n/a	n/a	n/a	n/a	324.226	n/a
299.062	0.497	neutral	Picture	58.348	n/a	3	8	9	n/a	29	9	1	n/a	n/a	n/a	n/a	324.757	AF17NES.jpg
299.56	0.514	Blank	Blank	57.834	n/a	3	8	9	n/a	29	n/a	1	n/a	n/a	n/a	n/a	325.254	n/a
300.09	0.497	neutral	Picture	57.32	n/a	3	8	10	n/a	30	19	1	n/a	n/a	n/a	n/a	325.785	AF31NES.jpg
300.588	0.514	Blank	Blank	56.806	n/a	3	8	10	n/a	30	n/a	1	n/a	n/a	n/a	n/a	326.282	n/a
301.118	0.497	neutral	Picture	56.292	n/a	3	8	11	n/a	31	15	1	n/a	n/a	n/a	n/a	326.813	AF25NES.jpg
301.616	0.514	Blank	Blank	55.778	n/a	3	8	11	n/a	31	n/a	1	n/a	n/a	n/a	n/a	327.31	n/a
302.146	0.497	neutral	Picture	55.264	n/a	3	8	12	n/a	32	22	1	n/a	n/a	n/a	n/a	327.841	BM03NES.jpg
302.643	0.514	Blank	Blank	54.75	n/a	3	8	12	n/a	32	n/a	1	n/a	n/a	n/a	n/a	328.338	n/a
303.174	0.497	neutral	Picture	54.236	n/a	3	8	13	n/a	33	11	1	n/a	n/a	n/a	n/a	328.869	AF20NES.jpg
303.671	0.514	Blank	Blank	53.722	n/a	3	8	13	n/a	33	n/a	1	n/a	n/a	n/a	n/a	329.366	n/a
304.202	0.497	neutral	Picture	53.208	n/a	3	8	14	n/a	34	4	1	n/a	n/a	n/a	n/a	329.897	AF05NES.jpg
304.699	0.514	Blank	Blank	52.694	n/a	3	8	14	n/a	34	n/a	1	n/a	n/a	n/a	n/a	330.394	n/a
305.23	0.497	neutral	Picture	52.18	n/a	3	8	15	n/a	35	17	1	n/a	n/a	n/a	n/a	330.924	BF28NES.jpg
305.727	0.514	Blank	Blank	51.667	n/a	3	8	15	n/a	35	n/a	1	n/a	n/a	n/a	n/a	331.422	n/a
306.258	0.497	neutral	Picture	51.153	n/a	3	8	16	n/a	36	13	1	n/a	n/a	n/a	n/a	331.952	BF22NES.jpg
306.755	0.514	Blank	Blank	50.639	n/a	3	8	16	n/a	36	n/a	1	n/a	n/a	n/a	n/a	332.45	n/a
307.286	0.497	neutral	Picture	50.125	n/a	3	8	17	n/a	37	12	1	n/a	n/a	n/a	n/a	332.98	AF21NES.jpg
307.783	0.514	Blank	Blank	49.611	n/a	3	8	17	n/a	37	n/a	1	n/a	n/a	n/a	n/a	333.478	n/a
308.313	0.497	neutral	Picture	49.097	n/a	3	8	18	n/a	38	24	1	n/a	n/a	n/a	n/a	334.008	BM05NES.jpg
308.811	0.514	Blank	Blank	48.583	n/a	3	8	18	n/a	38	n/a	1	n/a	n/a	n/a	n/a	334.505	n/a
309.341	0.497	neutral	Picture	48.069	n/a	3	8	19	n/a	39	29	1	n/a	n/a	n/a	n/a	335.036	AM10NES.jpg
309.839	0.514	Blank	Blank	47.555	n/a	3	8	19	n/a	39	n/a	1	n/a	n/a	n/a	n/a	335.533	n/a
310.369	0.497	neutral	Picture	47.041	n/a	3	8	20	n/a	40	23	1	n/a	n/a	n/a	n/a	336.064	AM04NES.jpg
310.867	0.514	Blank	Blank	46.527	n/a	3	8	20	n/a	40	n/a	1	n/a	n/a	n/a	n/a	336.561	n/a
311.397	10.014	ITI	Fixation+	36.497	n/a	3	n/a	n/a	n/a	n/a	n/a	n/a	n/a	n/a	n/a	n/a	337.092	n/a
321.427	0.497	angry	Picture	35.983	n/a	3	9	1	n/a	41	62	2	n/a	n/a	n/a	n/a	347.122	BM03HAS.jpg
321.925	0.514	Blank	Blank	35.469	n/a	3	9	1	n/a	41	n/a	2	n/a	n/a	n/a	n/a	347.619	n/a
322.455	0.497	angry	Picture	34.955	n/a	3	9	2	n/a	42	52	2	n/a	n/a	n/a	n/a	348.15	AF21HAS.jpg
322.953	0.514	Blank	Blank	34.441	n/a	3	9	2	n/a	42	n/a	2	n/a	n/a	n/a	n/a	348.647	n/a
323.483	0.497	angry	Picture	33.927	n/a	3	9	3	n/a	43	44	2	n/a	n/a	n/a	n/a	349.178	AF05HAS.jpg
323.98	0.514	Blank	Blank	33.413	n/a	3	9	3	n/a	43	n/a	2	n/a	n/a	n/a	n/a	349.675	n/a
324.511	0.497	angry	Picture	32.899	n/a	3	9	4	n/a	44	53	2	n/a	n/a	n/a	n/a	350.205	BF22HAS.jpg
325.008	0.514	Blank	Blank	32.385	n/a	3	9	4	n/a	44	n/a	2	n/a	n/a	n/a	n/a	350.703	n/a
325.539	0.497	angry	Picture	31.871	n/a	3	9	5	n/a	45	54	2	n/a	n/a	n/a	n/a	351.233	AF23HAS.jpg
326.036	0.514	Blank	Blank	31.358	n/a	3	9	5	n/a	45	n/a	2	n/a	n/a	n/a	n/a	351.731	n/a
326.567	0.497	angry	Picture	30.844	n/a	3	9	6	n/a	46	68	2	n/a	n/a	n/a	n/a	352.261	AM09HAS.jpg
327.064	0.514	Blank	Blank	30.33	n/a	3	9	6	n/a	46	n/a	2	n/a	n/a	n/a	n/a	352.759	n/a
327.595	0.497	angry	Picture	29.816	n/a	3	9	7	n/a	47	64	2	n/a	n/a	n/a	n/a	353.289	BM05HAS.jpg
328.092	0.514	Blank	Blank	29.302	n/a	3	9	7	n/a	47	n/a	2	n/a	n/a	n/a	n/a	353.786	n/a
328.622	0.497	angry	Picture	28.788	n/a	3	9	8	n/a	48	59	2	n/a	n/a	n/a	n/a	354.317	AF31HAS.jpg
329.12	0.514	Blank	Blank	28.274	n/a	3	9	8	n/a	48	n/a	2	n/a	n/a	n/a	n/a	354.814	n/a
329.65	0.497	angry	Picture	27.76	n/a	3	9	9	n/a	49	41	2	n/a	n/a	n/a	n/a	355.345	AF01HAS.jpg
330.148	0.514	Blank	Blank	27.246	n/a	3	9	9	n/a	49	n/a	2	n/a	n/a	n/a	n/a	355.842	n/a
330.678	0.497	angry	Picture	26.732	n/a	3	9	10	n/a	50	73	2	n/a	n/a	n/a	n/a	356.373	AM21HAS.jpg
331.176	0.514	Blank	Blank	26.218	n/a	3	9	10	n/a	50	n/a	2	n/a	n/a	n/a	n/a	356.87	n/a
331.706	0.497	angry	Picture	25.704	n/a	3	9	11	n/a	51	65	2	n/a	n/a	n/a	n/a	357.401	BM06HAS.jpg
332.204	0.514	Blank	Blank	25.19	n/a	3	9	11	n/a	51	n/a	2	n/a	n/a	n/a	n/a	357.898	n/a
332.734	0.497	angry	Picture	24.676	n/a	3	9	12	n/a	52	56	2	n/a	n/a	n/a	n/a	358.429	AF26HAS.jpg
333.231	0.514	Blank	Blank	24.162	n/a	3	9	12	n/a	52	n/a	2	n/a	n/a	n/a	n/a	358.926	n/a
333.762	0.497	angry	Picture	23.648	n/a	3	9	13	n/a	53	45	2	n/a	n/a	n/a	n/a	359.457	BF07HAS.jpg
334.259	0.514	Blank	Blank	23.134	n/a	3	9	13	n/a	53	n/a	2	n/a	n/a	n/a	n/a	359.954	n/a
334.79	0.497	angry	Picture	22.62	n/a	3	9	14	n/a	54	78	2	n/a	n/a	n/a	n/a	360.484	BM26HAS.jpg
335.287	0.514	Blank	Blank	22.106	n/a	3	9	14	n/a	54	n/a	2	n/a	n/a	n/a	n/a	360.982	n/a
335.818	0.497	angry	Picture	21.593	n/a	3	9	15	n/a	55	50	2	n/a	n/a	n/a	n/a	361.512	AF18HAS.jpg
336.315	0.514	Blank	Blank	21.079	n/a	3	9	15	n/a	55	n/a	2	n/a	n/a	n/a	n/a	362.01	n/a
336.846	0.497	angry	Picture	20.565	n/a	3	9	16	n/a	56	47	2	n/a	n/a	n/a	n/a	362.54	BF11HAS.jpg
337.343	0.514	Blank	Blank	20.051	n/a	3	9	16	n/a	56	n/a	2	n/a	n/a	n/a	n/a	363.038	n/a
337.873	0.497	angry	Picture	19.537	n/a	3	9	17	n/a	57	77	2	n/a	n/a	n/a	n/a	363.568	BM25HAS.jpg
338.371	0.514	Blank	Blank	19.023	n/a	3	9	17	n/a	57	n/a	2	n/a	n/a	n/a	n/a	364.065	n/a
338.901	0.497	angry	Picture	18.509	n/a	3	9	18	n/a	58	57	2	n/a	n/a	n/a	n/a	364.596	BF28HAS.jpg
339.399	0.514	Blank	Blank	17.995	n/a	3	9	18	n/a	58	n/a	2	n/a	n/a	n/a	n/a	365.093	n/a
339.929	0.497	angry	Picture	17.481	n/a	3	9	19	n/a	59	61	2	n/a	n/a	n/a	n/a	365.624	AM01HAS.jpg
340.427	0.514	Blank	Blank	16.967	n/a	3	9	19	n/a	59	n/a	2	n/a	n/a	n/a	n/a	366.121	n/a
340.957	0.497	angry	Picture	16.453	n/a	3	9	20	n/a	60	79	2	n/a	n/a	n/a	n/a	366.652	BM28HAS.jpg
341.454	0.514	Blank	Blank	15.939	n/a	3	9	20	n/a	60	n/a	2	n/a	n/a	n/a	n/a	367.149	n/a
341.985	10.014	ITI	Fixation+	5.909	n/a	3	n/a	n/a	n/a	n/a	n/a	n/a	n/a	n/a	n/a	n/a	367.68	n/a
357.908	n/a	ConfirmRating	Rate	n/a	5.902	3	n/a	n/a	0	n/a	n/a	n/a	2	Angry	50	50	383.602	n/a
369.184	n/a	ConfirmRating	Rate	n/a	11.257	3	n/a	n/a	1	n/a	n/a	n/a	3	Angry	59	51	394.878	n/a
369.207	10.014	ITI	Fixation+	95.104	n/a	4	n/a	n/a	n/a	n/a	n/a	n/a	n/a	n/a	n/a	n/a	394.902	n/a
379.238	0.497	happy	Picture	94.59	n/a	4	10	1	n/a	61	119	3	n/a	n/a	n/a	n/a	404.932	BM28ANS.jpg
379.735	0.514	Blank	Blank	94.076	n/a	4	10	1	n/a	61	n/a	3	n/a	n/a	n/a	n/a	405.43	n/a
380.266	0.497	happy	Picture	93.562	n/a	4	10	2	n/a	62	100	3	n/a	n/a	n/a	n/a	405.96	AF32ANS.jpg
380.763	0.514	Blank	Blank	93.048	n/a	4	10	2	n/a	62	n/a	3	n/a	n/a	n/a	n/a	406.457	n/a
381.293	0.497	happy	Picture	92.534	n/a	4	10	3	n/a	63	118	3	n/a	n/a	n/a	n/a	406.988	BM26ANS.jpg
381.791	0.514	Blank	Blank	92.02	n/a	4	10	3	n/a	63	n/a	3	n/a	n/a	n/a	n/a	407.485	n/a
382.321	0.497	happy	Picture	91.506	n/a	4	10	4	n/a	64	89	3	n/a	n/a	n/a	n/a	408.016	AF17ANS.jpg
382.819	0.514	Blank	Blank	90.992	n/a	4	10	4	n/a	64	n/a	3	n/a	n/a	n/a	n/a	408.513	n/a
383.349	0.497	happy	Picture	90.478	n/a	4	10	5	n/a	65	116	3	n/a	n/a	n/a	n/a	409.044	BM24ANS.jpg
383.846	0.514	Blank	Blank	89.965	n/a	4	10	5	n/a	65	n/a	3	n/a	n/a	n/a	n/a	409.541	n/a
384.377	0.497	happy	Picture	89.45	n/a	4	10	6	n/a	66	105	3	n/a	n/a	n/a	n/a	410.072	BM06ANS.jpg
384.874	0.514	Blank	Blank	88.937	n/a	4	10	6	n/a	66	n/a	3	n/a	n/a	n/a	n/a	410.569	n/a
385.405	0.497	happy	Picture	88.423	n/a	4	10	7	n/a	67	106	3	n/a	n/a	n/a	n/a	411.099	AM07ANS.jpg
385.902	0.514	Blank	Blank	87.909	n/a	4	10	7	n/a	67	n/a	3	n/a	n/a	n/a	n/a	411.597	n/a
386.433	0.497	happy	Picture	87.395	n/a	4	10	8	n/a	68	94	3	n/a	n/a	n/a	n/a	412.127	AF23ANS.jpg
386.93	0.514	Blank	Blank	86.881	n/a	4	10	8	n/a	68	n/a	3	n/a	n/a	n/a	n/a	412.625	n/a
387.461	0.497	happy	Picture	86.367	n/a	4	10	9	n/a	69	117	3	n/a	n/a	n/a	n/a	413.155	BM25ANS.jpg
387.958	0.514	Blank	Blank	85.853	n/a	4	10	9	n/a	69	n/a	3	n/a	n/a	n/a	n/a	413.653	n/a
388.489	0.497	happy	Picture	85.339	n/a	4	10	10	n/a	70	90	3	n/a	n/a	n/a	n/a	414.183	AF18ANS.jpg
388.986	0.514	Blank	Blank	84.825	n/a	4	10	10	n/a	70	n/a	3	n/a	n/a	n/a	n/a	414.68	n/a
389.516	0.497	happy	Picture	84.311	n/a	4	10	11	n/a	71	83	3	n/a	n/a	n/a	n/a	415.211	BF04ANS.jpg
390.014	0.514	Blank	Blank	83.797	n/a	4	10	11	n/a	71	n/a	3	n/a	n/a	n/a	n/a	415.708	n/a
390.544	0.497	happy	Picture	83.283	n/a	4	10	12	n/a	72	112	3	n/a	n/a	n/a	n/a	416.239	AM14ANS.jpg
391.042	0.514	Blank	Blank	82.769	n/a	4	10	12	n/a	72	n/a	3	n/a	n/a	n/a	n/a	416.736	n/a
391.572	0.497	happy	Picture	82.255	n/a	4	10	13	n/a	73	102	3	n/a	n/a	n/a	n/a	417.267	BM03ANS.jpg
392.07	0.514	Blank	Blank	81.741	n/a	4	10	13	n/a	73	n/a	3	n/a	n/a	n/a	n/a	417.764	n/a
392.6	0.497	happy	Picture	81.228	n/a	4	10	14	n/a	74	95	3	n/a	n/a	n/a	n/a	418.295	AF25ANS.jpg
393.097	0.514	Blank	Blank	80.714	n/a	4	10	14	n/a	74	n/a	3	n/a	n/a	n/a	n/a	418.792	n/a
393.628	0.497	happy	Picture	80.2	n/a	4	10	15	n/a	75	113	3	n/a	n/a	n/a	n/a	419.323	AM21ANS.jpg
394.125	0.514	Blank	Blank	79.686	n/a	4	10	15	n/a	75	n/a	3	n/a	n/a	n/a	n/a	419.82	n/a
394.656	0.497	happy	Picture	79.172	n/a	4	10	16	n/a	76	88	3	n/a	n/a	n/a	n/a	420.351	AF14ANS.jpg
395.153	0.514	Blank	Blank	78.658	n/a	4	10	16	n/a	76	n/a	3	n/a	n/a	n/a	n/a	420.848	n/a
395.684	0.497	happy	Picture	78.144	n/a	4	10	17	n/a	77	93	3	n/a	n/a	n/a	n/a	421.378	BF22ANS.jpg
396.181	0.514	Blank	Blank	77.63	n/a	4	10	17	n/a	77	n/a	3	n/a	n/a	n/a	n/a	421.876	n/a
396.712	0.497	happy	Picture	77.116	n/a	4	10	18	n/a	78	86	3	n/a	n/a	n/a	n/a	422.406	AF09ANS.jpg
397.209	0.514	Blank	Blank	76.602	n/a	4	10	18	n/a	78	n/a	3	n/a	n/a	n/a	n/a	422.904	n/a
397.74	0.497	happy	Picture	76.088	n/a	4	10	19	n/a	79	92	3	n/a	n/a	n/a	n/a	423.434	AF21ANS.jpg
398.237	0.514	Blank	Blank	75.574	n/a	4	10	19	n/a	79	n/a	3	n/a	n/a	n/a	n/a	423.932	n/a
398.767	0.497	happy	Picture	75.06	n/a	4	10	20	n/a	80	84	3	n/a	n/a	n/a	n/a	424.462	AF05ANS.jpg
399.265	0.514	Blank	Blank	74.546	n/a	4	10	20	n/a	80	n/a	3	n/a	n/a	n/a	n/a	424.959	n/a
399.795	10.014	ITI	Fixation+	64.516	n/a	4	n/a	n/a	n/a	n/a	n/a	n/a	n/a	n/a	n/a	n/a	425.49	n/a
409.826	0.497	neutral	Picture	64.002	n/a	4	11	1	n/a	81	4	1	n/a	n/a	n/a	n/a	435.52	AF05NES.jpg
410.323	0.514	Blank	Blank	63.488	n/a	4	11	1	n/a	81	n/a	1	n/a	n/a	n/a	n/a	436.017	n/a
410.853	0.497	neutral	Picture	62.974	n/a	4	11	2	n/a	82	14	1	n/a	n/a	n/a	n/a	436.548	AF23NES.jpg
411.351	0.514	Blank	Blank	62.46	n/a	4	11	2	n/a	82	n/a	1	n/a	n/a	n/a	n/a	437.045	n/a
411.881	0.497	neutral	Picture	61.946	n/a	4	11	3	n/a	83	19	1	n/a	n/a	n/a	n/a	437.576	AF31NES.jpg
412.379	0.514	Blank	Blank	61.432	n/a	4	11	3	n/a	83	n/a	1	n/a	n/a	n/a	n/a	438.073	n/a
412.909	0.497	neutral	Picture	60.918	n/a	4	11	4	n/a	84	8	1	n/a	n/a	n/a	n/a	438.604	AF14NES.jpg
413.406	0.514	Blank	Blank	60.405	n/a	4	11	4	n/a	84	n/a	1	n/a	n/a	n/a	n/a	439.101	n/a
413.937	0.497	neutral	Picture	59.89	n/a	4	11	5	n/a	85	25	1	n/a	n/a	n/a	n/a	439.632	BM06NES.jpg
414.434	0.514	Blank	Blank	59.377	n/a	4	11	5	n/a	85	n/a	1	n/a	n/a	n/a	n/a	440.129	n/a
414.965	0.497	neutral	Picture	58.863	n/a	4	11	6	n/a	86	9	1	n/a	n/a	n/a	n/a	440.659	AF17NES.jpg
415.462	0.514	Blank	Blank	58.349	n/a	4	11	6	n/a	86	n/a	1	n/a	n/a	n/a	n/a	441.157	n/a
415.993	0.497	neutral	Picture	57.835	n/a	4	11	7	n/a	87	2	1	n/a	n/a	n/a	n/a	441.687	AF03NES.jpg
416.49	0.514	Blank	Blank	57.321	n/a	4	11	7	n/a	87	n/a	1	n/a	n/a	n/a	n/a	442.185	n/a
417.021	0.497	neutral	Picture	56.807	n/a	4	11	8	n/a	88	17	1	n/a	n/a	n/a	n/a	442.715	BF28NES.jpg
417.518	0.514	Blank	Blank	56.293	n/a	4	11	8	n/a	88	n/a	1	n/a	n/a	n/a	n/a	443.213	n/a
418.049	0.497	neutral	Picture	55.779	n/a	4	11	9	n/a	89	6	1	n/a	n/a	n/a	n/a	443.743	AF09NES.jpg
418.546	0.514	Blank	Blank	55.265	n/a	4	11	9	n/a	89	n/a	1	n/a	n/a	n/a	n/a	444.24	n/a
419.076	0.497	neutral	Picture	54.751	n/a	4	11	10	n/a	90	12	1	n/a	n/a	n/a	n/a	444.771	AF21NES.jpg
419.574	0.514	Blank	Blank	54.237	n/a	4	11	10	n/a	90	n/a	1	n/a	n/a	n/a	n/a	445.268	n/a
420.104	0.497	neutral	Picture	53.723	n/a	4	11	11	n/a	91	24	1	n/a	n/a	n/a	n/a	445.799	BM05NES.jpg
420.602	0.514	Blank	Blank	53.209	n/a	4	11	11	n/a	91	n/a	1	n/a	n/a	n/a	n/a	446.296	n/a
421.132	0.497	neutral	Picture	52.695	n/a	4	11	12	n/a	92	34	1	n/a	n/a	n/a	n/a	446.827	AM22NES.jpg
421.63	0.514	Blank	Blank	52.181	n/a	4	11	12	n/a	92	n/a	1	n/a	n/a	n/a	n/a	447.324	n/a
422.16	0.497	neutral	Picture	51.667	n/a	4	11	13	n/a	93	23	1	n/a	n/a	n/a	n/a	447.855	AM04NES.jpg
422.658	0.514	Blank	Blank	51.154	n/a	4	11	13	n/a	93	n/a	1	n/a	n/a	n/a	n/a	448.352	n/a
423.188	0.497	neutral	Picture	50.639	n/a	4	11	14	n/a	94	15	1	n/a	n/a	n/a	n/a	448.883	AF25NES.jpg
423.685	0.514	Blank	Blank	50.126	n/a	4	11	14	n/a	94	n/a	1	n/a	n/a	n/a	n/a	449.38	n/a
424.216	0.497	neutral	Picture	49.612	n/a	4	11	15	n/a	95	37	1	n/a	n/a	n/a	n/a	449.911	BM25NES.jpg
424.713	0.514	Blank	Blank	49.098	n/a	4	11	15	n/a	95	n/a	1	n/a	n/a	n/a	n/a	450.408	n/a
425.244	0.497	neutral	Picture	48.584	n/a	4	11	16	n/a	96	32	1	n/a	n/a	n/a	n/a	450.938	AM14NES.jpg
425.741	0.514	Blank	Blank	48.07	n/a	4	11	16	n/a	96	n/a	1	n/a	n/a	n/a	n/a	451.436	n/a
426.272	0.497	neutral	Picture	47.556	n/a	4	11	17	n/a	97	3	1	n/a	n/a	n/a	n/a	451.966	BF04NES.jpg
426.769	0.514	Blank	Blank	47.042	n/a	4	11	17	n/a	97	n/a	1	n/a	n/a	n/a	n/a	452.464	n/a
427.3	0.497	neutral	Picture	46.528	n/a	4	11	18	n/a	98	16	1	n/a	n/a	n/a	n/a	452.994	AF26NES.jpg
427.797	0.514	Blank	Blank	46.014	n/a	4	11	18	n/a	98	n/a	1	n/a	n/a	n/a	n/a	453.491	n/a
428.327	0.497	neutral	Picture	45.5	n/a	4	11	19	n/a	99	27	1	n/a	n/a	n/a	n/a	454.022	BM08NES.jpg
428.825	0.514	Blank	Blank	44.986	n/a	4	11	19	n/a	99	n/a	1	n/a	n/a	n/a	n/a	454.519	n/a
429.355	0.497	neutral	Picture	44.472	n/a	4	11	20	n/a	100	28	1	n/a	n/a	n/a	n/a	455.05	AM09NES.jpg
429.853	0.514	Blank	Blank	43.958	n/a	4	11	20	n/a	100	n/a	1	n/a	n/a	n/a	n/a	455.547	n/a
430.383	10.014	ITI	Fixation+	33.928	n/a	4	n/a	n/a	n/a	n/a	n/a	n/a	n/a	n/a	n/a	n/a	456.078	n/a
440.413	0.497	happy	Picture	33.414	n/a	4	12	1	n/a	101	81	3	n/a	n/a	n/a	n/a	466.108	AF01ANS.jpg
440.911	0.514	Blank	Blank	32.9	n/a	4	12	1	n/a	101	n/a	3	n/a	n/a	n/a	n/a	466.605	n/a
441.441	0.497	happy	Picture	32.386	n/a	4	12	2	n/a	102	120	3	n/a	n/a	n/a	n/a	467.136	AM35ANS.jpg
441.939	0.514	Blank	Blank	31.872	n/a	4	12	2	n/a	102	n/a	3	n/a	n/a	n/a	n/a	467.633	n/a
442.469	0.497	happy	Picture	31.358	n/a	4	12	3	n/a	103	114	3	n/a	n/a	n/a	n/a	468.164	AM22ANS.jpg
442.966	0.514	Blank	Blank	30.844	n/a	4	12	3	n/a	103	n/a	3	n/a	n/a	n/a	n/a	468.661	n/a
443.497	0.497	happy	Picture	30.33	n/a	4	12	4	n/a	104	109	3	n/a	n/a	n/a	n/a	469.192	AM10ANS.jpg
443.994	0.514	Blank	Blank	29.817	n/a	4	12	4	n/a	104	n/a	3	n/a	n/a	n/a	n/a	469.689	n/a
444.525	0.497	happy	Picture	29.303	n/a	4	12	5	n/a	105	96	3	n/a	n/a	n/a	n/a	470.219	AF26ANS.jpg
445.022	0.514	Blank	Blank	28.789	n/a	4	12	5	n/a	105	n/a	3	n/a	n/a	n/a	n/a	470.717	n/a
445.553	0.497	happy	Picture	28.275	n/a	4	12	6	n/a	106	82	3	n/a	n/a	n/a	n/a	471.247	AF03ANS.jpg
446.05	0.514	Blank	Blank	27.761	n/a	4	12	6	n/a	106	n/a	3	n/a	n/a	n/a	n/a	471.745	n/a
446.581	0.497	happy	Picture	27.247	n/a	4	12	7	n/a	107	97	3	n/a	n/a	n/a	n/a	472.275	BF28ANS.jpg
447.078	0.514	Blank	Blank	26.733	n/a	4	12	7	n/a	107	n/a	3	n/a	n/a	n/a	n/a	472.773	n/a
447.609	0.497	happy	Picture	26.219	n/a	4	12	8	n/a	108	115	3	n/a	n/a	n/a	n/a	473.303	AM23ANS.jpg
448.106	0.514	Blank	Blank	25.705	n/a	4	12	8	n/a	108	n/a	3	n/a	n/a	n/a	n/a	473.8	n/a
448.637	0.497	happy	Picture	25.191	n/a	4	12	9	n/a	109	91	3	n/a	n/a	n/a	n/a	474.331	AF20ANS.jpg
449.134	0.514	Blank	Blank	24.677	n/a	4	12	9	n/a	109	n/a	3	n/a	n/a	n/a	n/a	474.828	n/a
449.664	0.497	happy	Picture	24.163	n/a	4	12	10	n/a	110	87	3	n/a	n/a	n/a	n/a	475.359	BF11ANS.jpg
450.162	0.514	Blank	Blank	23.649	n/a	4	12	10	n/a	110	n/a	3	n/a	n/a	n/a	n/a	475.856	n/a
450.692	0.497	happy	Picture	23.135	n/a	4	12	11	n/a	111	85	3	n/a	n/a	n/a	n/a	476.387	BF07ANS.jpg
451.19	0.514	Blank	Blank	22.621	n/a	4	12	11	n/a	111	n/a	3	n/a	n/a	n/a	n/a	476.884	n/a
451.72	0.497	happy	Picture	22.107	n/a	4	12	12	n/a	112	110	3	n/a	n/a	n/a	n/a	477.415	AM11ANS.jpg
452.218	0.514	Blank	Blank	21.594	n/a	4	12	12	n/a	112	n/a	3	n/a	n/a	n/a	n/a	477.912	n/a
452.748	0.497	happy	Picture	21.079	n/a	4	12	13	n/a	113	111	3	n/a	n/a	n/a	n/a	478.443	BM12ANS.jpg
453.245	0.514	Blank	Blank	20.566	n/a	4	12	13	n/a	113	n/a	3	n/a	n/a	n/a	n/a	478.94	n/a
453.776	0.497	happy	Picture	20.052	n/a	4	12	14	n/a	114	103	3	n/a	n/a	n/a	n/a	479.471	AM04ANS.jpg
454.273	0.514	Blank	Blank	19.538	n/a	4	12	14	n/a	114	n/a	3	n/a	n/a	n/a	n/a	479.968	n/a
454.804	0.497	happy	Picture	19.024	n/a	4	12	15	n/a	115	101	3	n/a	n/a	n/a	n/a	480.498	AM01ANS.jpg
455.301	0.514	Blank	Blank	18.51	n/a	4	12	15	n/a	115	n/a	3	n/a	n/a	n/a	n/a	480.996	n/a
455.832	0.497	happy	Picture	17.996	n/a	4	12	16	n/a	116	104	3	n/a	n/a	n/a	n/a	481.526	BM05ANS.jpg
456.329	0.514	Blank	Blank	17.482	n/a	4	12	16	n/a	116	n/a	3	n/a	n/a	n/a	n/a	482.024	n/a
456.86	0.497	happy	Picture	16.968	n/a	4	12	17	n/a	117	107	3	n/a	n/a	n/a	n/a	482.554	BM08ANS.jpg
457.357	0.514	Blank	Blank	16.454	n/a	4	12	17	n/a	117	n/a	3	n/a	n/a	n/a	n/a	483.051	n/a
457.887	0.497	happy	Picture	15.94	n/a	4	12	18	n/a	118	98	3	n/a	n/a	n/a	n/a	483.582	BF29ANS.jpg
458.385	0.514	Blank	Blank	15.426	n/a	4	12	18	n/a	118	n/a	3	n/a	n/a	n/a	n/a	484.079	n/a
458.915	0.497	happy	Picture	14.912	n/a	4	12	19	n/a	119	99	3	n/a	n/a	n/a	n/a	484.61	AF31ANS.jpg
459.413	0.514	Blank	Blank	14.398	n/a	4	12	19	n/a	119	n/a	3	n/a	n/a	n/a	n/a	485.107	n/a
459.943	0.497	happy	Picture	13.884	n/a	4	12	20	n/a	120	108	3	n/a	n/a	n/a	n/a	485.638	AM09ANS.jpg
460.441	0.514	Blank	Blank	13.37	n/a	4	12	20	n/a	120	n/a	3	n/a	n/a	n/a	n/a	486.135	n/a
460.971	10.014	ITI	Fixation+	3.34	n/a	4	n/a	n/a	n/a	n/a	n/a	n/a	n/a	n/a	n/a	n/a	486.666	n/a
474.325	n/a	ConfirmRating	Rate	n/a	3.333	4	n/a	n/a	0	n/a	n/a	n/a	2	Happy	78	52	500.019	n/a
485.804	n/a	ConfirmRating	Rate	n/a	11.456	4	n/a	n/a	1	n/a	n/a	n/a	3	Happy	4	45	511.498	n/a
