onset	duration	trial_type	event_type	time_until_response	response_time	trial_number	block_num_within_trial	image_seq_num_within_block	question_seq_num_within_block	image_seq_num	picture_number	condition	question_type	block_type	rating	rating_computed	onset_uncorrected	KDEV_imagefile
0.002	10.014	ITI	Fixation+	98.16	n/a	1	n/a	n/a	n/a	n/a	n/a	n/a	n/a	n/a	n/a	n/a	29.107	n/a
10.032	0.497	happy	Picture	97.646	n/a	1	1	1	n/a	1	108	3	n/a	n/a	n/a	n/a	39.137	AM09ANS.jpg
10.53	0.514	Blank	Blank	97.132	n/a	1	1	1	n/a	1	n/a	3	n/a	n/a	n/a	n/a	39.635	n/a
11.06	0.497	happy	Picture	96.618	n/a	1	1	2	n/a	2	99	3	n/a	n/a	n/a	n/a	40.165	AF31ANS.jpg
11.558	0.514	Blank	Blank	96.104	n/a	1	1	2	n/a	2	n/a	3	n/a	n/a	n/a	n/a	40.662	n/a
12.088	0.497	happy	Picture	95.59	n/a	1	1	3	n/a	3	98	3	n/a	n/a	n/a	n/a	41.193	BF29ANS.jpg
12.586	0.514	Blank	Blank	95.076	n/a	1	1	3	n/a	3	n/a	3	n/a	n/a	n/a	n/a	41.69	n/a
13.116	0.497	happy	Picture	94.562	n/a	1	1	4	n/a	4	107	3	n/a	n/a	n/a	n/a	42.221	BM08ANS.jpg
13.613	0.514	Blank	Blank	94.048	n/a	1	1	4	n/a	4	n/a	3	n/a	n/a	n/a	n/a	42.718	n/a
14.144	0.497	happy	Picture	93.534	n/a	1	1	5	n/a	5	104	3	n/a	n/a	n/a	n/a	43.249	BM05ANS.jpg
14.641	0.514	Blank	Blank	93.02	n/a	1	1	5	n/a	5	n/a	3	n/a	n/a	n/a	n/a	43.746	n/a
15.172	0.497	happy	Picture	92.506	n/a	1	1	6	n/a	6	101	3	n/a	n/a	n/a	n/a	44.276	AM01ANS.jpg
15.669	0.514	Blank	Blank	91.993	n/a	1	1	6	n/a	6	n/a	3	n/a	n/a	n/a	n/a	44.774	n/a
16.2	0.497	happy	Picture	91.479	n/a	1	1	7	n/a	7	103	3	n/a	n/a	n/a	n/a	45.304	AM04ANS.jpg
16.697	0.514	Blank	Blank	90.965	n/a	1	1	7	n/a	7	n/a	3	n/a	n/a	n/a	n/a	45.802	n/a
17.228	0.497	happy	Picture	90.451	n/a	1	1	8	n/a	8	111	3	n/a	n/a	n/a	n/a	46.332	BM12ANS.jpg
17.725	0.514	Blank	Blank	89.937	n/a	1	1	8	n/a	8	n/a	3	n/a	n/a	n/a	n/a	46.83	n/a
18.256	0.497	happy	Picture	89.423	n/a	1	1	9	n/a	9	110	3	n/a	n/a	n/a	n/a	47.36	AM11ANS.jpg
18.753	0.514	Blank	Blank	88.909	n/a	1	1	9	n/a	9	n/a	3	n/a	n/a	n/a	n/a	47.858	n/a
19.283	0.497	happy	Picture	88.395	n/a	1	1	10	n/a	10	85	3	n/a	n/a	n/a	n/a	48.388	BF07ANS.jpg
19.781	0.514	Blank	Blank	87.881	n/a	1	1	10	n/a	10	n/a	3	n/a	n/a	n/a	n/a	48.885	n/a
20.311	0.497	happy	Picture	87.367	n/a	1	1	11	n/a	11	87	3	n/a	n/a	n/a	n/a	49.416	BF11ANS.jpg
20.809	0.514	Blank	Blank	86.853	n/a	1	1	11	n/a	11	n/a	3	n/a	n/a	n/a	n/a	49.913	n/a
21.339	0.497	happy	Picture	86.339	n/a	1	1	12	n/a	12	91	3	n/a	n/a	n/a	n/a	50.444	AF20ANS.jpg
21.837	0.514	Blank	Blank	85.825	n/a	1	1	12	n/a	12	n/a	3	n/a	n/a	n/a	n/a	50.941	n/a
22.367	0.497	happy	Picture	85.311	n/a	1	1	13	n/a	13	115	3	n/a	n/a	n/a	n/a	51.472	AM23ANS.jpg
22.864	0.514	Blank	Blank	84.797	n/a	1	1	13	n/a	13	n/a	3	n/a	n/a	n/a	n/a	51.969	n/a
23.395	0.497	happy	Picture	84.283	n/a	1	1	14	n/a	14	97	3	n/a	n/a	n/a	n/a	52.5	BF28ANS.jpg
23.892	0.514	Blank	Blank	83.769	n/a	1	1	14	n/a	14	n/a	3	n/a	n/a	n/a	n/a	52.997	n/a
24.423	0.497	happy	Picture	83.256	n/a	1	1	15	n/a	15	82	3	n/a	n/a	n/a	n/a	53.527	AF03ANS.jpg
24.92	0.514	Blank	Blank	82.742	n/a	1	1	15	n/a	15	n/a	3	n/a	n/a	n/a	n/a	54.025	n/a
25.451	0.497	happy	Picture	82.228	n/a	1	1	16	n/a	16	96	3	n/a	n/a	n/a	n/a	54.555	AF26ANS.jpg
25.948	0.514	Blank	Blank	81.714	n/a	1	1	16	n/a	16	n/a	3	n/a	n/a	n/a	n/a	55.053	n/a
26.479	0.497	happy	Picture	81.2	n/a	1	1	17	n/a	17	109	3	n/a	n/a	n/a	n/a	55.583	AM10ANS.jpg
26.976	0.514	Blank	Blank	80.686	n/a	1	1	17	n/a	17	n/a	3	n/a	n/a	n/a	n/a	56.081	n/a
27.506	0.497	happy	Picture	80.172	n/a	1	1	18	n/a	18	114	3	n/a	n/a	n/a	n/a	56.611	AM22ANS.jpg
28.004	0.514	Blank	Blank	79.658	n/a	1	1	18	n/a	18	n/a	3	n/a	n/a	n/a	n/a	57.108	n/a
28.534	0.497	happy	Picture	79.144	n/a	1	1	19	n/a	19	120	3	n/a	n/a	n/a	n/a	57.639	AM35ANS.jpg
29.032	0.514	Blank	Blank	78.63	n/a	1	1	19	n/a	19	n/a	3	n/a	n/a	n/a	n/a	58.136	n/a
29.562	0.497	happy	Picture	78.116	n/a	1	1	20	n/a	20	81	3	n/a	n/a	n/a	n/a	58.667	AF01ANS.jpg
30.06	0.514	Blank	Blank	77.602	n/a	1	1	20	n/a	20	n/a	3	n/a	n/a	n/a	n/a	59.164	n/a
30.59	10.014	ITI	Fixation+	67.572	n/a	1	n/a	n/a	n/a	n/a	n/a	n/a	n/a	n/a	n/a	n/a	59.695	n/a
40.62	0.497	neutral	Picture	67.058	n/a	1	2	1	n/a	21	28	1	n/a	n/a	n/a	n/a	69.725	AM09NES.jpg
41.118	0.514	Blank	Blank	66.544	n/a	1	2	1	n/a	21	n/a	1	n/a	n/a	n/a	n/a	70.222	n/a
41.648	0.497	neutral	Picture	66.03	n/a	1	2	2	n/a	22	27	1	n/a	n/a	n/a	n/a	70.753	BM08NES.jpg
42.145	0.514	Blank	Blank	65.516	n/a	1	2	2	n/a	22	n/a	1	n/a	n/a	n/a	n/a	71.25	n/a
42.676	0.497	neutral	Picture	65.002	n/a	1	2	3	n/a	23	16	1	n/a	n/a	n/a	n/a	71.781	AF26NES.jpg
43.173	0.514	Blank	Blank	64.488	n/a	1	2	3	n/a	23	n/a	1	n/a	n/a	n/a	n/a	72.278	n/a
43.704	0.497	neutral	Picture	63.974	n/a	1	2	4	n/a	24	3	1	n/a	n/a	n/a	n/a	72.808	BF04NES.jpg
44.201	0.514	Blank	Blank	63.461	n/a	1	2	4	n/a	24	n/a	1	n/a	n/a	n/a	n/a	73.306	n/a
44.732	0.497	neutral	Picture	62.947	n/a	1	2	5	n/a	25	32	1	n/a	n/a	n/a	n/a	73.836	AM14NES.jpg
45.229	0.514	Blank	Blank	62.433	n/a	1	2	5	n/a	25	n/a	1	n/a	n/a	n/a	n/a	74.334	n/a
45.76	0.497	neutral	Picture	61.919	n/a	1	2	6	n/a	26	37	1	n/a	n/a	n/a	n/a	74.864	BM25NES.jpg
46.257	0.514	Blank	Blank	61.405	n/a	1	2	6	n/a	26	n/a	1	n/a	n/a	n/a	n/a	75.362	n/a
46.788	0.497	neutral	Picture	60.891	n/a	1	2	7	n/a	27	15	1	n/a	n/a	n/a	n/a	75.892	AF25NES.jpg
47.285	0.514	Blank	Blank	60.377	n/a	1	2	7	n/a	27	n/a	1	n/a	n/a	n/a	n/a	76.389	n/a
47.816	0.497	neutral	Picture	59.863	n/a	1	2	8	n/a	28	23	1	n/a	n/a	n/a	n/a	76.92	AM04NES.jpg
48.313	0.514	Blank	Blank	59.349	n/a	1	2	8	n/a	28	n/a	1	n/a	n/a	n/a	n/a	77.417	n/a
48.843	0.497	neutral	Picture	58.835	n/a	1	2	9	n/a	29	34	1	n/a	n/a	n/a	n/a	77.948	AM22NES.jpg
49.341	0.514	Blank	Blank	58.321	n/a	1	2	9	n/a	29	n/a	1	n/a	n/a	n/a	n/a	78.445	n/a
49.871	0.497	neutral	Picture	57.807	n/a	1	2	10	n/a	30	24	1	n/a	n/a	n/a	n/a	78.976	BM05NES.jpg
50.369	0.514	Blank	Blank	57.293	n/a	1	2	10	n/a	30	n/a	1	n/a	n/a	n/a	n/a	79.473	n/a
50.899	0.497	neutral	Picture	56.779	n/a	1	2	11	n/a	31	12	1	n/a	n/a	n/a	n/a	80.004	AF21NES.jpg
51.396	0.514	Blank	Blank	56.265	n/a	1	2	11	n/a	31	n/a	1	n/a	n/a	n/a	n/a	80.501	n/a
51.927	0.497	neutral	Picture	55.751	n/a	1	2	12	n/a	32	6	1	n/a	n/a	n/a	n/a	81.032	AF09NES.jpg
52.424	0.514	Blank	Blank	55.237	n/a	1	2	12	n/a	32	n/a	1	n/a	n/a	n/a	n/a	81.529	n/a
52.955	0.497	neutral	Picture	54.724	n/a	1	2	13	n/a	33	17	1	n/a	n/a	n/a	n/a	82.059	BF28NES.jpg
53.452	0.514	Blank	Blank	54.21	n/a	1	2	13	n/a	33	n/a	1	n/a	n/a	n/a	n/a	82.557	n/a
53.983	0.497	neutral	Picture	53.696	n/a	1	2	14	n/a	34	2	1	n/a	n/a	n/a	n/a	83.087	AF03NES.jpg
54.48	0.514	Blank	Blank	53.182	n/a	1	2	14	n/a	34	n/a	1	n/a	n/a	n/a	n/a	83.585	n/a
55.011	0.497	neutral	Picture	52.668	n/a	1	2	15	n/a	35	9	1	n/a	n/a	n/a	n/a	84.115	AF17NES.jpg
55.508	0.514	Blank	Blank	52.154	n/a	1	2	15	n/a	35	n/a	1	n/a	n/a	n/a	n/a	84.613	n/a
56.038	0.497	neutral	Picture	51.64	n/a	1	2	16	n/a	36	25	1	n/a	n/a	n/a	n/a	85.143	BM06NES.jpg
56.536	0.514	Blank	Blank	51.126	n/a	1	2	16	n/a	36	n/a	1	n/a	n/a	n/a	n/a	85.641	n/a
57.066	0.497	neutral	Picture	50.612	n/a	1	2	17	n/a	37	8	1	n/a	n/a	n/a	n/a	86.171	AF14NES.jpg
57.564	0.514	Blank	Blank	50.098	n/a	1	2	17	n/a	37	n/a	1	n/a	n/a	n/a	n/a	86.668	n/a
58.094	0.497	neutral	Picture	49.584	n/a	1	2	18	n/a	38	19	1	n/a	n/a	n/a	n/a	87.199	AF31NES.jpg
58.592	0.514	Blank	Blank	49.07	n/a	1	2	18	n/a	38	n/a	1	n/a	n/a	n/a	n/a	87.696	n/a
59.122	0.497	neutral	Picture	48.556	n/a	1	2	19	n/a	39	14	1	n/a	n/a	n/a	n/a	88.227	AF23NES.jpg
59.62	0.514	Blank	Blank	48.042	n/a	1	2	19	n/a	39	n/a	1	n/a	n/a	n/a	n/a	88.724	n/a
60.15	0.497	neutral	Picture	47.528	n/a	1	2	20	n/a	40	4	1	n/a	n/a	n/a	n/a	89.255	AF05NES.jpg
60.647	0.514	Blank	Blank	47.014	n/a	1	2	20	n/a	40	n/a	1	n/a	n/a	n/a	n/a	89.752	n/a
61.178	10.014	ITI	Fixation+	36.984	n/a	1	n/a	n/a	n/a	n/a	n/a	n/a	n/a	n/a	n/a	n/a	90.282	n/a
71.208	0.497	happy	Picture	36.47	n/a	1	3	1	n/a	41	84	3	n/a	n/a	n/a	n/a	100.313	AF05ANS.jpg
71.705	0.514	Blank	Blank	35.957	n/a	1	3	1	n/a	41	n/a	3	n/a	n/a	n/a	n/a	100.81	n/a
72.236	0.497	happy	Picture	35.442	n/a	1	3	2	n/a	42	92	3	n/a	n/a	n/a	n/a	101.341	AF21ANS.jpg
72.733	0.514	Blank	Blank	34.928	n/a	1	3	2	n/a	42	n/a	3	n/a	n/a	n/a	n/a	101.838	n/a
73.264	0.497	happy	Picture	34.415	n/a	1	3	3	n/a	43	86	3	n/a	n/a	n/a	n/a	102.368	AF09ANS.jpg
73.761	0.514	Blank	Blank	33.901	n/a	1	3	3	n/a	43	n/a	3	n/a	n/a	n/a	n/a	102.866	n/a
74.292	0.497	happy	Picture	33.387	n/a	1	3	4	n/a	44	93	3	n/a	n/a	n/a	n/a	103.396	BF22ANS.jpg
74.789	0.514	Blank	Blank	32.873	n/a	1	3	4	n/a	44	n/a	3	n/a	n/a	n/a	n/a	103.894	n/a
75.32	0.497	happy	Picture	32.359	n/a	1	3	5	n/a	45	88	3	n/a	n/a	n/a	n/a	104.424	AF14ANS.jpg
75.817	0.514	Blank	Blank	31.845	n/a	1	3	5	n/a	45	n/a	3	n/a	n/a	n/a	n/a	104.922	n/a
76.347	0.497	happy	Picture	31.331	n/a	1	3	6	n/a	46	113	3	n/a	n/a	n/a	n/a	105.452	AM21ANS.jpg
76.845	0.514	Blank	Blank	30.817	n/a	1	3	6	n/a	46	n/a	3	n/a	n/a	n/a	n/a	105.95	n/a
77.375	0.497	happy	Picture	30.303	n/a	1	3	7	n/a	47	95	3	n/a	n/a	n/a	n/a	106.48	AF25ANS.jpg
77.873	0.514	Blank	Blank	29.789	n/a	1	3	7	n/a	47	n/a	3	n/a	n/a	n/a	n/a	106.977	n/a
78.403	0.497	happy	Picture	29.275	n/a	1	3	8	n/a	48	102	3	n/a	n/a	n/a	n/a	107.508	BM03ANS.jpg
78.901	0.514	Blank	Blank	28.761	n/a	1	3	8	n/a	48	n/a	3	n/a	n/a	n/a	n/a	108.005	n/a
79.431	0.497	happy	Picture	28.247	n/a	1	3	9	n/a	49	112	3	n/a	n/a	n/a	n/a	108.536	AM14ANS.jpg
79.928	0.514	Blank	Blank	27.733	n/a	1	3	9	n/a	49	n/a	3	n/a	n/a	n/a	n/a	109.033	n/a
80.459	0.497	happy	Picture	27.219	n/a	1	3	10	n/a	50	83	3	n/a	n/a	n/a	n/a	109.564	BF04ANS.jpg
80.956	0.514	Blank	Blank	26.705	n/a	1	3	10	n/a	50	n/a	3	n/a	n/a	n/a	n/a	110.061	n/a
81.487	0.497	happy	Picture	26.191	n/a	1	3	11	n/a	51	90	3	n/a	n/a	n/a	n/a	110.591	AF18ANS.jpg
81.984	0.514	Blank	Blank	25.678	n/a	1	3	11	n/a	51	n/a	3	n/a	n/a	n/a	n/a	111.089	n/a
82.515	0.497	happy	Picture	25.164	n/a	1	3	12	n/a	52	117	3	n/a	n/a	n/a	n/a	111.619	BM25ANS.jpg
83.012	0.514	Blank	Blank	24.65	n/a	1	3	12	n/a	52	n/a	3	n/a	n/a	n/a	n/a	112.117	n/a
83.543	0.497	happy	Picture	24.136	n/a	1	3	13	n/a	53	94	3	n/a	n/a	n/a	n/a	112.647	AF23ANS.jpg
84.04	0.514	Blank	Blank	23.622	n/a	1	3	13	n/a	53	n/a	3	n/a	n/a	n/a	n/a	113.145	n/a
84.57	0.497	happy	Picture	23.108	n/a	1	3	14	n/a	54	106	3	n/a	n/a	n/a	n/a	113.675	AM07ANS.jpg
85.068	0.514	Blank	Blank	22.594	n/a	1	3	14	n/a	54	n/a	3	n/a	n/a	n/a	n/a	114.172	n/a
85.598	0.497	happy	Picture	22.08	n/a	1	3	15	n/a	55	105	3	n/a	n/a	n/a	n/a	114.703	BM06ANS.jpg
86.096	0.514	Blank	Blank	21.566	n/a	1	3	15	n/a	55	n/a	3	n/a	n/a	n/a	n/a	115.2	n/a
86.626	0.497	happy	Picture	21.052	n/a	1	3	16	n/a	56	116	3	n/a	n/a	n/a	n/a	115.731	BM24ANS.jpg
87.124	0.514	Blank	Blank	20.538	n/a	1	3	16	n/a	56	n/a	3	n/a	n/a	n/a	n/a	116.228	n/a
87.654	0.497	happy	Picture	20.024	n/a	1	3	17	n/a	57	89	3	n/a	n/a	n/a	n/a	116.759	AF17ANS.jpg
88.152	0.514	Blank	Blank	19.51	n/a	1	3	17	n/a	57	n/a	3	n/a	n/a	n/a	n/a	117.256	n/a
88.682	0.497	happy	Picture	18.996	n/a	1	3	18	n/a	58	118	3	n/a	n/a	n/a	n/a	117.787	BM26ANS.jpg
89.179	0.514	Blank	Blank	18.482	n/a	1	3	18	n/a	58	n/a	3	n/a	n/a	n/a	n/a	118.284	n/a
89.71	0.497	happy	Picture	17.968	n/a	1	3	19	n/a	59	100	3	n/a	n/a	n/a	n/a	118.815	AF32ANS.jpg
90.207	0.514	Blank	Blank	17.454	n/a	1	3	19	n/a	59	n/a	3	n/a	n/a	n/a	n/a	119.312	n/a
90.738	0.497	happy	Picture	16.941	n/a	1	3	20	n/a	60	119	3	n/a	n/a	n/a	n/a	119.842	BM28ANS.jpg
91.235	0.514	Blank	Blank	16.427	n/a	1	3	20	n/a	60	n/a	3	n/a	n/a	n/a	n/a	120.34	n/a
91.766	10.014	ITI	Fixation+	6.396	n/a	1	n/a	n/a	n/a	n/a	n/a	n/a	n/a	n/a	n/a	n/a	120.87	n/a
108.176	n/a	ConfirmRating	Rate	n/a	6.383	1	n/a	n/a	0	n/a	n/a	n/a	2	Happy	82	52	137.28	n/a
116.771	n/a	ConfirmRating	Rate	n/a	8.588	1	n/a	n/a	1	n/a	n/a	n/a	3	Happy	0	46	145.875	n/a
116.8	10.014	ITI	Fixation+	95.766	n/a	2	n/a	n/a	n/a	n/a	n/a	n/a	n/a	n/a	n/a	n/a	145.904	n/a
126.83	0.497	angry	Picture	95.252	n/a	2	4	1	n/a	61	79	2	n/a	n/a	n/a	n/a	155.934	BM28HAS.jpg
127.327	0.514	Blank	Blank	94.739	n/a	2	4	1	n/a	61	n/a	2	n/a	n/a	n/a	n/a	156.432	n/a
127.858	0.497	angry	Picture	94.225	n/a	2	4	2	n/a	62	61	2	n/a	n/a	n/a	n/a	156.962	AM01HAS.jpg
128.355	0.514	Blank	Blank	93.711	n/a	2	4	2	n/a	62	n/a	2	n/a	n/a	n/a	n/a	157.46	n/a
128.886	0.497	angry	Picture	93.197	n/a	2	4	3	n/a	63	57	2	n/a	n/a	n/a	n/a	157.99	BF28HAS.jpg
129.383	0.514	Blank	Blank	92.683	n/a	2	4	3	n/a	63	n/a	2	n/a	n/a	n/a	n/a	158.488	n/a
129.913	0.497	angry	Picture	92.169	n/a	2	4	4	n/a	64	77	2	n/a	n/a	n/a	n/a	159.018	BM25HAS.jpg
130.411	0.514	Blank	Blank	91.655	n/a	2	4	4	n/a	64	n/a	2	n/a	n/a	n/a	n/a	159.515	n/a
130.941	0.497	angry	Picture	91.141	n/a	2	4	5	n/a	65	47	2	n/a	n/a	n/a	n/a	160.046	BF11HAS.jpg
131.439	0.514	Blank	Blank	90.627	n/a	2	4	5	n/a	65	n/a	2	n/a	n/a	n/a	n/a	160.543	n/a
131.969	0.497	angry	Picture	90.113	n/a	2	4	6	n/a	66	50	2	n/a	n/a	n/a	n/a	161.074	AF18HAS.jpg
132.467	0.514	Blank	Blank	89.599	n/a	2	4	6	n/a	66	n/a	2	n/a	n/a	n/a	n/a	161.571	n/a
132.997	0.497	angry	Picture	89.085	n/a	2	4	7	n/a	67	78	2	n/a	n/a	n/a	n/a	162.102	BM26HAS.jpg
133.494	0.514	Blank	Blank	88.571	n/a	2	4	7	n/a	67	n/a	2	n/a	n/a	n/a	n/a	162.599	n/a
134.025	0.497	angry	Picture	88.057	n/a	2	4	8	n/a	68	45	2	n/a	n/a	n/a	n/a	163.13	BF07HAS.jpg
134.522	0.514	Blank	Blank	87.543	n/a	2	4	8	n/a	68	n/a	2	n/a	n/a	n/a	n/a	163.627	n/a
135.053	0.497	angry	Picture	87.029	n/a	2	4	9	n/a	69	56	2	n/a	n/a	n/a	n/a	164.157	AF26HAS.jpg
135.55	0.514	Blank	Blank	86.516	n/a	2	4	9	n/a	69	n/a	2	n/a	n/a	n/a	n/a	164.655	n/a
136.081	0.497	angry	Picture	86.001	n/a	2	4	10	n/a	70	65	2	n/a	n/a	n/a	n/a	165.185	BM06HAS.jpg
136.578	0.514	Blank	Blank	85.488	n/a	2	4	10	n/a	70	n/a	2	n/a	n/a	n/a	n/a	165.683	n/a
137.109	0.497	angry	Picture	84.974	n/a	2	4	11	n/a	71	73	2	n/a	n/a	n/a	n/a	166.213	AM21HAS.jpg
137.606	0.514	Blank	Blank	84.46	n/a	2	4	11	n/a	71	n/a	2	n/a	n/a	n/a	n/a	166.711	n/a
138.136	0.497	angry	Picture	83.946	n/a	2	4	12	n/a	72	41	2	n/a	n/a	n/a	n/a	167.241	AF01HAS.jpg
138.634	0.514	Blank	Blank	83.432	n/a	2	4	12	n/a	72	n/a	2	n/a	n/a	n/a	n/a	167.738	n/a
139.164	0.497	angry	Picture	82.918	n/a	2	4	13	n/a	73	59	2	n/a	n/a	n/a	n/a	168.269	AF31HAS.jpg
139.662	0.514	Blank	Blank	82.404	n/a	2	4	13	n/a	73	n/a	2	n/a	n/a	n/a	n/a	168.766	n/a
140.192	0.497	angry	Picture	81.89	n/a	2	4	14	n/a	74	64	2	n/a	n/a	n/a	n/a	169.297	BM05HAS.jpg
140.69	0.514	Blank	Blank	81.376	n/a	2	4	14	n/a	74	n/a	2	n/a	n/a	n/a	n/a	169.794	n/a
141.22	0.497	angry	Picture	80.862	n/a	2	4	15	n/a	75	68	2	n/a	n/a	n/a	n/a	170.325	AM09HAS.jpg
141.718	0.514	Blank	Blank	80.348	n/a	2	4	15	n/a	75	n/a	2	n/a	n/a	n/a	n/a	170.822	n/a
142.248	0.497	angry	Picture	79.834	n/a	2	4	16	n/a	76	54	2	n/a	n/a	n/a	n/a	171.353	AF23HAS.jpg
142.745	0.514	Blank	Blank	79.32	n/a	2	4	16	n/a	76	n/a	2	n/a	n/a	n/a	n/a	171.85	n/a
143.276	0.497	angry	Picture	78.806	n/a	2	4	17	n/a	77	53	2	n/a	n/a	n/a	n/a	172.381	BF22HAS.jpg
143.773	0.514	Blank	Blank	78.292	n/a	2	4	17	n/a	77	n/a	2	n/a	n/a	n/a	n/a	172.878	n/a
144.304	0.497	angry	Picture	77.779	n/a	2	4	18	n/a	78	44	2	n/a	n/a	n/a	n/a	173.408	AF05HAS.jpg
144.801	0.514	Blank	Blank	77.264	n/a	2	4	18	n/a	78	n/a	2	n/a	n/a	n/a	n/a	173.906	n/a
145.332	0.497	angry	Picture	76.751	n/a	2	4	19	n/a	79	52	2	n/a	n/a	n/a	n/a	174.436	AF21HAS.jpg
145.829	0.514	Blank	Blank	76.237	n/a	2	4	19	n/a	79	n/a	2	n/a	n/a	n/a	n/a	174.934	n/a
146.359	0.497	angry	Picture	75.723	n/a	2	4	20	n/a	80	62	2	n/a	n/a	n/a	n/a	175.464	BM03HAS.jpg
146.857	0.514	Blank	Blank	75.209	n/a	2	4	20	n/a	80	n/a	2	n/a	n/a	n/a	n/a	175.962	n/a
147.387	10.014	ITI	Fixation+	65.179	n/a	2	n/a	n/a	n/a	n/a	n/a	n/a	n/a	n/a	n/a	n/a	176.492	n/a
157.418	0.497	neutral	Picture	64.665	n/a	2	5	1	n/a	81	23	1	n/a	n/a	n/a	n/a	186.522	AM04NES.jpg
157.915	0.514	Blank	Blank	64.151	n/a	2	5	1	n/a	81	n/a	1	n/a	n/a	n/a	n/a	187.019	n/a
158.445	0.497	neutral	Picture	63.637	n/a	2	5	2	n/a	82	29	1	n/a	n/a	n/a	n/a	187.55	AM10NES.jpg
158.943	0.514	Blank	Blank	63.123	n/a	2	5	2	n/a	82	n/a	1	n/a	n/a	n/a	n/a	188.047	n/a
159.473	0.497	neutral	Picture	62.609	n/a	2	5	3	n/a	83	24	1	n/a	n/a	n/a	n/a	188.578	BM05NES.jpg
159.971	0.514	Blank	Blank	62.095	n/a	2	5	3	n/a	83	n/a	1	n/a	n/a	n/a	n/a	189.075	n/a
160.501	0.497	neutral	Picture	61.581	n/a	2	5	4	n/a	84	12	1	n/a	n/a	n/a	n/a	189.606	AF21NES.jpg
160.999	0.514	Blank	Blank	61.067	n/a	2	5	4	n/a	84	n/a	1	n/a	n/a	n/a	n/a	190.103	n/a
161.529	0.497	neutral	Picture	60.553	n/a	2	5	5	n/a	85	13	1	n/a	n/a	n/a	n/a	190.634	BF22NES.jpg
162.026	0.514	Blank	Blank	60.039	n/a	2	5	5	n/a	85	n/a	1	n/a	n/a	n/a	n/a	191.131	n/a
162.557	0.497	neutral	Picture	59.525	n/a	2	5	6	n/a	86	17	1	n/a	n/a	n/a	n/a	191.662	BF28NES.jpg
163.054	0.514	Blank	Blank	59.011	n/a	2	5	6	n/a	86	n/a	1	n/a	n/a	n/a	n/a	192.159	n/a
163.585	0.497	neutral	Picture	58.497	n/a	2	5	7	n/a	87	4	1	n/a	n/a	n/a	n/a	192.69	AF05NES.jpg
164.082	0.514	Blank	Blank	57.983	n/a	2	5	7	n/a	87	n/a	1	n/a	n/a	n/a	n/a	193.187	n/a
164.613	0.497	neutral	Picture	57.47	n/a	2	5	8	n/a	88	11	1	n/a	n/a	n/a	n/a	193.717	AF20NES.jpg
165.11	0.514	Blank	Blank	56.956	n/a	2	5	8	n/a	88	n/a	1	n/a	n/a	n/a	n/a	194.215	n/a
165.641	0.497	neutral	Picture	56.442	n/a	2	5	9	n/a	89	22	1	n/a	n/a	n/a	n/a	194.745	BM03NES.jpg
166.138	0.514	Blank	Blank	55.928	n/a	2	5	9	n/a	89	n/a	1	n/a	n/a	n/a	n/a	195.243	n/a
166.668	0.497	neutral	Picture	55.414	n/a	2	5	10	n/a	90	15	1	n/a	n/a	n/a	n/a	195.773	AF25NES.jpg
167.166	0.514	Blank	Blank	54.9	n/a	2	5	10	n/a	90	n/a	1	n/a	n/a	n/a	n/a	196.27	n/a
167.696	0.497	neutral	Picture	54.386	n/a	2	5	11	n/a	91	19	1	n/a	n/a	n/a	n/a	196.801	AF31NES.jpg
168.194	0.514	Blank	Blank	53.872	n/a	2	5	11	n/a	91	n/a	1	n/a	n/a	n/a	n/a	197.298	n/a
168.724	0.497	neutral	Picture	53.358	n/a	2	5	12	n/a	92	9	1	n/a	n/a	n/a	n/a	197.829	AF17NES.jpg
169.222	0.514	Blank	Blank	52.844	n/a	2	5	12	n/a	92	n/a	1	n/a	n/a	n/a	n/a	198.326	n/a
169.752	0.497	neutral	Picture	52.33	n/a	2	5	13	n/a	93	14	1	n/a	n/a	n/a	n/a	198.857	AF23NES.jpg
170.249	0.514	Blank	Blank	51.816	n/a	2	5	13	n/a	93	n/a	1	n/a	n/a	n/a	n/a	199.354	n/a
170.78	0.497	neutral	Picture	51.302	n/a	2	5	14	n/a	94	36	1	n/a	n/a	n/a	n/a	199.885	BM24NES.jpg
171.277	0.514	Blank	Blank	50.788	n/a	2	5	14	n/a	94	n/a	1	n/a	n/a	n/a	n/a	200.382	n/a
171.808	0.497	neutral	Picture	50.274	n/a	2	5	15	n/a	95	34	1	n/a	n/a	n/a	n/a	200.912	AM22NES.jpg
172.305	0.514	Blank	Blank	49.76	n/a	2	5	15	n/a	95	n/a	1	n/a	n/a	n/a	n/a	201.41	n/a
172.836	0.497	neutral	Picture	49.246	n/a	2	5	16	n/a	96	10	1	n/a	n/a	n/a	n/a	201.94	AF18NES.jpg
173.333	0.514	Blank	Blank	48.732	n/a	2	5	16	n/a	96	n/a	1	n/a	n/a	n/a	n/a	202.438	n/a
173.864	0.497	neutral	Picture	48.219	n/a	2	5	17	n/a	97	5	1	n/a	n/a	n/a	n/a	202.968	BF07NES.jpg
174.361	0.514	Blank	Blank	47.705	n/a	2	5	17	n/a	97	n/a	1	n/a	n/a	n/a	n/a	203.466	n/a
174.892	0.497	neutral	Picture	47.191	n/a	2	5	18	n/a	98	25	1	n/a	n/a	n/a	n/a	203.996	BM06NES.jpg
175.389	0.514	Blank	Blank	46.677	n/a	2	5	18	n/a	98	n/a	1	n/a	n/a	n/a	n/a	204.494	n/a
175.919	0.497	neutral	Picture	46.163	n/a	2	5	19	n/a	99	39	1	n/a	n/a	n/a	n/a	205.024	AM28NES.jpg
176.417	0.514	Blank	Blank	45.649	n/a	2	5	19	n/a	99	n/a	1	n/a	n/a	n/a	n/a	205.521	n/a
176.947	0.497	neutral	Picture	45.135	n/a	2	5	20	n/a	100	33	1	n/a	n/a	n/a	n/a	206.052	AM21NES.jpg
177.445	0.514	Blank	Blank	44.621	n/a	2	5	20	n/a	100	n/a	1	n/a	n/a	n/a	n/a	206.549	n/a
177.975	10.014	ITI	Fixation+	34.591	n/a	2	n/a	n/a	n/a	n/a	n/a	n/a	n/a	n/a	n/a	n/a	207.08	n/a
188.005	0.497	angry	Picture	34.077	n/a	2	6	1	n/a	101	74	2	n/a	n/a	n/a	n/a	217.11	AM22HAS.jpg
188.503	0.514	Blank	Blank	33.563	n/a	2	6	1	n/a	101	n/a	2	n/a	n/a	n/a	n/a	217.607	n/a
189.033	0.497	angry	Picture	33.049	n/a	2	6	2	n/a	102	76	2	n/a	n/a	n/a	n/a	218.138	BM24HAS.jpg
189.531	0.514	Blank	Blank	32.535	n/a	2	6	2	n/a	102	n/a	2	n/a	n/a	n/a	n/a	218.635	n/a
190.061	0.497	angry	Picture	32.021	n/a	2	6	3	n/a	103	80	2	n/a	n/a	n/a	n/a	219.166	BM35HAS.jpg
190.558	0.514	Blank	Blank	31.507	n/a	2	6	3	n/a	103	n/a	2	n/a	n/a	n/a	n/a	219.663	n/a
191.089	0.497	angry	Picture	30.993	n/a	2	6	4	n/a	104	75	2	n/a	n/a	n/a	n/a	220.194	AM23HAS.jpg
191.586	0.514	Blank	Blank	30.479	n/a	2	6	4	n/a	104	n/a	2	n/a	n/a	n/a	n/a	220.691	n/a
192.117	0.497	angry	Picture	29.965	n/a	2	6	5	n/a	105	49	2	n/a	n/a	n/a	n/a	221.221	AF17HAS.jpg
192.614	0.514	Blank	Blank	29.451	n/a	2	6	5	n/a	105	n/a	2	n/a	n/a	n/a	n/a	221.719	n/a
193.145	0.497	angry	Picture	28.938	n/a	2	6	6	n/a	106	43	2	n/a	n/a	n/a	n/a	222.249	BF04HAS.jpg
193.642	0.514	Blank	Blank	28.423	n/a	2	6	6	n/a	106	n/a	2	n/a	n/a	n/a	n/a	222.747	n/a
194.173	0.497	angry	Picture	27.91	n/a	2	6	7	n/a	107	70	2	n/a	n/a	n/a	n/a	223.277	BM11HAS.jpg
194.67	0.514	Blank	Blank	27.396	n/a	2	6	7	n/a	107	n/a	2	n/a	n/a	n/a	n/a	223.775	n/a
195.201	0.497	angry	Picture	26.882	n/a	2	6	8	n/a	108	66	2	n/a	n/a	n/a	n/a	224.305	BM07HAS.jpg
195.698	0.514	Blank	Blank	26.368	n/a	2	6	8	n/a	108	n/a	2	n/a	n/a	n/a	n/a	224.803	n/a
196.228	0.497	angry	Picture	25.854	n/a	2	6	9	n/a	109	48	2	n/a	n/a	n/a	n/a	225.333	AF14HAS.jpg
196.726	0.514	Blank	Blank	25.34	n/a	2	6	9	n/a	109	n/a	2	n/a	n/a	n/a	n/a	225.83	n/a
197.256	0.497	angry	Picture	24.826	n/a	2	6	10	n/a	110	58	2	n/a	n/a	n/a	n/a	226.361	BF29HAS.jpg
197.754	0.514	Blank	Blank	24.312	n/a	2	6	10	n/a	110	n/a	2	n/a	n/a	n/a	n/a	226.858	n/a
198.284	0.497	angry	Picture	23.798	n/a	2	6	11	n/a	111	63	2	n/a	n/a	n/a	n/a	227.389	AM04HAS.jpg
198.782	0.514	Blank	Blank	23.284	n/a	2	6	11	n/a	111	n/a	2	n/a	n/a	n/a	n/a	227.886	n/a
199.312	0.497	angry	Picture	22.77	n/a	2	6	12	n/a	112	72	2	n/a	n/a	n/a	n/a	228.417	AM14HAS.jpg
199.809	0.514	Blank	Blank	22.256	n/a	2	6	12	n/a	112	n/a	2	n/a	n/a	n/a	n/a	228.914	n/a
200.34	0.497	angry	Picture	21.742	n/a	2	6	13	n/a	113	55	2	n/a	n/a	n/a	n/a	229.445	AF25HAS.jpg
200.837	0.514	Blank	Blank	21.228	n/a	2	6	13	n/a	113	n/a	2	n/a	n/a	n/a	n/a	229.942	n/a
201.368	0.497	angry	Picture	20.714	n/a	2	6	14	n/a	114	42	2	n/a	n/a	n/a	n/a	230.472	AF03HAS.jpg
201.865	0.514	Blank	Blank	20.2	n/a	2	6	14	n/a	114	n/a	2	n/a	n/a	n/a	n/a	230.97	n/a
202.396	0.497	angry	Picture	19.686	n/a	2	6	15	n/a	115	60	2	n/a	n/a	n/a	n/a	231.5	AF32HAS.jpg
202.893	0.514	Blank	Blank	19.173	n/a	2	6	15	n/a	115	n/a	2	n/a	n/a	n/a	n/a	231.998	n/a
203.424	0.497	angry	Picture	18.659	n/a	2	6	16	n/a	116	67	2	n/a	n/a	n/a	n/a	232.528	BM08HAS.jpg
203.921	0.514	Blank	Blank	18.145	n/a	2	6	16	n/a	116	n/a	2	n/a	n/a	n/a	n/a	233.026	n/a
204.451	0.497	angry	Picture	17.631	n/a	2	6	17	n/a	117	51	2	n/a	n/a	n/a	n/a	233.556	AF20HAS.jpg
204.949	0.514	Blank	Blank	17.117	n/a	2	6	17	n/a	117	n/a	2	n/a	n/a	n/a	n/a	234.054	n/a
205.479	0.497	angry	Picture	16.603	n/a	2	6	18	n/a	118	71	2	n/a	n/a	n/a	n/a	234.584	BM12HAS.jpg
205.977	0.514	Blank	Blank	16.089	n/a	2	6	18	n/a	118	n/a	2	n/a	n/a	n/a	n/a	235.081	n/a
206.507	0.497	angry	Picture	15.575	n/a	2	6	19	n/a	119	69	2	n/a	n/a	n/a	n/a	235.612	AM10HAS.jpg
207.005	0.514	Blank	Blank	15.061	n/a	2	6	19	n/a	119	n/a	2	n/a	n/a	n/a	n/a	236.109	n/a
207.535	0.497	angry	Picture	14.547	n/a	2	6	20	n/a	120	46	2	n/a	n/a	n/a	n/a	236.64	AF09HAS.jpg
208.032	0.514	Blank	Blank	14.033	n/a	2	6	20	n/a	120	n/a	2	n/a	n/a	n/a	n/a	237.137	n/a
208.563	10.014	ITI	Fixation+	4.003	n/a	2	n/a	n/a	n/a	n/a	n/a	n/a	n/a	n/a	n/a	n/a	237.668	n/a
222.58	n/a	ConfirmRating	Rate	n/a	3.996	2	n/a	n/a	0	n/a	n/a	n/a	2	Angry	50	50	251.684	n/a
231.794	n/a	ConfirmRating	Rate	n/a	9.202	2	n/a	n/a	1	n/a	n/a	n/a	3	Angry	62	50	260.899	n/a
231.823	15.004	Rest	Picture	n/a	n/a	n/a	n/a	n/a	n/a	n/a	n/a	n/a	0	n/a	0	0	260.928	n/a
246.843	10.014	ITI	Fixation+	102.152	n/a	3	n/a	n/a	n/a	n/a	n/a	n/a	n/a	n/a	n/a	n/a	275.948	n/a
256.873	0.497	happy	Picture	101.638	n/a	3	7	1	n/a	1	108	3	n/a	n/a	n/a	n/a	285.978	AM09ANS.jpg
257.371	0.514	Blank	Blank	101.124	n/a	3	7	1	n/a	1	n/a	3	n/a	n/a	n/a	n/a	286.476	n/a
257.901	0.497	happy	Picture	100.61	n/a	3	7	2	n/a	2	99	3	n/a	n/a	n/a	n/a	287.006	AF31ANS.jpg
258.399	0.514	Blank	Blank	100.096	n/a	3	7	2	n/a	2	n/a	3	n/a	n/a	n/a	n/a	287.503	n/a
258.929	0.497	happy	Picture	99.582	n/a	3	7	3	n/a	3	98	3	n/a	n/a	n/a	n/a	288.034	BF29ANS.jpg
259.427	0.514	Blank	Blank	99.068	n/a	3	7	3	n/a	3	n/a	3	n/a	n/a	n/a	n/a	288.531	n/a
259.957	0.497	happy	Picture	98.555	n/a	3	7	4	n/a	4	107	3	n/a	n/a	n/a	n/a	289.062	BM08ANS.jpg
260.454	0.514	Blank	Blank	98.041	n/a	3	7	4	n/a	4	n/a	3	n/a	n/a	n/a	n/a	289.559	n/a
260.985	0.497	happy	Picture	97.527	n/a	3	7	5	n/a	5	104	3	n/a	n/a	n/a	n/a	290.09	BM05ANS.jpg
261.482	0.514	Blank	Blank	97.013	n/a	3	7	5	n/a	5	n/a	3	n/a	n/a	n/a	n/a	290.587	n/a
262.013	0.497	happy	Picture	96.499	n/a	3	7	6	n/a	6	101	3	n/a	n/a	n/a	n/a	291.118	AM01ANS.jpg
262.51	0.514	Blank	Blank	95.985	n/a	3	7	6	n/a	6	n/a	3	n/a	n/a	n/a	n/a	291.615	n/a
263.041	0.497	happy	Picture	95.471	n/a	3	7	7	n/a	7	103	3	n/a	n/a	n/a	n/a	292.145	AM04ANS.jpg
263.538	0.514	Blank	Blank	94.957	n/a	3	7	7	n/a	7	n/a	3	n/a	n/a	n/a	n/a	292.643	n/a
264.069	0.497	happy	Picture	94.443	n/a	3	7	8	n/a	8	111	3	n/a	n/a	n/a	n/a	293.173	BM12ANS.jpg
264.566	0.514	Blank	Blank	93.929	n/a	3	7	8	n/a	8	n/a	3	n/a	n/a	n/a	n/a	293.671	n/a
265.097	0.497	happy	Picture	93.415	n/a	3	7	9	n/a	9	110	3	n/a	n/a	n/a	n/a	294.201	AM11ANS.jpg
265.594	0.514	Blank	Blank	92.901	n/a	3	7	9	n/a	9	n/a	3	n/a	n/a	n/a	n/a	294.699	n/a
266.124	0.497	happy	Picture	92.387	n/a	3	7	10	n/a	10	85	3	n/a	n/a	n/a	n/a	295.229	BF07ANS.jpg
266.622	0.514	Blank	Blank	91.873	n/a	3	7	10	n/a	10	n/a	3	n/a	n/a	n/a	n/a	295.726	n/a
267.152	0.497	happy	Picture	91.359	n/a	3	7	11	n/a	11	87	3	n/a	n/a	n/a	n/a	296.257	BF11ANS.jpg
267.65	0.514	Blank	Blank	90.846	n/a	3	7	11	n/a	11	n/a	3	n/a	n/a	n/a	n/a	296.754	n/a
268.18	0.497	happy	Picture	90.331	n/a	3	7	12	n/a	12	91	3	n/a	n/a	n/a	n/a	297.285	AF20ANS.jpg
268.678	0.514	Blank	Blank	89.818	n/a	3	7	12	n/a	12	n/a	3	n/a	n/a	n/a	n/a	297.782	n/a
269.208	0.497	happy	Picture	89.304	n/a	3	7	13	n/a	13	115	3	n/a	n/a	n/a	n/a	298.313	AM23ANS.jpg
269.705	0.514	Blank	Blank	88.79	n/a	3	7	13	n/a	13	n/a	3	n/a	n/a	n/a	n/a	298.81	n/a
270.236	0.497	happy	Picture	88.276	n/a	3	7	14	n/a	14	97	3	n/a	n/a	n/a	n/a	299.341	BF28ANS.jpg
270.733	0.514	Blank	Blank	87.762	n/a	3	7	14	n/a	14	n/a	3	n/a	n/a	n/a	n/a	299.838	n/a
271.264	0.497	happy	Picture	87.248	n/a	3	7	15	n/a	15	82	3	n/a	n/a	n/a	n/a	300.368	AF03ANS.jpg
271.761	0.514	Blank	Blank	86.734	n/a	3	7	15	n/a	15	n/a	3	n/a	n/a	n/a	n/a	300.866	n/a
272.292	0.497	happy	Picture	86.22	n/a	3	7	16	n/a	16	96	3	n/a	n/a	n/a	n/a	301.396	AF26ANS.jpg
272.789	0.514	Blank	Blank	85.706	n/a	3	7	16	n/a	16	n/a	3	n/a	n/a	n/a	n/a	301.894	n/a
273.32	0.497	happy	Picture	85.192	n/a	3	7	17	n/a	17	109	3	n/a	n/a	n/a	n/a	302.424	AM10ANS.jpg
273.817	0.514	Blank	Blank	84.678	n/a	3	7	17	n/a	17	n/a	3	n/a	n/a	n/a	n/a	302.922	n/a
274.347	0.497	happy	Picture	84.164	n/a	3	7	18	n/a	18	114	3	n/a	n/a	n/a	n/a	303.452	AM22ANS.jpg
274.845	0.514	Blank	Blank	83.65	n/a	3	7	18	n/a	18	n/a	3	n/a	n/a	n/a	n/a	303.95	n/a
275.375	0.497	happy	Picture	83.136	n/a	3	7	19	n/a	19	120	3	n/a	n/a	n/a	n/a	304.48	AM35ANS.jpg
275.873	0.514	Blank	Blank	82.622	n/a	3	7	19	n/a	19	n/a	3	n/a	n/a	n/a	n/a	304.977	n/a
276.403	0.497	happy	Picture	82.108	n/a	3	7	20	n/a	20	81	3	n/a	n/a	n/a	n/a	305.508	AF01ANS.jpg
276.901	0.514	Blank	Blank	81.594	n/a	3	7	20	n/a	20	n/a	3	n/a	n/a	n/a	n/a	306.005	n/a
277.431	10.014	ITI	Fixation+	71.564	n/a	3	n/a	n/a	n/a	n/a	n/a	n/a	n/a	n/a	n/a	n/a	306.536	n/a
287.461	0.497	neutral	Picture	71.05	n/a	3	8	1	n/a	21	28	1	n/a	n/a	n/a	n/a	316.566	AM09NES.jpg
287.959	0.514	Blank	Blank	70.536	n/a	3	8	1	n/a	21	n/a	1	n/a	n/a	n/a	n/a	317.063	n/a
288.489	0.497	neutral	Picture	70.023	n/a	3	8	2	n/a	22	27	1	n/a	n/a	n/a	n/a	317.594	BM08NES.jpg
288.986	0.514	Blank	Blank	69.509	n/a	3	8	2	n/a	22	n/a	1	n/a	n/a	n/a	n/a	318.091	n/a
289.517	0.497	neutral	Picture	68.995	n/a	3	8	3	n/a	23	16	1	n/a	n/a	n/a	n/a	318.622	AF26NES.jpg
290.014	0.514	Blank	Blank	68.481	n/a	3	8	3	n/a	23	n/a	1	n/a	n/a	n/a	n/a	319.119	n/a
290.545	0.497	neutral	Picture	67.967	n/a	3	8	4	n/a	24	3	1	n/a	n/a	n/a	n/a	319.649	BF04NES.jpg
291.042	0.514	Blank	Blank	67.453	n/a	3	8	4	n/a	24	n/a	1	n/a	n/a	n/a	n/a	320.147	n/a
291.573	0.497	neutral	Picture	66.939	n/a	3	8	5	n/a	25	32	1	n/a	n/a	n/a	n/a	320.677	AM14NES.jpg
292.07	0.514	Blank	Blank	66.425	n/a	3	8	5	n/a	25	n/a	1	n/a	n/a	n/a	n/a	321.175	n/a
292.601	0.497	neutral	Picture	65.911	n/a	3	8	6	n/a	26	37	1	n/a	n/a	n/a	n/a	321.705	BM25NES.jpg
293.098	0.514	Blank	Blank	65.397	n/a	3	8	6	n/a	26	n/a	1	n/a	n/a	n/a	n/a	322.203	n/a
293.629	0.497	neutral	Picture	64.883	n/a	3	8	7	n/a	27	15	1	n/a	n/a	n/a	n/a	322.733	AF25NES.jpg
294.126	0.514	Blank	Blank	64.369	n/a	3	8	7	n/a	27	n/a	1	n/a	n/a	n/a	n/a	323.231	n/a
294.656	0.497	neutral	Picture	63.855	n/a	3	8	8	n/a	28	23	1	n/a	n/a	n/a	n/a	323.761	AM04NES.jpg
295.154	0.514	Blank	Blank	63.341	n/a	3	8	8	n/a	28	n/a	1	n/a	n/a	n/a	n/a	324.258	n/a
295.684	0.497	neutral	Picture	62.827	n/a	3	8	9	n/a	29	34	1	n/a	n/a	n/a	n/a	324.789	AM22NES.jpg
296.182	0.514	Blank	Blank	62.313	n/a	3	8	9	n/a	29	n/a	1	n/a	n/a	n/a	n/a	325.286	n/a
296.712	0.497	neutral	Picture	61.8	n/a	3	8	10	n/a	30	24	1	n/a	n/a	n/a	n/a	325.817	BM05NES.jpg
297.209	0.514	Blank	Blank	61.286	n/a	3	8	10	n/a	30	n/a	1	n/a	n/a	n/a	n/a	326.314	n/a
297.74	0.497	neutral	Picture	60.772	n/a	3	8	11	n/a	31	12	1	n/a	n/a	n/a	n/a	326.845	AF21NES.jpg
298.238	0.514	Blank	Blank	60.258	n/a	3	8	11	n/a	31	n/a	1	n/a	n/a	n/a	n/a	327.342	n/a
298.768	0.497	neutral	Picture	59.744	n/a	3	8	12	n/a	32	6	1	n/a	n/a	n/a	n/a	327.873	AF09NES.jpg
299.265	0.514	Blank	Blank	59.23	n/a	3	8	12	n/a	32	n/a	1	n/a	n/a	n/a	n/a	328.37	n/a
299.796	0.497	neutral	Picture	58.716	n/a	3	8	13	n/a	33	17	1	n/a	n/a	n/a	n/a	328.901	BF28NES.jpg
300.293	0.514	Blank	Blank	58.202	n/a	3	8	13	n/a	33	n/a	1	n/a	n/a	n/a	n/a	329.398	n/a
300.824	0.497	neutral	Picture	57.688	n/a	3	8	14	n/a	34	2	1	n/a	n/a	n/a	n/a	329.928	AF03NES.jpg
301.321	0.514	Blank	Blank	57.174	n/a	3	8	14	n/a	34	n/a	1	n/a	n/a	n/a	n/a	330.426	n/a
301.852	0.497	neutral	Picture	56.66	n/a	3	8	15	n/a	35	9	1	n/a	n/a	n/a	n/a	330.956	AF17NES.jpg
302.349	0.514	Blank	Blank	56.146	n/a	3	8	15	n/a	35	n/a	1	n/a	n/a	n/a	n/a	331.454	n/a
302.88	0.497	neutral	Picture	55.632	n/a	3	8	16	n/a	36	25	1	n/a	n/a	n/a	n/a	331.984	BM06NES.jpg
303.377	0.514	Blank	Blank	55.118	n/a	3	8	16	n/a	36	n/a	1	n/a	n/a	n/a	n/a	332.481	n/a
303.907	0.497	neutral	Picture	54.604	n/a	3	8	17	n/a	37	8	1	n/a	n/a	n/a	n/a	333.012	AF14NES.jpg
304.405	0.514	Blank	Blank	54.09	n/a	3	8	17	n/a	37	n/a	1	n/a	n/a	n/a	n/a	333.509	n/a
304.935	0.497	neutral	Picture	53.576	n/a	3	8	18	n/a	38	19	1	n/a	n/a	n/a	n/a	334.04	AF31NES.jpg
305.433	0.514	Blank	Blank	53.063	n/a	3	8	18	n/a	38	n/a	1	n/a	n/a	n/a	n/a	334.537	n/a
305.963	0.497	neutral	Picture	52.549	n/a	3	8	19	n/a	39	14	1	n/a	n/a	n/a	n/a	335.068	AF23NES.jpg
306.46	0.514	Blank	Blank	52.035	n/a	3	8	19	n/a	39	n/a	1	n/a	n/a	n/a	n/a	335.565	n/a
306.991	0.497	neutral	Picture	51.521	n/a	3	8	20	n/a	40	4	1	n/a	n/a	n/a	n/a	336.096	AF05NES.jpg
307.488	0.514	Blank	Blank	51.007	n/a	3	8	20	n/a	40	n/a	1	n/a	n/a	n/a	n/a	336.593	n/a
308.019	10.014	ITI	Fixation+	40.977	n/a	3	n/a	n/a	n/a	n/a	n/a	n/a	n/a	n/a	n/a	n/a	337.123	n/a
318.049	0.497	happy	Picture	40.463	n/a	3	9	1	n/a	41	84	3	n/a	n/a	n/a	n/a	347.154	AF05ANS.jpg
318.546	0.514	Blank	Blank	39.949	n/a	3	9	1	n/a	41	n/a	3	n/a	n/a	n/a	n/a	347.651	n/a
319.077	0.497	happy	Picture	39.435	n/a	3	9	2	n/a	42	92	3	n/a	n/a	n/a	n/a	348.182	AF21ANS.jpg
319.574	0.514	Blank	Blank	38.921	n/a	3	9	2	n/a	42	n/a	3	n/a	n/a	n/a	n/a	348.679	n/a
320.105	0.497	happy	Picture	38.407	n/a	3	9	3	n/a	43	86	3	n/a	n/a	n/a	n/a	349.209	AF09ANS.jpg
320.602	0.514	Blank	Blank	37.893	n/a	3	9	3	n/a	43	n/a	3	n/a	n/a	n/a	n/a	349.707	n/a
321.133	0.497	happy	Picture	37.379	n/a	3	9	4	n/a	44	93	3	n/a	n/a	n/a	n/a	350.237	BF22ANS.jpg
321.63	0.514	Blank	Blank	36.865	n/a	3	9	4	n/a	44	n/a	3	n/a	n/a	n/a	n/a	350.735	n/a
322.161	0.497	happy	Picture	36.351	n/a	3	9	5	n/a	45	88	3	n/a	n/a	n/a	n/a	351.265	AF14ANS.jpg
322.658	0.514	Blank	Blank	35.837	n/a	3	9	5	n/a	45	n/a	3	n/a	n/a	n/a	n/a	351.763	n/a
323.188	0.497	happy	Picture	35.323	n/a	3	9	6	n/a	46	113	3	n/a	n/a	n/a	n/a	352.293	AM21ANS.jpg
323.686	0.514	Blank	Blank	34.809	n/a	3	9	6	n/a	46	n/a	3	n/a	n/a	n/a	n/a	352.791	n/a
324.216	0.497	happy	Picture	34.295	n/a	3	9	7	n/a	47	95	3	n/a	n/a	n/a	n/a	353.321	AF25ANS.jpg
324.714	0.514	Blank	Blank	33.781	n/a	3	9	7	n/a	47	n/a	3	n/a	n/a	n/a	n/a	353.818	n/a
325.244	0.497	happy	Picture	33.267	n/a	3	9	8	n/a	48	102	3	n/a	n/a	n/a	n/a	354.349	BM03ANS.jpg
325.742	0.514	Blank	Blank	32.753	n/a	3	9	8	n/a	48	n/a	3	n/a	n/a	n/a	n/a	354.846	n/a
326.272	0.497	happy	Picture	32.24	n/a	3	9	9	n/a	49	112	3	n/a	n/a	n/a	n/a	355.377	AM14ANS.jpg
326.769	0.514	Blank	Blank	31.726	n/a	3	9	9	n/a	49	n/a	3	n/a	n/a	n/a	n/a	355.874	n/a
327.3	0.497	happy	Picture	31.212	n/a	3	9	10	n/a	50	83	3	n/a	n/a	n/a	n/a	356.405	BF04ANS.jpg
327.797	0.514	Blank	Blank	30.698	n/a	3	9	10	n/a	50	n/a	3	n/a	n/a	n/a	n/a	356.902	n/a
328.328	0.497	happy	Picture	30.184	n/a	3	9	11	n/a	51	90	3	n/a	n/a	n/a	n/a	357.433	AF18ANS.jpg
328.825	0.514	Blank	Blank	29.67	n/a	3	9	11	n/a	51	n/a	3	n/a	n/a	n/a	n/a	357.93	n/a
329.356	0.497	happy	Picture	29.156	n/a	3	9	12	n/a	52	117	3	n/a	n/a	n/a	n/a	358.46	BM25ANS.jpg
329.853	0.514	Blank	Blank	28.642	n/a	3	9	12	n/a	52	n/a	3	n/a	n/a	n/a	n/a	358.958	n/a
330.384	0.497	happy	Picture	28.128	n/a	3	9	13	n/a	53	94	3	n/a	n/a	n/a	n/a	359.488	AF23ANS.jpg
330.881	0.514	Blank	Blank	27.614	n/a	3	9	13	n/a	53	n/a	3	n/a	n/a	n/a	n/a	359.986	n/a
331.412	0.497	happy	Picture	27.1	n/a	3	9	14	n/a	54	106	3	n/a	n/a	n/a	n/a	360.516	AM07ANS.jpg
331.909	0.514	Blank	Blank	26.586	n/a	3	9	14	n/a	54	n/a	3	n/a	n/a	n/a	n/a	361.014	n/a
332.439	0.497	happy	Picture	26.072	n/a	3	9	15	n/a	55	105	3	n/a	n/a	n/a	n/a	361.544	BM06ANS.jpg
332.937	0.514	Blank	Blank	25.558	n/a	3	9	15	n/a	55	n/a	3	n/a	n/a	n/a	n/a	362.041	n/a
333.467	0.497	happy	Picture	25.044	n/a	3	9	16	n/a	56	116	3	n/a	n/a	n/a	n/a	362.572	BM24ANS.jpg
333.965	0.514	Blank	Blank	24.531	n/a	3	9	16	n/a	56	n/a	3	n/a	n/a	n/a	n/a	363.069	n/a
334.495	0.497	happy	Picture	24.016	n/a	3	9	17	n/a	57	89	3	n/a	n/a	n/a	n/a	363.6	AF17ANS.jpg
334.993	0.514	Blank	Blank	23.503	n/a	3	9	17	n/a	57	n/a	3	n/a	n/a	n/a	n/a	364.097	n/a
335.523	0.497	happy	Picture	22.989	n/a	3	9	18	n/a	58	118	3	n/a	n/a	n/a	n/a	364.628	BM26ANS.jpg
336.02	0.514	Blank	Blank	22.475	n/a	3	9	18	n/a	58	n/a	3	n/a	n/a	n/a	n/a	365.125	n/a
336.551	0.497	happy	Picture	21.961	n/a	3	9	19	n/a	59	100	3	n/a	n/a	n/a	n/a	365.656	AF32ANS.jpg
337.048	0.514	Blank	Blank	21.447	n/a	3	9	19	n/a	59	n/a	3	n/a	n/a	n/a	n/a	366.153	n/a
337.579	0.497	happy	Picture	20.933	n/a	3	9	20	n/a	60	119	3	n/a	n/a	n/a	n/a	366.683	BM28ANS.jpg
338.076	0.514	Blank	Blank	20.419	n/a	3	9	20	n/a	60	n/a	3	n/a	n/a	n/a	n/a	367.181	n/a
338.607	10.014	ITI	Fixation+	10.389	n/a	3	n/a	n/a	n/a	n/a	n/a	n/a	n/a	n/a	n/a	n/a	367.711	n/a
359.009	n/a	ConfirmRating	Rate	n/a	10.378	3	n/a	n/a	0	n/a	n/a	n/a	2	Happy	94	53	388.114	n/a
364.707	n/a	ConfirmRating	Rate	n/a	5.686	3	n/a	n/a	1	n/a	n/a	n/a	3	Happy	0	45	393.812	n/a
364.735	10.014	ITI	Fixation+	96.199	n/a	4	n/a	n/a	n/a	n/a	n/a	n/a	n/a	n/a	n/a	n/a	393.839	n/a
374.765	0.497	angry	Picture	95.685	n/a	4	10	1	n/a	61	79	2	n/a	n/a	n/a	n/a	403.87	BM28HAS.jpg
375.262	0.514	Blank	Blank	95.171	n/a	4	10	1	n/a	61	n/a	2	n/a	n/a	n/a	n/a	404.367	n/a
375.793	0.497	angry	Picture	94.657	n/a	4	10	2	n/a	62	61	2	n/a	n/a	n/a	n/a	404.897	AM01HAS.jpg
376.29	0.514	Blank	Blank	94.143	n/a	4	10	2	n/a	62	n/a	2	n/a	n/a	n/a	n/a	405.395	n/a
376.821	0.497	angry	Picture	93.629	n/a	4	10	3	n/a	63	57	2	n/a	n/a	n/a	n/a	405.925	BF28HAS.jpg
377.318	0.514	Blank	Blank	93.115	n/a	4	10	3	n/a	63	n/a	2	n/a	n/a	n/a	n/a	406.423	n/a
377.849	0.497	angry	Picture	92.601	n/a	4	10	4	n/a	64	77	2	n/a	n/a	n/a	n/a	406.953	BM25HAS.jpg
378.346	0.514	Blank	Blank	92.087	n/a	4	10	4	n/a	64	n/a	2	n/a	n/a	n/a	n/a	407.451	n/a
378.877	0.497	angry	Picture	91.573	n/a	4	10	5	n/a	65	47	2	n/a	n/a	n/a	n/a	407.981	BF11HAS.jpg
379.374	0.514	Blank	Blank	91.059	n/a	4	10	5	n/a	65	n/a	2	n/a	n/a	n/a	n/a	408.478	n/a
379.904	0.497	angry	Picture	90.545	n/a	4	10	6	n/a	66	50	2	n/a	n/a	n/a	n/a	409.009	AF18HAS.jpg
380.402	0.514	Blank	Blank	90.031	n/a	4	10	6	n/a	66	n/a	2	n/a	n/a	n/a	n/a	409.506	n/a
380.932	0.497	angry	Picture	89.517	n/a	4	10	7	n/a	67	78	2	n/a	n/a	n/a	n/a	410.037	BM26HAS.jpg
381.43	0.514	Blank	Blank	89.004	n/a	4	10	7	n/a	67	n/a	2	n/a	n/a	n/a	n/a	410.534	n/a
381.96	0.497	angry	Picture	88.49	n/a	4	10	8	n/a	68	45	2	n/a	n/a	n/a	n/a	411.065	BF07HAS.jpg
382.457	0.514	Blank	Blank	87.976	n/a	4	10	8	n/a	68	n/a	2	n/a	n/a	n/a	n/a	411.562	n/a
382.988	0.497	angry	Picture	87.462	n/a	4	10	9	n/a	69	56	2	n/a	n/a	n/a	n/a	412.093	AF26HAS.jpg
383.485	0.514	Blank	Blank	86.948	n/a	4	10	9	n/a	69	n/a	2	n/a	n/a	n/a	n/a	412.59	n/a
384.016	0.497	angry	Picture	86.434	n/a	4	10	10	n/a	70	65	2	n/a	n/a	n/a	n/a	413.12	BM06HAS.jpg
384.513	0.514	Blank	Blank	85.92	n/a	4	10	10	n/a	70	n/a	2	n/a	n/a	n/a	n/a	413.618	n/a
385.044	0.497	angry	Picture	85.406	n/a	4	10	11	n/a	71	73	2	n/a	n/a	n/a	n/a	414.148	AM21HAS.jpg
385.541	0.514	Blank	Blank	84.892	n/a	4	10	11	n/a	71	n/a	2	n/a	n/a	n/a	n/a	414.646	n/a
386.072	0.497	angry	Picture	84.378	n/a	4	10	12	n/a	72	41	2	n/a	n/a	n/a	n/a	415.176	AF01HAS.jpg
386.569	0.514	Blank	Blank	83.864	n/a	4	10	12	n/a	72	n/a	2	n/a	n/a	n/a	n/a	415.674	n/a
387.1	0.497	angry	Picture	83.35	n/a	4	10	13	n/a	73	59	2	n/a	n/a	n/a	n/a	416.204	AF31HAS.jpg
387.597	0.514	Blank	Blank	82.836	n/a	4	10	13	n/a	73	n/a	2	n/a	n/a	n/a	n/a	416.702	n/a
388.127	0.497	angry	Picture	82.322	n/a	4	10	14	n/a	74	64	2	n/a	n/a	n/a	n/a	417.232	BM05HAS.jpg
388.625	0.514	Blank	Blank	81.808	n/a	4	10	14	n/a	74	n/a	2	n/a	n/a	n/a	n/a	417.729	n/a
389.155	0.497	angry	Picture	81.294	n/a	4	10	15	n/a	75	68	2	n/a	n/a	n/a	n/a	418.26	AM09HAS.jpg
389.653	0.514	Blank	Blank	80.78	n/a	4	10	15	n/a	75	n/a	2	n/a	n/a	n/a	n/a	418.757	n/a
390.183	0.497	angry	Picture	80.266	n/a	4	10	16	n/a	76	54	2	n/a	n/a	n/a	n/a	419.288	AF23HAS.jpg
390.681	0.514	Blank	Blank	79.753	n/a	4	10	16	n/a	76	n/a	2	n/a	n/a	n/a	n/a	419.785	n/a
391.211	0.497	angry	Picture	79.239	n/a	4	10	17	n/a	77	53	2	n/a	n/a	n/a	n/a	420.316	BF22HAS.jpg
391.709	0.514	Blank	Blank	78.725	n/a	4	10	17	n/a	77	n/a	2	n/a	n/a	n/a	n/a	420.813	n/a
392.239	0.497	angry	Picture	78.211	n/a	4	10	18	n/a	78	44	2	n/a	n/a	n/a	n/a	421.344	AF05HAS.jpg
392.736	0.514	Blank	Blank	77.697	n/a	4	10	18	n/a	78	n/a	2	n/a	n/a	n/a	n/a	421.841	n/a
393.267	0.497	angry	Picture	77.183	n/a	4	10	19	n/a	79	52	2	n/a	n/a	n/a	n/a	422.372	AF21HAS.jpg
393.764	0.514	Blank	Blank	76.669	n/a	4	10	19	n/a	79	n/a	2	n/a	n/a	n/a	n/a	422.869	n/a
394.295	0.497	angry	Picture	76.155	n/a	4	10	20	n/a	80	62	2	n/a	n/a	n/a	n/a	423.399	BM03HAS.jpg
394.792	0.514	Blank	Blank	75.641	n/a	4	10	20	n/a	80	n/a	2	n/a	n/a	n/a	n/a	423.897	n/a
395.323	10.014	ITI	Fixation+	65.611	n/a	4	n/a	n/a	n/a	n/a	n/a	n/a	n/a	n/a	n/a	n/a	424.427	n/a
405.353	0.497	neutral	Picture	65.097	n/a	4	11	1	n/a	81	23	1	n/a	n/a	n/a	n/a	434.457	AM04NES.jpg
405.85	0.514	Blank	Blank	64.583	n/a	4	11	1	n/a	81	n/a	1	n/a	n/a	n/a	n/a	434.955	n/a
406.381	0.497	neutral	Picture	64.069	n/a	4	11	2	n/a	82	29	1	n/a	n/a	n/a	n/a	435.485	AM10NES.jpg
406.878	0.514	Blank	Blank	63.555	n/a	4	11	2	n/a	82	n/a	1	n/a	n/a	n/a	n/a	435.983	n/a
407.409	0.497	neutral	Picture	63.041	n/a	4	11	3	n/a	83	24	1	n/a	n/a	n/a	n/a	436.513	BM05NES.jpg
407.906	0.514	Blank	Blank	62.527	n/a	4	11	3	n/a	83	n/a	1	n/a	n/a	n/a	n/a	437.01	n/a
408.436	0.497	neutral	Picture	62.013	n/a	4	11	4	n/a	84	12	1	n/a	n/a	n/a	n/a	437.541	AF21NES.jpg
408.934	0.514	Blank	Blank	61.499	n/a	4	11	4	n/a	84	n/a	1	n/a	n/a	n/a	n/a	438.038	n/a
409.464	0.497	neutral	Picture	60.985	n/a	4	11	5	n/a	85	13	1	n/a	n/a	n/a	n/a	438.569	BF22NES.jpg
409.962	0.514	Blank	Blank	60.471	n/a	4	11	5	n/a	85	n/a	1	n/a	n/a	n/a	n/a	439.066	n/a
410.492	0.497	neutral	Picture	59.957	n/a	4	11	6	n/a	86	17	1	n/a	n/a	n/a	n/a	439.597	BF28NES.jpg
410.99	0.514	Blank	Blank	59.444	n/a	4	11	6	n/a	86	n/a	1	n/a	n/a	n/a	n/a	440.094	n/a
411.52	0.497	neutral	Picture	58.93	n/a	4	11	7	n/a	87	4	1	n/a	n/a	n/a	n/a	440.625	AF05NES.jpg
412.017	0.514	Blank	Blank	58.416	n/a	4	11	7	n/a	87	n/a	1	n/a	n/a	n/a	n/a	441.122	n/a
412.548	0.497	neutral	Picture	57.902	n/a	4	11	8	n/a	88	11	1	n/a	n/a	n/a	n/a	441.653	AF20NES.jpg
413.045	0.514	Blank	Blank	57.388	n/a	4	11	8	n/a	88	n/a	1	n/a	n/a	n/a	n/a	442.15	n/a
413.576	0.497	neutral	Picture	56.874	n/a	4	11	9	n/a	89	22	1	n/a	n/a	n/a	n/a	442.68	BM03NES.jpg
414.073	0.514	Blank	Blank	56.36	n/a	4	11	9	n/a	89	n/a	1	n/a	n/a	n/a	n/a	443.178	n/a
414.604	0.497	neutral	Picture	55.846	n/a	4	11	10	n/a	90	15	1	n/a	n/a	n/a	n/a	443.708	AF25NES.jpg
415.101	0.514	Blank	Blank	55.332	n/a	4	11	10	n/a	90	n/a	1	n/a	n/a	n/a	n/a	444.206	n/a
415.632	0.497	neutral	Picture	54.818	n/a	4	11	11	n/a	91	19	1	n/a	n/a	n/a	n/a	444.736	AF31NES.jpg
416.129	0.514	Blank	Blank	54.304	n/a	4	11	11	n/a	91	n/a	1	n/a	n/a	n/a	n/a	445.234	n/a
416.659	0.497	neutral	Picture	53.79	n/a	4	11	12	n/a	92	9	1	n/a	n/a	n/a	n/a	445.764	AF17NES.jpg
417.157	0.514	Blank	Blank	53.276	n/a	4	11	12	n/a	92	n/a	1	n/a	n/a	n/a	n/a	446.262	n/a
417.687	0.497	neutral	Picture	52.762	n/a	4	11	13	n/a	93	14	1	n/a	n/a	n/a	n/a	446.792	AF23NES.jpg
418.185	0.514	Blank	Blank	52.248	n/a	4	11	13	n/a	93	n/a	1	n/a	n/a	n/a	n/a	447.289	n/a
418.715	0.497	neutral	Picture	51.734	n/a	4	11	14	n/a	94	36	1	n/a	n/a	n/a	n/a	447.82	BM24NES.jpg
419.213	0.514	Blank	Blank	51.22	n/a	4	11	14	n/a	94	n/a	1	n/a	n/a	n/a	n/a	448.317	n/a
419.743	0.497	neutral	Picture	50.707	n/a	4	11	15	n/a	95	34	1	n/a	n/a	n/a	n/a	448.848	AM22NES.jpg
420.24	0.514	Blank	Blank	50.193	n/a	4	11	15	n/a	95	n/a	1	n/a	n/a	n/a	n/a	449.345	n/a
420.771	0.497	neutral	Picture	49.679	n/a	4	11	16	n/a	96	10	1	n/a	n/a	n/a	n/a	449.876	AF18NES.jpg
421.268	0.514	Blank	Blank	49.165	n/a	4	11	16	n/a	96	n/a	1	n/a	n/a	n/a	n/a	450.373	n/a
421.799	0.497	neutral	Picture	48.651	n/a	4	11	17	n/a	97	5	1	n/a	n/a	n/a	n/a	450.904	BF07NES.jpg
422.296	0.514	Blank	Blank	48.137	n/a	4	11	17	n/a	97	n/a	1	n/a	n/a	n/a	n/a	451.401	n/a
422.827	0.497	neutral	Picture	47.623	n/a	4	11	18	n/a	98	25	1	n/a	n/a	n/a	n/a	451.931	BM06NES.jpg
423.324	0.514	Blank	Blank	47.109	n/a	4	11	18	n/a	98	n/a	1	n/a	n/a	n/a	n/a	452.429	n/a
423.855	0.497	neutral	Picture	46.595	n/a	4	11	19	n/a	99	39	1	n/a	n/a	n/a	n/a	452.959	AM28NES.jpg
424.352	0.514	Blank	Blank	46.081	n/a	4	11	19	n/a	99	n/a	1	n/a	n/a	n/a	n/a	453.457	n/a
424.883	0.497	neutral	Picture	45.567	n/a	4	11	20	n/a	100	33	1	n/a	n/a	n/a	n/a	453.987	AM21NES.jpg
425.38	0.514	Blank	Blank	45.053	n/a	4	11	20	n/a	100	n/a	1	n/a	n/a	n/a	n/a	454.485	n/a
425.91	10.014	ITI	Fixation+	35.023	n/a	4	n/a	n/a	n/a	n/a	n/a	n/a	n/a	n/a	n/a	n/a	455.015	n/a
435.941	0.497	angry	Picture	34.509	n/a	4	12	1	n/a	101	74	2	n/a	n/a	n/a	n/a	465.045	AM22HAS.jpg
436.438	0.514	Blank	Blank	33.995	n/a	4	12	1	n/a	101	n/a	2	n/a	n/a	n/a	n/a	465.543	n/a
436.969	0.497	angry	Picture	33.481	n/a	4	12	2	n/a	102	76	2	n/a	n/a	n/a	n/a	466.073	BM24HAS.jpg
437.466	0.514	Blank	Blank	32.967	n/a	4	12	2	n/a	102	n/a	2	n/a	n/a	n/a	n/a	466.57	n/a
437.996	0.497	angry	Picture	32.453	n/a	4	12	3	n/a	103	80	2	n/a	n/a	n/a	n/a	467.101	BM35HAS.jpg
438.494	0.514	Blank	Blank	31.94	n/a	4	12	3	n/a	103	n/a	2	n/a	n/a	n/a	n/a	467.598	n/a
439.024	0.497	angry	Picture	31.425	n/a	4	12	4	n/a	104	75	2	n/a	n/a	n/a	n/a	468.129	AM23HAS.jpg
439.522	0.514	Blank	Blank	30.912	n/a	4	12	4	n/a	104	n/a	2	n/a	n/a	n/a	n/a	468.626	n/a
440.052	0.497	angry	Picture	30.398	n/a	4	12	5	n/a	105	49	2	n/a	n/a	n/a	n/a	469.157	AF17HAS.jpg
440.55	0.514	Blank	Blank	29.884	n/a	4	12	5	n/a	105	n/a	2	n/a	n/a	n/a	n/a	469.654	n/a
441.08	0.497	angry	Picture	29.37	n/a	4	12	6	n/a	106	43	2	n/a	n/a	n/a	n/a	470.185	BF04HAS.jpg
441.577	0.514	Blank	Blank	28.856	n/a	4	12	6	n/a	106	n/a	2	n/a	n/a	n/a	n/a	470.682	n/a
442.108	0.497	angry	Picture	28.342	n/a	4	12	7	n/a	107	70	2	n/a	n/a	n/a	n/a	471.212	BM11HAS.jpg
442.605	0.514	Blank	Blank	27.828	n/a	4	12	7	n/a	107	n/a	2	n/a	n/a	n/a	n/a	471.71	n/a
443.136	0.497	angry	Picture	27.314	n/a	4	12	8	n/a	108	66	2	n/a	n/a	n/a	n/a	472.24	BM07HAS.jpg
443.633	0.514	Blank	Blank	26.8	n/a	4	12	8	n/a	108	n/a	2	n/a	n/a	n/a	n/a	472.738	n/a
444.164	0.497	angry	Picture	26.286	n/a	4	12	9	n/a	109	48	2	n/a	n/a	n/a	n/a	473.268	AF14HAS.jpg
444.661	0.514	Blank	Blank	25.772	n/a	4	12	9	n/a	109	n/a	2	n/a	n/a	n/a	n/a	473.766	n/a
445.192	0.497	angry	Picture	25.258	n/a	4	12	10	n/a	110	58	2	n/a	n/a	n/a	n/a	474.296	BF29HAS.jpg
445.689	0.514	Blank	Blank	24.744	n/a	4	12	10	n/a	110	n/a	2	n/a	n/a	n/a	n/a	474.793	n/a
446.219	0.497	angry	Picture	24.23	n/a	4	12	11	n/a	111	63	2	n/a	n/a	n/a	n/a	475.324	AM04HAS.jpg
446.717	0.514	Blank	Blank	23.716	n/a	4	12	11	n/a	111	n/a	2	n/a	n/a	n/a	n/a	475.821	n/a
447.247	0.497	angry	Picture	23.202	n/a	4	12	12	n/a	112	72	2	n/a	n/a	n/a	n/a	476.352	AM14HAS.jpg
447.745	0.514	Blank	Blank	22.688	n/a	4	12	12	n/a	112	n/a	2	n/a	n/a	n/a	n/a	476.849	n/a
448.275	0.497	angry	Picture	22.175	n/a	4	12	13	n/a	113	55	2	n/a	n/a	n/a	n/a	477.38	AF25HAS.jpg
448.772	0.514	Blank	Blank	21.661	n/a	4	12	13	n/a	113	n/a	2	n/a	n/a	n/a	n/a	477.877	n/a
449.303	0.497	angry	Picture	21.147	n/a	4	12	14	n/a	114	42	2	n/a	n/a	n/a	n/a	478.408	AF03HAS.jpg
449.8	0.514	Blank	Blank	20.633	n/a	4	12	14	n/a	114	n/a	2	n/a	n/a	n/a	n/a	478.905	n/a
450.331	0.497	angry	Picture	20.119	n/a	4	12	15	n/a	115	60	2	n/a	n/a	n/a	n/a	479.435	AF32HAS.jpg
450.828	0.514	Blank	Blank	19.605	n/a	4	12	15	n/a	115	n/a	2	n/a	n/a	n/a	n/a	479.933	n/a
451.359	0.497	angry	Picture	19.091	n/a	4	12	16	n/a	116	67	2	n/a	n/a	n/a	n/a	480.463	BM08HAS.jpg
451.856	0.514	Blank	Blank	18.577	n/a	4	12	16	n/a	116	n/a	2	n/a	n/a	n/a	n/a	480.961	n/a
452.387	0.497	angry	Picture	18.063	n/a	4	12	17	n/a	117	51	2	n/a	n/a	n/a	n/a	481.491	AF20HAS.jpg
452.884	0.514	Blank	Blank	17.549	n/a	4	12	17	n/a	117	n/a	2	n/a	n/a	n/a	n/a	481.989	n/a
453.415	0.497	angry	Picture	17.035	n/a	4	12	18	n/a	118	71	2	n/a	n/a	n/a	n/a	482.519	BM12HAS.jpg
453.912	0.514	Blank	Blank	16.521	n/a	4	12	18	n/a	118	n/a	2	n/a	n/a	n/a	n/a	483.017	n/a
454.442	0.497	angry	Picture	16.007	n/a	4	12	19	n/a	119	69	2	n/a	n/a	n/a	n/a	483.547	AM10HAS.jpg
454.94	0.514	Blank	Blank	15.493	n/a	4	12	19	n/a	119	n/a	2	n/a	n/a	n/a	n/a	484.044	n/a
455.47	0.497	angry	Picture	14.979	n/a	4	12	20	n/a	120	46	2	n/a	n/a	n/a	n/a	484.575	AF09HAS.jpg
455.968	0.514	Blank	Blank	14.465	n/a	4	12	20	n/a	120	n/a	2	n/a	n/a	n/a	n/a	485.072	n/a
456.498	10.014	ITI	Fixation+	4.435	n/a	4	n/a	n/a	n/a	n/a	n/a	n/a	n/a	n/a	n/a	n/a	485.603	n/a
470.947	n/a	ConfirmRating	Rate	n/a	4.426	4	n/a	n/a	0	n/a	n/a	n/a	2	Angry	50	50	500.052	n/a
476.117	n/a	ConfirmRating	Rate	n/a	5.156	4	n/a	n/a	1	n/a	n/a	n/a	3	Angry	66	51	505.222	n/a
