onset	duration	trial_type	event_type	time_until_response	response_time	trial_number	block_num_within_trial	image_seq_num_within_block	question_seq_num_within_block	image_seq_num	picture_number	condition	question_type	block_type	rating	rating_computed	onset_uncorrected	KDEV_imagefile
0.008	10.014	ITI	Fixation+	99.541	n/a	1	n/a	n/a	n/a	n/a	n/a	n/a	n/a	n/a	n/a	n/a	29.289	n/a
10.038	0.497	angry	Picture	99.027	n/a	1	1	1	n/a	1	108	3	n/a	n/a	n/a	n/a	39.319	AM09ANS.jpg
10.535	0.514	Blank	Blank	98.513	n/a	1	1	1	n/a	1	n/a	3	n/a	n/a	n/a	n/a	39.817	n/a
11.066	0.497	angry	Picture	97.999	n/a	1	1	2	n/a	2	99	3	n/a	n/a	n/a	n/a	40.347	AF31ANS.jpg
11.563	0.514	Blank	Blank	97.485	n/a	1	1	2	n/a	2	n/a	3	n/a	n/a	n/a	n/a	40.845	n/a
12.094	0.497	angry	Picture	96.971	n/a	1	1	3	n/a	3	98	3	n/a	n/a	n/a	n/a	41.375	BF29ANS.jpg
12.591	0.514	Blank	Blank	96.457	n/a	1	1	3	n/a	3	n/a	3	n/a	n/a	n/a	n/a	41.873	n/a
13.122	0.497	angry	Picture	95.943	n/a	1	1	4	n/a	4	107	3	n/a	n/a	n/a	n/a	42.403	BM08ANS.jpg
13.619	0.514	Blank	Blank	95.429	n/a	1	1	4	n/a	4	n/a	3	n/a	n/a	n/a	n/a	42.901	n/a
14.15	0.497	angry	Picture	94.915	n/a	1	1	5	n/a	5	104	3	n/a	n/a	n/a	n/a	43.431	BM05ANS.jpg
14.647	0.514	Blank	Blank	94.401	n/a	1	1	5	n/a	5	n/a	3	n/a	n/a	n/a	n/a	43.928	n/a
15.178	0.497	angry	Picture	93.887	n/a	1	1	6	n/a	6	101	3	n/a	n/a	n/a	n/a	44.459	AM01ANS.jpg
15.675	0.514	Blank	Blank	93.373	n/a	1	1	6	n/a	6	n/a	3	n/a	n/a	n/a	n/a	44.956	n/a
16.205	0.497	angry	Picture	92.859	n/a	1	1	7	n/a	7	103	3	n/a	n/a	n/a	n/a	45.487	AM04ANS.jpg
16.703	0.514	Blank	Blank	92.345	n/a	1	1	7	n/a	7	n/a	3	n/a	n/a	n/a	n/a	45.984	n/a
17.233	0.497	angry	Picture	91.832	n/a	1	1	8	n/a	8	111	3	n/a	n/a	n/a	n/a	46.515	BM12ANS.jpg
17.731	0.514	Blank	Blank	91.318	n/a	1	1	8	n/a	8	n/a	3	n/a	n/a	n/a	n/a	47.012	n/a
18.261	0.497	angry	Picture	90.804	n/a	1	1	9	n/a	9	110	3	n/a	n/a	n/a	n/a	47.542	AM11ANS.jpg
18.759	0.514	Blank	Blank	90.29	n/a	1	1	9	n/a	9	n/a	3	n/a	n/a	n/a	n/a	48.04	n/a
19.289	0.497	angry	Picture	89.776	n/a	1	1	10	n/a	10	85	3	n/a	n/a	n/a	n/a	48.57	BF07ANS.jpg
19.786	0.514	Blank	Blank	89.262	n/a	1	1	10	n/a	10	n/a	3	n/a	n/a	n/a	n/a	49.068	n/a
20.317	0.497	angry	Picture	88.748	n/a	1	1	11	n/a	11	87	3	n/a	n/a	n/a	n/a	49.598	BF11ANS.jpg
20.814	0.514	Blank	Blank	88.234	n/a	1	1	11	n/a	11	n/a	3	n/a	n/a	n/a	n/a	50.096	n/a
21.345	0.497	angry	Picture	87.72	n/a	1	1	12	n/a	12	91	3	n/a	n/a	n/a	n/a	50.626	AF20ANS.jpg
21.842	0.514	Blank	Blank	87.206	n/a	1	1	12	n/a	12	n/a	3	n/a	n/a	n/a	n/a	51.123	n/a
22.373	0.497	angry	Picture	86.692	n/a	1	1	13	n/a	13	115	3	n/a	n/a	n/a	n/a	51.654	AM23ANS.jpg
22.87	0.514	Blank	Blank	86.178	n/a	1	1	13	n/a	13	n/a	3	n/a	n/a	n/a	n/a	52.151	n/a
23.401	0.497	angry	Picture	85.664	n/a	1	1	14	n/a	14	97	3	n/a	n/a	n/a	n/a	52.682	BF28ANS.jpg
23.898	0.514	Blank	Blank	85.15	n/a	1	1	14	n/a	14	n/a	3	n/a	n/a	n/a	n/a	53.179	n/a
24.428	0.497	angry	Picture	84.636	n/a	1	1	15	n/a	15	82	3	n/a	n/a	n/a	n/a	53.71	AF03ANS.jpg
24.926	0.514	Blank	Blank	84.122	n/a	1	1	15	n/a	15	n/a	3	n/a	n/a	n/a	n/a	54.207	n/a
25.456	0.497	angry	Picture	83.608	n/a	1	1	16	n/a	16	96	3	n/a	n/a	n/a	n/a	54.738	AF26ANS.jpg
25.954	0.514	Blank	Blank	83.095	n/a	1	1	16	n/a	16	n/a	3	n/a	n/a	n/a	n/a	55.235	n/a
26.484	0.497	angry	Picture	82.581	n/a	1	1	17	n/a	17	109	3	n/a	n/a	n/a	n/a	55.766	AM10ANS.jpg
26.982	0.514	Blank	Blank	82.067	n/a	1	1	17	n/a	17	n/a	3	n/a	n/a	n/a	n/a	56.263	n/a
27.512	0.497	angry	Picture	81.553	n/a	1	1	18	n/a	18	114	3	n/a	n/a	n/a	n/a	56.794	AM22ANS.jpg
28.009	0.514	Blank	Blank	81.039	n/a	1	1	18	n/a	18	n/a	3	n/a	n/a	n/a	n/a	57.291	n/a
28.54	0.497	angry	Picture	80.525	n/a	1	1	19	n/a	19	120	3	n/a	n/a	n/a	n/a	57.821	AM35ANS.jpg
29.037	0.514	Blank	Blank	80.011	n/a	1	1	19	n/a	19	n/a	3	n/a	n/a	n/a	n/a	58.319	n/a
29.568	0.497	angry	Picture	79.497	n/a	1	1	20	n/a	20	81	3	n/a	n/a	n/a	n/a	58.849	AF01ANS.jpg
30.065	0.514	Blank	Blank	78.983	n/a	1	1	20	n/a	20	n/a	3	n/a	n/a	n/a	n/a	59.347	n/a
30.596	10.014	ITI	Fixation+	68.953	n/a	1	n/a	n/a	n/a	n/a	n/a	n/a	n/a	n/a	n/a	n/a	59.877	n/a
40.626	0.497	neutral	Picture	68.439	n/a	1	2	1	n/a	21	28	1	n/a	n/a	n/a	n/a	69.907	AM09NES.jpg
41.123	0.514	Blank	Blank	67.925	n/a	1	2	1	n/a	21	n/a	1	n/a	n/a	n/a	n/a	70.405	n/a
41.654	0.497	neutral	Picture	67.411	n/a	1	2	2	n/a	22	27	1	n/a	n/a	n/a	n/a	70.935	BM08NES.jpg
42.151	0.514	Blank	Blank	66.897	n/a	1	2	2	n/a	22	n/a	1	n/a	n/a	n/a	n/a	71.433	n/a
42.682	0.497	neutral	Picture	66.383	n/a	1	2	3	n/a	23	16	1	n/a	n/a	n/a	n/a	71.963	AF26NES.jpg
43.179	0.514	Blank	Blank	65.869	n/a	1	2	3	n/a	23	n/a	1	n/a	n/a	n/a	n/a	72.46	n/a
43.71	0.497	neutral	Picture	65.355	n/a	1	2	4	n/a	24	3	1	n/a	n/a	n/a	n/a	72.991	BF04NES.jpg
44.207	0.514	Blank	Blank	64.841	n/a	1	2	4	n/a	24	n/a	1	n/a	n/a	n/a	n/a	73.488	n/a
44.737	0.497	neutral	Picture	64.327	n/a	1	2	5	n/a	25	32	1	n/a	n/a	n/a	n/a	74.019	AM14NES.jpg
45.235	0.514	Blank	Blank	63.813	n/a	1	2	5	n/a	25	n/a	1	n/a	n/a	n/a	n/a	74.516	n/a
45.765	0.497	neutral	Picture	63.3	n/a	1	2	6	n/a	26	37	1	n/a	n/a	n/a	n/a	75.047	BM25NES.jpg
46.263	0.514	Blank	Blank	62.786	n/a	1	2	6	n/a	26	n/a	1	n/a	n/a	n/a	n/a	75.544	n/a
46.793	0.497	neutral	Picture	62.272	n/a	1	2	7	n/a	27	15	1	n/a	n/a	n/a	n/a	76.075	AF25NES.jpg
47.291	0.514	Blank	Blank	61.758	n/a	1	2	7	n/a	27	n/a	1	n/a	n/a	n/a	n/a	76.572	n/a
47.821	0.497	neutral	Picture	61.244	n/a	1	2	8	n/a	28	23	1	n/a	n/a	n/a	n/a	77.102	AM04NES.jpg
48.319	0.514	Blank	Blank	60.73	n/a	1	2	8	n/a	28	n/a	1	n/a	n/a	n/a	n/a	77.6	n/a
48.849	0.497	neutral	Picture	60.216	n/a	1	2	9	n/a	29	34	1	n/a	n/a	n/a	n/a	78.13	AM22NES.jpg
49.346	0.514	Blank	Blank	59.702	n/a	1	2	9	n/a	29	n/a	1	n/a	n/a	n/a	n/a	78.628	n/a
49.877	0.497	neutral	Picture	59.188	n/a	1	2	10	n/a	30	24	1	n/a	n/a	n/a	n/a	79.158	BM05NES.jpg
50.374	0.514	Blank	Blank	58.674	n/a	1	2	10	n/a	30	n/a	1	n/a	n/a	n/a	n/a	79.656	n/a
50.905	0.497	neutral	Picture	58.16	n/a	1	2	11	n/a	31	12	1	n/a	n/a	n/a	n/a	80.186	AF21NES.jpg
51.402	0.514	Blank	Blank	57.646	n/a	1	2	11	n/a	31	n/a	1	n/a	n/a	n/a	n/a	80.683	n/a
51.933	0.497	neutral	Picture	57.132	n/a	1	2	12	n/a	32	6	1	n/a	n/a	n/a	n/a	81.214	AF09NES.jpg
52.43	0.514	Blank	Blank	56.618	n/a	1	2	12	n/a	32	n/a	1	n/a	n/a	n/a	n/a	81.711	n/a
52.96	0.497	neutral	Picture	56.104	n/a	1	2	13	n/a	33	17	1	n/a	n/a	n/a	n/a	82.242	BF28NES.jpg
53.458	0.514	Blank	Blank	55.59	n/a	1	2	13	n/a	33	n/a	1	n/a	n/a	n/a	n/a	82.739	n/a
53.988	0.497	neutral	Picture	55.076	n/a	1	2	14	n/a	34	2	1	n/a	n/a	n/a	n/a	83.27	AF03NES.jpg
54.486	0.514	Blank	Blank	54.563	n/a	1	2	14	n/a	34	n/a	1	n/a	n/a	n/a	n/a	83.767	n/a
55.016	0.497	neutral	Picture	54.049	n/a	1	2	15	n/a	35	9	1	n/a	n/a	n/a	n/a	84.298	AF17NES.jpg
55.514	0.514	Blank	Blank	53.535	n/a	1	2	15	n/a	35	n/a	1	n/a	n/a	n/a	n/a	84.795	n/a
56.044	0.497	neutral	Picture	53.021	n/a	1	2	16	n/a	36	25	1	n/a	n/a	n/a	n/a	85.326	BM06NES.jpg
56.541	0.514	Blank	Blank	52.507	n/a	1	2	16	n/a	36	n/a	1	n/a	n/a	n/a	n/a	85.823	n/a
57.072	0.497	neutral	Picture	51.993	n/a	1	2	17	n/a	37	8	1	n/a	n/a	n/a	n/a	86.353	AF14NES.jpg
57.569	0.514	Blank	Blank	51.479	n/a	1	2	17	n/a	37	n/a	1	n/a	n/a	n/a	n/a	86.851	n/a
58.1	0.497	neutral	Picture	50.965	n/a	1	2	18	n/a	38	19	1	n/a	n/a	n/a	n/a	87.381	AF31NES.jpg
58.597	0.514	Blank	Blank	50.451	n/a	1	2	18	n/a	38	n/a	1	n/a	n/a	n/a	n/a	87.879	n/a
59.128	0.497	neutral	Picture	49.937	n/a	1	2	19	n/a	39	14	1	n/a	n/a	n/a	n/a	88.409	AF23NES.jpg
59.625	0.514	Blank	Blank	49.423	n/a	1	2	19	n/a	39	n/a	1	n/a	n/a	n/a	n/a	88.906	n/a
60.156	0.497	neutral	Picture	48.909	n/a	1	2	20	n/a	40	4	1	n/a	n/a	n/a	n/a	89.437	AF05NES.jpg
60.653	0.514	Blank	Blank	48.395	n/a	1	2	20	n/a	40	n/a	1	n/a	n/a	n/a	n/a	89.934	n/a
61.184	10.014	ITI	Fixation+	38.365	n/a	1	n/a	n/a	n/a	n/a	n/a	n/a	n/a	n/a	n/a	n/a	90.465	n/a
71.214	0.497	angry	Picture	37.851	n/a	1	3	1	n/a	41	84	3	n/a	n/a	n/a	n/a	100.495	AF05ANS.jpg
71.711	0.514	Blank	Blank	37.337	n/a	1	3	1	n/a	41	n/a	3	n/a	n/a	n/a	n/a	100.992	n/a
72.242	0.497	angry	Picture	36.823	n/a	1	3	2	n/a	42	92	3	n/a	n/a	n/a	n/a	101.523	AF21ANS.jpg
72.739	0.514	Blank	Blank	36.309	n/a	1	3	2	n/a	42	n/a	3	n/a	n/a	n/a	n/a	102.02	n/a
73.269	0.497	angry	Picture	35.795	n/a	1	3	3	n/a	43	86	3	n/a	n/a	n/a	n/a	102.551	AF09ANS.jpg
73.767	0.514	Blank	Blank	35.281	n/a	1	3	3	n/a	43	n/a	3	n/a	n/a	n/a	n/a	103.048	n/a
74.297	0.497	angry	Picture	34.768	n/a	1	3	4	n/a	44	93	3	n/a	n/a	n/a	n/a	103.579	BF22ANS.jpg
74.795	0.514	Blank	Blank	34.254	n/a	1	3	4	n/a	44	n/a	3	n/a	n/a	n/a	n/a	104.076	n/a
75.325	0.497	angry	Picture	33.74	n/a	1	3	5	n/a	45	88	3	n/a	n/a	n/a	n/a	104.607	AF14ANS.jpg
75.823	0.514	Blank	Blank	33.226	n/a	1	3	5	n/a	45	n/a	3	n/a	n/a	n/a	n/a	105.104	n/a
76.353	0.497	angry	Picture	32.712	n/a	1	3	6	n/a	46	113	3	n/a	n/a	n/a	n/a	105.634	AM21ANS.jpg
76.85	0.514	Blank	Blank	32.198	n/a	1	3	6	n/a	46	n/a	3	n/a	n/a	n/a	n/a	106.132	n/a
77.381	0.497	angry	Picture	31.684	n/a	1	3	7	n/a	47	95	3	n/a	n/a	n/a	n/a	106.662	AF25ANS.jpg
77.878	0.514	Blank	Blank	31.17	n/a	1	3	7	n/a	47	n/a	3	n/a	n/a	n/a	n/a	107.16	n/a
78.409	0.497	angry	Picture	30.656	n/a	1	3	8	n/a	48	102	3	n/a	n/a	n/a	n/a	107.69	BM03ANS.jpg
78.906	0.514	Blank	Blank	30.142	n/a	1	3	8	n/a	48	n/a	3	n/a	n/a	n/a	n/a	108.188	n/a
79.437	0.497	angry	Picture	29.628	n/a	1	3	9	n/a	49	112	3	n/a	n/a	n/a	n/a	108.718	AM14ANS.jpg
79.934	0.514	Blank	Blank	29.114	n/a	1	3	9	n/a	49	n/a	3	n/a	n/a	n/a	n/a	109.216	n/a
80.465	0.497	angry	Picture	28.6	n/a	1	3	10	n/a	50	83	3	n/a	n/a	n/a	n/a	109.746	BF04ANS.jpg
80.962	0.514	Blank	Blank	28.086	n/a	1	3	10	n/a	50	n/a	3	n/a	n/a	n/a	n/a	110.243	n/a
81.493	0.497	angry	Picture	27.572	n/a	1	3	11	n/a	51	90	3	n/a	n/a	n/a	n/a	110.774	AF18ANS.jpg
81.99	0.514	Blank	Blank	27.058	n/a	1	3	11	n/a	51	n/a	3	n/a	n/a	n/a	n/a	111.271	n/a
82.52	0.497	angry	Picture	26.544	n/a	1	3	12	n/a	52	117	3	n/a	n/a	n/a	n/a	111.802	BM25ANS.jpg
83.018	0.514	Blank	Blank	26.031	n/a	1	3	12	n/a	52	n/a	3	n/a	n/a	n/a	n/a	112.299	n/a
83.548	0.497	angry	Picture	25.517	n/a	1	3	13	n/a	53	94	3	n/a	n/a	n/a	n/a	112.83	AF23ANS.jpg
84.046	0.514	Blank	Blank	25.003	n/a	1	3	13	n/a	53	n/a	3	n/a	n/a	n/a	n/a	113.327	n/a
84.576	0.497	angry	Picture	24.489	n/a	1	3	14	n/a	54	106	3	n/a	n/a	n/a	n/a	113.858	AM07ANS.jpg
85.074	0.514	Blank	Blank	23.975	n/a	1	3	14	n/a	54	n/a	3	n/a	n/a	n/a	n/a	114.355	n/a
85.604	0.497	angry	Picture	23.461	n/a	1	3	15	n/a	55	105	3	n/a	n/a	n/a	n/a	114.885	BM06ANS.jpg
86.102	0.514	Blank	Blank	22.947	n/a	1	3	15	n/a	55	n/a	3	n/a	n/a	n/a	n/a	115.383	n/a
86.632	0.497	angry	Picture	22.433	n/a	1	3	16	n/a	56	116	3	n/a	n/a	n/a	n/a	115.913	BM24ANS.jpg
87.129	0.514	Blank	Blank	21.919	n/a	1	3	16	n/a	56	n/a	3	n/a	n/a	n/a	n/a	116.411	n/a
87.66	0.497	angry	Picture	21.405	n/a	1	3	17	n/a	57	89	3	n/a	n/a	n/a	n/a	116.941	AF17ANS.jpg
88.157	0.514	Blank	Blank	20.891	n/a	1	3	17	n/a	57	n/a	3	n/a	n/a	n/a	n/a	117.439	n/a
88.688	0.497	angry	Picture	20.377	n/a	1	3	18	n/a	58	118	3	n/a	n/a	n/a	n/a	117.969	BM26ANS.jpg
89.185	0.514	Blank	Blank	19.863	n/a	1	3	18	n/a	58	n/a	3	n/a	n/a	n/a	n/a	118.466	n/a
89.716	0.497	angry	Picture	19.349	n/a	1	3	19	n/a	59	100	3	n/a	n/a	n/a	n/a	118.997	AF32ANS.jpg
90.213	0.514	Blank	Blank	18.835	n/a	1	3	19	n/a	59	n/a	3	n/a	n/a	n/a	n/a	119.494	n/a
90.743	0.497	angry	Picture	18.321	n/a	1	3	20	n/a	60	119	3	n/a	n/a	n/a	n/a	120.025	BM28ANS.jpg
91.241	0.514	Blank	Blank	17.807	n/a	1	3	20	n/a	60	n/a	3	n/a	n/a	n/a	n/a	120.522	n/a
91.771	10.014	ITI	Fixation+	7.777	n/a	1	n/a	n/a	n/a	n/a	n/a	n/a	n/a	n/a	n/a	n/a	121.053	n/a
109.562	n/a	ConfirmRating	Rate	n/a	7.776	1	n/a	n/a	0	n/a	n/a	n/a	2	Angry	32	49	138.844	n/a
118.18	n/a	ConfirmRating	Rate	n/a	8.588	1	n/a	n/a	1	n/a	n/a	n/a	3	Angry	50	50	147.461	n/a
118.198	10.014	ITI	Fixation+	97.178	n/a	2	n/a	n/a	n/a	n/a	n/a	n/a	n/a	n/a	n/a	n/a	147.479	n/a
128.228	0.497	happy	Picture	96.664	n/a	2	4	1	n/a	61	79	2	n/a	n/a	n/a	n/a	157.509	BM28HAS.jpg
128.725	0.514	Blank	Blank	96.15	n/a	2	4	1	n/a	61	n/a	2	n/a	n/a	n/a	n/a	158.007	n/a
129.256	0.497	happy	Picture	95.636	n/a	2	4	2	n/a	62	61	2	n/a	n/a	n/a	n/a	158.537	AM01HAS.jpg
129.753	0.514	Blank	Blank	95.122	n/a	2	4	2	n/a	62	n/a	2	n/a	n/a	n/a	n/a	159.035	n/a
130.284	0.497	happy	Picture	94.608	n/a	2	4	3	n/a	63	57	2	n/a	n/a	n/a	n/a	159.565	BF28HAS.jpg
130.781	0.514	Blank	Blank	94.094	n/a	2	4	3	n/a	63	n/a	2	n/a	n/a	n/a	n/a	160.063	n/a
131.312	0.497	happy	Picture	93.58	n/a	2	4	4	n/a	64	77	2	n/a	n/a	n/a	n/a	160.593	BM25HAS.jpg
131.809	0.514	Blank	Blank	93.066	n/a	2	4	4	n/a	64	n/a	2	n/a	n/a	n/a	n/a	161.09	n/a
132.34	0.497	happy	Picture	92.552	n/a	2	4	5	n/a	65	47	2	n/a	n/a	n/a	n/a	161.621	BF11HAS.jpg
132.837	0.514	Blank	Blank	92.038	n/a	2	4	5	n/a	65	n/a	2	n/a	n/a	n/a	n/a	162.118	n/a
133.368	0.497	happy	Picture	91.524	n/a	2	4	6	n/a	66	50	2	n/a	n/a	n/a	n/a	162.649	AF18HAS.jpg
133.865	0.514	Blank	Blank	91.01	n/a	2	4	6	n/a	66	n/a	2	n/a	n/a	n/a	n/a	163.146	n/a
134.395	0.497	happy	Picture	90.496	n/a	2	4	7	n/a	67	78	2	n/a	n/a	n/a	n/a	163.677	BM26HAS.jpg
134.893	0.514	Blank	Blank	89.982	n/a	2	4	7	n/a	67	n/a	2	n/a	n/a	n/a	n/a	164.174	n/a
135.423	0.497	happy	Picture	89.468	n/a	2	4	8	n/a	68	45	2	n/a	n/a	n/a	n/a	164.704	BF07HAS.jpg
135.921	0.514	Blank	Blank	88.955	n/a	2	4	8	n/a	68	n/a	2	n/a	n/a	n/a	n/a	165.202	n/a
136.451	0.497	happy	Picture	88.441	n/a	2	4	9	n/a	69	56	2	n/a	n/a	n/a	n/a	165.732	AF26HAS.jpg
136.949	0.514	Blank	Blank	87.927	n/a	2	4	9	n/a	69	n/a	2	n/a	n/a	n/a	n/a	166.23	n/a
137.479	0.497	happy	Picture	87.413	n/a	2	4	10	n/a	70	65	2	n/a	n/a	n/a	n/a	166.76	BM06HAS.jpg
137.976	0.514	Blank	Blank	86.899	n/a	2	4	10	n/a	70	n/a	2	n/a	n/a	n/a	n/a	167.258	n/a
138.507	0.497	happy	Picture	86.385	n/a	2	4	11	n/a	71	73	2	n/a	n/a	n/a	n/a	167.788	AM21HAS.jpg
139.004	0.514	Blank	Blank	85.871	n/a	2	4	11	n/a	71	n/a	2	n/a	n/a	n/a	n/a	168.286	n/a
139.535	0.497	happy	Picture	85.357	n/a	2	4	12	n/a	72	41	2	n/a	n/a	n/a	n/a	168.816	AF01HAS.jpg
140.032	0.514	Blank	Blank	84.843	n/a	2	4	12	n/a	72	n/a	2	n/a	n/a	n/a	n/a	169.313	n/a
140.563	0.497	happy	Picture	84.329	n/a	2	4	13	n/a	73	59	2	n/a	n/a	n/a	n/a	169.844	AF31HAS.jpg
141.06	0.514	Blank	Blank	83.815	n/a	2	4	13	n/a	73	n/a	2	n/a	n/a	n/a	n/a	170.341	n/a
141.591	0.497	happy	Picture	83.301	n/a	2	4	14	n/a	74	64	2	n/a	n/a	n/a	n/a	170.872	BM05HAS.jpg
142.088	0.514	Blank	Blank	82.787	n/a	2	4	14	n/a	74	n/a	2	n/a	n/a	n/a	n/a	171.369	n/a
142.618	0.497	happy	Picture	82.273	n/a	2	4	15	n/a	75	68	2	n/a	n/a	n/a	n/a	171.9	AM09HAS.jpg
143.116	0.514	Blank	Blank	81.759	n/a	2	4	15	n/a	75	n/a	2	n/a	n/a	n/a	n/a	172.397	n/a
143.646	0.497	happy	Picture	81.245	n/a	2	4	16	n/a	76	54	2	n/a	n/a	n/a	n/a	172.928	AF23HAS.jpg
144.144	0.514	Blank	Blank	80.731	n/a	2	4	16	n/a	76	n/a	2	n/a	n/a	n/a	n/a	173.425	n/a
144.674	0.497	happy	Picture	80.218	n/a	2	4	17	n/a	77	53	2	n/a	n/a	n/a	n/a	173.956	BF22HAS.jpg
145.171	0.514	Blank	Blank	79.704	n/a	2	4	17	n/a	77	n/a	2	n/a	n/a	n/a	n/a	174.453	n/a
145.702	0.497	happy	Picture	79.19	n/a	2	4	18	n/a	78	44	2	n/a	n/a	n/a	n/a	174.983	AF05HAS.jpg
146.199	0.514	Blank	Blank	78.676	n/a	2	4	18	n/a	78	n/a	2	n/a	n/a	n/a	n/a	175.481	n/a
146.73	0.497	happy	Picture	78.162	n/a	2	4	19	n/a	79	52	2	n/a	n/a	n/a	n/a	176.011	AF21HAS.jpg
147.227	0.514	Blank	Blank	77.648	n/a	2	4	19	n/a	79	n/a	2	n/a	n/a	n/a	n/a	176.509	n/a
147.758	0.497	happy	Picture	77.134	n/a	2	4	20	n/a	80	62	2	n/a	n/a	n/a	n/a	177.039	BM03HAS.jpg
148.255	0.514	Blank	Blank	76.62	n/a	2	4	20	n/a	80	n/a	2	n/a	n/a	n/a	n/a	177.536	n/a
148.786	10.014	ITI	Fixation+	66.59	n/a	2	n/a	n/a	n/a	n/a	n/a	n/a	n/a	n/a	n/a	n/a	178.067	n/a
158.816	0.497	neutral	Picture	66.076	n/a	2	5	1	n/a	81	23	1	n/a	n/a	n/a	n/a	188.097	AM04NES.jpg
159.313	0.514	Blank	Blank	65.562	n/a	2	5	1	n/a	81	n/a	1	n/a	n/a	n/a	n/a	188.595	n/a
159.844	0.497	neutral	Picture	65.048	n/a	2	5	2	n/a	82	29	1	n/a	n/a	n/a	n/a	189.125	AM10NES.jpg
160.341	0.514	Blank	Blank	64.534	n/a	2	5	2	n/a	82	n/a	1	n/a	n/a	n/a	n/a	189.622	n/a
160.872	0.497	neutral	Picture	64.02	n/a	2	5	3	n/a	83	24	1	n/a	n/a	n/a	n/a	190.153	BM05NES.jpg
161.369	0.514	Blank	Blank	63.506	n/a	2	5	3	n/a	83	n/a	1	n/a	n/a	n/a	n/a	190.65	n/a
161.899	0.497	neutral	Picture	62.992	n/a	2	5	4	n/a	84	12	1	n/a	n/a	n/a	n/a	191.181	AF21NES.jpg
162.397	0.514	Blank	Blank	62.478	n/a	2	5	4	n/a	84	n/a	1	n/a	n/a	n/a	n/a	191.678	n/a
162.927	0.497	neutral	Picture	61.964	n/a	2	5	5	n/a	85	13	1	n/a	n/a	n/a	n/a	192.209	BF22NES.jpg
163.425	0.514	Blank	Blank	61.45	n/a	2	5	5	n/a	85	n/a	1	n/a	n/a	n/a	n/a	192.706	n/a
163.955	0.497	neutral	Picture	60.936	n/a	2	5	6	n/a	86	17	1	n/a	n/a	n/a	n/a	193.237	BF28NES.jpg
164.453	0.514	Blank	Blank	60.422	n/a	2	5	6	n/a	86	n/a	1	n/a	n/a	n/a	n/a	193.734	n/a
164.983	0.497	neutral	Picture	59.909	n/a	2	5	7	n/a	87	4	1	n/a	n/a	n/a	n/a	194.264	AF05NES.jpg
165.481	0.514	Blank	Blank	59.394	n/a	2	5	7	n/a	87	n/a	1	n/a	n/a	n/a	n/a	194.762	n/a
166.011	0.497	neutral	Picture	58.881	n/a	2	5	8	n/a	88	11	1	n/a	n/a	n/a	n/a	195.292	AF20NES.jpg
166.508	0.514	Blank	Blank	58.367	n/a	2	5	8	n/a	88	n/a	1	n/a	n/a	n/a	n/a	195.79	n/a
167.039	0.497	neutral	Picture	57.853	n/a	2	5	9	n/a	89	22	1	n/a	n/a	n/a	n/a	196.32	BM03NES.jpg
167.536	0.514	Blank	Blank	57.339	n/a	2	5	9	n/a	89	n/a	1	n/a	n/a	n/a	n/a	196.818	n/a
168.067	0.497	neutral	Picture	56.825	n/a	2	5	10	n/a	90	15	1	n/a	n/a	n/a	n/a	197.348	AF25NES.jpg
168.564	0.514	Blank	Blank	56.311	n/a	2	5	10	n/a	90	n/a	1	n/a	n/a	n/a	n/a	197.845	n/a
169.095	0.497	neutral	Picture	55.797	n/a	2	5	11	n/a	91	19	1	n/a	n/a	n/a	n/a	198.376	AF31NES.jpg
169.592	0.514	Blank	Blank	55.283	n/a	2	5	11	n/a	91	n/a	1	n/a	n/a	n/a	n/a	198.873	n/a
170.123	0.497	neutral	Picture	54.769	n/a	2	5	12	n/a	92	9	1	n/a	n/a	n/a	n/a	199.404	AF17NES.jpg
170.62	0.514	Blank	Blank	54.255	n/a	2	5	12	n/a	92	n/a	1	n/a	n/a	n/a	n/a	199.901	n/a
171.15	0.497	neutral	Picture	53.741	n/a	2	5	13	n/a	93	14	1	n/a	n/a	n/a	n/a	200.432	AF23NES.jpg
171.648	0.514	Blank	Blank	53.227	n/a	2	5	13	n/a	93	n/a	1	n/a	n/a	n/a	n/a	200.929	n/a
172.178	0.497	neutral	Picture	52.713	n/a	2	5	14	n/a	94	36	1	n/a	n/a	n/a	n/a	201.46	BM24NES.jpg
172.676	0.514	Blank	Blank	52.199	n/a	2	5	14	n/a	94	n/a	1	n/a	n/a	n/a	n/a	201.957	n/a
173.206	0.497	neutral	Picture	51.685	n/a	2	5	15	n/a	95	34	1	n/a	n/a	n/a	n/a	202.488	AM22NES.jpg
173.704	0.514	Blank	Blank	51.172	n/a	2	5	15	n/a	95	n/a	1	n/a	n/a	n/a	n/a	202.985	n/a
174.234	0.497	neutral	Picture	50.658	n/a	2	5	16	n/a	96	10	1	n/a	n/a	n/a	n/a	203.515	AF18NES.jpg
174.731	0.514	Blank	Blank	50.144	n/a	2	5	16	n/a	96	n/a	1	n/a	n/a	n/a	n/a	204.013	n/a
175.262	0.497	neutral	Picture	49.63	n/a	2	5	17	n/a	97	5	1	n/a	n/a	n/a	n/a	204.543	BF07NES.jpg
175.759	0.514	Blank	Blank	49.116	n/a	2	5	17	n/a	97	n/a	1	n/a	n/a	n/a	n/a	205.041	n/a
176.29	0.497	neutral	Picture	48.602	n/a	2	5	18	n/a	98	25	1	n/a	n/a	n/a	n/a	205.571	BM06NES.jpg
176.787	0.514	Blank	Blank	48.088	n/a	2	5	18	n/a	98	n/a	1	n/a	n/a	n/a	n/a	206.069	n/a
177.318	0.497	neutral	Picture	47.574	n/a	2	5	19	n/a	99	39	1	n/a	n/a	n/a	n/a	206.599	AM28NES.jpg
177.815	0.514	Blank	Blank	47.06	n/a	2	5	19	n/a	99	n/a	1	n/a	n/a	n/a	n/a	207.096	n/a
178.346	0.497	neutral	Picture	46.546	n/a	2	5	20	n/a	100	33	1	n/a	n/a	n/a	n/a	207.627	AM21NES.jpg
178.843	0.514	Blank	Blank	46.032	n/a	2	5	20	n/a	100	n/a	1	n/a	n/a	n/a	n/a	208.124	n/a
179.373	10.014	ITI	Fixation+	36.002	n/a	2	n/a	n/a	n/a	n/a	n/a	n/a	n/a	n/a	n/a	n/a	208.655	n/a
189.404	0.497	happy	Picture	35.488	n/a	2	6	1	n/a	101	74	2	n/a	n/a	n/a	n/a	218.685	AM22HAS.jpg
189.901	0.514	Blank	Blank	34.974	n/a	2	6	1	n/a	101	n/a	2	n/a	n/a	n/a	n/a	219.182	n/a
190.431	0.497	happy	Picture	34.46	n/a	2	6	2	n/a	102	76	2	n/a	n/a	n/a	n/a	219.713	BM24HAS.jpg
190.929	0.514	Blank	Blank	33.946	n/a	2	6	2	n/a	102	n/a	2	n/a	n/a	n/a	n/a	220.21	n/a
191.459	0.497	happy	Picture	33.432	n/a	2	6	3	n/a	103	80	2	n/a	n/a	n/a	n/a	220.741	BM35HAS.jpg
191.957	0.514	Blank	Blank	32.918	n/a	2	6	3	n/a	103	n/a	2	n/a	n/a	n/a	n/a	221.238	n/a
192.487	0.497	happy	Picture	32.404	n/a	2	6	4	n/a	104	75	2	n/a	n/a	n/a	n/a	221.769	AM23HAS.jpg
192.985	0.514	Blank	Blank	31.89	n/a	2	6	4	n/a	104	n/a	2	n/a	n/a	n/a	n/a	222.266	n/a
193.515	0.497	happy	Picture	31.377	n/a	2	6	5	n/a	105	49	2	n/a	n/a	n/a	n/a	222.797	AF17HAS.jpg
194.012	0.514	Blank	Blank	30.863	n/a	2	6	5	n/a	105	n/a	2	n/a	n/a	n/a	n/a	223.294	n/a
194.543	0.497	happy	Picture	30.349	n/a	2	6	6	n/a	106	43	2	n/a	n/a	n/a	n/a	223.824	BF04HAS.jpg
195.04	0.514	Blank	Blank	29.835	n/a	2	6	6	n/a	106	n/a	2	n/a	n/a	n/a	n/a	224.322	n/a
195.571	0.497	happy	Picture	29.321	n/a	2	6	7	n/a	107	70	2	n/a	n/a	n/a	n/a	224.852	BM11HAS.jpg
196.068	0.514	Blank	Blank	28.807	n/a	2	6	7	n/a	107	n/a	2	n/a	n/a	n/a	n/a	225.35	n/a
196.599	0.497	happy	Picture	28.293	n/a	2	6	8	n/a	108	66	2	n/a	n/a	n/a	n/a	225.88	BM07HAS.jpg
197.096	0.514	Blank	Blank	27.779	n/a	2	6	8	n/a	108	n/a	2	n/a	n/a	n/a	n/a	226.377	n/a
197.627	0.497	happy	Picture	27.265	n/a	2	6	9	n/a	109	48	2	n/a	n/a	n/a	n/a	226.908	AF14HAS.jpg
198.124	0.514	Blank	Blank	26.751	n/a	2	6	9	n/a	109	n/a	2	n/a	n/a	n/a	n/a	227.405	n/a
198.655	0.497	happy	Picture	26.237	n/a	2	6	10	n/a	110	58	2	n/a	n/a	n/a	n/a	227.936	BF29HAS.jpg
199.152	0.514	Blank	Blank	25.723	n/a	2	6	10	n/a	110	n/a	2	n/a	n/a	n/a	n/a	228.433	n/a
199.683	0.497	happy	Picture	25.209	n/a	2	6	11	n/a	111	63	2	n/a	n/a	n/a	n/a	228.964	AM04HAS.jpg
200.18	0.514	Blank	Blank	24.695	n/a	2	6	11	n/a	111	n/a	2	n/a	n/a	n/a	n/a	229.461	n/a
200.71	0.497	happy	Picture	24.181	n/a	2	6	12	n/a	112	72	2	n/a	n/a	n/a	n/a	229.992	AM14HAS.jpg
201.208	0.514	Blank	Blank	23.667	n/a	2	6	12	n/a	112	n/a	2	n/a	n/a	n/a	n/a	230.489	n/a
201.738	0.497	happy	Picture	23.153	n/a	2	6	13	n/a	113	55	2	n/a	n/a	n/a	n/a	231.019	AF25HAS.jpg
202.236	0.514	Blank	Blank	22.64	n/a	2	6	13	n/a	113	n/a	2	n/a	n/a	n/a	n/a	231.517	n/a
202.766	0.497	happy	Picture	22.126	n/a	2	6	14	n/a	114	42	2	n/a	n/a	n/a	n/a	232.047	AF03HAS.jpg
203.264	0.514	Blank	Blank	21.612	n/a	2	6	14	n/a	114	n/a	2	n/a	n/a	n/a	n/a	232.545	n/a
203.794	0.497	happy	Picture	21.098	n/a	2	6	15	n/a	115	60	2	n/a	n/a	n/a	n/a	233.075	AF32HAS.jpg
204.291	0.514	Blank	Blank	20.584	n/a	2	6	15	n/a	115	n/a	2	n/a	n/a	n/a	n/a	233.573	n/a
204.822	0.497	happy	Picture	20.07	n/a	2	6	16	n/a	116	67	2	n/a	n/a	n/a	n/a	234.103	BM08HAS.jpg
205.319	0.514	Blank	Blank	19.556	n/a	2	6	16	n/a	116	n/a	2	n/a	n/a	n/a	n/a	234.601	n/a
205.85	0.497	happy	Picture	19.042	n/a	2	6	17	n/a	117	51	2	n/a	n/a	n/a	n/a	235.131	AF20HAS.jpg
206.347	0.514	Blank	Blank	18.528	n/a	2	6	17	n/a	117	n/a	2	n/a	n/a	n/a	n/a	235.628	n/a
206.878	0.497	happy	Picture	18.014	n/a	2	6	18	n/a	118	71	2	n/a	n/a	n/a	n/a	236.159	BM12HAS.jpg
207.375	0.514	Blank	Blank	17.5	n/a	2	6	18	n/a	118	n/a	2	n/a	n/a	n/a	n/a	236.656	n/a
207.906	0.497	happy	Picture	16.986	n/a	2	6	19	n/a	119	69	2	n/a	n/a	n/a	n/a	237.187	AM10HAS.jpg
208.403	0.514	Blank	Blank	16.472	n/a	2	6	19	n/a	119	n/a	2	n/a	n/a	n/a	n/a	237.684	n/a
208.933	0.497	happy	Picture	15.958	n/a	2	6	20	n/a	120	46	2	n/a	n/a	n/a	n/a	238.215	AF09HAS.jpg
209.431	0.514	Blank	Blank	15.444	n/a	2	6	20	n/a	120	n/a	2	n/a	n/a	n/a	n/a	238.712	n/a
209.961	10.014	ITI	Fixation+	5.414	n/a	2	n/a	n/a	n/a	n/a	n/a	n/a	n/a	n/a	n/a	n/a	239.243	n/a
225.389	n/a	ConfirmRating	Rate	n/a	5.405	2	n/a	n/a	0	n/a	n/a	n/a	2	Happy	61	51	254.67	n/a
230.287	n/a	ConfirmRating	Rate	n/a	4.874	2	n/a	n/a	1	n/a	n/a	n/a	3	Happy	38	49	259.568	n/a
230.303	15.004	Rest	Picture	n/a	n/a	n/a	n/a	n/a	n/a	n/a	n/a	n/a	0	n/a	0	0	259.585	n/a
245.324	10.014	ITI	Fixation+	95.945	n/a	3	n/a	n/a	n/a	n/a	n/a	n/a	n/a	n/a	n/a	n/a	274.605	n/a
255.354	0.497	angry	Picture	95.431	n/a	3	7	1	n/a	1	108	3	n/a	n/a	n/a	n/a	284.635	AM09ANS.jpg
255.851	0.514	Blank	Blank	94.918	n/a	3	7	1	n/a	1	n/a	3	n/a	n/a	n/a	n/a	285.133	n/a
256.382	0.497	angry	Picture	94.404	n/a	3	7	2	n/a	2	99	3	n/a	n/a	n/a	n/a	285.663	AF31ANS.jpg
256.879	0.514	Blank	Blank	93.89	n/a	3	7	2	n/a	2	n/a	3	n/a	n/a	n/a	n/a	286.161	n/a
257.41	0.497	angry	Picture	93.376	n/a	3	7	3	n/a	3	98	3	n/a	n/a	n/a	n/a	286.691	BF29ANS.jpg
257.907	0.514	Blank	Blank	92.862	n/a	3	7	3	n/a	3	n/a	3	n/a	n/a	n/a	n/a	287.188	n/a
258.438	0.497	angry	Picture	92.348	n/a	3	7	4	n/a	4	107	3	n/a	n/a	n/a	n/a	287.719	BM08ANS.jpg
258.935	0.514	Blank	Blank	91.834	n/a	3	7	4	n/a	4	n/a	3	n/a	n/a	n/a	n/a	288.216	n/a
259.465	0.497	angry	Picture	91.32	n/a	3	7	5	n/a	5	104	3	n/a	n/a	n/a	n/a	288.747	BM05ANS.jpg
259.963	0.514	Blank	Blank	90.806	n/a	3	7	5	n/a	5	n/a	3	n/a	n/a	n/a	n/a	289.244	n/a
260.493	0.497	angry	Picture	90.292	n/a	3	7	6	n/a	6	101	3	n/a	n/a	n/a	n/a	289.775	AM01ANS.jpg
260.991	0.514	Blank	Blank	89.778	n/a	3	7	6	n/a	6	n/a	3	n/a	n/a	n/a	n/a	290.272	n/a
261.521	0.497	angry	Picture	89.264	n/a	3	7	7	n/a	7	103	3	n/a	n/a	n/a	n/a	290.803	AM04ANS.jpg
262.019	0.514	Blank	Blank	88.75	n/a	3	7	7	n/a	7	n/a	3	n/a	n/a	n/a	n/a	291.3	n/a
262.549	0.497	angry	Picture	88.236	n/a	3	7	8	n/a	8	111	3	n/a	n/a	n/a	n/a	291.83	BM12ANS.jpg
263.046	0.514	Blank	Blank	87.722	n/a	3	7	8	n/a	8	n/a	3	n/a	n/a	n/a	n/a	292.328	n/a
263.577	0.497	angry	Picture	87.208	n/a	3	7	9	n/a	9	110	3	n/a	n/a	n/a	n/a	292.858	AM11ANS.jpg
264.074	0.514	Blank	Blank	86.694	n/a	3	7	9	n/a	9	n/a	3	n/a	n/a	n/a	n/a	293.356	n/a
264.605	0.497	angry	Picture	86.181	n/a	3	7	10	n/a	10	85	3	n/a	n/a	n/a	n/a	293.886	BF07ANS.jpg
265.102	0.514	Blank	Blank	85.666	n/a	3	7	10	n/a	10	n/a	3	n/a	n/a	n/a	n/a	294.384	n/a
265.633	0.497	angry	Picture	85.153	n/a	3	7	11	n/a	11	87	3	n/a	n/a	n/a	n/a	294.914	BF11ANS.jpg
266.13	0.514	Blank	Blank	84.639	n/a	3	7	11	n/a	11	n/a	3	n/a	n/a	n/a	n/a	295.411	n/a
266.661	0.497	angry	Picture	84.125	n/a	3	7	12	n/a	12	91	3	n/a	n/a	n/a	n/a	295.942	AF20ANS.jpg
267.158	0.514	Blank	Blank	83.611	n/a	3	7	12	n/a	12	n/a	3	n/a	n/a	n/a	n/a	296.439	n/a
267.689	0.497	angry	Picture	83.097	n/a	3	7	13	n/a	13	115	3	n/a	n/a	n/a	n/a	296.97	AM23ANS.jpg
268.186	0.514	Blank	Blank	82.583	n/a	3	7	13	n/a	13	n/a	3	n/a	n/a	n/a	n/a	297.467	n/a
268.716	0.497	angry	Picture	82.069	n/a	3	7	14	n/a	14	97	3	n/a	n/a	n/a	n/a	297.998	BF28ANS.jpg
269.214	0.514	Blank	Blank	81.555	n/a	3	7	14	n/a	14	n/a	3	n/a	n/a	n/a	n/a	298.495	n/a
269.744	0.497	angry	Picture	81.041	n/a	3	7	15	n/a	15	82	3	n/a	n/a	n/a	n/a	299.026	AF03ANS.jpg
270.242	0.514	Blank	Blank	80.527	n/a	3	7	15	n/a	15	n/a	3	n/a	n/a	n/a	n/a	299.523	n/a
270.772	0.497	angry	Picture	80.013	n/a	3	7	16	n/a	16	96	3	n/a	n/a	n/a	n/a	300.053	AF26ANS.jpg
271.269	0.514	Blank	Blank	79.499	n/a	3	7	16	n/a	16	n/a	3	n/a	n/a	n/a	n/a	300.551	n/a
271.8	0.497	angry	Picture	78.985	n/a	3	7	17	n/a	17	109	3	n/a	n/a	n/a	n/a	301.081	AM10ANS.jpg
272.297	0.514	Blank	Blank	78.471	n/a	3	7	17	n/a	17	n/a	3	n/a	n/a	n/a	n/a	301.579	n/a
272.828	0.497	angry	Picture	77.957	n/a	3	7	18	n/a	18	114	3	n/a	n/a	n/a	n/a	302.109	AM22ANS.jpg
273.325	0.514	Blank	Blank	77.444	n/a	3	7	18	n/a	18	n/a	3	n/a	n/a	n/a	n/a	302.607	n/a
273.856	0.497	angry	Picture	76.93	n/a	3	7	19	n/a	19	120	3	n/a	n/a	n/a	n/a	303.137	AM35ANS.jpg
274.353	0.514	Blank	Blank	76.416	n/a	3	7	19	n/a	19	n/a	3	n/a	n/a	n/a	n/a	303.635	n/a
274.884	0.497	angry	Picture	75.902	n/a	3	7	20	n/a	20	81	3	n/a	n/a	n/a	n/a	304.165	AF01ANS.jpg
275.381	0.514	Blank	Blank	75.388	n/a	3	7	20	n/a	20	n/a	3	n/a	n/a	n/a	n/a	304.662	n/a
275.912	10.014	ITI	Fixation+	65.358	n/a	3	n/a	n/a	n/a	n/a	n/a	n/a	n/a	n/a	n/a	n/a	305.193	n/a
285.942	0.497	neutral	Picture	64.844	n/a	3	8	1	n/a	21	28	1	n/a	n/a	n/a	n/a	315.223	AM09NES.jpg
286.439	0.514	Blank	Blank	64.33	n/a	3	8	1	n/a	21	n/a	1	n/a	n/a	n/a	n/a	315.72	n/a
286.97	0.497	neutral	Picture	63.816	n/a	3	8	2	n/a	22	27	1	n/a	n/a	n/a	n/a	316.251	BM08NES.jpg
287.467	0.514	Blank	Blank	63.302	n/a	3	8	2	n/a	22	n/a	1	n/a	n/a	n/a	n/a	316.748	n/a
287.998	0.497	neutral	Picture	62.788	n/a	3	8	3	n/a	23	16	1	n/a	n/a	n/a	n/a	317.279	AF26NES.jpg
288.495	0.514	Blank	Blank	62.274	n/a	3	8	3	n/a	23	n/a	1	n/a	n/a	n/a	n/a	317.776	n/a
289.025	0.497	neutral	Picture	61.76	n/a	3	8	4	n/a	24	3	1	n/a	n/a	n/a	n/a	318.307	BF04NES.jpg
289.523	0.514	Blank	Blank	61.246	n/a	3	8	4	n/a	24	n/a	1	n/a	n/a	n/a	n/a	318.804	n/a
290.053	0.497	neutral	Picture	60.732	n/a	3	8	5	n/a	25	32	1	n/a	n/a	n/a	n/a	319.334	AM14NES.jpg
290.551	0.514	Blank	Blank	60.218	n/a	3	8	5	n/a	25	n/a	1	n/a	n/a	n/a	n/a	319.832	n/a
291.081	0.497	neutral	Picture	59.704	n/a	3	8	6	n/a	26	37	1	n/a	n/a	n/a	n/a	320.362	BM25NES.jpg
291.579	0.514	Blank	Blank	59.19	n/a	3	8	6	n/a	26	n/a	1	n/a	n/a	n/a	n/a	320.86	n/a
292.109	0.497	neutral	Picture	58.676	n/a	3	8	7	n/a	27	15	1	n/a	n/a	n/a	n/a	321.39	AF25NES.jpg
292.606	0.514	Blank	Blank	58.162	n/a	3	8	7	n/a	27	n/a	1	n/a	n/a	n/a	n/a	321.888	n/a
293.137	0.497	neutral	Picture	57.649	n/a	3	8	8	n/a	28	23	1	n/a	n/a	n/a	n/a	322.418	AM04NES.jpg
293.634	0.514	Blank	Blank	57.135	n/a	3	8	8	n/a	28	n/a	1	n/a	n/a	n/a	n/a	322.916	n/a
294.165	0.497	neutral	Picture	56.621	n/a	3	8	9	n/a	29	34	1	n/a	n/a	n/a	n/a	323.446	AM22NES.jpg
294.662	0.514	Blank	Blank	56.107	n/a	3	8	9	n/a	29	n/a	1	n/a	n/a	n/a	n/a	323.943	n/a
295.193	0.497	neutral	Picture	55.593	n/a	3	8	10	n/a	30	24	1	n/a	n/a	n/a	n/a	324.474	BM05NES.jpg
295.69	0.514	Blank	Blank	55.079	n/a	3	8	10	n/a	30	n/a	1	n/a	n/a	n/a	n/a	324.971	n/a
296.221	0.497	neutral	Picture	54.565	n/a	3	8	11	n/a	31	12	1	n/a	n/a	n/a	n/a	325.502	AF21NES.jpg
296.718	0.514	Blank	Blank	54.051	n/a	3	8	11	n/a	31	n/a	1	n/a	n/a	n/a	n/a	325.999	n/a
297.248	0.497	neutral	Picture	53.537	n/a	3	8	12	n/a	32	6	1	n/a	n/a	n/a	n/a	326.53	AF09NES.jpg
297.746	0.514	Blank	Blank	53.023	n/a	3	8	12	n/a	32	n/a	1	n/a	n/a	n/a	n/a	327.027	n/a
298.276	0.497	neutral	Picture	52.509	n/a	3	8	13	n/a	33	17	1	n/a	n/a	n/a	n/a	327.558	BF28NES.jpg
298.774	0.514	Blank	Blank	51.995	n/a	3	8	13	n/a	33	n/a	1	n/a	n/a	n/a	n/a	328.055	n/a
299.304	0.497	neutral	Picture	51.481	n/a	3	8	14	n/a	34	2	1	n/a	n/a	n/a	n/a	328.586	AF03NES.jpg
299.802	0.514	Blank	Blank	50.967	n/a	3	8	14	n/a	34	n/a	1	n/a	n/a	n/a	n/a	329.083	n/a
300.332	0.497	neutral	Picture	50.453	n/a	3	8	15	n/a	35	9	1	n/a	n/a	n/a	n/a	329.613	AF17NES.jpg
300.829	0.514	Blank	Blank	49.939	n/a	3	8	15	n/a	35	n/a	1	n/a	n/a	n/a	n/a	330.111	n/a
301.36	0.497	neutral	Picture	49.425	n/a	3	8	16	n/a	36	25	1	n/a	n/a	n/a	n/a	330.641	BM06NES.jpg
301.857	0.514	Blank	Blank	48.912	n/a	3	8	16	n/a	36	n/a	1	n/a	n/a	n/a	n/a	331.139	n/a
302.388	0.497	neutral	Picture	48.397	n/a	3	8	17	n/a	37	8	1	n/a	n/a	n/a	n/a	331.669	AF14NES.jpg
302.885	0.514	Blank	Blank	47.884	n/a	3	8	17	n/a	37	n/a	1	n/a	n/a	n/a	n/a	332.166	n/a
303.416	0.497	neutral	Picture	47.37	n/a	3	8	18	n/a	38	19	1	n/a	n/a	n/a	n/a	332.697	AF31NES.jpg
303.913	0.514	Blank	Blank	46.856	n/a	3	8	18	n/a	38	n/a	1	n/a	n/a	n/a	n/a	333.194	n/a
304.444	0.497	neutral	Picture	46.342	n/a	3	8	19	n/a	39	14	1	n/a	n/a	n/a	n/a	333.725	AF23NES.jpg
304.941	0.514	Blank	Blank	45.828	n/a	3	8	19	n/a	39	n/a	1	n/a	n/a	n/a	n/a	334.222	n/a
305.471	0.497	neutral	Picture	45.314	n/a	3	8	20	n/a	40	4	1	n/a	n/a	n/a	n/a	334.753	AF05NES.jpg
305.969	0.514	Blank	Blank	44.8	n/a	3	8	20	n/a	40	n/a	1	n/a	n/a	n/a	n/a	335.25	n/a
306.499	10.014	ITI	Fixation+	34.77	n/a	3	n/a	n/a	n/a	n/a	n/a	n/a	n/a	n/a	n/a	n/a	335.781	n/a
316.529	0.497	angry	Picture	34.256	n/a	3	9	1	n/a	41	84	3	n/a	n/a	n/a	n/a	345.811	AF05ANS.jpg
317.027	0.514	Blank	Blank	33.742	n/a	3	9	1	n/a	41	n/a	3	n/a	n/a	n/a	n/a	346.308	n/a
317.557	0.497	angry	Picture	33.228	n/a	3	9	2	n/a	42	92	3	n/a	n/a	n/a	n/a	346.839	AF21ANS.jpg
318.055	0.514	Blank	Blank	32.714	n/a	3	9	2	n/a	42	n/a	3	n/a	n/a	n/a	n/a	347.336	n/a
318.585	0.497	angry	Picture	32.2	n/a	3	9	3	n/a	43	86	3	n/a	n/a	n/a	n/a	347.867	AF09ANS.jpg
319.083	0.514	Blank	Blank	31.686	n/a	3	9	3	n/a	43	n/a	3	n/a	n/a	n/a	n/a	348.364	n/a
319.613	0.497	angry	Picture	31.172	n/a	3	9	4	n/a	44	93	3	n/a	n/a	n/a	n/a	348.894	BF22ANS.jpg
320.111	0.514	Blank	Blank	30.658	n/a	3	9	4	n/a	44	n/a	3	n/a	n/a	n/a	n/a	349.392	n/a
320.641	0.497	angry	Picture	30.144	n/a	3	9	5	n/a	45	88	3	n/a	n/a	n/a	n/a	349.922	AF14ANS.jpg
321.138	0.514	Blank	Blank	29.63	n/a	3	9	5	n/a	45	n/a	3	n/a	n/a	n/a	n/a	350.42	n/a
321.669	0.497	angry	Picture	29.116	n/a	3	9	6	n/a	46	113	3	n/a	n/a	n/a	n/a	350.95	AM21ANS.jpg
322.166	0.514	Blank	Blank	28.603	n/a	3	9	6	n/a	46	n/a	3	n/a	n/a	n/a	n/a	351.448	n/a
322.697	0.497	angry	Picture	28.089	n/a	3	9	7	n/a	47	95	3	n/a	n/a	n/a	n/a	351.978	AF25ANS.jpg
323.194	0.514	Blank	Blank	27.575	n/a	3	9	7	n/a	47	n/a	3	n/a	n/a	n/a	n/a	352.476	n/a
323.725	0.497	angry	Picture	27.061	n/a	3	9	8	n/a	48	102	3	n/a	n/a	n/a	n/a	353.006	BM03ANS.jpg
324.222	0.514	Blank	Blank	26.547	n/a	3	9	8	n/a	48	n/a	3	n/a	n/a	n/a	n/a	353.503	n/a
324.753	0.497	angry	Picture	26.033	n/a	3	9	9	n/a	49	112	3	n/a	n/a	n/a	n/a	354.034	AM14ANS.jpg
325.25	0.514	Blank	Blank	25.519	n/a	3	9	9	n/a	49	n/a	3	n/a	n/a	n/a	n/a	354.531	n/a
325.78	0.497	angry	Picture	25.005	n/a	3	9	10	n/a	50	83	3	n/a	n/a	n/a	n/a	355.062	BF04ANS.jpg
326.278	0.514	Blank	Blank	24.491	n/a	3	9	10	n/a	50	n/a	3	n/a	n/a	n/a	n/a	355.559	n/a
326.808	0.497	angry	Picture	23.977	n/a	3	9	11	n/a	51	90	3	n/a	n/a	n/a	n/a	356.09	AF18ANS.jpg
327.306	0.514	Blank	Blank	23.463	n/a	3	9	11	n/a	51	n/a	3	n/a	n/a	n/a	n/a	356.587	n/a
327.836	0.497	angry	Picture	22.949	n/a	3	9	12	n/a	52	117	3	n/a	n/a	n/a	n/a	357.118	BM25ANS.jpg
328.334	0.514	Blank	Blank	22.435	n/a	3	9	12	n/a	52	n/a	3	n/a	n/a	n/a	n/a	357.615	n/a
328.864	0.497	angry	Picture	21.921	n/a	3	9	13	n/a	53	94	3	n/a	n/a	n/a	n/a	358.145	AF23ANS.jpg
329.361	0.514	Blank	Blank	21.407	n/a	3	9	13	n/a	53	n/a	3	n/a	n/a	n/a	n/a	358.643	n/a
329.892	0.497	angry	Picture	20.893	n/a	3	9	14	n/a	54	106	3	n/a	n/a	n/a	n/a	359.173	AM07ANS.jpg
330.389	0.514	Blank	Blank	20.379	n/a	3	9	14	n/a	54	n/a	3	n/a	n/a	n/a	n/a	359.671	n/a
330.92	0.497	angry	Picture	19.865	n/a	3	9	15	n/a	55	105	3	n/a	n/a	n/a	n/a	360.201	BM06ANS.jpg
331.417	0.514	Blank	Blank	19.351	n/a	3	9	15	n/a	55	n/a	3	n/a	n/a	n/a	n/a	360.699	n/a
331.948	0.497	angry	Picture	18.838	n/a	3	9	16	n/a	56	116	3	n/a	n/a	n/a	n/a	361.229	BM24ANS.jpg
332.445	0.514	Blank	Blank	18.324	n/a	3	9	16	n/a	56	n/a	3	n/a	n/a	n/a	n/a	361.726	n/a
332.976	0.497	angry	Picture	17.81	n/a	3	9	17	n/a	57	89	3	n/a	n/a	n/a	n/a	362.257	AF17ANS.jpg
333.473	0.514	Blank	Blank	17.296	n/a	3	9	17	n/a	57	n/a	3	n/a	n/a	n/a	n/a	362.754	n/a
334.004	0.497	angry	Picture	16.782	n/a	3	9	18	n/a	58	118	3	n/a	n/a	n/a	n/a	363.285	BM26ANS.jpg
334.501	0.514	Blank	Blank	16.268	n/a	3	9	18	n/a	58	n/a	3	n/a	n/a	n/a	n/a	363.782	n/a
335.031	0.497	angry	Picture	15.754	n/a	3	9	19	n/a	59	100	3	n/a	n/a	n/a	n/a	364.313	AF32ANS.jpg
335.529	0.514	Blank	Blank	15.24	n/a	3	9	19	n/a	59	n/a	3	n/a	n/a	n/a	n/a	364.81	n/a
336.059	0.497	angry	Picture	14.726	n/a	3	9	20	n/a	60	119	3	n/a	n/a	n/a	n/a	365.341	BM28ANS.jpg
336.557	0.514	Blank	Blank	14.212	n/a	3	9	20	n/a	60	n/a	3	n/a	n/a	n/a	n/a	365.838	n/a
337.087	10.014	ITI	Fixation+	4.182	n/a	3	n/a	n/a	n/a	n/a	n/a	n/a	n/a	n/a	n/a	n/a	366.368	n/a
351.283	n/a	ConfirmRating	Rate	n/a	4.178	3	n/a	n/a	0	n/a	n/a	n/a	2	Angry	29	49	380.564	n/a
355.782	n/a	ConfirmRating	Rate	n/a	4.476	3	n/a	n/a	1	n/a	n/a	n/a	3	Angry	65	51	385.063	n/a
355.805	10.014	ITI	Fixation+	96.854	n/a	4	n/a	n/a	n/a	n/a	n/a	n/a	n/a	n/a	n/a	n/a	385.086	n/a
365.835	0.497	happy	Picture	96.34	n/a	4	10	1	n/a	61	79	2	n/a	n/a	n/a	n/a	395.116	BM28HAS.jpg
366.332	0.514	Blank	Blank	95.827	n/a	4	10	1	n/a	61	n/a	2	n/a	n/a	n/a	n/a	395.613	n/a
366.863	0.497	happy	Picture	95.313	n/a	4	10	2	n/a	62	61	2	n/a	n/a	n/a	n/a	396.144	AM01HAS.jpg
367.36	0.514	Blank	Blank	94.799	n/a	4	10	2	n/a	62	n/a	2	n/a	n/a	n/a	n/a	396.641	n/a
367.891	0.497	happy	Picture	94.285	n/a	4	10	3	n/a	63	57	2	n/a	n/a	n/a	n/a	397.172	BF28HAS.jpg
368.388	0.514	Blank	Blank	93.771	n/a	4	10	3	n/a	63	n/a	2	n/a	n/a	n/a	n/a	397.669	n/a
368.918	0.497	happy	Picture	93.257	n/a	4	10	4	n/a	64	77	2	n/a	n/a	n/a	n/a	398.2	BM25HAS.jpg
369.416	0.514	Blank	Blank	92.743	n/a	4	10	4	n/a	64	n/a	2	n/a	n/a	n/a	n/a	398.697	n/a
369.946	0.497	happy	Picture	92.229	n/a	4	10	5	n/a	65	47	2	n/a	n/a	n/a	n/a	399.228	BF11HAS.jpg
370.444	0.514	Blank	Blank	91.715	n/a	4	10	5	n/a	65	n/a	2	n/a	n/a	n/a	n/a	399.725	n/a
370.974	0.497	happy	Picture	91.201	n/a	4	10	6	n/a	66	50	2	n/a	n/a	n/a	n/a	400.255	AF18HAS.jpg
371.471	0.514	Blank	Blank	90.687	n/a	4	10	6	n/a	66	n/a	2	n/a	n/a	n/a	n/a	400.753	n/a
372.002	0.497	happy	Picture	90.173	n/a	4	10	7	n/a	67	78	2	n/a	n/a	n/a	n/a	401.283	BM26HAS.jpg
372.499	0.514	Blank	Blank	89.659	n/a	4	10	7	n/a	67	n/a	2	n/a	n/a	n/a	n/a	401.781	n/a
373.03	0.497	happy	Picture	89.145	n/a	4	10	8	n/a	68	45	2	n/a	n/a	n/a	n/a	402.311	BF07HAS.jpg
373.527	0.514	Blank	Blank	88.631	n/a	4	10	8	n/a	68	n/a	2	n/a	n/a	n/a	n/a	402.808	n/a
374.058	0.497	happy	Picture	88.118	n/a	4	10	9	n/a	69	56	2	n/a	n/a	n/a	n/a	403.339	AF26HAS.jpg
374.555	0.514	Blank	Blank	87.603	n/a	4	10	9	n/a	69	n/a	2	n/a	n/a	n/a	n/a	403.836	n/a
375.086	0.497	happy	Picture	87.09	n/a	4	10	10	n/a	70	65	2	n/a	n/a	n/a	n/a	404.367	BM06HAS.jpg
375.583	0.514	Blank	Blank	86.576	n/a	4	10	10	n/a	70	n/a	2	n/a	n/a	n/a	n/a	404.864	n/a
376.113	0.497	happy	Picture	86.062	n/a	4	10	11	n/a	71	73	2	n/a	n/a	n/a	n/a	405.395	AM21HAS.jpg
376.611	0.514	Blank	Blank	85.548	n/a	4	10	11	n/a	71	n/a	2	n/a	n/a	n/a	n/a	405.892	n/a
377.141	0.497	happy	Picture	85.034	n/a	4	10	12	n/a	72	41	2	n/a	n/a	n/a	n/a	406.423	AF01HAS.jpg
377.639	0.514	Blank	Blank	84.52	n/a	4	10	12	n/a	72	n/a	2	n/a	n/a	n/a	n/a	406.92	n/a
378.169	0.497	happy	Picture	84.006	n/a	4	10	13	n/a	73	59	2	n/a	n/a	n/a	n/a	407.451	AF31HAS.jpg
378.667	0.514	Blank	Blank	83.492	n/a	4	10	13	n/a	73	n/a	2	n/a	n/a	n/a	n/a	407.948	n/a
379.197	0.497	happy	Picture	82.978	n/a	4	10	14	n/a	74	64	2	n/a	n/a	n/a	n/a	408.478	BM05HAS.jpg
379.695	0.514	Blank	Blank	82.464	n/a	4	10	14	n/a	74	n/a	2	n/a	n/a	n/a	n/a	408.976	n/a
380.225	0.497	happy	Picture	81.95	n/a	4	10	15	n/a	75	68	2	n/a	n/a	n/a	n/a	409.506	AM09HAS.jpg
380.722	0.514	Blank	Blank	81.436	n/a	4	10	15	n/a	75	n/a	2	n/a	n/a	n/a	n/a	410.004	n/a
381.253	0.497	happy	Picture	80.922	n/a	4	10	16	n/a	76	54	2	n/a	n/a	n/a	n/a	410.534	AF23HAS.jpg
381.75	0.514	Blank	Blank	80.408	n/a	4	10	16	n/a	76	n/a	2	n/a	n/a	n/a	n/a	411.032	n/a
382.281	0.497	happy	Picture	79.894	n/a	4	10	17	n/a	77	53	2	n/a	n/a	n/a	n/a	411.562	BF22HAS.jpg
382.778	0.514	Blank	Blank	79.38	n/a	4	10	17	n/a	77	n/a	2	n/a	n/a	n/a	n/a	412.06	n/a
383.309	0.497	happy	Picture	78.866	n/a	4	10	18	n/a	78	44	2	n/a	n/a	n/a	n/a	412.59	AF05HAS.jpg
383.806	0.514	Blank	Blank	78.353	n/a	4	10	18	n/a	78	n/a	2	n/a	n/a	n/a	n/a	413.087	n/a
384.337	0.497	happy	Picture	77.839	n/a	4	10	19	n/a	79	52	2	n/a	n/a	n/a	n/a	413.618	AF21HAS.jpg
384.834	0.514	Blank	Blank	77.325	n/a	4	10	19	n/a	79	n/a	2	n/a	n/a	n/a	n/a	414.115	n/a
385.365	0.497	happy	Picture	76.811	n/a	4	10	20	n/a	80	62	2	n/a	n/a	n/a	n/a	414.646	BM03HAS.jpg
385.862	0.514	Blank	Blank	76.297	n/a	4	10	20	n/a	80	n/a	2	n/a	n/a	n/a	n/a	415.143	n/a
386.392	10.014	ITI	Fixation+	66.267	n/a	4	n/a	n/a	n/a	n/a	n/a	n/a	n/a	n/a	n/a	n/a	415.674	n/a
396.423	0.497	neutral	Picture	65.753	n/a	4	11	1	n/a	81	23	1	n/a	n/a	n/a	n/a	425.704	AM04NES.jpg
396.92	0.514	Blank	Blank	65.239	n/a	4	11	1	n/a	81	n/a	1	n/a	n/a	n/a	n/a	426.201	n/a
397.45	0.497	neutral	Picture	64.725	n/a	4	11	2	n/a	82	29	1	n/a	n/a	n/a	n/a	426.732	AM10NES.jpg
397.948	0.514	Blank	Blank	64.211	n/a	4	11	2	n/a	82	n/a	1	n/a	n/a	n/a	n/a	427.229	n/a
398.478	0.497	neutral	Picture	63.697	n/a	4	11	3	n/a	83	24	1	n/a	n/a	n/a	n/a	427.76	BM05NES.jpg
398.976	0.514	Blank	Blank	63.183	n/a	4	11	3	n/a	83	n/a	1	n/a	n/a	n/a	n/a	428.257	n/a
399.506	0.497	neutral	Picture	62.669	n/a	4	11	4	n/a	84	12	1	n/a	n/a	n/a	n/a	428.787	AF21NES.jpg
400.004	0.514	Blank	Blank	62.155	n/a	4	11	4	n/a	84	n/a	1	n/a	n/a	n/a	n/a	429.285	n/a
400.534	0.497	neutral	Picture	61.641	n/a	4	11	5	n/a	85	13	1	n/a	n/a	n/a	n/a	429.815	BF22NES.jpg
401.031	0.514	Blank	Blank	61.127	n/a	4	11	5	n/a	85	n/a	1	n/a	n/a	n/a	n/a	430.313	n/a
401.562	0.497	neutral	Picture	60.613	n/a	4	11	6	n/a	86	17	1	n/a	n/a	n/a	n/a	430.843	BF28NES.jpg
402.059	0.514	Blank	Blank	60.099	n/a	4	11	6	n/a	86	n/a	1	n/a	n/a	n/a	n/a	431.341	n/a
402.59	0.497	neutral	Picture	59.585	n/a	4	11	7	n/a	87	4	1	n/a	n/a	n/a	n/a	431.871	AF05NES.jpg
403.087	0.514	Blank	Blank	59.071	n/a	4	11	7	n/a	87	n/a	1	n/a	n/a	n/a	n/a	432.368	n/a
403.618	0.497	neutral	Picture	58.558	n/a	4	11	8	n/a	88	11	1	n/a	n/a	n/a	n/a	432.899	AF20NES.jpg
404.115	0.514	Blank	Blank	58.044	n/a	4	11	8	n/a	88	n/a	1	n/a	n/a	n/a	n/a	433.396	n/a
404.646	0.497	neutral	Picture	57.53	n/a	4	11	9	n/a	89	22	1	n/a	n/a	n/a	n/a	433.927	BM03NES.jpg
405.143	0.514	Blank	Blank	57.016	n/a	4	11	9	n/a	89	n/a	1	n/a	n/a	n/a	n/a	434.424	n/a
405.673	0.497	neutral	Picture	56.502	n/a	4	11	10	n/a	90	15	1	n/a	n/a	n/a	n/a	434.955	AF25NES.jpg
406.171	0.514	Blank	Blank	55.988	n/a	4	11	10	n/a	90	n/a	1	n/a	n/a	n/a	n/a	435.452	n/a
406.701	0.497	neutral	Picture	55.474	n/a	4	11	11	n/a	91	19	1	n/a	n/a	n/a	n/a	435.983	AF31NES.jpg
407.199	0.514	Blank	Blank	54.96	n/a	4	11	11	n/a	91	n/a	1	n/a	n/a	n/a	n/a	436.48	n/a
407.729	0.497	neutral	Picture	54.446	n/a	4	11	12	n/a	92	9	1	n/a	n/a	n/a	n/a	437.01	AF17NES.jpg
408.227	0.514	Blank	Blank	53.932	n/a	4	11	12	n/a	92	n/a	1	n/a	n/a	n/a	n/a	437.508	n/a
408.757	0.497	neutral	Picture	53.418	n/a	4	11	13	n/a	93	14	1	n/a	n/a	n/a	n/a	438.038	AF23NES.jpg
409.254	0.514	Blank	Blank	52.904	n/a	4	11	13	n/a	93	n/a	1	n/a	n/a	n/a	n/a	438.536	n/a
409.785	0.497	neutral	Picture	52.39	n/a	4	11	14	n/a	94	36	1	n/a	n/a	n/a	n/a	439.066	BM24NES.jpg
410.282	0.514	Blank	Blank	51.876	n/a	4	11	14	n/a	94	n/a	1	n/a	n/a	n/a	n/a	439.564	n/a
410.813	0.497	neutral	Picture	51.362	n/a	4	11	15	n/a	95	34	1	n/a	n/a	n/a	n/a	440.094	AM22NES.jpg
411.31	0.514	Blank	Blank	50.849	n/a	4	11	15	n/a	95	n/a	1	n/a	n/a	n/a	n/a	440.591	n/a
411.841	0.497	neutral	Picture	50.334	n/a	4	11	16	n/a	96	10	1	n/a	n/a	n/a	n/a	441.122	AF18NES.jpg
412.338	0.514	Blank	Blank	49.821	n/a	4	11	16	n/a	96	n/a	1	n/a	n/a	n/a	n/a	441.619	n/a
412.869	0.497	neutral	Picture	49.307	n/a	4	11	17	n/a	97	5	1	n/a	n/a	n/a	n/a	442.15	BF07NES.jpg
413.366	0.514	Blank	Blank	48.793	n/a	4	11	17	n/a	97	n/a	1	n/a	n/a	n/a	n/a	442.647	n/a
413.897	0.497	neutral	Picture	48.279	n/a	4	11	18	n/a	98	25	1	n/a	n/a	n/a	n/a	443.178	BM06NES.jpg
414.394	0.514	Blank	Blank	47.765	n/a	4	11	18	n/a	98	n/a	1	n/a	n/a	n/a	n/a	443.675	n/a
414.924	0.497	neutral	Picture	47.251	n/a	4	11	19	n/a	99	39	1	n/a	n/a	n/a	n/a	444.206	AM28NES.jpg
415.422	0.514	Blank	Blank	46.737	n/a	4	11	19	n/a	99	n/a	1	n/a	n/a	n/a	n/a	444.703	n/a
415.952	0.497	neutral	Picture	46.223	n/a	4	11	20	n/a	100	33	1	n/a	n/a	n/a	n/a	445.234	AM21NES.jpg
416.45	0.514	Blank	Blank	45.709	n/a	4	11	20	n/a	100	n/a	1	n/a	n/a	n/a	n/a	445.731	n/a
416.98	10.014	ITI	Fixation+	35.679	n/a	4	n/a	n/a	n/a	n/a	n/a	n/a	n/a	n/a	n/a	n/a	446.261	n/a
427.01	0.497	happy	Picture	35.165	n/a	4	12	1	n/a	101	74	2	n/a	n/a	n/a	n/a	456.292	AM22HAS.jpg
427.508	0.514	Blank	Blank	34.651	n/a	4	12	1	n/a	101	n/a	2	n/a	n/a	n/a	n/a	456.789	n/a
428.038	0.497	happy	Picture	34.137	n/a	4	12	2	n/a	102	76	2	n/a	n/a	n/a	n/a	457.32	BM24HAS.jpg
428.536	0.514	Blank	Blank	33.623	n/a	4	12	2	n/a	102	n/a	2	n/a	n/a	n/a	n/a	457.817	n/a
429.066	0.497	happy	Picture	33.109	n/a	4	12	3	n/a	103	80	2	n/a	n/a	n/a	n/a	458.347	BM35HAS.jpg
429.563	0.514	Blank	Blank	32.595	n/a	4	12	3	n/a	103	n/a	2	n/a	n/a	n/a	n/a	458.845	n/a
430.094	0.497	happy	Picture	32.081	n/a	4	12	4	n/a	104	75	2	n/a	n/a	n/a	n/a	459.375	AM23HAS.jpg
430.591	0.514	Blank	Blank	31.567	n/a	4	12	4	n/a	104	n/a	2	n/a	n/a	n/a	n/a	459.873	n/a
431.122	0.497	happy	Picture	31.053	n/a	4	12	5	n/a	105	49	2	n/a	n/a	n/a	n/a	460.403	AF17HAS.jpg
431.619	0.514	Blank	Blank	30.539	n/a	4	12	5	n/a	105	n/a	2	n/a	n/a	n/a	n/a	460.901	n/a
432.15	0.497	happy	Picture	30.025	n/a	4	12	6	n/a	106	43	2	n/a	n/a	n/a	n/a	461.431	BF04HAS.jpg
432.647	0.514	Blank	Blank	29.512	n/a	4	12	6	n/a	106	n/a	2	n/a	n/a	n/a	n/a	461.928	n/a
433.178	0.497	happy	Picture	28.998	n/a	4	12	7	n/a	107	70	2	n/a	n/a	n/a	n/a	462.459	BM11HAS.jpg
433.675	0.514	Blank	Blank	28.484	n/a	4	12	7	n/a	107	n/a	2	n/a	n/a	n/a	n/a	462.956	n/a
434.206	0.497	happy	Picture	27.97	n/a	4	12	8	n/a	108	66	2	n/a	n/a	n/a	n/a	463.487	BM07HAS.jpg
434.703	0.514	Blank	Blank	27.456	n/a	4	12	8	n/a	108	n/a	2	n/a	n/a	n/a	n/a	463.984	n/a
435.233	0.497	happy	Picture	26.942	n/a	4	12	9	n/a	109	48	2	n/a	n/a	n/a	n/a	464.515	AF14HAS.jpg
435.731	0.514	Blank	Blank	26.428	n/a	4	12	9	n/a	109	n/a	2	n/a	n/a	n/a	n/a	465.012	n/a
436.261	0.497	happy	Picture	25.914	n/a	4	12	10	n/a	110	58	2	n/a	n/a	n/a	n/a	465.543	BF29HAS.jpg
436.759	0.514	Blank	Blank	25.4	n/a	4	12	10	n/a	110	n/a	2	n/a	n/a	n/a	n/a	466.04	n/a
437.289	0.497	happy	Picture	24.886	n/a	4	12	11	n/a	111	63	2	n/a	n/a	n/a	n/a	466.57	AM04HAS.jpg
437.786	0.514	Blank	Blank	24.372	n/a	4	12	11	n/a	111	n/a	2	n/a	n/a	n/a	n/a	467.068	n/a
438.317	0.497	happy	Picture	23.858	n/a	4	12	12	n/a	112	72	2	n/a	n/a	n/a	n/a	467.598	AM14HAS.jpg
438.814	0.514	Blank	Blank	23.344	n/a	4	12	12	n/a	112	n/a	2	n/a	n/a	n/a	n/a	468.096	n/a
439.345	0.497	happy	Picture	22.83	n/a	4	12	13	n/a	113	55	2	n/a	n/a	n/a	n/a	468.626	AF25HAS.jpg
439.842	0.514	Blank	Blank	22.316	n/a	4	12	13	n/a	113	n/a	2	n/a	n/a	n/a	n/a	469.123	n/a
440.373	0.497	happy	Picture	21.802	n/a	4	12	14	n/a	114	42	2	n/a	n/a	n/a	n/a	469.654	AF03HAS.jpg
440.87	0.514	Blank	Blank	21.288	n/a	4	12	14	n/a	114	n/a	2	n/a	n/a	n/a	n/a	470.151	n/a
441.401	0.497	happy	Picture	20.775	n/a	4	12	15	n/a	115	60	2	n/a	n/a	n/a	n/a	470.682	AF32HAS.jpg
441.898	0.514	Blank	Blank	20.261	n/a	4	12	15	n/a	115	n/a	2	n/a	n/a	n/a	n/a	471.179	n/a
442.428	0.497	happy	Picture	19.747	n/a	4	12	16	n/a	116	67	2	n/a	n/a	n/a	n/a	471.71	BM08HAS.jpg
442.926	0.514	Blank	Blank	19.233	n/a	4	12	16	n/a	116	n/a	2	n/a	n/a	n/a	n/a	472.207	n/a
443.456	0.497	happy	Picture	18.719	n/a	4	12	17	n/a	117	51	2	n/a	n/a	n/a	n/a	472.738	AF20HAS.jpg
443.954	0.514	Blank	Blank	18.205	n/a	4	12	17	n/a	117	n/a	2	n/a	n/a	n/a	n/a	473.235	n/a
444.484	0.497	happy	Picture	17.691	n/a	4	12	18	n/a	118	71	2	n/a	n/a	n/a	n/a	473.766	BM12HAS.jpg
444.982	0.514	Blank	Blank	17.177	n/a	4	12	18	n/a	118	n/a	2	n/a	n/a	n/a	n/a	474.263	n/a
445.512	0.497	happy	Picture	16.663	n/a	4	12	19	n/a	119	69	2	n/a	n/a	n/a	n/a	474.793	AM10HAS.jpg
446.01	0.514	Blank	Blank	16.149	n/a	4	12	19	n/a	119	n/a	2	n/a	n/a	n/a	n/a	475.291	n/a
446.54	0.497	happy	Picture	15.635	n/a	4	12	20	n/a	120	46	2	n/a	n/a	n/a	n/a	475.821	AF09HAS.jpg
447.037	0.514	Blank	Blank	15.121	n/a	4	12	20	n/a	120	n/a	2	n/a	n/a	n/a	n/a	476.319	n/a
447.568	10.014	ITI	Fixation+	5.091	n/a	4	n/a	n/a	n/a	n/a	n/a	n/a	n/a	n/a	n/a	n/a	476.849	n/a
462.673	n/a	ConfirmRating	Rate	n/a	5.09	4	n/a	n/a	0	n/a	n/a	n/a	2	Happy	70	51	491.954	n/a
465.921	n/a	ConfirmRating	Rate	n/a	3.216	4	n/a	n/a	1	n/a	n/a	n/a	3	Happy	40	49	495.202	n/a
