onset	duration	trial_type	event_type	time_until_response	response_time	trial_number	block_num_within_trial	image_seq_num_within_block	question_seq_num_within_block	image_seq_num	picture_number	condition	question_type	block_type	rating	rating_computed	onset_uncorrected	KDEV_imagefile
0.016	10.014	ITI	Fixation+	96.759	n/a	1	n/a	n/a	n/a	n/a	n/a	n/a	n/a	n/a	n/a	n/a	70.288	n/a
10.046	0.497	happy	Picture	96.245	n/a	1	1	1	n/a	1	108	3	n/a	n/a	n/a	n/a	80.318	AM09ANS.jpg
10.543	0.514	Blank	Blank	95.732	n/a	1	1	1	n/a	1	n/a	3	n/a	n/a	n/a	n/a	80.816	n/a
11.074	0.497	happy	Picture	95.218	n/a	1	1	2	n/a	2	99	3	n/a	n/a	n/a	n/a	81.346	AF31ANS.jpg
11.571	0.514	Blank	Blank	94.704	n/a	1	1	2	n/a	2	n/a	3	n/a	n/a	n/a	n/a	81.844	n/a
12.102	0.497	happy	Picture	94.19	n/a	1	1	3	n/a	3	98	3	n/a	n/a	n/a	n/a	82.374	BF29ANS.jpg
12.599	0.514	Blank	Blank	93.676	n/a	1	1	3	n/a	3	n/a	3	n/a	n/a	n/a	n/a	82.871	n/a
13.129	0.497	happy	Picture	93.162	n/a	1	1	4	n/a	4	107	3	n/a	n/a	n/a	n/a	83.402	BM08ANS.jpg
13.627	0.514	Blank	Blank	92.648	n/a	1	1	4	n/a	4	n/a	3	n/a	n/a	n/a	n/a	83.899	n/a
14.157	0.497	happy	Picture	92.134	n/a	1	1	5	n/a	5	104	3	n/a	n/a	n/a	n/a	84.43	BM05ANS.jpg
14.655	0.514	Blank	Blank	91.62	n/a	1	1	5	n/a	5	n/a	3	n/a	n/a	n/a	n/a	84.927	n/a
15.185	0.497	happy	Picture	91.106	n/a	1	1	6	n/a	6	101	3	n/a	n/a	n/a	n/a	85.458	AM01ANS.jpg
15.683	0.514	Blank	Blank	90.592	n/a	1	1	6	n/a	6	n/a	3	n/a	n/a	n/a	n/a	85.955	n/a
16.213	0.497	happy	Picture	90.078	n/a	1	1	7	n/a	7	103	3	n/a	n/a	n/a	n/a	86.486	AM04ANS.jpg
16.71	0.514	Blank	Blank	89.564	n/a	1	1	7	n/a	7	n/a	3	n/a	n/a	n/a	n/a	86.983	n/a
17.241	0.497	happy	Picture	89.05	n/a	1	1	8	n/a	8	111	3	n/a	n/a	n/a	n/a	87.514	BM12ANS.jpg
17.738	0.514	Blank	Blank	88.536	n/a	1	1	8	n/a	8	n/a	3	n/a	n/a	n/a	n/a	88.011	n/a
18.269	0.497	happy	Picture	88.022	n/a	1	1	9	n/a	9	110	3	n/a	n/a	n/a	n/a	88.541	AM11ANS.jpg
18.766	0.514	Blank	Blank	87.508	n/a	1	1	9	n/a	9	n/a	3	n/a	n/a	n/a	n/a	89.039	n/a
19.297	0.497	happy	Picture	86.995	n/a	1	1	10	n/a	10	85	3	n/a	n/a	n/a	n/a	89.569	BF07ANS.jpg
19.794	0.514	Blank	Blank	86.481	n/a	1	1	10	n/a	10	n/a	3	n/a	n/a	n/a	n/a	90.067	n/a
20.325	0.497	happy	Picture	85.967	n/a	1	1	11	n/a	11	87	3	n/a	n/a	n/a	n/a	90.597	BF11ANS.jpg
20.822	0.514	Blank	Blank	85.453	n/a	1	1	11	n/a	11	n/a	3	n/a	n/a	n/a	n/a	91.095	n/a
21.352	0.497	happy	Picture	84.939	n/a	1	1	12	n/a	12	91	3	n/a	n/a	n/a	n/a	91.625	AF20ANS.jpg
21.85	0.514	Blank	Blank	84.425	n/a	1	1	12	n/a	12	n/a	3	n/a	n/a	n/a	n/a	92.123	n/a
22.38	0.497	happy	Picture	83.911	n/a	1	1	13	n/a	13	115	3	n/a	n/a	n/a	n/a	92.653	AM23ANS.jpg
22.878	0.514	Blank	Blank	83.397	n/a	1	1	13	n/a	13	n/a	3	n/a	n/a	n/a	n/a	93.15	n/a
23.408	0.497	happy	Picture	82.883	n/a	1	1	14	n/a	14	97	3	n/a	n/a	n/a	n/a	93.681	BF28ANS.jpg
23.906	0.514	Blank	Blank	82.369	n/a	1	1	14	n/a	14	n/a	3	n/a	n/a	n/a	n/a	94.178	n/a
24.436	0.497	happy	Picture	81.855	n/a	1	1	15	n/a	15	82	3	n/a	n/a	n/a	n/a	94.709	AF03ANS.jpg
24.933	0.514	Blank	Blank	81.341	n/a	1	1	15	n/a	15	n/a	3	n/a	n/a	n/a	n/a	95.206	n/a
25.464	0.497	happy	Picture	80.827	n/a	1	1	16	n/a	16	96	3	n/a	n/a	n/a	n/a	95.737	AF26ANS.jpg
25.961	0.514	Blank	Blank	80.313	n/a	1	1	16	n/a	16	n/a	3	n/a	n/a	n/a	n/a	96.234	n/a
26.492	0.497	happy	Picture	79.799	n/a	1	1	17	n/a	17	109	3	n/a	n/a	n/a	n/a	96.764	AM10ANS.jpg
26.989	0.514	Blank	Blank	79.285	n/a	1	1	17	n/a	17	n/a	3	n/a	n/a	n/a	n/a	97.262	n/a
27.52	0.497	happy	Picture	78.772	n/a	1	1	18	n/a	18	114	3	n/a	n/a	n/a	n/a	97.792	AM22ANS.jpg
28.017	0.514	Blank	Blank	78.258	n/a	1	1	18	n/a	18	n/a	3	n/a	n/a	n/a	n/a	98.29	n/a
28.548	0.497	happy	Picture	77.744	n/a	1	1	19	n/a	19	120	3	n/a	n/a	n/a	n/a	98.82	AM35ANS.jpg
29.045	0.514	Blank	Blank	77.23	n/a	1	1	19	n/a	19	n/a	3	n/a	n/a	n/a	n/a	99.318	n/a
29.575	0.497	happy	Picture	76.716	n/a	1	1	20	n/a	20	81	3	n/a	n/a	n/a	n/a	99.848	AF01ANS.jpg
30.073	0.514	Blank	Blank	76.202	n/a	1	1	20	n/a	20	n/a	3	n/a	n/a	n/a	n/a	100.346	n/a
30.603	10.014	ITI	Fixation+	66.172	n/a	1	n/a	n/a	n/a	n/a	n/a	n/a	n/a	n/a	n/a	n/a	100.876	n/a
40.633	0.497	neutral	Picture	65.658	n/a	1	2	1	n/a	21	28	1	n/a	n/a	n/a	n/a	110.906	AM09NES.jpg
41.131	0.514	Blank	Blank	65.144	n/a	1	2	1	n/a	21	n/a	1	n/a	n/a	n/a	n/a	111.403	n/a
41.661	0.497	neutral	Picture	64.63	n/a	1	2	2	n/a	22	27	1	n/a	n/a	n/a	n/a	111.934	BM08NES.jpg
42.159	0.514	Blank	Blank	64.116	n/a	1	2	2	n/a	22	n/a	1	n/a	n/a	n/a	n/a	112.431	n/a
42.689	0.497	neutral	Picture	63.602	n/a	1	2	3	n/a	23	16	1	n/a	n/a	n/a	n/a	112.962	AF26NES.jpg
43.186	0.514	Blank	Blank	63.088	n/a	1	2	3	n/a	23	n/a	1	n/a	n/a	n/a	n/a	113.459	n/a
43.717	0.497	neutral	Picture	62.574	n/a	1	2	4	n/a	24	3	1	n/a	n/a	n/a	n/a	113.99	BF04NES.jpg
44.214	0.514	Blank	Blank	62.06	n/a	1	2	4	n/a	24	n/a	1	n/a	n/a	n/a	n/a	114.487	n/a
44.745	0.497	neutral	Picture	61.546	n/a	1	2	5	n/a	25	32	1	n/a	n/a	n/a	n/a	115.018	AM14NES.jpg
45.242	0.514	Blank	Blank	61.032	n/a	1	2	5	n/a	25	n/a	1	n/a	n/a	n/a	n/a	115.515	n/a
45.773	0.497	neutral	Picture	60.518	n/a	1	2	6	n/a	26	37	1	n/a	n/a	n/a	n/a	116.046	BM25NES.jpg
46.27	0.514	Blank	Blank	60.004	n/a	1	2	6	n/a	26	n/a	1	n/a	n/a	n/a	n/a	116.543	n/a
46.801	0.497	neutral	Picture	59.49	n/a	1	2	7	n/a	27	15	1	n/a	n/a	n/a	n/a	117.073	AF25NES.jpg
47.298	0.514	Blank	Blank	58.977	n/a	1	2	7	n/a	27	n/a	1	n/a	n/a	n/a	n/a	117.571	n/a
47.829	0.497	neutral	Picture	58.463	n/a	1	2	8	n/a	28	23	1	n/a	n/a	n/a	n/a	118.101	AM04NES.jpg
48.326	0.514	Blank	Blank	57.949	n/a	1	2	8	n/a	28	n/a	1	n/a	n/a	n/a	n/a	118.599	n/a
48.856	0.497	neutral	Picture	57.435	n/a	1	2	9	n/a	29	34	1	n/a	n/a	n/a	n/a	119.129	AM22NES.jpg
49.354	0.514	Blank	Blank	56.921	n/a	1	2	9	n/a	29	n/a	1	n/a	n/a	n/a	n/a	119.626	n/a
49.884	0.497	neutral	Picture	56.407	n/a	1	2	10	n/a	30	24	1	n/a	n/a	n/a	n/a	120.157	BM05NES.jpg
50.382	0.514	Blank	Blank	55.893	n/a	1	2	10	n/a	30	n/a	1	n/a	n/a	n/a	n/a	120.654	n/a
50.912	0.497	neutral	Picture	55.379	n/a	1	2	11	n/a	31	12	1	n/a	n/a	n/a	n/a	121.185	AF21NES.jpg
51.41	0.514	Blank	Blank	54.865	n/a	1	2	11	n/a	31	n/a	1	n/a	n/a	n/a	n/a	121.682	n/a
51.94	0.497	neutral	Picture	54.351	n/a	1	2	12	n/a	32	6	1	n/a	n/a	n/a	n/a	122.213	AF09NES.jpg
52.438	0.514	Blank	Blank	53.837	n/a	1	2	12	n/a	32	n/a	1	n/a	n/a	n/a	n/a	122.71	n/a
52.968	0.497	neutral	Picture	53.323	n/a	1	2	13	n/a	33	17	1	n/a	n/a	n/a	n/a	123.241	BF28NES.jpg
53.465	0.514	Blank	Blank	52.809	n/a	1	2	13	n/a	33	n/a	1	n/a	n/a	n/a	n/a	123.738	n/a
53.996	0.497	neutral	Picture	52.295	n/a	1	2	14	n/a	34	2	1	n/a	n/a	n/a	n/a	124.269	AF03NES.jpg
54.493	0.514	Blank	Blank	51.781	n/a	1	2	14	n/a	34	n/a	1	n/a	n/a	n/a	n/a	124.766	n/a
55.024	0.497	neutral	Picture	51.267	n/a	1	2	15	n/a	35	9	1	n/a	n/a	n/a	n/a	125.296	AF17NES.jpg
55.521	0.514	Blank	Blank	50.754	n/a	1	2	15	n/a	35	n/a	1	n/a	n/a	n/a	n/a	125.794	n/a
56.052	0.497	neutral	Picture	50.24	n/a	1	2	16	n/a	36	25	1	n/a	n/a	n/a	n/a	126.324	BM06NES.jpg
56.549	0.514	Blank	Blank	49.726	n/a	1	2	16	n/a	36	n/a	1	n/a	n/a	n/a	n/a	126.822	n/a
57.079	0.497	neutral	Picture	49.212	n/a	1	2	17	n/a	37	8	1	n/a	n/a	n/a	n/a	127.352	AF14NES.jpg
57.577	0.514	Blank	Blank	48.698	n/a	1	2	17	n/a	37	n/a	1	n/a	n/a	n/a	n/a	127.85	n/a
58.107	0.497	neutral	Picture	48.184	n/a	1	2	18	n/a	38	19	1	n/a	n/a	n/a	n/a	128.38	AF31NES.jpg
58.605	0.514	Blank	Blank	47.67	n/a	1	2	18	n/a	38	n/a	1	n/a	n/a	n/a	n/a	128.877	n/a
59.135	0.497	neutral	Picture	47.156	n/a	1	2	19	n/a	39	14	1	n/a	n/a	n/a	n/a	129.408	AF23NES.jpg
59.633	0.514	Blank	Blank	46.642	n/a	1	2	19	n/a	39	n/a	1	n/a	n/a	n/a	n/a	129.905	n/a
60.163	0.497	neutral	Picture	46.128	n/a	1	2	20	n/a	40	4	1	n/a	n/a	n/a	n/a	130.436	AF05NES.jpg
60.66	0.514	Blank	Blank	45.614	n/a	1	2	20	n/a	40	n/a	1	n/a	n/a	n/a	n/a	130.933	n/a
61.191	10.014	ITI	Fixation+	35.584	n/a	1	n/a	n/a	n/a	n/a	n/a	n/a	n/a	n/a	n/a	n/a	131.464	n/a
71.221	0.497	happy	Picture	35.07	n/a	1	3	1	n/a	41	84	3	n/a	n/a	n/a	n/a	141.494	AF05ANS.jpg
71.718	0.514	Blank	Blank	34.556	n/a	1	3	1	n/a	41	n/a	3	n/a	n/a	n/a	n/a	141.991	n/a
72.249	0.497	happy	Picture	34.042	n/a	1	3	2	n/a	42	92	3	n/a	n/a	n/a	n/a	142.522	AF21ANS.jpg
72.746	0.514	Blank	Blank	33.528	n/a	1	3	2	n/a	42	n/a	3	n/a	n/a	n/a	n/a	143.019	n/a
73.277	0.497	happy	Picture	33.014	n/a	1	3	3	n/a	43	86	3	n/a	n/a	n/a	n/a	143.55	AF09ANS.jpg
73.774	0.514	Blank	Blank	32.5	n/a	1	3	3	n/a	43	n/a	3	n/a	n/a	n/a	n/a	144.047	n/a
74.305	0.497	happy	Picture	31.987	n/a	1	3	4	n/a	44	93	3	n/a	n/a	n/a	n/a	144.577	BF22ANS.jpg
74.802	0.514	Blank	Blank	31.472	n/a	1	3	4	n/a	44	n/a	3	n/a	n/a	n/a	n/a	145.075	n/a
75.333	0.497	happy	Picture	30.959	n/a	1	3	5	n/a	45	88	3	n/a	n/a	n/a	n/a	145.605	AF14ANS.jpg
75.83	0.514	Blank	Blank	30.445	n/a	1	3	5	n/a	45	n/a	3	n/a	n/a	n/a	n/a	146.103	n/a
76.36	0.497	happy	Picture	29.931	n/a	1	3	6	n/a	46	113	3	n/a	n/a	n/a	n/a	146.633	AM21ANS.jpg
76.858	0.514	Blank	Blank	29.417	n/a	1	3	6	n/a	46	n/a	3	n/a	n/a	n/a	n/a	147.131	n/a
77.388	0.497	happy	Picture	28.903	n/a	1	3	7	n/a	47	95	3	n/a	n/a	n/a	n/a	147.661	AF25ANS.jpg
77.886	0.514	Blank	Blank	28.389	n/a	1	3	7	n/a	47	n/a	3	n/a	n/a	n/a	n/a	148.158	n/a
78.416	0.497	happy	Picture	27.875	n/a	1	3	8	n/a	48	102	3	n/a	n/a	n/a	n/a	148.689	BM03ANS.jpg
78.914	0.514	Blank	Blank	27.361	n/a	1	3	8	n/a	48	n/a	3	n/a	n/a	n/a	n/a	149.186	n/a
79.444	0.497	happy	Picture	26.847	n/a	1	3	9	n/a	49	112	3	n/a	n/a	n/a	n/a	149.717	AM14ANS.jpg
79.942	0.514	Blank	Blank	26.333	n/a	1	3	9	n/a	49	n/a	3	n/a	n/a	n/a	n/a	150.214	n/a
80.472	0.497	happy	Picture	25.819	n/a	1	3	10	n/a	50	83	3	n/a	n/a	n/a	n/a	150.745	BF04ANS.jpg
80.969	0.514	Blank	Blank	25.305	n/a	1	3	10	n/a	50	n/a	3	n/a	n/a	n/a	n/a	151.242	n/a
81.5	0.497	happy	Picture	24.791	n/a	1	3	11	n/a	51	90	3	n/a	n/a	n/a	n/a	151.773	AF18ANS.jpg
81.997	0.514	Blank	Blank	24.277	n/a	1	3	11	n/a	51	n/a	3	n/a	n/a	n/a	n/a	152.27	n/a
82.528	0.497	happy	Picture	23.763	n/a	1	3	12	n/a	52	117	3	n/a	n/a	n/a	n/a	152.8	BM25ANS.jpg
83.025	0.514	Blank	Blank	23.249	n/a	1	3	12	n/a	52	n/a	3	n/a	n/a	n/a	n/a	153.298	n/a
83.556	0.497	happy	Picture	22.736	n/a	1	3	13	n/a	53	94	3	n/a	n/a	n/a	n/a	153.828	AF23ANS.jpg
84.053	0.514	Blank	Blank	22.222	n/a	1	3	13	n/a	53	n/a	3	n/a	n/a	n/a	n/a	154.326	n/a
84.584	0.497	happy	Picture	21.708	n/a	1	3	14	n/a	54	106	3	n/a	n/a	n/a	n/a	154.856	AM07ANS.jpg
85.081	0.514	Blank	Blank	21.194	n/a	1	3	14	n/a	54	n/a	3	n/a	n/a	n/a	n/a	155.354	n/a
85.611	0.497	happy	Picture	20.68	n/a	1	3	15	n/a	55	105	3	n/a	n/a	n/a	n/a	155.884	BM06ANS.jpg
86.109	0.514	Blank	Blank	20.166	n/a	1	3	15	n/a	55	n/a	3	n/a	n/a	n/a	n/a	156.381	n/a
86.639	0.497	happy	Picture	19.652	n/a	1	3	16	n/a	56	116	3	n/a	n/a	n/a	n/a	156.912	BM24ANS.jpg
87.137	0.514	Blank	Blank	19.138	n/a	1	3	16	n/a	56	n/a	3	n/a	n/a	n/a	n/a	157.409	n/a
87.667	0.497	happy	Picture	18.625	n/a	1	3	17	n/a	57	89	3	n/a	n/a	n/a	n/a	157.94	AF17ANS.jpg
88.164	0.515	Blank	Blank	18.11	n/a	1	3	17	n/a	57	n/a	3	n/a	n/a	n/a	n/a	158.436	n/a
88.695	0.497	happy	Picture	17.596	n/a	1	3	18	n/a	58	118	3	n/a	n/a	n/a	n/a	158.968	BM26ANS.jpg
89.192	0.514	Blank	Blank	17.082	n/a	1	3	18	n/a	58	n/a	3	n/a	n/a	n/a	n/a	159.465	n/a
89.723	0.497	happy	Picture	16.568	n/a	1	3	19	n/a	59	100	3	n/a	n/a	n/a	n/a	159.996	AF32ANS.jpg
90.22	0.514	Blank	Blank	16.054	n/a	1	3	19	n/a	59	n/a	3	n/a	n/a	n/a	n/a	160.493	n/a
90.751	0.497	happy	Picture	15.54	n/a	1	3	20	n/a	60	119	3	n/a	n/a	n/a	n/a	161.024	BM28ANS.jpg
91.248	0.514	Blank	Blank	15.026	n/a	1	3	20	n/a	60	n/a	3	n/a	n/a	n/a	n/a	161.521	n/a
91.779	10.014	ITI	Fixation+	4.996	n/a	1	n/a	n/a	n/a	n/a	n/a	n/a	n/a	n/a	n/a	n/a	162.051	n/a
106.789	n/a	ConfirmRating	Rate	n/a	4.973	1	n/a	n/a	0	n/a	n/a	n/a	2	Happy	57	50	177.061	n/a
109.737	n/a	ConfirmRating	Rate	n/a	2.934	1	n/a	n/a	1	n/a	n/a	n/a	3	Happy	0	49	180.01	n/a
109.767	10.014	ITI	Fixation+	95.418	n/a	2	n/a	n/a	n/a	n/a	n/a	n/a	n/a	n/a	n/a	n/a	180.039	n/a
119.797	0.497	angry	Picture	94.904	n/a	2	4	1	n/a	61	79	2	n/a	n/a	n/a	n/a	190.069	BM28HAS.jpg
120.294	0.514	Blank	Blank	94.391	n/a	2	4	1	n/a	61	n/a	2	n/a	n/a	n/a	n/a	190.567	n/a
120.825	0.497	angry	Picture	93.877	n/a	2	4	2	n/a	62	61	2	n/a	n/a	n/a	n/a	191.097	AM01HAS.jpg
121.322	0.514	Blank	Blank	93.363	n/a	2	4	2	n/a	62	n/a	2	n/a	n/a	n/a	n/a	191.595	n/a
121.853	0.497	angry	Picture	92.849	n/a	2	4	3	n/a	63	57	2	n/a	n/a	n/a	n/a	192.125	BF28HAS.jpg
122.35	0.514	Blank	Blank	92.335	n/a	2	4	3	n/a	63	n/a	2	n/a	n/a	n/a	n/a	192.623	n/a
122.88	0.497	angry	Picture	91.821	n/a	2	4	4	n/a	64	77	2	n/a	n/a	n/a	n/a	193.153	BM25HAS.jpg
123.378	0.514	Blank	Blank	91.307	n/a	2	4	4	n/a	64	n/a	2	n/a	n/a	n/a	n/a	193.65	n/a
123.908	0.497	angry	Picture	90.793	n/a	2	4	5	n/a	65	47	2	n/a	n/a	n/a	n/a	194.181	BF11HAS.jpg
124.406	0.514	Blank	Blank	90.279	n/a	2	4	5	n/a	65	n/a	2	n/a	n/a	n/a	n/a	194.678	n/a
124.936	0.497	angry	Picture	89.765	n/a	2	4	6	n/a	66	50	2	n/a	n/a	n/a	n/a	195.209	AF18HAS.jpg
125.433	0.514	Blank	Blank	89.251	n/a	2	4	6	n/a	66	n/a	2	n/a	n/a	n/a	n/a	195.706	n/a
125.964	0.497	angry	Picture	88.737	n/a	2	4	7	n/a	67	78	2	n/a	n/a	n/a	n/a	196.237	BM26HAS.jpg
126.461	0.514	Blank	Blank	88.223	n/a	2	4	7	n/a	67	n/a	2	n/a	n/a	n/a	n/a	196.734	n/a
126.992	0.497	angry	Picture	87.709	n/a	2	4	8	n/a	68	45	2	n/a	n/a	n/a	n/a	197.264	BF07HAS.jpg
127.489	0.514	Blank	Blank	87.196	n/a	2	4	8	n/a	68	n/a	2	n/a	n/a	n/a	n/a	197.762	n/a
128.02	0.497	angry	Picture	86.681	n/a	2	4	9	n/a	69	56	2	n/a	n/a	n/a	n/a	198.292	AF26HAS.jpg
128.517	0.514	Blank	Blank	86.168	n/a	2	4	9	n/a	69	n/a	2	n/a	n/a	n/a	n/a	198.79	n/a
129.048	0.497	angry	Picture	85.654	n/a	2	4	10	n/a	70	65	2	n/a	n/a	n/a	n/a	199.32	BM06HAS.jpg
129.545	0.514	Blank	Blank	85.14	n/a	2	4	10	n/a	70	n/a	2	n/a	n/a	n/a	n/a	199.818	n/a
130.075	0.497	angry	Picture	84.626	n/a	2	4	11	n/a	71	73	2	n/a	n/a	n/a	n/a	200.348	AM21HAS.jpg
130.573	0.514	Blank	Blank	84.112	n/a	2	4	11	n/a	71	n/a	2	n/a	n/a	n/a	n/a	200.845	n/a
131.103	0.497	angry	Picture	83.598	n/a	2	4	12	n/a	72	41	2	n/a	n/a	n/a	n/a	201.376	AF01HAS.jpg
131.601	0.514	Blank	Blank	83.084	n/a	2	4	12	n/a	72	n/a	2	n/a	n/a	n/a	n/a	201.873	n/a
132.131	0.497	angry	Picture	82.57	n/a	2	4	13	n/a	73	59	2	n/a	n/a	n/a	n/a	202.404	AF31HAS.jpg
132.629	0.514	Blank	Blank	82.056	n/a	2	4	13	n/a	73	n/a	2	n/a	n/a	n/a	n/a	202.901	n/a
133.159	0.497	angry	Picture	81.542	n/a	2	4	14	n/a	74	64	2	n/a	n/a	n/a	n/a	203.432	BM05HAS.jpg
133.656	0.514	Blank	Blank	81.028	n/a	2	4	14	n/a	74	n/a	2	n/a	n/a	n/a	n/a	203.929	n/a
134.187	0.497	angry	Picture	80.514	n/a	2	4	15	n/a	75	68	2	n/a	n/a	n/a	n/a	204.46	AM09HAS.jpg
134.684	0.514	Blank	Blank	80.0	n/a	2	4	15	n/a	75	n/a	2	n/a	n/a	n/a	n/a	204.957	n/a
135.215	0.497	angry	Picture	79.486	n/a	2	4	16	n/a	76	54	2	n/a	n/a	n/a	n/a	205.488	AF23HAS.jpg
135.712	0.514	Blank	Blank	78.972	n/a	2	4	16	n/a	76	n/a	2	n/a	n/a	n/a	n/a	205.985	n/a
136.243	0.497	angry	Picture	78.459	n/a	2	4	17	n/a	77	53	2	n/a	n/a	n/a	n/a	206.516	BF22HAS.jpg
136.74	0.514	Blank	Blank	77.945	n/a	2	4	17	n/a	77	n/a	2	n/a	n/a	n/a	n/a	207.013	n/a
137.271	0.497	angry	Picture	77.431	n/a	2	4	18	n/a	78	44	2	n/a	n/a	n/a	n/a	207.543	AF05HAS.jpg
137.768	0.514	Blank	Blank	76.917	n/a	2	4	18	n/a	78	n/a	2	n/a	n/a	n/a	n/a	208.041	n/a
138.298	0.497	angry	Picture	76.403	n/a	2	4	19	n/a	79	52	2	n/a	n/a	n/a	n/a	208.571	AF21HAS.jpg
138.796	0.514	Blank	Blank	75.889	n/a	2	4	19	n/a	79	n/a	2	n/a	n/a	n/a	n/a	209.069	n/a
139.326	0.497	angry	Picture	75.375	n/a	2	4	20	n/a	80	62	2	n/a	n/a	n/a	n/a	209.599	BM03HAS.jpg
139.824	0.514	Blank	Blank	74.861	n/a	2	4	20	n/a	80	n/a	2	n/a	n/a	n/a	n/a	210.096	n/a
140.354	10.014	ITI	Fixation+	64.831	n/a	2	n/a	n/a	n/a	n/a	n/a	n/a	n/a	n/a	n/a	n/a	210.627	n/a
150.384	0.497	neutral	Picture	64.317	n/a	2	5	1	n/a	81	23	1	n/a	n/a	n/a	n/a	220.657	AM04NES.jpg
150.882	0.514	Blank	Blank	63.803	n/a	2	5	1	n/a	81	n/a	1	n/a	n/a	n/a	n/a	221.154	n/a
151.412	0.497	neutral	Picture	63.289	n/a	2	5	2	n/a	82	29	1	n/a	n/a	n/a	n/a	221.685	AM10NES.jpg
151.91	0.514	Blank	Blank	62.775	n/a	2	5	2	n/a	82	n/a	1	n/a	n/a	n/a	n/a	222.182	n/a
152.44	0.497	neutral	Picture	62.261	n/a	2	5	3	n/a	83	24	1	n/a	n/a	n/a	n/a	222.713	BM05NES.jpg
152.938	0.514	Blank	Blank	61.747	n/a	2	5	3	n/a	83	n/a	1	n/a	n/a	n/a	n/a	223.21	n/a
153.468	0.497	neutral	Picture	61.233	n/a	2	5	4	n/a	84	12	1	n/a	n/a	n/a	n/a	223.741	AF21NES.jpg
153.965	0.514	Blank	Blank	60.719	n/a	2	5	4	n/a	84	n/a	1	n/a	n/a	n/a	n/a	224.238	n/a
154.496	0.497	neutral	Picture	60.205	n/a	2	5	5	n/a	85	13	1	n/a	n/a	n/a	n/a	224.769	BF22NES.jpg
154.993	0.514	Blank	Blank	59.691	n/a	2	5	5	n/a	85	n/a	1	n/a	n/a	n/a	n/a	225.266	n/a
155.524	0.497	neutral	Picture	59.178	n/a	2	5	6	n/a	86	17	1	n/a	n/a	n/a	n/a	225.797	BF28NES.jpg
156.021	0.514	Blank	Blank	58.663	n/a	2	5	6	n/a	86	n/a	1	n/a	n/a	n/a	n/a	226.294	n/a
156.552	0.497	neutral	Picture	58.15	n/a	2	5	7	n/a	87	4	1	n/a	n/a	n/a	n/a	226.824	AF05NES.jpg
157.049	0.514	Blank	Blank	57.636	n/a	2	5	7	n/a	87	n/a	1	n/a	n/a	n/a	n/a	227.322	n/a
157.579	0.497	neutral	Picture	57.122	n/a	2	5	8	n/a	88	11	1	n/a	n/a	n/a	n/a	227.852	AF20NES.jpg
158.077	0.514	Blank	Blank	56.608	n/a	2	5	8	n/a	88	n/a	1	n/a	n/a	n/a	n/a	228.35	n/a
158.607	0.497	neutral	Picture	56.094	n/a	2	5	9	n/a	89	22	1	n/a	n/a	n/a	n/a	228.88	BM03NES.jpg
159.105	0.514	Blank	Blank	55.58	n/a	2	5	9	n/a	89	n/a	1	n/a	n/a	n/a	n/a	229.377	n/a
159.635	0.497	neutral	Picture	55.066	n/a	2	5	10	n/a	90	15	1	n/a	n/a	n/a	n/a	229.908	AF25NES.jpg
160.133	0.514	Blank	Blank	54.552	n/a	2	5	10	n/a	90	n/a	1	n/a	n/a	n/a	n/a	230.405	n/a
160.663	0.497	neutral	Picture	54.038	n/a	2	5	11	n/a	91	19	1	n/a	n/a	n/a	n/a	230.936	AF31NES.jpg
161.161	0.514	Blank	Blank	53.524	n/a	2	5	11	n/a	91	n/a	1	n/a	n/a	n/a	n/a	231.433	n/a
161.691	0.497	neutral	Picture	53.01	n/a	2	5	12	n/a	92	9	1	n/a	n/a	n/a	n/a	231.964	AF17NES.jpg
162.188	0.514	Blank	Blank	52.496	n/a	2	5	12	n/a	92	n/a	1	n/a	n/a	n/a	n/a	232.461	n/a
162.719	0.497	neutral	Picture	51.982	n/a	2	5	13	n/a	93	14	1	n/a	n/a	n/a	n/a	232.992	AF23NES.jpg
163.216	0.514	Blank	Blank	51.468	n/a	2	5	13	n/a	93	n/a	1	n/a	n/a	n/a	n/a	233.489	n/a
163.747	0.497	neutral	Picture	50.954	n/a	2	5	14	n/a	94	36	1	n/a	n/a	n/a	n/a	234.019	BM24NES.jpg
164.244	0.514	Blank	Blank	50.441	n/a	2	5	14	n/a	94	n/a	1	n/a	n/a	n/a	n/a	234.517	n/a
164.775	0.497	neutral	Picture	49.927	n/a	2	5	15	n/a	95	34	1	n/a	n/a	n/a	n/a	235.047	AM22NES.jpg
165.272	0.514	Blank	Blank	49.413	n/a	2	5	15	n/a	95	n/a	1	n/a	n/a	n/a	n/a	235.545	n/a
165.803	0.497	neutral	Picture	48.899	n/a	2	5	16	n/a	96	10	1	n/a	n/a	n/a	n/a	236.075	AF18NES.jpg
166.3	0.514	Blank	Blank	48.385	n/a	2	5	16	n/a	96	n/a	1	n/a	n/a	n/a	n/a	236.573	n/a
166.83	0.497	neutral	Picture	47.871	n/a	2	5	17	n/a	97	5	1	n/a	n/a	n/a	n/a	237.103	BF07NES.jpg
167.328	0.514	Blank	Blank	47.357	n/a	2	5	17	n/a	97	n/a	1	n/a	n/a	n/a	n/a	237.601	n/a
167.858	0.497	neutral	Picture	46.843	n/a	2	5	18	n/a	98	25	1	n/a	n/a	n/a	n/a	238.131	BM06NES.jpg
168.356	0.514	Blank	Blank	46.329	n/a	2	5	18	n/a	98	n/a	1	n/a	n/a	n/a	n/a	238.628	n/a
168.886	0.497	neutral	Picture	45.815	n/a	2	5	19	n/a	99	39	1	n/a	n/a	n/a	n/a	239.159	AM28NES.jpg
169.384	0.514	Blank	Blank	45.301	n/a	2	5	19	n/a	99	n/a	1	n/a	n/a	n/a	n/a	239.656	n/a
169.914	0.497	neutral	Picture	44.787	n/a	2	5	20	n/a	100	33	1	n/a	n/a	n/a	n/a	240.187	AM21NES.jpg
170.411	0.514	Blank	Blank	44.273	n/a	2	5	20	n/a	100	n/a	1	n/a	n/a	n/a	n/a	240.684	n/a
170.942	10.014	ITI	Fixation+	34.243	n/a	2	n/a	n/a	n/a	n/a	n/a	n/a	n/a	n/a	n/a	n/a	241.215	n/a
180.972	0.497	angry	Picture	33.729	n/a	2	6	1	n/a	101	74	2	n/a	n/a	n/a	n/a	251.245	AM22HAS.jpg
181.469	0.514	Blank	Blank	33.215	n/a	2	6	1	n/a	101	n/a	2	n/a	n/a	n/a	n/a	251.742	n/a
182.0	0.497	angry	Picture	32.701	n/a	2	6	2	n/a	102	76	2	n/a	n/a	n/a	n/a	252.273	BM24HAS.jpg
182.497	0.514	Blank	Blank	32.187	n/a	2	6	2	n/a	102	n/a	2	n/a	n/a	n/a	n/a	252.77	n/a
183.028	0.497	angry	Picture	31.673	n/a	2	6	3	n/a	103	80	2	n/a	n/a	n/a	n/a	253.3	BM35HAS.jpg
183.525	0.514	Blank	Blank	31.16	n/a	2	6	3	n/a	103	n/a	2	n/a	n/a	n/a	n/a	253.798	n/a
184.056	0.497	angry	Picture	30.645	n/a	2	6	4	n/a	104	75	2	n/a	n/a	n/a	n/a	254.328	AM23HAS.jpg
184.553	0.514	Blank	Blank	30.132	n/a	2	6	4	n/a	104	n/a	2	n/a	n/a	n/a	n/a	254.826	n/a
185.084	0.497	angry	Picture	29.618	n/a	2	6	5	n/a	105	49	2	n/a	n/a	n/a	n/a	255.356	AF17HAS.jpg
185.581	0.514	Blank	Blank	29.104	n/a	2	6	5	n/a	105	n/a	2	n/a	n/a	n/a	n/a	255.854	n/a
186.112	0.497	angry	Picture	28.59	n/a	2	6	6	n/a	106	43	2	n/a	n/a	n/a	n/a	256.384	BF04HAS.jpg
186.609	0.514	Blank	Blank	28.076	n/a	2	6	6	n/a	106	n/a	2	n/a	n/a	n/a	n/a	256.882	n/a
187.139	0.497	angry	Picture	27.562	n/a	2	6	7	n/a	107	70	2	n/a	n/a	n/a	n/a	257.412	BM11HAS.jpg
187.637	0.514	Blank	Blank	27.048	n/a	2	6	7	n/a	107	n/a	2	n/a	n/a	n/a	n/a	257.909	n/a
188.167	0.497	angry	Picture	26.534	n/a	2	6	8	n/a	108	66	2	n/a	n/a	n/a	n/a	258.44	BM07HAS.jpg
188.665	0.514	Blank	Blank	26.02	n/a	2	6	8	n/a	108	n/a	2	n/a	n/a	n/a	n/a	258.937	n/a
189.195	0.497	angry	Picture	25.506	n/a	2	6	9	n/a	109	48	2	n/a	n/a	n/a	n/a	259.468	AF14HAS.jpg
189.692	0.514	Blank	Blank	24.992	n/a	2	6	9	n/a	109	n/a	2	n/a	n/a	n/a	n/a	259.965	n/a
190.223	0.497	angry	Picture	24.478	n/a	2	6	10	n/a	110	58	2	n/a	n/a	n/a	n/a	260.496	BF29HAS.jpg
190.72	0.514	Blank	Blank	23.964	n/a	2	6	10	n/a	110	n/a	2	n/a	n/a	n/a	n/a	260.993	n/a
191.251	0.497	angry	Picture	23.45	n/a	2	6	11	n/a	111	63	2	n/a	n/a	n/a	n/a	261.524	AM04HAS.jpg
191.748	0.514	Blank	Blank	22.936	n/a	2	6	11	n/a	111	n/a	2	n/a	n/a	n/a	n/a	262.021	n/a
192.279	0.497	angry	Picture	22.422	n/a	2	6	12	n/a	112	72	2	n/a	n/a	n/a	n/a	262.551	AM14HAS.jpg
192.776	0.514	Blank	Blank	21.909	n/a	2	6	12	n/a	112	n/a	2	n/a	n/a	n/a	n/a	263.049	n/a
193.307	0.497	angry	Picture	21.395	n/a	2	6	13	n/a	113	55	2	n/a	n/a	n/a	n/a	263.579	AF25HAS.jpg
193.804	0.514	Blank	Blank	20.881	n/a	2	6	13	n/a	113	n/a	2	n/a	n/a	n/a	n/a	264.077	n/a
194.334	0.497	angry	Picture	20.367	n/a	2	6	14	n/a	114	42	2	n/a	n/a	n/a	n/a	264.607	AF03HAS.jpg
194.832	0.514	Blank	Blank	19.853	n/a	2	6	14	n/a	114	n/a	2	n/a	n/a	n/a	n/a	265.105	n/a
195.362	0.497	angry	Picture	19.339	n/a	2	6	15	n/a	115	60	2	n/a	n/a	n/a	n/a	265.635	AF32HAS.jpg
195.86	0.514	Blank	Blank	18.825	n/a	2	6	15	n/a	115	n/a	2	n/a	n/a	n/a	n/a	266.132	n/a
196.39	0.497	angry	Picture	18.311	n/a	2	6	16	n/a	116	67	2	n/a	n/a	n/a	n/a	266.663	BM08HAS.jpg
196.888	0.514	Blank	Blank	17.797	n/a	2	6	16	n/a	116	n/a	2	n/a	n/a	n/a	n/a	267.16	n/a
197.418	0.497	angry	Picture	17.283	n/a	2	6	17	n/a	117	51	2	n/a	n/a	n/a	n/a	267.691	AF20HAS.jpg
197.916	0.514	Blank	Blank	16.769	n/a	2	6	17	n/a	117	n/a	2	n/a	n/a	n/a	n/a	268.188	n/a
198.446	0.497	angry	Picture	16.255	n/a	2	6	18	n/a	118	71	2	n/a	n/a	n/a	n/a	268.719	BM12HAS.jpg
198.943	0.514	Blank	Blank	15.741	n/a	2	6	18	n/a	118	n/a	2	n/a	n/a	n/a	n/a	269.216	n/a
199.474	0.497	angry	Picture	15.227	n/a	2	6	19	n/a	119	69	2	n/a	n/a	n/a	n/a	269.747	AM10HAS.jpg
199.971	0.514	Blank	Blank	14.713	n/a	2	6	19	n/a	119	n/a	2	n/a	n/a	n/a	n/a	270.244	n/a
200.502	0.497	angry	Picture	14.2	n/a	2	6	20	n/a	120	46	2	n/a	n/a	n/a	n/a	270.774	AF09HAS.jpg
200.999	0.514	Blank	Blank	13.685	n/a	2	6	20	n/a	120	n/a	2	n/a	n/a	n/a	n/a	271.272	n/a
201.53	10.014	ITI	Fixation+	3.655	n/a	2	n/a	n/a	n/a	n/a	n/a	n/a	n/a	n/a	n/a	n/a	271.802	n/a
215.199	n/a	ConfirmRating	Rate	n/a	3.647	2	n/a	n/a	0	n/a	n/a	n/a	2	Angry	54	50	285.471	n/a
217.339	n/a	ConfirmRating	Rate	n/a	2.122	2	n/a	n/a	1	n/a	n/a	n/a	3	Angry	0	49	287.611	n/a
217.362	15.004	Rest	Picture	n/a	n/a	n/a	n/a	n/a	n/a	n/a	n/a	n/a	0	n/a	0	0	287.635	n/a
232.383	10.014	ITI	Fixation+	95.019	n/a	3	n/a	n/a	n/a	n/a	n/a	n/a	n/a	n/a	n/a	n/a	302.655	n/a
242.413	0.497	happy	Picture	94.505	n/a	3	7	1	n/a	1	108	3	n/a	n/a	n/a	n/a	312.685	AM09ANS.jpg
242.91	0.514	Blank	Blank	93.991	n/a	3	7	1	n/a	1	n/a	3	n/a	n/a	n/a	n/a	313.183	n/a
243.441	0.497	happy	Picture	93.477	n/a	3	7	2	n/a	2	99	3	n/a	n/a	n/a	n/a	313.713	AF31ANS.jpg
243.938	0.514	Blank	Blank	92.964	n/a	3	7	2	n/a	2	n/a	3	n/a	n/a	n/a	n/a	314.211	n/a
244.469	0.497	happy	Picture	92.45	n/a	3	7	3	n/a	3	98	3	n/a	n/a	n/a	n/a	314.741	BF29ANS.jpg
244.966	0.514	Blank	Blank	91.936	n/a	3	7	3	n/a	3	n/a	3	n/a	n/a	n/a	n/a	315.238	n/a
245.496	0.497	happy	Picture	91.422	n/a	3	7	4	n/a	4	107	3	n/a	n/a	n/a	n/a	315.769	BM08ANS.jpg
245.994	0.514	Blank	Blank	90.908	n/a	3	7	4	n/a	4	n/a	3	n/a	n/a	n/a	n/a	316.266	n/a
246.524	0.497	happy	Picture	90.394	n/a	3	7	5	n/a	5	104	3	n/a	n/a	n/a	n/a	316.797	BM05ANS.jpg
247.022	0.514	Blank	Blank	89.88	n/a	3	7	5	n/a	5	n/a	3	n/a	n/a	n/a	n/a	317.294	n/a
247.552	0.497	happy	Picture	89.366	n/a	3	7	6	n/a	6	101	3	n/a	n/a	n/a	n/a	317.825	AM01ANS.jpg
248.05	0.514	Blank	Blank	88.852	n/a	3	7	6	n/a	6	n/a	3	n/a	n/a	n/a	n/a	318.322	n/a
248.58	0.497	happy	Picture	88.338	n/a	3	7	7	n/a	7	103	3	n/a	n/a	n/a	n/a	318.853	AM04ANS.jpg
249.077	0.514	Blank	Blank	87.824	n/a	3	7	7	n/a	7	n/a	3	n/a	n/a	n/a	n/a	319.35	n/a
249.608	0.497	happy	Picture	87.31	n/a	3	7	8	n/a	8	111	3	n/a	n/a	n/a	n/a	319.881	BM12ANS.jpg
250.105	0.514	Blank	Blank	86.796	n/a	3	7	8	n/a	8	n/a	3	n/a	n/a	n/a	n/a	320.378	n/a
250.636	0.497	happy	Picture	86.282	n/a	3	7	9	n/a	9	110	3	n/a	n/a	n/a	n/a	320.908	AM11ANS.jpg
251.133	0.514	Blank	Blank	85.768	n/a	3	7	9	n/a	9	n/a	3	n/a	n/a	n/a	n/a	321.406	n/a
251.664	0.497	happy	Picture	85.255	n/a	3	7	10	n/a	10	85	3	n/a	n/a	n/a	n/a	321.936	BF07ANS.jpg
252.16	0.515	Blank	Blank	84.741	n/a	3	7	10	n/a	10	n/a	3	n/a	n/a	n/a	n/a	322.433	n/a
252.692	0.497	happy	Picture	84.227	n/a	3	7	11	n/a	11	87	3	n/a	n/a	n/a	n/a	322.964	BF11ANS.jpg
253.189	0.514	Blank	Blank	83.713	n/a	3	7	11	n/a	11	n/a	3	n/a	n/a	n/a	n/a	323.462	n/a
253.719	0.497	happy	Picture	83.199	n/a	3	7	12	n/a	12	91	3	n/a	n/a	n/a	n/a	323.992	AF20ANS.jpg
254.217	0.514	Blank	Blank	82.685	n/a	3	7	12	n/a	12	n/a	3	n/a	n/a	n/a	n/a	324.489	n/a
254.747	0.497	happy	Picture	82.171	n/a	3	7	13	n/a	13	115	3	n/a	n/a	n/a	n/a	325.02	AM23ANS.jpg
255.245	0.514	Blank	Blank	81.657	n/a	3	7	13	n/a	13	n/a	3	n/a	n/a	n/a	n/a	325.517	n/a
255.775	0.497	happy	Picture	81.143	n/a	3	7	14	n/a	14	97	3	n/a	n/a	n/a	n/a	326.048	BF28ANS.jpg
256.273	0.514	Blank	Blank	80.629	n/a	3	7	14	n/a	14	n/a	3	n/a	n/a	n/a	n/a	326.545	n/a
256.803	0.497	happy	Picture	80.115	n/a	3	7	15	n/a	15	82	3	n/a	n/a	n/a	n/a	327.076	AF03ANS.jpg
257.3	0.514	Blank	Blank	79.601	n/a	3	7	15	n/a	15	n/a	3	n/a	n/a	n/a	n/a	327.573	n/a
257.831	0.497	happy	Picture	79.087	n/a	3	7	16	n/a	16	96	3	n/a	n/a	n/a	n/a	328.104	AF26ANS.jpg
258.328	0.514	Blank	Blank	78.573	n/a	3	7	16	n/a	16	n/a	3	n/a	n/a	n/a	n/a	328.601	n/a
258.859	0.497	happy	Picture	78.059	n/a	3	7	17	n/a	17	109	3	n/a	n/a	n/a	n/a	329.132	AM10ANS.jpg
259.356	0.514	Blank	Blank	77.545	n/a	3	7	17	n/a	17	n/a	3	n/a	n/a	n/a	n/a	329.629	n/a
259.887	0.497	happy	Picture	77.031	n/a	3	7	18	n/a	18	114	3	n/a	n/a	n/a	n/a	330.159	AM22ANS.jpg
260.384	0.514	Blank	Blank	76.517	n/a	3	7	18	n/a	18	n/a	3	n/a	n/a	n/a	n/a	330.657	n/a
260.915	0.497	happy	Picture	76.003	n/a	3	7	19	n/a	19	120	3	n/a	n/a	n/a	n/a	331.187	AM35ANS.jpg
261.412	0.514	Blank	Blank	75.49	n/a	3	7	19	n/a	19	n/a	3	n/a	n/a	n/a	n/a	331.685	n/a
261.942	0.497	happy	Picture	74.976	n/a	3	7	20	n/a	20	81	3	n/a	n/a	n/a	n/a	332.215	AF01ANS.jpg
262.44	0.514	Blank	Blank	74.462	n/a	3	7	20	n/a	20	n/a	3	n/a	n/a	n/a	n/a	332.712	n/a
262.97	10.014	ITI	Fixation+	64.432	n/a	3	n/a	n/a	n/a	n/a	n/a	n/a	n/a	n/a	n/a	n/a	333.243	n/a
273.0	0.497	neutral	Picture	63.918	n/a	3	8	1	n/a	21	28	1	n/a	n/a	n/a	n/a	343.273	AM09NES.jpg
273.498	0.514	Blank	Blank	63.404	n/a	3	8	1	n/a	21	n/a	1	n/a	n/a	n/a	n/a	343.771	n/a
274.028	0.497	neutral	Picture	62.89	n/a	3	8	2	n/a	22	27	1	n/a	n/a	n/a	n/a	344.301	BM08NES.jpg
274.526	0.514	Blank	Blank	62.376	n/a	3	8	2	n/a	22	n/a	1	n/a	n/a	n/a	n/a	344.798	n/a
275.056	0.497	neutral	Picture	61.862	n/a	3	8	3	n/a	23	16	1	n/a	n/a	n/a	n/a	345.329	AF26NES.jpg
275.553	0.514	Blank	Blank	61.348	n/a	3	8	3	n/a	23	n/a	1	n/a	n/a	n/a	n/a	345.826	n/a
276.084	0.497	neutral	Picture	60.834	n/a	3	8	4	n/a	24	3	1	n/a	n/a	n/a	n/a	346.357	BF04NES.jpg
276.581	0.514	Blank	Blank	60.32	n/a	3	8	4	n/a	24	n/a	1	n/a	n/a	n/a	n/a	346.854	n/a
277.112	0.497	neutral	Picture	59.806	n/a	3	8	5	n/a	25	32	1	n/a	n/a	n/a	n/a	347.385	AM14NES.jpg
277.609	0.514	Blank	Blank	59.292	n/a	3	8	5	n/a	25	n/a	1	n/a	n/a	n/a	n/a	347.882	n/a
278.14	0.497	neutral	Picture	58.778	n/a	3	8	6	n/a	26	37	1	n/a	n/a	n/a	n/a	348.413	BM25NES.jpg
278.637	0.514	Blank	Blank	58.264	n/a	3	8	6	n/a	26	n/a	1	n/a	n/a	n/a	n/a	348.91	n/a
279.168	0.497	neutral	Picture	57.75	n/a	3	8	7	n/a	27	15	1	n/a	n/a	n/a	n/a	349.44	AF25NES.jpg
279.665	0.514	Blank	Blank	57.236	n/a	3	8	7	n/a	27	n/a	1	n/a	n/a	n/a	n/a	349.938	n/a
280.196	0.497	neutral	Picture	56.723	n/a	3	8	8	n/a	28	23	1	n/a	n/a	n/a	n/a	350.468	AM04NES.jpg
280.693	0.514	Blank	Blank	56.209	n/a	3	8	8	n/a	28	n/a	1	n/a	n/a	n/a	n/a	350.966	n/a
281.223	0.497	neutral	Picture	55.695	n/a	3	8	9	n/a	29	34	1	n/a	n/a	n/a	n/a	351.496	AM22NES.jpg
281.721	0.514	Blank	Blank	55.181	n/a	3	8	9	n/a	29	n/a	1	n/a	n/a	n/a	n/a	351.993	n/a
282.251	0.497	neutral	Picture	54.667	n/a	3	8	10	n/a	30	24	1	n/a	n/a	n/a	n/a	352.524	BM05NES.jpg
282.749	0.514	Blank	Blank	54.153	n/a	3	8	10	n/a	30	n/a	1	n/a	n/a	n/a	n/a	353.021	n/a
283.279	0.497	neutral	Picture	53.639	n/a	3	8	11	n/a	31	12	1	n/a	n/a	n/a	n/a	353.552	AF21NES.jpg
283.777	0.514	Blank	Blank	53.125	n/a	3	8	11	n/a	31	n/a	1	n/a	n/a	n/a	n/a	354.049	n/a
284.307	0.497	neutral	Picture	52.611	n/a	3	8	12	n/a	32	6	1	n/a	n/a	n/a	n/a	354.58	AF09NES.jpg
284.804	0.514	Blank	Blank	52.097	n/a	3	8	12	n/a	32	n/a	1	n/a	n/a	n/a	n/a	355.077	n/a
285.335	0.497	neutral	Picture	51.583	n/a	3	8	13	n/a	33	17	1	n/a	n/a	n/a	n/a	355.608	BF28NES.jpg
285.832	0.514	Blank	Blank	51.069	n/a	3	8	13	n/a	33	n/a	1	n/a	n/a	n/a	n/a	356.105	n/a
286.363	0.497	neutral	Picture	50.555	n/a	3	8	14	n/a	34	2	1	n/a	n/a	n/a	n/a	356.635	AF03NES.jpg
286.86	0.514	Blank	Blank	50.041	n/a	3	8	14	n/a	34	n/a	1	n/a	n/a	n/a	n/a	357.133	n/a
287.391	0.497	neutral	Picture	49.527	n/a	3	8	15	n/a	35	9	1	n/a	n/a	n/a	n/a	357.663	AF17NES.jpg
287.888	0.514	Blank	Blank	49.013	n/a	3	8	15	n/a	35	n/a	1	n/a	n/a	n/a	n/a	358.161	n/a
288.419	0.497	neutral	Picture	48.499	n/a	3	8	16	n/a	36	25	1	n/a	n/a	n/a	n/a	358.691	BM06NES.jpg
288.916	0.514	Blank	Blank	47.986	n/a	3	8	16	n/a	36	n/a	1	n/a	n/a	n/a	n/a	359.189	n/a
289.447	0.497	neutral	Picture	47.472	n/a	3	8	17	n/a	37	8	1	n/a	n/a	n/a	n/a	359.719	AF14NES.jpg
289.944	0.514	Blank	Blank	46.958	n/a	3	8	17	n/a	37	n/a	1	n/a	n/a	n/a	n/a	360.216	n/a
290.474	0.497	neutral	Picture	46.444	n/a	3	8	18	n/a	38	19	1	n/a	n/a	n/a	n/a	360.747	AF31NES.jpg
290.972	0.514	Blank	Blank	45.93	n/a	3	8	18	n/a	38	n/a	1	n/a	n/a	n/a	n/a	361.244	n/a
291.502	0.497	neutral	Picture	45.416	n/a	3	8	19	n/a	39	14	1	n/a	n/a	n/a	n/a	361.775	AF23NES.jpg
292.0	0.514	Blank	Blank	44.902	n/a	3	8	19	n/a	39	n/a	1	n/a	n/a	n/a	n/a	362.272	n/a
292.53	0.497	neutral	Picture	44.388	n/a	3	8	20	n/a	40	4	1	n/a	n/a	n/a	n/a	362.803	AF05NES.jpg
293.028	0.514	Blank	Blank	43.874	n/a	3	8	20	n/a	40	n/a	1	n/a	n/a	n/a	n/a	363.3	n/a
293.558	10.014	ITI	Fixation+	33.844	n/a	3	n/a	n/a	n/a	n/a	n/a	n/a	n/a	n/a	n/a	n/a	363.831	n/a
303.588	0.497	happy	Picture	33.33	n/a	3	9	1	n/a	41	84	3	n/a	n/a	n/a	n/a	373.861	AF05ANS.jpg
304.086	0.514	Blank	Blank	32.816	n/a	3	9	1	n/a	41	n/a	3	n/a	n/a	n/a	n/a	374.358	n/a
304.616	0.497	happy	Picture	32.302	n/a	3	9	2	n/a	42	92	3	n/a	n/a	n/a	n/a	374.889	AF21ANS.jpg
305.113	0.514	Blank	Blank	31.788	n/a	3	9	2	n/a	42	n/a	3	n/a	n/a	n/a	n/a	375.386	n/a
305.644	0.497	happy	Picture	31.274	n/a	3	9	3	n/a	43	86	3	n/a	n/a	n/a	n/a	375.917	AF09ANS.jpg
306.141	0.514	Blank	Blank	30.76	n/a	3	9	3	n/a	43	n/a	3	n/a	n/a	n/a	n/a	376.414	n/a
306.672	0.497	happy	Picture	30.246	n/a	3	9	4	n/a	44	93	3	n/a	n/a	n/a	n/a	376.944	BF22ANS.jpg
307.169	0.514	Blank	Blank	29.732	n/a	3	9	4	n/a	44	n/a	3	n/a	n/a	n/a	n/a	377.442	n/a
307.7	0.497	happy	Picture	29.218	n/a	3	9	5	n/a	45	88	3	n/a	n/a	n/a	n/a	377.972	AF14ANS.jpg
308.197	0.514	Blank	Blank	28.705	n/a	3	9	5	n/a	45	n/a	3	n/a	n/a	n/a	n/a	378.47	n/a
308.728	0.497	happy	Picture	28.19	n/a	3	9	6	n/a	46	113	3	n/a	n/a	n/a	n/a	379.0	AM21ANS.jpg
309.225	0.514	Blank	Blank	27.677	n/a	3	9	6	n/a	46	n/a	3	n/a	n/a	n/a	n/a	379.498	n/a
309.755	0.497	happy	Picture	27.163	n/a	3	9	7	n/a	47	95	3	n/a	n/a	n/a	n/a	380.028	AF25ANS.jpg
310.253	0.514	Blank	Blank	26.649	n/a	3	9	7	n/a	47	n/a	3	n/a	n/a	n/a	n/a	380.525	n/a
310.783	0.497	happy	Picture	26.135	n/a	3	9	8	n/a	48	102	3	n/a	n/a	n/a	n/a	381.056	BM03ANS.jpg
311.281	0.514	Blank	Blank	25.621	n/a	3	9	8	n/a	48	n/a	3	n/a	n/a	n/a	n/a	381.553	n/a
311.811	0.497	happy	Picture	25.107	n/a	3	9	9	n/a	49	112	3	n/a	n/a	n/a	n/a	382.084	AM14ANS.jpg
312.309	0.514	Blank	Blank	24.593	n/a	3	9	9	n/a	49	n/a	3	n/a	n/a	n/a	n/a	382.581	n/a
312.839	0.497	happy	Picture	24.079	n/a	3	9	10	n/a	50	83	3	n/a	n/a	n/a	n/a	383.112	BF04ANS.jpg
313.336	0.514	Blank	Blank	23.565	n/a	3	9	10	n/a	50	n/a	3	n/a	n/a	n/a	n/a	383.609	n/a
313.867	0.497	happy	Picture	23.051	n/a	3	9	11	n/a	51	90	3	n/a	n/a	n/a	n/a	384.14	AF18ANS.jpg
314.364	0.514	Blank	Blank	22.537	n/a	3	9	11	n/a	51	n/a	3	n/a	n/a	n/a	n/a	384.637	n/a
314.895	0.497	happy	Picture	22.023	n/a	3	9	12	n/a	52	117	3	n/a	n/a	n/a	n/a	385.168	BM25ANS.jpg
315.392	0.514	Blank	Blank	21.509	n/a	3	9	12	n/a	52	n/a	3	n/a	n/a	n/a	n/a	385.665	n/a
315.923	0.497	happy	Picture	20.995	n/a	3	9	13	n/a	53	94	3	n/a	n/a	n/a	n/a	386.195	AF23ANS.jpg
316.42	0.514	Blank	Blank	20.482	n/a	3	9	13	n/a	53	n/a	3	n/a	n/a	n/a	n/a	386.693	n/a
316.951	0.497	happy	Picture	19.967	n/a	3	9	14	n/a	54	106	3	n/a	n/a	n/a	n/a	387.223	AM07ANS.jpg
317.448	0.514	Blank	Blank	19.454	n/a	3	9	14	n/a	54	n/a	3	n/a	n/a	n/a	n/a	387.721	n/a
317.978	0.497	happy	Picture	18.94	n/a	3	9	15	n/a	55	105	3	n/a	n/a	n/a	n/a	388.251	BM06ANS.jpg
318.476	0.514	Blank	Blank	18.426	n/a	3	9	15	n/a	55	n/a	3	n/a	n/a	n/a	n/a	388.748	n/a
319.006	0.497	happy	Picture	17.912	n/a	3	9	16	n/a	56	116	3	n/a	n/a	n/a	n/a	389.279	BM24ANS.jpg
319.504	0.514	Blank	Blank	17.398	n/a	3	9	16	n/a	56	n/a	3	n/a	n/a	n/a	n/a	389.776	n/a
320.034	0.497	happy	Picture	16.884	n/a	3	9	17	n/a	57	89	3	n/a	n/a	n/a	n/a	390.307	AF17ANS.jpg
320.531	0.514	Blank	Blank	16.37	n/a	3	9	17	n/a	57	n/a	3	n/a	n/a	n/a	n/a	390.804	n/a
321.062	0.497	happy	Picture	15.856	n/a	3	9	18	n/a	58	118	3	n/a	n/a	n/a	n/a	391.335	BM26ANS.jpg
321.559	0.514	Blank	Blank	15.342	n/a	3	9	18	n/a	58	n/a	3	n/a	n/a	n/a	n/a	391.832	n/a
322.09	0.497	happy	Picture	14.828	n/a	3	9	19	n/a	59	100	3	n/a	n/a	n/a	n/a	392.363	AF32ANS.jpg
322.587	0.514	Blank	Blank	14.314	n/a	3	9	19	n/a	59	n/a	3	n/a	n/a	n/a	n/a	392.86	n/a
323.118	0.497	happy	Picture	13.8	n/a	3	9	20	n/a	60	119	3	n/a	n/a	n/a	n/a	393.39	BM28ANS.jpg
323.615	0.514	Blank	Blank	13.286	n/a	3	9	20	n/a	60	n/a	3	n/a	n/a	n/a	n/a	393.888	n/a
324.146	10.014	ITI	Fixation+	3.256	n/a	3	n/a	n/a	n/a	n/a	n/a	n/a	n/a	n/a	n/a	n/a	394.418	n/a
337.415	n/a	ConfirmRating	Rate	n/a	3.249	3	n/a	n/a	0	n/a	n/a	n/a	2	Happy	61	51	407.688	n/a
339.673	n/a	ConfirmRating	Rate	n/a	2.238	3	n/a	n/a	1	n/a	n/a	n/a	3	Happy	0	49	409.946	n/a
339.697	10.014	ITI	Fixation+	94.573	n/a	4	n/a	n/a	n/a	n/a	n/a	n/a	n/a	n/a	n/a	n/a	409.969	n/a
349.727	0.497	angry	Picture	94.059	n/a	4	10	1	n/a	61	79	2	n/a	n/a	n/a	n/a	419.999	BM28HAS.jpg
350.224	0.514	Blank	Blank	93.545	n/a	4	10	1	n/a	61	n/a	2	n/a	n/a	n/a	n/a	420.497	n/a
350.755	0.497	angry	Picture	93.032	n/a	4	10	2	n/a	62	61	2	n/a	n/a	n/a	n/a	421.027	AM01HAS.jpg
351.252	0.514	Blank	Blank	92.518	n/a	4	10	2	n/a	62	n/a	2	n/a	n/a	n/a	n/a	421.524	n/a
351.782	0.497	angry	Picture	92.004	n/a	4	10	3	n/a	63	57	2	n/a	n/a	n/a	n/a	422.055	BF28HAS.jpg
352.28	0.514	Blank	Blank	91.49	n/a	4	10	3	n/a	63	n/a	2	n/a	n/a	n/a	n/a	422.552	n/a
352.81	0.497	angry	Picture	90.976	n/a	4	10	4	n/a	64	77	2	n/a	n/a	n/a	n/a	423.083	BM25HAS.jpg
353.308	0.514	Blank	Blank	90.462	n/a	4	10	4	n/a	64	n/a	2	n/a	n/a	n/a	n/a	423.58	n/a
353.838	0.497	angry	Picture	89.948	n/a	4	10	5	n/a	65	47	2	n/a	n/a	n/a	n/a	424.111	BF11HAS.jpg
354.336	0.514	Blank	Blank	89.434	n/a	4	10	5	n/a	65	n/a	2	n/a	n/a	n/a	n/a	424.608	n/a
354.866	0.497	angry	Picture	88.92	n/a	4	10	6	n/a	66	50	2	n/a	n/a	n/a	n/a	425.139	AF18HAS.jpg
355.363	0.514	Blank	Blank	88.406	n/a	4	10	6	n/a	66	n/a	2	n/a	n/a	n/a	n/a	425.636	n/a
355.894	0.497	angry	Picture	87.892	n/a	4	10	7	n/a	67	78	2	n/a	n/a	n/a	n/a	426.167	BM26HAS.jpg
356.391	0.514	Blank	Blank	87.378	n/a	4	10	7	n/a	67	n/a	2	n/a	n/a	n/a	n/a	426.664	n/a
356.922	0.497	angry	Picture	86.864	n/a	4	10	8	n/a	68	45	2	n/a	n/a	n/a	n/a	427.195	BF07HAS.jpg
357.419	0.514	Blank	Blank	86.35	n/a	4	10	8	n/a	68	n/a	2	n/a	n/a	n/a	n/a	427.692	n/a
357.95	0.497	angry	Picture	85.836	n/a	4	10	9	n/a	69	56	2	n/a	n/a	n/a	n/a	428.222	AF26HAS.jpg
358.447	0.514	Blank	Blank	85.322	n/a	4	10	9	n/a	69	n/a	2	n/a	n/a	n/a	n/a	428.72	n/a
358.978	0.497	angry	Picture	84.808	n/a	4	10	10	n/a	70	65	2	n/a	n/a	n/a	n/a	429.25	BM06HAS.jpg
359.475	0.514	Blank	Blank	84.295	n/a	4	10	10	n/a	70	n/a	2	n/a	n/a	n/a	n/a	429.748	n/a
360.005	0.497	angry	Picture	83.781	n/a	4	10	11	n/a	71	73	2	n/a	n/a	n/a	n/a	430.278	AM21HAS.jpg
360.503	0.514	Blank	Blank	83.267	n/a	4	10	11	n/a	71	n/a	2	n/a	n/a	n/a	n/a	430.776	n/a
361.033	0.497	angry	Picture	82.753	n/a	4	10	12	n/a	72	41	2	n/a	n/a	n/a	n/a	431.306	AF01HAS.jpg
361.531	0.514	Blank	Blank	82.239	n/a	4	10	12	n/a	72	n/a	2	n/a	n/a	n/a	n/a	431.803	n/a
362.061	0.497	angry	Picture	81.725	n/a	4	10	13	n/a	73	59	2	n/a	n/a	n/a	n/a	432.334	AF31HAS.jpg
362.559	0.514	Blank	Blank	81.211	n/a	4	10	13	n/a	73	n/a	2	n/a	n/a	n/a	n/a	432.831	n/a
363.089	0.497	angry	Picture	80.697	n/a	4	10	14	n/a	74	64	2	n/a	n/a	n/a	n/a	433.362	BM05HAS.jpg
363.586	0.514	Blank	Blank	80.183	n/a	4	10	14	n/a	74	n/a	2	n/a	n/a	n/a	n/a	433.859	n/a
364.117	0.497	angry	Picture	79.669	n/a	4	10	15	n/a	75	68	2	n/a	n/a	n/a	n/a	434.39	AM09HAS.jpg
364.614	0.514	Blank	Blank	79.155	n/a	4	10	15	n/a	75	n/a	2	n/a	n/a	n/a	n/a	434.887	n/a
365.145	0.497	angry	Picture	78.641	n/a	4	10	16	n/a	76	54	2	n/a	n/a	n/a	n/a	435.418	AF23HAS.jpg
365.642	0.513	Blank	Blank	78.128	n/a	4	10	16	n/a	76	n/a	2	n/a	n/a	n/a	n/a	435.915	n/a
366.173	0.497	angry	Picture	77.613	n/a	4	10	17	n/a	77	53	2	n/a	n/a	n/a	n/a	436.445	BF22HAS.jpg
366.67	0.514	Blank	Blank	77.099	n/a	4	10	17	n/a	77	n/a	2	n/a	n/a	n/a	n/a	436.943	n/a
367.201	0.497	angry	Picture	76.585	n/a	4	10	18	n/a	78	44	2	n/a	n/a	n/a	n/a	437.473	AF05HAS.jpg
367.698	0.514	Blank	Blank	76.071	n/a	4	10	18	n/a	78	n/a	2	n/a	n/a	n/a	n/a	437.971	n/a
368.228	0.497	angry	Picture	75.558	n/a	4	10	19	n/a	79	52	2	n/a	n/a	n/a	n/a	438.501	AF21HAS.jpg
368.726	0.514	Blank	Blank	75.044	n/a	4	10	19	n/a	79	n/a	2	n/a	n/a	n/a	n/a	438.998	n/a
369.256	0.497	angry	Picture	74.53	n/a	4	10	20	n/a	80	62	2	n/a	n/a	n/a	n/a	439.529	BM03HAS.jpg
369.754	0.514	Blank	Blank	74.016	n/a	4	10	20	n/a	80	n/a	2	n/a	n/a	n/a	n/a	440.026	n/a
370.284	10.014	ITI	Fixation+	63.986	n/a	4	n/a	n/a	n/a	n/a	n/a	n/a	n/a	n/a	n/a	n/a	440.557	n/a
380.314	0.497	neutral	Picture	63.472	n/a	4	11	1	n/a	81	23	1	n/a	n/a	n/a	n/a	450.587	AM04NES.jpg
380.812	0.514	Blank	Blank	62.958	n/a	4	11	1	n/a	81	n/a	1	n/a	n/a	n/a	n/a	451.084	n/a
381.342	0.497	neutral	Picture	62.444	n/a	4	11	2	n/a	82	29	1	n/a	n/a	n/a	n/a	451.615	AM10NES.jpg
381.839	0.514	Blank	Blank	61.93	n/a	4	11	2	n/a	82	n/a	1	n/a	n/a	n/a	n/a	452.112	n/a
382.37	0.497	neutral	Picture	61.416	n/a	4	11	3	n/a	83	24	1	n/a	n/a	n/a	n/a	452.643	BM05NES.jpg
382.867	0.514	Blank	Blank	60.902	n/a	4	11	3	n/a	83	n/a	1	n/a	n/a	n/a	n/a	453.14	n/a
383.398	0.497	neutral	Picture	60.388	n/a	4	11	4	n/a	84	12	1	n/a	n/a	n/a	n/a	453.671	AF21NES.jpg
383.895	0.514	Blank	Blank	59.874	n/a	4	11	4	n/a	84	n/a	1	n/a	n/a	n/a	n/a	454.168	n/a
384.426	0.497	neutral	Picture	59.36	n/a	4	11	5	n/a	85	13	1	n/a	n/a	n/a	n/a	454.699	BF22NES.jpg
384.923	0.514	Blank	Blank	58.846	n/a	4	11	5	n/a	85	n/a	1	n/a	n/a	n/a	n/a	455.196	n/a
385.454	0.497	neutral	Picture	58.332	n/a	4	11	6	n/a	86	17	1	n/a	n/a	n/a	n/a	455.726	BF28NES.jpg
385.951	0.514	Blank	Blank	57.818	n/a	4	11	6	n/a	86	n/a	1	n/a	n/a	n/a	n/a	456.224	n/a
386.482	0.497	neutral	Picture	57.304	n/a	4	11	7	n/a	87	4	1	n/a	n/a	n/a	n/a	456.754	AF05NES.jpg
386.979	0.514	Blank	Blank	56.79	n/a	4	11	7	n/a	87	n/a	1	n/a	n/a	n/a	n/a	457.252	n/a
387.509	0.497	neutral	Picture	56.276	n/a	4	11	8	n/a	88	11	1	n/a	n/a	n/a	n/a	457.782	AF20NES.jpg
388.007	0.514	Blank	Blank	55.763	n/a	4	11	8	n/a	88	n/a	1	n/a	n/a	n/a	n/a	458.279	n/a
388.537	0.497	neutral	Picture	55.249	n/a	4	11	9	n/a	89	22	1	n/a	n/a	n/a	n/a	458.81	BM03NES.jpg
389.035	0.514	Blank	Blank	54.735	n/a	4	11	9	n/a	89	n/a	1	n/a	n/a	n/a	n/a	459.307	n/a
389.565	0.497	neutral	Picture	54.221	n/a	4	11	10	n/a	90	15	1	n/a	n/a	n/a	n/a	459.838	AF25NES.jpg
390.063	0.514	Blank	Blank	53.707	n/a	4	11	10	n/a	90	n/a	1	n/a	n/a	n/a	n/a	460.335	n/a
390.593	0.497	neutral	Picture	53.193	n/a	4	11	11	n/a	91	19	1	n/a	n/a	n/a	n/a	460.866	AF31NES.jpg
391.09	0.514	Blank	Blank	52.679	n/a	4	11	11	n/a	91	n/a	1	n/a	n/a	n/a	n/a	461.363	n/a
391.621	0.497	neutral	Picture	52.165	n/a	4	11	12	n/a	92	9	1	n/a	n/a	n/a	n/a	461.894	AF17NES.jpg
392.118	0.514	Blank	Blank	51.651	n/a	4	11	12	n/a	92	n/a	1	n/a	n/a	n/a	n/a	462.391	n/a
392.649	0.497	neutral	Picture	51.137	n/a	4	11	13	n/a	93	14	1	n/a	n/a	n/a	n/a	462.921	AF23NES.jpg
393.146	0.514	Blank	Blank	50.623	n/a	4	11	13	n/a	93	n/a	1	n/a	n/a	n/a	n/a	463.419	n/a
393.677	0.497	neutral	Picture	50.109	n/a	4	11	14	n/a	94	36	1	n/a	n/a	n/a	n/a	463.949	BM24NES.jpg
394.174	0.514	Blank	Blank	49.595	n/a	4	11	14	n/a	94	n/a	1	n/a	n/a	n/a	n/a	464.447	n/a
394.705	0.497	neutral	Picture	49.081	n/a	4	11	15	n/a	95	34	1	n/a	n/a	n/a	n/a	464.977	AM22NES.jpg
395.202	0.514	Blank	Blank	48.567	n/a	4	11	15	n/a	95	n/a	1	n/a	n/a	n/a	n/a	465.475	n/a
395.733	0.497	neutral	Picture	48.054	n/a	4	11	16	n/a	96	10	1	n/a	n/a	n/a	n/a	466.005	AF18NES.jpg
396.23	0.514	Blank	Blank	47.54	n/a	4	11	16	n/a	96	n/a	1	n/a	n/a	n/a	n/a	466.502	n/a
396.76	0.497	neutral	Picture	47.026	n/a	4	11	17	n/a	97	5	1	n/a	n/a	n/a	n/a	467.033	BF07NES.jpg
397.258	0.514	Blank	Blank	46.512	n/a	4	11	17	n/a	97	n/a	1	n/a	n/a	n/a	n/a	467.53	n/a
397.788	0.497	neutral	Picture	45.998	n/a	4	11	18	n/a	98	25	1	n/a	n/a	n/a	n/a	468.061	BM06NES.jpg
398.286	0.514	Blank	Blank	45.484	n/a	4	11	18	n/a	98	n/a	1	n/a	n/a	n/a	n/a	468.558	n/a
398.816	0.497	neutral	Picture	44.97	n/a	4	11	19	n/a	99	39	1	n/a	n/a	n/a	n/a	469.089	AM28NES.jpg
399.314	0.514	Blank	Blank	44.456	n/a	4	11	19	n/a	99	n/a	1	n/a	n/a	n/a	n/a	469.586	n/a
399.844	0.497	neutral	Picture	43.942	n/a	4	11	20	n/a	100	33	1	n/a	n/a	n/a	n/a	470.117	AM21NES.jpg
400.341	0.514	Blank	Blank	43.428	n/a	4	11	20	n/a	100	n/a	1	n/a	n/a	n/a	n/a	470.614	n/a
400.872	10.014	ITI	Fixation+	33.398	n/a	4	n/a	n/a	n/a	n/a	n/a	n/a	n/a	n/a	n/a	n/a	471.145	n/a
410.902	0.497	angry	Picture	32.884	n/a	4	12	1	n/a	101	74	2	n/a	n/a	n/a	n/a	481.175	AM22HAS.jpg
411.399	0.514	Blank	Blank	32.37	n/a	4	12	1	n/a	101	n/a	2	n/a	n/a	n/a	n/a	481.672	n/a
411.93	0.497	angry	Picture	31.856	n/a	4	12	2	n/a	102	76	2	n/a	n/a	n/a	n/a	482.203	BM24HAS.jpg
412.427	0.514	Blank	Blank	31.342	n/a	4	12	2	n/a	102	n/a	2	n/a	n/a	n/a	n/a	482.7	n/a
412.958	0.497	angry	Picture	30.828	n/a	4	12	3	n/a	103	80	2	n/a	n/a	n/a	n/a	483.23	BM35HAS.jpg
413.455	0.514	Blank	Blank	30.314	n/a	4	12	3	n/a	103	n/a	2	n/a	n/a	n/a	n/a	483.728	n/a
413.986	0.497	angry	Picture	29.8	n/a	4	12	4	n/a	104	75	2	n/a	n/a	n/a	n/a	484.258	AM23HAS.jpg
414.483	0.514	Blank	Blank	29.286	n/a	4	12	4	n/a	104	n/a	2	n/a	n/a	n/a	n/a	484.756	n/a
415.014	0.497	angry	Picture	28.772	n/a	4	12	5	n/a	105	49	2	n/a	n/a	n/a	n/a	485.286	AF17HAS.jpg
415.511	0.514	Blank	Blank	28.259	n/a	4	12	5	n/a	105	n/a	2	n/a	n/a	n/a	n/a	485.784	n/a
416.041	0.497	angry	Picture	27.745	n/a	4	12	6	n/a	106	43	2	n/a	n/a	n/a	n/a	486.314	BF04HAS.jpg
416.539	0.514	Blank	Blank	27.231	n/a	4	12	6	n/a	106	n/a	2	n/a	n/a	n/a	n/a	486.811	n/a
417.069	0.497	angry	Picture	26.717	n/a	4	12	7	n/a	107	70	2	n/a	n/a	n/a	n/a	487.342	BM11HAS.jpg
417.567	0.514	Blank	Blank	26.203	n/a	4	12	7	n/a	107	n/a	2	n/a	n/a	n/a	n/a	487.839	n/a
418.097	0.497	angry	Picture	25.689	n/a	4	12	8	n/a	108	66	2	n/a	n/a	n/a	n/a	488.37	BM07HAS.jpg
418.595	0.514	Blank	Blank	25.175	n/a	4	12	8	n/a	108	n/a	2	n/a	n/a	n/a	n/a	488.867	n/a
419.125	0.497	angry	Picture	24.661	n/a	4	12	9	n/a	109	48	2	n/a	n/a	n/a	n/a	489.398	AF14HAS.jpg
419.622	0.514	Blank	Blank	24.147	n/a	4	12	9	n/a	109	n/a	2	n/a	n/a	n/a	n/a	489.895	n/a
420.152	0.498	angry	Picture	23.633	n/a	4	12	10	n/a	110	58	2	n/a	n/a	n/a	n/a	490.425	BF29HAS.jpg
420.65	0.514	Blank	Blank	23.119	n/a	4	12	10	n/a	110	n/a	2	n/a	n/a	n/a	n/a	490.923	n/a
421.181	0.497	angry	Picture	22.605	n/a	4	12	11	n/a	111	63	2	n/a	n/a	n/a	n/a	491.453	AM04HAS.jpg
421.678	0.514	Blank	Blank	22.091	n/a	4	12	11	n/a	111	n/a	2	n/a	n/a	n/a	n/a	491.951	n/a
422.209	0.497	angry	Picture	21.577	n/a	4	12	12	n/a	112	72	2	n/a	n/a	n/a	n/a	492.481	AM14HAS.jpg
422.706	0.514	Blank	Blank	21.063	n/a	4	12	12	n/a	112	n/a	2	n/a	n/a	n/a	n/a	492.979	n/a
423.237	0.497	angry	Picture	20.549	n/a	4	12	13	n/a	113	55	2	n/a	n/a	n/a	n/a	493.509	AF25HAS.jpg
423.734	0.514	Blank	Blank	20.036	n/a	4	12	13	n/a	113	n/a	2	n/a	n/a	n/a	n/a	494.007	n/a
424.264	0.497	angry	Picture	19.522	n/a	4	12	14	n/a	114	42	2	n/a	n/a	n/a	n/a	494.537	AF03HAS.jpg
424.762	0.514	Blank	Blank	19.008	n/a	4	12	14	n/a	114	n/a	2	n/a	n/a	n/a	n/a	495.034	n/a
425.292	0.497	angry	Picture	18.494	n/a	4	12	15	n/a	115	60	2	n/a	n/a	n/a	n/a	495.565	AF32HAS.jpg
425.79	0.514	Blank	Blank	17.98	n/a	4	12	15	n/a	115	n/a	2	n/a	n/a	n/a	n/a	496.062	n/a
426.32	0.497	angry	Picture	17.466	n/a	4	12	16	n/a	116	67	2	n/a	n/a	n/a	n/a	496.593	BM08HAS.jpg
426.817	0.514	Blank	Blank	16.952	n/a	4	12	16	n/a	116	n/a	2	n/a	n/a	n/a	n/a	497.09	n/a
427.348	0.497	angry	Picture	16.438	n/a	4	12	17	n/a	117	51	2	n/a	n/a	n/a	n/a	497.621	AF20HAS.jpg
427.845	0.514	Blank	Blank	15.924	n/a	4	12	17	n/a	117	n/a	2	n/a	n/a	n/a	n/a	498.118	n/a
428.376	0.497	angry	Picture	15.41	n/a	4	12	18	n/a	118	71	2	n/a	n/a	n/a	n/a	498.649	BM12HAS.jpg
428.873	0.514	Blank	Blank	14.896	n/a	4	12	18	n/a	118	n/a	2	n/a	n/a	n/a	n/a	499.146	n/a
429.404	0.497	angry	Picture	14.382	n/a	4	12	19	n/a	119	69	2	n/a	n/a	n/a	n/a	499.676	AM10HAS.jpg
429.901	0.514	Blank	Blank	13.868	n/a	4	12	19	n/a	119	n/a	2	n/a	n/a	n/a	n/a	500.174	n/a
430.432	0.497	angry	Picture	13.354	n/a	4	12	20	n/a	120	46	2	n/a	n/a	n/a	n/a	500.704	AF09HAS.jpg
430.929	0.514	Blank	Blank	12.84	n/a	4	12	20	n/a	120	n/a	2	n/a	n/a	n/a	n/a	501.202	n/a
431.46	10.014	ITI	Fixation+	2.81	n/a	4	n/a	n/a	n/a	n/a	n/a	n/a	n/a	n/a	n/a	n/a	501.732	n/a
444.283	n/a	ConfirmRating	Rate	n/a	2.802	4	n/a	n/a	0	n/a	n/a	n/a	2	Angry	50	50	514.556	n/a
446.903	n/a	ConfirmRating	Rate	n/a	2.603	4	n/a	n/a	1	n/a	n/a	n/a	3	Angry	0	49	517.176	n/a
