onset	duration	trial_type	trial_number	event_type	cue_to_participant	stimulus_type	time_until_response	rated_success_of_regulation	onset_uncorrected
0.018	10.014	Instruction	-1	Picture	Instruction	n/a	n/a	n/a	36.717
10.048	5.007	ITI	0	Picture	Fixation+	1	11.193	n/a	46.747
15.072	2.006	Cue	0	Picture	Maintain	1	9.171	n/a	51.77
17.078	4.99	Pic	0	Picture	IAPS_26	1	4.181	n/a	53.776
22.068	2.006	Blank	0	Picture	BLANK	1	2.175	n/a	58.767
26.249	n/a	ConfirmRating	0	Response	n/a	1	n/a	7	62.947
26.279	6.002	ITI	1	Picture	Fixation+	2	11.107	n/a	62.978
32.297	2.006	Cue	1	Picture	Enhance	2	9.084	n/a	68.996
34.303	4.99	Pic	1	Picture	IAPS_36	2	4.094	n/a	71.002
39.294	2.006	Blank	1	Picture	BLANK	2	2.088	n/a	75.992
43.388	n/a	ConfirmRating	1	Response	n/a	2	n/a	6	80.086
43.405	4.012	ITI	2	Picture	Fixation+	3	10.186	n/a	80.104
47.434	2.006	Cue	2	Picture	Suppress	3	8.164	n/a	84.132
49.44	4.99	Pic	2	Picture	IAPS_01	3	3.173	n/a	86.138
54.43	2.006	Blank	2	Picture	BLANK	3	1.167	n/a	91.129
57.603	n/a	ConfirmRating	2	Response	n/a	3	n/a	6	94.302
57.63	5.007	ITI	3	Picture	Fixation+	4	11.224	n/a	94.328
62.653	2.006	Cue	3	Picture	Maintain	4	9.201	n/a	99.352
64.659	4.99	Pic	3	Picture	IAPS_46	4	4.211	n/a	101.358
69.649	2.006	Blank	3	Picture	BLANK	4	2.205	n/a	106.348
73.86	n/a	ConfirmRating	3	Response	n/a	4	n/a	6	110.559
73.877	5.007	ITI	4	Picture	Fixation+	4	10.677	n/a	110.576
78.9	2.006	Cue	4	Picture	Maintain	4	8.655	n/a	115.599
80.906	4.99	Pic	4	Picture	IAPS_49	4	3.665	n/a	117.605
85.897	2.006	Blank	4	Picture	BLANK	4	1.659	n/a	122.595
89.561	n/a	ConfirmRating	4	Response	n/a	4	n/a	7	126.26
89.594	6.002	ITI	5	Picture	Fixation+	2	10.111	n/a	126.292
95.612	2.006	Cue	5	Picture	Enhance	2	8.088	n/a	132.31
97.618	4.99	Pic	5	Picture	IAPS_37	2	3.098	n/a	134.316
102.608	2.006	Blank	5	Picture	BLANK	2	1.092	n/a	139.307
105.706	n/a	ConfirmRating	5	Response	n/a	2	n/a	5	142.404
105.725	4.012	ITI	6	Picture	Fixation+	1	10.675	n/a	142.423
109.754	2.006	Cue	6	Picture	Maintain	1	8.652	n/a	146.452
111.76	4.99	Pic	6	Picture	IAPS_27	1	3.662	n/a	148.458
116.75	2.006	Blank	6	Picture	BLANK	1	1.656	n/a	153.448
120.412	n/a	ConfirmRating	6	Response	n/a	1	n/a	6	157.11
120.43	6.002	ITI	7	Picture	Fixation+	3	10.767	n/a	157.129
126.448	2.006	Cue	7	Picture	Suppress	3	8.744	n/a	163.147
128.454	4.99	Pic	7	Picture	IAPS_02	3	3.754	n/a	165.153
133.445	2.006	Blank	7	Picture	BLANK	3	1.748	n/a	170.143
137.199	n/a	ConfirmRating	7	Response	n/a	3	n/a	7	173.897
137.225	5.007	ITI	8	Picture	Fixation+	4	10.861	n/a	173.923
142.248	2.006	Cue	8	Picture	Maintain	4	8.838	n/a	178.946
144.254	4.99	Pic	8	Picture	IAPS_52	4	3.848	n/a	180.953
149.244	2.006	Blank	8	Picture	BLANK	4	1.842	n/a	185.943
153.093	n/a	ConfirmRating	8	Response	n/a	4	n/a	6	189.791
153.124	6.002	ITI	9	Picture	Fixation+	1	10.839	n/a	189.822
159.142	2.006	Cue	9	Picture	Maintain	1	8.816	n/a	195.84
161.148	4.99	Pic	9	Picture	IAPS_28	1	3.826	n/a	197.846
166.138	2.006	Blank	9	Picture	BLANK	1	1.82	n/a	202.837
169.964	n/a	ConfirmRating	9	Response	n/a	1	n/a	6	206.663
169.984	5.007	ITI	10	Picture	Fixation+	2	11.911	n/a	206.683
175.008	2.006	Cue	10	Picture	Enhance	2	9.888	n/a	211.706
177.014	4.99	Pic	10	Picture	IAPS_38	2	4.898	n/a	213.712
182.004	2.006	Blank	10	Picture	BLANK	2	2.892	n/a	218.703
186.902	n/a	ConfirmRating	10	Response	n/a	2	n/a	6	223.601
186.928	4.012	ITI	11	Picture	Fixation+	3	10.339	n/a	223.626
190.957	2.006	Cue	11	Picture	Suppress	3	8.316	n/a	227.655
192.963	4.99	Pic	11	Picture	IAPS_03	3	3.326	n/a	229.661
197.953	2.006	Blank	11	Picture	BLANK	3	1.32	n/a	234.651
201.279	n/a	ConfirmRating	11	Response	n/a	3	n/a	7	237.977
201.302	6.002	ITI	12	Picture	Fixation+	2	9.896	n/a	238.0
207.32	2.006	Cue	12	Picture	Enhance	2	7.874	n/a	244.018
209.326	4.99	Pic	12	Picture	IAPS_39	2	2.884	n/a	246.024
214.316	2.006	Blank	12	Picture	BLANK	2	0.877	n/a	251.015
217.2	n/a	ConfirmRating	12	Response	n/a	2	n/a	5	253.898
217.218	5.007	ITI	13	Picture	Fixation+	1	10.23	n/a	253.916
222.241	2.006	Cue	13	Picture	Maintain	1	8.208	n/a	258.939
224.247	4.99	Pic	13	Picture	IAPS_29	1	3.217	n/a	260.945
229.237	2.006	Blank	13	Picture	BLANK	1	1.211	n/a	265.936
232.455	n/a	ConfirmRating	13	Response	n/a	1	n/a	6	269.153
232.487	4.012	ITI	14	Picture	Fixation+	4	10.963	n/a	269.185
236.515	2.006	Cue	14	Picture	Maintain	4	8.94	n/a	273.214
238.521	4.99	Pic	14	Picture	IAPS_55	4	3.95	n/a	275.22
243.511	2.006	Blank	14	Picture	BLANK	4	1.944	n/a	280.21
247.461	n/a	ConfirmRating	14	Response	n/a	4	n/a	7	284.16
247.49	5.007	ITI	15	Picture	Fixation+	3	10.531	n/a	284.189
252.514	2.006	Cue	15	Picture	Suppress	3	8.508	n/a	289.212
254.52	4.99	Pic	15	Picture	IAPS_04	3	3.518	n/a	291.218
259.51	2.006	Blank	15	Picture	BLANK	3	1.512	n/a	296.209
263.028	n/a	ConfirmRating	15	Response	n/a	3	n/a	6	299.727
263.058	6.002	ITI	16	Picture	Fixation+	2	10.662	n/a	299.757
269.076	2.006	Cue	16	Picture	Enhance	2	8.639	n/a	305.775
271.082	4.99	Pic	16	Picture	IAPS_40	2	3.649	n/a	307.781
276.072	2.006	Blank	16	Picture	BLANK	2	1.643	n/a	312.771
279.721	n/a	ConfirmRating	16	Response	n/a	2	n/a	0	316.42
279.753	6.002	ITI	17	Picture	Fixation+	1	12.498	n/a	316.451
285.771	2.006	Cue	17	Picture	Maintain	1	10.475	n/a	322.469
287.777	4.99	Pic	17	Picture	IAPS_30	1	5.485	n/a	324.476
292.767	2.006	Blank	17	Picture	BLANK	1	3.479	n/a	329.466
298.252	n/a	ConfirmRating	17	Response	n/a	1	n/a	5	334.95
298.271	4.012	ITI	18	Picture	Fixation+	3	9.832	n/a	334.97
302.3	2.006	Cue	18	Picture	Suppress	3	7.81	n/a	338.999
304.306	4.99	Pic	18	Picture	IAPS_05	3	2.82	n/a	341.005
309.296	2.006	Blank	18	Picture	BLANK	3	0.813	n/a	345.995
312.116	n/a	ConfirmRating	18	Response	n/a	3	n/a	6	348.814
312.148	5.007	ITI	19	Picture	Fixation+	4	9.997	n/a	348.846
317.171	2.006	Cue	19	Picture	Maintain	4	7.974	n/a	353.87
319.177	4.99	Pic	19	Picture	IAPS_58	4	2.984	n/a	355.876
324.167	2.006	Blank	19	Picture	BLANK	4	0.978	n/a	360.866
327.152	n/a	ConfirmRating	19	Response	n/a	4	n/a	7	363.85
327.168	6.002	ITI	20	Picture	Fixation+	4	10.749	n/a	363.867
333.186	2.006	Cue	20	Picture	Maintain	4	8.726	n/a	369.885
335.192	4.99	Pic	20	Picture	IAPS_47	4	3.736	n/a	371.891
340.183	2.006	Blank	20	Picture	BLANK	4	1.73	n/a	376.881
343.918	n/a	ConfirmRating	20	Response	n/a	4	n/a	6	380.617
343.946	5.007	ITI	21	Picture	Fixation+	3	10.604	n/a	380.645
348.969	2.006	Cue	21	Picture	Suppress	3	8.582	n/a	385.668
350.975	4.99	Pic	21	Picture	IAPS_06	3	3.592	n/a	387.674
355.966	2.006	Blank	21	Picture	BLANK	3	1.586	n/a	392.664
359.557	n/a	ConfirmRating	21	Response	n/a	3	n/a	4	396.256
359.58	4.012	ITI	22	Picture	Fixation+	1	10.598	n/a	396.278
363.609	2.006	Cue	22	Picture	Maintain	1	8.576	n/a	400.307
365.615	4.99	Pic	22	Picture	IAPS_16	1	3.585	n/a	402.313
370.605	2.006	Blank	22	Picture	BLANK	1	1.579	n/a	407.303
374.19	n/a	ConfirmRating	22	Response	n/a	1	n/a	6	410.889
374.219	4.012	ITI	23	Picture	Fixation+	2	11.482	n/a	410.918
378.248	2.006	Cue	23	Picture	Enhance	2	9.459	n/a	414.946
380.254	4.99	Pic	23	Picture	IAPS_41	2	4.469	n/a	416.952
385.244	2.006	Blank	23	Picture	BLANK	2	2.463	n/a	421.942
389.713	n/a	ConfirmRating	23	Response	n/a	2	n/a	7	426.411
389.737	5.007	ITI	24	Picture	Fixation+	1	12.004	n/a	426.435
394.76	2.006	Cue	24	Picture	Maintain	1	9.982	n/a	431.459
396.766	4.99	Pic	24	Picture	IAPS_17	1	4.991	n/a	433.465
401.756	2.006	Blank	24	Picture	BLANK	1	2.985	n/a	438.455
406.748	n/a	ConfirmRating	24	Response	n/a	1	n/a	7	443.446
406.78	4.012	ITI	25	Picture	Fixation+	2	10.27	n/a	443.478
410.808	2.006	Cue	25	Picture	Enhance	2	8.247	n/a	447.507
412.814	4.99	Pic	25	Picture	IAPS_42	2	3.257	n/a	449.513
417.805	2.006	Blank	25	Picture	BLANK	2	1.251	n/a	454.503
421.062	n/a	ConfirmRating	25	Response	n/a	2	n/a	6	457.76
421.087	6.002	ITI	26	Picture	Fixation+	4	10.715	n/a	457.786
427.105	2.006	Cue	26	Picture	Maintain	4	8.693	n/a	463.804
429.111	4.99	Pic	26	Picture	IAPS_50	4	3.703	n/a	465.81
434.102	2.006	Blank	26	Picture	BLANK	4	1.697	n/a	470.8
437.804	n/a	ConfirmRating	26	Response	n/a	4	n/a	6	474.503
437.832	5.007	ITI	27	Picture	Fixation+	3	10.424	n/a	474.531
442.855	2.006	Cue	27	Picture	Suppress	3	8.402	n/a	479.554
444.861	4.99	Pic	27	Picture	IAPS_07	3	3.412	n/a	481.56
449.852	2.006	Blank	27	Picture	BLANK	3	1.406	n/a	486.55
453.263	n/a	ConfirmRating	27	Response	n/a	3	n/a	6	489.962
453.283	5.007	ITI	28	Picture	Fixation+	2	9.87	n/a	489.982
458.307	2.006	Cue	28	Picture	Enhance	2	7.847	n/a	495.005
460.313	4.99	Pic	28	Picture	IAPS_43	2	2.857	n/a	497.011
465.303	2.006	Blank	28	Picture	BLANK	2	0.851	n/a	502.002
468.16	n/a	ConfirmRating	28	Response	n/a	2	n/a	3	504.859
468.188	4.012	ITI	29	Picture	Fixation+	3	10.098	n/a	504.886
472.216	2.006	Cue	29	Picture	Suppress	3	8.075	n/a	508.915
474.222	4.99	Pic	29	Picture	IAPS_08	3	3.085	n/a	510.921
479.213	2.006	Blank	29	Picture	BLANK	3	1.079	n/a	515.911
482.298	n/a	ConfirmRating	29	Response	n/a	3	n/a	6	518.996
482.33	15.004	Rest	29	Picture	Rest	n/a	-15.035	n/a	519.028
497.35	5.007	ITI	30	Picture	Fixation+	4	10.686	n/a	534.048
502.373	2.006	Cue	30	Picture	Maintain	4	8.663	n/a	539.072
504.379	4.99	Pic	30	Picture	IAPS_53	4	3.673	n/a	541.078
509.37	2.006	Blank	30	Picture	BLANK	4	1.667	n/a	546.068
513.043	n/a	ConfirmRating	30	Response	n/a	4	n/a	7	549.741
513.067	6.002	ITI	31	Picture	Fixation+	1	12.163	n/a	549.765
519.085	2.006	Cue	31	Picture	Maintain	1	10.141	n/a	555.783
521.091	4.99	Pic	31	Picture	IAPS_18	1	5.15	n/a	557.789
526.081	2.006	Blank	31	Picture	BLANK	1	3.144	n/a	562.78
531.231	n/a	ConfirmRating	31	Response	n/a	1	n/a	6	567.93
531.254	4.012	ITI	32	Picture	Fixation+	3	9.657	n/a	567.952
535.282	2.006	Cue	32	Picture	Suppress	3	7.634	n/a	571.981
537.288	4.99	Pic	32	Picture	IAPS_09	3	2.644	n/a	573.987
542.279	2.006	Blank	32	Picture	BLANK	3	0.638	n/a	578.977
544.922	n/a	ConfirmRating	32	Response	n/a	3	n/a	5	581.621
544.948	5.007	ITI	33	Picture	Fixation+	1	11.117	n/a	581.646
549.971	2.006	Cue	33	Picture	Maintain	1	9.095	n/a	586.67
551.977	4.99	Pic	33	Picture	IAPS_19	1	4.105	n/a	588.676
556.967	2.006	Blank	33	Picture	BLANK	1	2.099	n/a	593.666
561.072	n/a	ConfirmRating	33	Response	n/a	1	n/a	6	597.771
561.096	4.012	ITI	34	Picture	Fixation+	2	10.048	n/a	597.794
565.124	2.006	Cue	34	Picture	Enhance	2	8.026	n/a	601.823
567.13	4.99	Pic	34	Picture	IAPS_44	2	3.036	n/a	603.829
572.12	2.006	Blank	34	Picture	BLANK	2	1.03	n/a	608.819
575.156	n/a	ConfirmRating	34	Response	n/a	2	n/a	5	611.855
575.188	6.002	ITI	35	Picture	Fixation+	4	11.127	n/a	611.886
581.206	2.006	Cue	35	Picture	Maintain	4	9.104	n/a	617.904
583.212	4.99	Pic	35	Picture	IAPS_56	4	4.114	n/a	619.91
588.202	2.006	Blank	35	Picture	BLANK	4	2.108	n/a	624.9
592.316	n/a	ConfirmRating	35	Response	n/a	4	n/a	6	629.014
592.347	5.007	ITI	36	Picture	Fixation+	3	11.935	n/a	629.045
597.37	2.006	Cue	36	Picture	Suppress	3	9.913	n/a	634.068
599.376	4.99	Pic	36	Picture	IAPS_10	3	4.922	n/a	636.075
604.366	2.006	Blank	36	Picture	BLANK	3	2.916	n/a	641.065
609.289	n/a	ConfirmRating	36	Response	n/a	3	n/a	6	645.987
609.307	6.002	ITI	37	Picture	Fixation+	4	11.836	n/a	646.005
615.325	2.006	Cue	37	Picture	Maintain	4	9.813	n/a	652.023
617.331	4.99	Pic	37	Picture	IAPS_59	4	4.823	n/a	654.029
622.321	2.006	Blank	37	Picture	BLANK	4	2.817	n/a	659.02
627.144	n/a	ConfirmRating	37	Response	n/a	4	n/a	6	663.843
627.162	5.007	ITI	38	Picture	Fixation+	2	10.184	n/a	663.861
632.186	2.006	Cue	38	Picture	Enhance	2	8.162	n/a	668.884
634.192	4.99	Pic	38	Picture	IAPS_45	2	3.171	n/a	670.89
639.182	2.006	Blank	38	Picture	BLANK	2	1.165	n/a	675.88
642.353	n/a	ConfirmRating	38	Response	n/a	2	n/a	4	679.052
642.382	4.012	ITI	39	Picture	Fixation+	1	10.009	n/a	679.08
646.41	2.006	Cue	39	Picture	Maintain	1	7.986	n/a	683.109
648.416	4.99	Pic	39	Picture	IAPS_20	1	2.996	n/a	685.115
653.407	2.006	Blank	39	Picture	BLANK	1	0.99	n/a	690.105
656.402	n/a	ConfirmRating	39	Response	n/a	1	n/a	6	693.101
656.424	6.002	ITI	40	Picture	Fixation+	4	10.575	n/a	693.122
662.442	2.006	Cue	40	Picture	Maintain	4	8.552	n/a	699.14
664.448	4.99	Pic	40	Picture	IAPS_48	4	3.562	n/a	701.146
669.438	2.006	Blank	40	Picture	BLANK	4	1.556	n/a	706.137
673.0	n/a	ConfirmRating	40	Response	n/a	4	n/a	7	709.698
673.019	5.007	ITI	41	Picture	Fixation+	3	10.962	n/a	709.718
678.043	2.006	Cue	41	Picture	Suppress	3	8.939	n/a	714.741
680.049	4.99	Pic	41	Picture	IAPS_11	3	3.949	n/a	716.747
685.039	2.006	Blank	41	Picture	BLANK	3	1.943	n/a	721.737
688.988	n/a	ConfirmRating	41	Response	n/a	3	n/a	6	725.686
689.018	6.002	ITI	42	Picture	Fixation+	2	9.809	n/a	725.716
695.036	2.006	Cue	42	Picture	Enhance	2	7.787	n/a	731.734
697.042	4.99	Pic	42	Picture	IAPS_31	2	2.796	n/a	733.74
702.032	2.006	Blank	42	Picture	BLANK	2	0.79	n/a	738.731
704.829	n/a	ConfirmRating	42	Response	n/a	2	n/a	6	741.527
704.851	4.012	ITI	43	Picture	Fixation+	1	10.621	n/a	741.549
708.879	2.006	Cue	43	Picture	Maintain	1	8.598	n/a	745.578
710.885	4.99	Pic	43	Picture	IAPS_21	1	3.608	n/a	747.584
715.875	2.006	Blank	43	Picture	BLANK	1	1.602	n/a	752.574
719.484	n/a	ConfirmRating	43	Response	n/a	1	n/a	6	756.182
719.506	5.007	ITI	44	Picture	Fixation+	2	9.812	n/a	756.205
724.53	2.006	Cue	44	Picture	Enhance	2	7.79	n/a	761.228
726.536	4.99	Pic	44	Picture	IAPS_32	2	2.799	n/a	763.234
731.526	2.006	Blank	44	Picture	BLANK	2	0.793	n/a	768.224
734.325	n/a	ConfirmRating	44	Response	n/a	2	n/a	2	771.024
734.344	5.007	ITI	45	Picture	Fixation+	4	11.364	n/a	771.043
739.368	2.006	Cue	45	Picture	Maintain	4	9.341	n/a	776.066
741.374	4.99	Pic	45	Picture	IAPS_51	4	4.351	n/a	778.072
746.364	2.006	Blank	45	Picture	BLANK	4	2.345	n/a	783.063
750.715	n/a	ConfirmRating	45	Response	n/a	4	n/a	7	787.414
750.741	4.012	ITI	46	Picture	Fixation+	3	10.277	n/a	787.439
754.769	2.006	Cue	46	Picture	Suppress	3	8.255	n/a	791.468
756.776	4.99	Pic	46	Picture	IAPS_12	3	3.264	n/a	793.474
761.766	2.006	Blank	46	Picture	BLANK	3	1.258	n/a	798.464
765.03	n/a	ConfirmRating	46	Response	n/a	3	n/a	6	801.729
765.048	5.007	ITI	47	Picture	Fixation+	1	11.503	n/a	801.747
770.072	2.006	Cue	47	Picture	Maintain	1	9.48	n/a	806.77
772.078	4.99	Pic	47	Picture	IAPS_22	1	4.49	n/a	808.776
777.068	2.006	Blank	47	Picture	BLANK	1	2.484	n/a	813.766
781.558	n/a	ConfirmRating	47	Response	n/a	1	n/a	6	818.256
781.577	4.012	ITI	48	Picture	Fixation+	3	10.3	n/a	818.276
785.606	2.006	Cue	48	Picture	Suppress	3	8.278	n/a	822.305
787.612	4.99	Pic	48	Picture	IAPS_13	3	3.287	n/a	824.311
792.602	2.006	Blank	48	Picture	BLANK	3	1.281	n/a	829.301
795.89	n/a	ConfirmRating	48	Response	n/a	3	n/a	5	832.588
795.918	5.007	ITI	49	Picture	Fixation+	4	12.8	n/a	832.617
800.942	2.006	Cue	49	Picture	Maintain	4	10.777	n/a	837.64
802.947	4.99	Pic	49	Picture	IAPS_54	4	5.787	n/a	839.646
807.938	2.006	Blank	49	Picture	BLANK	4	3.781	n/a	844.636
813.725	n/a	ConfirmRating	49	Response	n/a	4	n/a	7	850.423
813.757	5.007	ITI	50	Picture	Fixation+	1	9.836	n/a	850.455
818.78	2.006	Cue	50	Picture	Maintain	1	7.813	n/a	855.479
820.786	4.99	Pic	50	Picture	IAPS_23	1	2.823	n/a	857.485
825.777	2.006	Blank	50	Picture	BLANK	1	0.817	n/a	862.475
828.599	n/a	ConfirmRating	50	Response	n/a	1	n/a	6	865.298
828.628	4.012	ITI	51	Picture	Fixation+	2	10.171	n/a	865.327
832.657	2.006	Cue	51	Picture	Enhance	2	8.148	n/a	869.355
834.663	4.99	Pic	51	Picture	IAPS_33	2	3.158	n/a	871.361
839.653	2.006	Blank	51	Picture	BLANK	2	1.152	n/a	876.352
842.811	n/a	ConfirmRating	51	Response	n/a	2	n/a	7	879.51
842.836	5.006	ITI	52	Picture	Fixation+	1	10.205	n/a	879.535
847.86	2.006	Cue	52	Picture	Maintain	1	8.181	n/a	884.558
849.866	4.99	Pic	52	Picture	IAPS_24	1	3.191	n/a	886.564
854.856	2.006	Blank	52	Picture	BLANK	1	1.185	n/a	891.554
858.047	n/a	ConfirmRating	52	Response	n/a	1	n/a	6	894.745
858.072	5.007	ITI	53	Picture	Fixation+	4	11.863	n/a	894.771
863.096	2.006	Cue	53	Picture	Maintain	4	9.84	n/a	899.794
865.102	4.99	Pic	53	Picture	IAPS_57	4	4.85	n/a	901.8
870.092	2.006	Blank	53	Picture	BLANK	4	2.844	n/a	906.79
874.942	n/a	ConfirmRating	53	Response	n/a	4	n/a	5	911.64
874.966	6.002	ITI	54	Picture	Fixation+	3	11.91	n/a	911.664
880.984	2.006	Cue	54	Picture	Suppress	3	9.888	n/a	917.683
882.99	4.99	Pic	54	Picture	IAPS_14	3	4.897	n/a	919.689
887.98	2.006	Blank	54	Picture	BLANK	3	2.891	n/a	924.679
892.878	n/a	ConfirmRating	54	Response	n/a	3	n/a	6	929.576
892.904	5.007	ITI	55	Picture	Fixation+	2	10.723	n/a	929.603
897.928	2.006	Cue	55	Picture	Enhance	2	8.701	n/a	934.626
899.934	4.99	Pic	55	Picture	IAPS_34	2	3.711	n/a	936.632
904.924	2.006	Blank	55	Picture	BLANK	2	1.705	n/a	941.622
908.635	n/a	ConfirmRating	55	Response	n/a	2	n/a	5	945.333
908.654	5.007	ITI	56	Picture	Fixation+	1	12.597	n/a	945.353
913.678	2.006	Cue	56	Picture	Maintain	1	10.575	n/a	950.376
915.684	4.99	Pic	56	Picture	IAPS_25	1	5.585	n/a	952.382
920.674	2.006	Blank	56	Picture	BLANK	1	3.579	n/a	957.372
926.258	n/a	ConfirmRating	56	Response	n/a	1	n/a	6	962.957
926.277	6.002	ITI	57	Picture	Fixation+	3	10.206	n/a	962.976
932.296	2.006	Cue	57	Picture	Suppress	3	8.183	n/a	968.994
934.302	4.99	Pic	57	Picture	IAPS_15	3	3.193	n/a	971.0
939.292	2.006	Blank	57	Picture	BLANK	3	1.187	n/a	975.99
942.485	n/a	ConfirmRating	57	Response	n/a	3	n/a	6	979.184
942.508	4.012	ITI	58	Picture	Fixation+	4	10.282	n/a	979.207
946.537	2.006	Cue	58	Picture	Maintain	4	8.259	n/a	983.235
948.543	4.99	Pic	58	Picture	IAPS_60	4	3.269	n/a	985.241
953.533	2.006	Blank	58	Picture	BLANK	4	1.263	n/a	990.231
956.802	n/a	ConfirmRating	58	Response	n/a	4	n/a	1	993.5
956.832	6.002	ITI	59	Picture	Fixation+	2	10.054	n/a	993.531
962.85	2.006	Cue	59	Picture	Enhance	2	8.031	n/a	999.549
964.856	4.99	Pic	59	Picture	IAPS_35	2	3.041	n/a	1001.555
969.847	2.006	Blank	59	Picture	BLANK	2	1.035	n/a	1006.545
972.888	n/a	ConfirmRating	59	Response	n/a	2	n/a	1	1009.586
