onset	duration	trial_type	event_type	time_until_response	response_time	trial_number	block_num_within_trial	image_seq_num_within_block	question_seq_num_within_block	image_seq_num	picture_number	condition	question_type	block_type	rating	rating_computed	onset_uncorrected	KDEV_imagefile
0.014	10.014	ITI	Fixation+	97.032	n/a	1	n/a	n/a	n/a	n/a	n/a	n/a	n/a	n/a	n/a	n/a	31.743	n/a
10.044	0.497	angry	Picture	96.518	n/a	1	1	1	n/a	1	108	3	n/a	n/a	n/a	n/a	41.773	AM09ANS.jpg
10.541	0.514	Blank	Blank	96.004	n/a	1	1	1	n/a	1	n/a	3	n/a	n/a	n/a	n/a	42.27	n/a
11.072	0.497	angry	Picture	95.49	n/a	1	1	2	n/a	2	99	3	n/a	n/a	n/a	n/a	42.801	AF31ANS.jpg
11.569	0.514	Blank	Blank	94.976	n/a	1	1	2	n/a	2	n/a	3	n/a	n/a	n/a	n/a	43.298	n/a
12.099	0.497	angry	Picture	94.462	n/a	1	1	3	n/a	3	98	3	n/a	n/a	n/a	n/a	43.829	BF29ANS.jpg
12.597	0.514	Blank	Blank	93.948	n/a	1	1	3	n/a	3	n/a	3	n/a	n/a	n/a	n/a	44.326	n/a
13.127	0.497	angry	Picture	93.434	n/a	1	1	4	n/a	4	107	3	n/a	n/a	n/a	n/a	44.856	BM08ANS.jpg
13.625	0.514	Blank	Blank	92.92	n/a	1	1	4	n/a	4	n/a	3	n/a	n/a	n/a	n/a	45.354	n/a
14.155	0.497	angry	Picture	92.406	n/a	1	1	5	n/a	5	104	3	n/a	n/a	n/a	n/a	45.884	BM05ANS.jpg
14.653	0.514	Blank	Blank	91.892	n/a	1	1	5	n/a	5	n/a	3	n/a	n/a	n/a	n/a	46.382	n/a
15.183	0.497	angry	Picture	91.378	n/a	1	1	6	n/a	6	101	3	n/a	n/a	n/a	n/a	46.912	AM01ANS.jpg
15.681	0.514	Blank	Blank	90.864	n/a	1	1	6	n/a	6	n/a	3	n/a	n/a	n/a	n/a	47.41	n/a
16.211	0.497	angry	Picture	90.35	n/a	1	1	7	n/a	7	103	3	n/a	n/a	n/a	n/a	47.94	AM04ANS.jpg
16.708	0.514	Blank	Blank	89.836	n/a	1	1	7	n/a	7	n/a	3	n/a	n/a	n/a	n/a	48.438	n/a
17.239	0.497	angry	Picture	89.323	n/a	1	1	8	n/a	8	111	3	n/a	n/a	n/a	n/a	48.968	BM12ANS.jpg
17.736	0.514	Blank	Blank	88.809	n/a	1	1	8	n/a	8	n/a	3	n/a	n/a	n/a	n/a	49.465	n/a
18.267	0.497	angry	Picture	88.295	n/a	1	1	9	n/a	9	110	3	n/a	n/a	n/a	n/a	49.996	AM11ANS.jpg
18.764	0.514	Blank	Blank	87.781	n/a	1	1	9	n/a	9	n/a	3	n/a	n/a	n/a	n/a	50.493	n/a
19.295	0.497	angry	Picture	87.267	n/a	1	1	10	n/a	10	85	3	n/a	n/a	n/a	n/a	51.024	BF07ANS.jpg
19.792	0.514	Blank	Blank	86.753	n/a	1	1	10	n/a	10	n/a	3	n/a	n/a	n/a	n/a	51.521	n/a
20.322	0.497	angry	Picture	86.239	n/a	1	1	11	n/a	11	87	3	n/a	n/a	n/a	n/a	52.052	BF11ANS.jpg
20.82	0.514	Blank	Blank	85.725	n/a	1	1	11	n/a	11	n/a	3	n/a	n/a	n/a	n/a	52.549	n/a
21.35	0.497	angry	Picture	85.211	n/a	1	1	12	n/a	12	91	3	n/a	n/a	n/a	n/a	53.08	AF20ANS.jpg
21.848	0.514	Blank	Blank	84.697	n/a	1	1	12	n/a	12	n/a	3	n/a	n/a	n/a	n/a	53.577	n/a
22.378	0.497	angry	Picture	84.183	n/a	1	1	13	n/a	13	115	3	n/a	n/a	n/a	n/a	54.107	AM23ANS.jpg
22.876	0.514	Blank	Blank	83.669	n/a	1	1	13	n/a	13	n/a	3	n/a	n/a	n/a	n/a	54.605	n/a
23.406	0.497	angry	Picture	83.155	n/a	1	1	14	n/a	14	97	3	n/a	n/a	n/a	n/a	55.135	BF28ANS.jpg
23.904	0.514	Blank	Blank	82.641	n/a	1	1	14	n/a	14	n/a	3	n/a	n/a	n/a	n/a	55.633	n/a
24.434	0.497	angry	Picture	82.127	n/a	1	1	15	n/a	15	82	3	n/a	n/a	n/a	n/a	56.163	AF03ANS.jpg
24.931	0.514	Blank	Blank	81.613	n/a	1	1	15	n/a	15	n/a	3	n/a	n/a	n/a	n/a	56.661	n/a
25.462	0.497	angry	Picture	81.1	n/a	1	1	16	n/a	16	96	3	n/a	n/a	n/a	n/a	57.191	AF26ANS.jpg
25.959	0.514	Blank	Blank	80.586	n/a	1	1	16	n/a	16	n/a	3	n/a	n/a	n/a	n/a	57.688	n/a
26.49	0.497	angry	Picture	80.072	n/a	1	1	17	n/a	17	109	3	n/a	n/a	n/a	n/a	58.219	AM10ANS.jpg
26.987	0.514	Blank	Blank	79.558	n/a	1	1	17	n/a	17	n/a	3	n/a	n/a	n/a	n/a	58.716	n/a
27.518	0.497	angry	Picture	79.044	n/a	1	1	18	n/a	18	114	3	n/a	n/a	n/a	n/a	59.247	AM22ANS.jpg
28.015	0.514	Blank	Blank	78.53	n/a	1	1	18	n/a	18	n/a	3	n/a	n/a	n/a	n/a	59.744	n/a
28.546	0.497	angry	Picture	78.016	n/a	1	1	19	n/a	19	120	3	n/a	n/a	n/a	n/a	60.275	AM35ANS.jpg
29.043	0.514	Blank	Blank	77.502	n/a	1	1	19	n/a	19	n/a	3	n/a	n/a	n/a	n/a	60.772	n/a
29.573	0.497	angry	Picture	76.988	n/a	1	1	20	n/a	20	81	3	n/a	n/a	n/a	n/a	61.303	AF01ANS.jpg
30.071	0.514	Blank	Blank	76.474	n/a	1	1	20	n/a	20	n/a	3	n/a	n/a	n/a	n/a	61.8	n/a
30.601	10.014	ITI	Fixation+	66.444	n/a	1	n/a	n/a	n/a	n/a	n/a	n/a	n/a	n/a	n/a	n/a	62.331	n/a
40.631	0.497	neutral	Picture	65.93	n/a	1	2	1	n/a	21	28	1	n/a	n/a	n/a	n/a	72.361	AM09NES.jpg
41.129	0.514	Blank	Blank	65.416	n/a	1	2	1	n/a	21	n/a	1	n/a	n/a	n/a	n/a	72.858	n/a
41.659	0.497	neutral	Picture	64.902	n/a	1	2	2	n/a	22	27	1	n/a	n/a	n/a	n/a	73.388	BM08NES.jpg
42.157	0.514	Blank	Blank	64.388	n/a	1	2	2	n/a	22	n/a	1	n/a	n/a	n/a	n/a	73.886	n/a
42.687	0.497	neutral	Picture	63.874	n/a	1	2	3	n/a	23	16	1	n/a	n/a	n/a	n/a	74.416	AF26NES.jpg
43.185	0.514	Blank	Blank	63.36	n/a	1	2	3	n/a	23	n/a	1	n/a	n/a	n/a	n/a	74.914	n/a
43.715	0.497	neutral	Picture	62.846	n/a	1	2	4	n/a	24	3	1	n/a	n/a	n/a	n/a	75.444	BF04NES.jpg
44.212	0.514	Blank	Blank	62.332	n/a	1	2	4	n/a	24	n/a	1	n/a	n/a	n/a	n/a	75.942	n/a
44.743	0.497	neutral	Picture	61.819	n/a	1	2	5	n/a	25	32	1	n/a	n/a	n/a	n/a	76.472	AM14NES.jpg
45.24	0.514	Blank	Blank	61.305	n/a	1	2	5	n/a	25	n/a	1	n/a	n/a	n/a	n/a	76.969	n/a
45.771	0.497	neutral	Picture	60.791	n/a	1	2	6	n/a	26	37	1	n/a	n/a	n/a	n/a	77.5	BM25NES.jpg
46.268	0.514	Blank	Blank	60.277	n/a	1	2	6	n/a	26	n/a	1	n/a	n/a	n/a	n/a	77.997	n/a
46.799	0.497	neutral	Picture	59.763	n/a	1	2	7	n/a	27	15	1	n/a	n/a	n/a	n/a	78.528	AF25NES.jpg
47.296	0.514	Blank	Blank	59.249	n/a	1	2	7	n/a	27	n/a	1	n/a	n/a	n/a	n/a	79.025	n/a
47.827	0.497	neutral	Picture	58.735	n/a	1	2	8	n/a	28	23	1	n/a	n/a	n/a	n/a	79.556	AM04NES.jpg
48.324	0.514	Blank	Blank	58.221	n/a	1	2	8	n/a	28	n/a	1	n/a	n/a	n/a	n/a	80.053	n/a
48.854	0.497	neutral	Picture	57.707	n/a	1	2	9	n/a	29	34	1	n/a	n/a	n/a	n/a	80.584	AM22NES.jpg
49.352	0.514	Blank	Blank	57.193	n/a	1	2	9	n/a	29	n/a	1	n/a	n/a	n/a	n/a	81.081	n/a
49.882	0.497	neutral	Picture	56.679	n/a	1	2	10	n/a	30	24	1	n/a	n/a	n/a	n/a	81.612	BM05NES.jpg
50.38	0.514	Blank	Blank	56.165	n/a	1	2	10	n/a	30	n/a	1	n/a	n/a	n/a	n/a	82.109	n/a
50.91	0.497	neutral	Picture	55.651	n/a	1	2	11	n/a	31	12	1	n/a	n/a	n/a	n/a	82.639	AF21NES.jpg
51.408	0.514	Blank	Blank	55.137	n/a	1	2	11	n/a	31	n/a	1	n/a	n/a	n/a	n/a	83.137	n/a
51.938	0.497	neutral	Picture	54.623	n/a	1	2	12	n/a	32	6	1	n/a	n/a	n/a	n/a	83.667	AF09NES.jpg
52.435	0.514	Blank	Blank	54.109	n/a	1	2	12	n/a	32	n/a	1	n/a	n/a	n/a	n/a	84.165	n/a
52.966	0.497	neutral	Picture	53.595	n/a	1	2	13	n/a	33	17	1	n/a	n/a	n/a	n/a	84.695	BF28NES.jpg
53.463	0.514	Blank	Blank	53.082	n/a	1	2	13	n/a	33	n/a	1	n/a	n/a	n/a	n/a	85.192	n/a
53.994	0.497	neutral	Picture	52.568	n/a	1	2	14	n/a	34	2	1	n/a	n/a	n/a	n/a	85.723	AF03NES.jpg
54.491	0.514	Blank	Blank	52.054	n/a	1	2	14	n/a	34	n/a	1	n/a	n/a	n/a	n/a	86.22	n/a
55.022	0.497	neutral	Picture	51.54	n/a	1	2	15	n/a	35	9	1	n/a	n/a	n/a	n/a	86.751	AF17NES.jpg
55.519	0.514	Blank	Blank	51.026	n/a	1	2	15	n/a	35	n/a	1	n/a	n/a	n/a	n/a	87.248	n/a
56.05	0.497	neutral	Picture	50.512	n/a	1	2	16	n/a	36	25	1	n/a	n/a	n/a	n/a	87.779	BM06NES.jpg
56.547	0.514	Blank	Blank	49.998	n/a	1	2	16	n/a	36	n/a	1	n/a	n/a	n/a	n/a	88.276	n/a
57.077	0.497	neutral	Picture	49.484	n/a	1	2	17	n/a	37	8	1	n/a	n/a	n/a	n/a	88.807	AF14NES.jpg
57.575	0.514	Blank	Blank	48.97	n/a	1	2	17	n/a	37	n/a	1	n/a	n/a	n/a	n/a	89.304	n/a
58.105	0.497	neutral	Picture	48.456	n/a	1	2	18	n/a	38	19	1	n/a	n/a	n/a	n/a	89.835	AF31NES.jpg
58.603	0.514	Blank	Blank	47.942	n/a	1	2	18	n/a	38	n/a	1	n/a	n/a	n/a	n/a	90.332	n/a
59.133	0.497	neutral	Picture	47.428	n/a	1	2	19	n/a	39	14	1	n/a	n/a	n/a	n/a	90.862	AF23NES.jpg
59.631	0.514	Blank	Blank	46.914	n/a	1	2	19	n/a	39	n/a	1	n/a	n/a	n/a	n/a	91.36	n/a
60.161	0.497	neutral	Picture	46.4	n/a	1	2	20	n/a	40	4	1	n/a	n/a	n/a	n/a	91.89	AF05NES.jpg
60.658	0.514	Blank	Blank	45.886	n/a	1	2	20	n/a	40	n/a	1	n/a	n/a	n/a	n/a	92.388	n/a
61.189	10.014	ITI	Fixation+	35.856	n/a	1	n/a	n/a	n/a	n/a	n/a	n/a	n/a	n/a	n/a	n/a	92.918	n/a
71.219	0.497	angry	Picture	35.342	n/a	1	3	1	n/a	41	84	3	n/a	n/a	n/a	n/a	102.948	AF05ANS.jpg
71.716	0.514	Blank	Blank	34.828	n/a	1	3	1	n/a	41	n/a	3	n/a	n/a	n/a	n/a	103.446	n/a
72.247	0.497	angry	Picture	34.314	n/a	1	3	2	n/a	42	92	3	n/a	n/a	n/a	n/a	103.976	AF21ANS.jpg
72.744	0.514	Blank	Blank	33.8	n/a	1	3	2	n/a	42	n/a	3	n/a	n/a	n/a	n/a	104.474	n/a
73.275	0.497	angry	Picture	33.287	n/a	1	3	3	n/a	43	86	3	n/a	n/a	n/a	n/a	105.004	AF09ANS.jpg
73.772	0.514	Blank	Blank	32.773	n/a	1	3	3	n/a	43	n/a	3	n/a	n/a	n/a	n/a	105.501	n/a
74.303	0.497	angry	Picture	32.259	n/a	1	3	4	n/a	44	93	3	n/a	n/a	n/a	n/a	106.032	BF22ANS.jpg
74.8	0.514	Blank	Blank	31.745	n/a	1	3	4	n/a	44	n/a	3	n/a	n/a	n/a	n/a	106.529	n/a
75.331	0.497	angry	Picture	31.231	n/a	1	3	5	n/a	45	88	3	n/a	n/a	n/a	n/a	107.06	AF14ANS.jpg
75.828	0.514	Blank	Blank	30.717	n/a	1	3	5	n/a	45	n/a	3	n/a	n/a	n/a	n/a	107.557	n/a
76.358	0.497	angry	Picture	30.203	n/a	1	3	6	n/a	46	113	3	n/a	n/a	n/a	n/a	108.088	AM21ANS.jpg
76.856	0.514	Blank	Blank	29.689	n/a	1	3	6	n/a	46	n/a	3	n/a	n/a	n/a	n/a	108.585	n/a
77.386	0.497	angry	Picture	29.175	n/a	1	3	7	n/a	47	95	3	n/a	n/a	n/a	n/a	109.115	AF25ANS.jpg
77.884	0.514	Blank	Blank	28.661	n/a	1	3	7	n/a	47	n/a	3	n/a	n/a	n/a	n/a	109.613	n/a
78.414	0.497	angry	Picture	28.147	n/a	1	3	8	n/a	48	102	3	n/a	n/a	n/a	n/a	110.143	BM03ANS.jpg
78.911	0.514	Blank	Blank	27.633	n/a	1	3	8	n/a	48	n/a	3	n/a	n/a	n/a	n/a	110.641	n/a
79.442	0.497	angry	Picture	27.119	n/a	1	3	9	n/a	49	112	3	n/a	n/a	n/a	n/a	111.171	AM14ANS.jpg
79.939	0.514	Blank	Blank	26.605	n/a	1	3	9	n/a	49	n/a	3	n/a	n/a	n/a	n/a	111.669	n/a
80.47	0.497	angry	Picture	26.091	n/a	1	3	10	n/a	50	83	3	n/a	n/a	n/a	n/a	112.199	BF04ANS.jpg
80.967	0.514	Blank	Blank	25.578	n/a	1	3	10	n/a	50	n/a	3	n/a	n/a	n/a	n/a	112.697	n/a
81.498	0.497	angry	Picture	25.064	n/a	1	3	11	n/a	51	90	3	n/a	n/a	n/a	n/a	113.227	AF18ANS.jpg
81.995	0.514	Blank	Blank	24.55	n/a	1	3	11	n/a	51	n/a	3	n/a	n/a	n/a	n/a	113.724	n/a
82.526	0.497	angry	Picture	24.036	n/a	1	3	12	n/a	52	117	3	n/a	n/a	n/a	n/a	114.255	BM25ANS.jpg
83.023	0.514	Blank	Blank	23.522	n/a	1	3	12	n/a	52	n/a	3	n/a	n/a	n/a	n/a	114.752	n/a
83.554	0.497	angry	Picture	23.008	n/a	1	3	13	n/a	53	94	3	n/a	n/a	n/a	n/a	115.283	AF23ANS.jpg
84.051	0.514	Blank	Blank	22.494	n/a	1	3	13	n/a	53	n/a	3	n/a	n/a	n/a	n/a	115.78	n/a
84.581	0.497	angry	Picture	21.98	n/a	1	3	14	n/a	54	106	3	n/a	n/a	n/a	n/a	116.311	AM07ANS.jpg
85.079	0.514	Blank	Blank	21.466	n/a	1	3	14	n/a	54	n/a	3	n/a	n/a	n/a	n/a	116.808	n/a
85.609	0.497	angry	Picture	20.952	n/a	1	3	15	n/a	55	105	3	n/a	n/a	n/a	n/a	117.338	BM06ANS.jpg
86.107	0.514	Blank	Blank	20.438	n/a	1	3	15	n/a	55	n/a	3	n/a	n/a	n/a	n/a	117.836	n/a
86.637	0.497	angry	Picture	19.924	n/a	1	3	16	n/a	56	116	3	n/a	n/a	n/a	n/a	118.366	BM24ANS.jpg
87.135	0.514	Blank	Blank	19.41	n/a	1	3	16	n/a	56	n/a	3	n/a	n/a	n/a	n/a	118.864	n/a
87.665	0.497	angry	Picture	18.896	n/a	1	3	17	n/a	57	89	3	n/a	n/a	n/a	n/a	119.394	AF17ANS.jpg
88.162	0.514	Blank	Blank	18.382	n/a	1	3	17	n/a	57	n/a	3	n/a	n/a	n/a	n/a	119.892	n/a
88.693	0.497	angry	Picture	17.868	n/a	1	3	18	n/a	58	118	3	n/a	n/a	n/a	n/a	120.422	BM26ANS.jpg
89.19	0.514	Blank	Blank	17.354	n/a	1	3	18	n/a	58	n/a	3	n/a	n/a	n/a	n/a	120.919	n/a
89.721	0.497	angry	Picture	16.841	n/a	1	3	19	n/a	59	100	3	n/a	n/a	n/a	n/a	121.45	AF32ANS.jpg
90.218	0.514	Blank	Blank	16.327	n/a	1	3	19	n/a	59	n/a	3	n/a	n/a	n/a	n/a	121.947	n/a
90.749	0.497	angry	Picture	15.813	n/a	1	3	20	n/a	60	119	3	n/a	n/a	n/a	n/a	122.478	BM28ANS.jpg
91.246	0.514	Blank	Blank	15.299	n/a	1	3	20	n/a	60	n/a	3	n/a	n/a	n/a	n/a	122.975	n/a
91.777	10.014	ITI	Fixation+	5.269	n/a	1	n/a	n/a	n/a	n/a	n/a	n/a	n/a	n/a	n/a	n/a	123.506	n/a
107.059	n/a	ConfirmRating	Rate	n/a	5.256	1	n/a	n/a	0	n/a	n/a	n/a	2	Angry	68	51	138.788	n/a
111.562	n/a	ConfirmRating	Rate	n/a	4.493	1	n/a	n/a	1	n/a	n/a	n/a	3	Angry	50	50	143.291	n/a
111.588	10.014	ITI	Fixation+	95.352	n/a	2	n/a	n/a	n/a	n/a	n/a	n/a	n/a	n/a	n/a	n/a	143.317	n/a
121.618	0.497	happy	Picture	94.838	n/a	2	4	1	n/a	61	79	2	n/a	n/a	n/a	n/a	153.347	BM28HAS.jpg
122.116	0.514	Blank	Blank	94.324	n/a	2	4	1	n/a	61	n/a	2	n/a	n/a	n/a	n/a	153.845	n/a
122.646	0.497	happy	Picture	93.81	n/a	2	4	2	n/a	62	61	2	n/a	n/a	n/a	n/a	154.375	AM01HAS.jpg
123.143	0.514	Blank	Blank	93.296	n/a	2	4	2	n/a	62	n/a	2	n/a	n/a	n/a	n/a	154.873	n/a
123.674	0.497	happy	Picture	92.782	n/a	2	4	3	n/a	63	57	2	n/a	n/a	n/a	n/a	155.403	BF28HAS.jpg
124.171	0.514	Blank	Blank	92.268	n/a	2	4	3	n/a	63	n/a	2	n/a	n/a	n/a	n/a	155.9	n/a
124.702	0.497	happy	Picture	91.754	n/a	2	4	4	n/a	64	77	2	n/a	n/a	n/a	n/a	156.431	BM25HAS.jpg
125.199	0.514	Blank	Blank	91.24	n/a	2	4	4	n/a	64	n/a	2	n/a	n/a	n/a	n/a	156.928	n/a
125.73	0.497	happy	Picture	90.726	n/a	2	4	5	n/a	65	47	2	n/a	n/a	n/a	n/a	157.459	BF11HAS.jpg
126.227	0.514	Blank	Blank	90.212	n/a	2	4	5	n/a	65	n/a	2	n/a	n/a	n/a	n/a	157.956	n/a
126.758	0.497	happy	Picture	89.698	n/a	2	4	6	n/a	66	50	2	n/a	n/a	n/a	n/a	158.487	AF18HAS.jpg
127.255	0.514	Blank	Blank	89.184	n/a	2	4	6	n/a	66	n/a	2	n/a	n/a	n/a	n/a	158.984	n/a
127.786	0.497	happy	Picture	88.67	n/a	2	4	7	n/a	67	78	2	n/a	n/a	n/a	n/a	159.515	BM26HAS.jpg
128.283	0.514	Blank	Blank	88.156	n/a	2	4	7	n/a	67	n/a	2	n/a	n/a	n/a	n/a	160.012	n/a
128.813	0.497	happy	Picture	87.643	n/a	2	4	8	n/a	68	45	2	n/a	n/a	n/a	n/a	160.543	BF07HAS.jpg
129.311	0.514	Blank	Blank	87.129	n/a	2	4	8	n/a	68	n/a	2	n/a	n/a	n/a	n/a	161.04	n/a
129.841	0.497	happy	Picture	86.615	n/a	2	4	9	n/a	69	56	2	n/a	n/a	n/a	n/a	161.57	AF26HAS.jpg
130.339	0.514	Blank	Blank	86.101	n/a	2	4	9	n/a	69	n/a	2	n/a	n/a	n/a	n/a	162.068	n/a
130.869	0.497	happy	Picture	85.587	n/a	2	4	10	n/a	70	65	2	n/a	n/a	n/a	n/a	162.598	BM06HAS.jpg
131.367	0.514	Blank	Blank	85.073	n/a	2	4	10	n/a	70	n/a	2	n/a	n/a	n/a	n/a	163.096	n/a
131.897	0.497	happy	Picture	84.559	n/a	2	4	11	n/a	71	73	2	n/a	n/a	n/a	n/a	163.626	AM21HAS.jpg
132.394	0.514	Blank	Blank	84.045	n/a	2	4	11	n/a	71	n/a	2	n/a	n/a	n/a	n/a	164.124	n/a
132.925	0.497	happy	Picture	83.531	n/a	2	4	12	n/a	72	41	2	n/a	n/a	n/a	n/a	164.654	AF01HAS.jpg
133.422	0.514	Blank	Blank	83.017	n/a	2	4	12	n/a	72	n/a	2	n/a	n/a	n/a	n/a	165.151	n/a
133.953	0.497	happy	Picture	82.503	n/a	2	4	13	n/a	73	59	2	n/a	n/a	n/a	n/a	165.682	AF31HAS.jpg
134.45	0.514	Blank	Blank	81.989	n/a	2	4	13	n/a	73	n/a	2	n/a	n/a	n/a	n/a	166.179	n/a
134.981	0.497	happy	Picture	81.475	n/a	2	4	14	n/a	74	64	2	n/a	n/a	n/a	n/a	166.71	BM05HAS.jpg
135.478	0.514	Blank	Blank	80.961	n/a	2	4	14	n/a	74	n/a	2	n/a	n/a	n/a	n/a	167.207	n/a
136.008	0.497	happy	Picture	80.447	n/a	2	4	15	n/a	75	68	2	n/a	n/a	n/a	n/a	167.738	AM09HAS.jpg
136.506	0.514	Blank	Blank	79.933	n/a	2	4	15	n/a	75	n/a	2	n/a	n/a	n/a	n/a	168.235	n/a
137.036	0.497	happy	Picture	79.419	n/a	2	4	16	n/a	76	54	2	n/a	n/a	n/a	n/a	168.766	AF23HAS.jpg
137.534	0.514	Blank	Blank	78.905	n/a	2	4	16	n/a	76	n/a	2	n/a	n/a	n/a	n/a	169.263	n/a
138.064	0.497	happy	Picture	78.392	n/a	2	4	17	n/a	77	53	2	n/a	n/a	n/a	n/a	169.793	BF22HAS.jpg
138.562	0.514	Blank	Blank	77.878	n/a	2	4	17	n/a	77	n/a	2	n/a	n/a	n/a	n/a	170.291	n/a
139.092	0.497	happy	Picture	77.364	n/a	2	4	18	n/a	78	44	2	n/a	n/a	n/a	n/a	170.821	AF05HAS.jpg
139.59	0.514	Blank	Blank	76.85	n/a	2	4	18	n/a	78	n/a	2	n/a	n/a	n/a	n/a	171.319	n/a
140.12	0.497	happy	Picture	76.336	n/a	2	4	19	n/a	79	52	2	n/a	n/a	n/a	n/a	171.849	AF21HAS.jpg
140.617	0.514	Blank	Blank	75.822	n/a	2	4	19	n/a	79	n/a	2	n/a	n/a	n/a	n/a	172.347	n/a
141.148	0.497	happy	Picture	75.308	n/a	2	4	20	n/a	80	62	2	n/a	n/a	n/a	n/a	172.877	BM03HAS.jpg
141.645	0.514	Blank	Blank	74.794	n/a	2	4	20	n/a	80	n/a	2	n/a	n/a	n/a	n/a	173.375	n/a
142.176	10.014	ITI	Fixation+	64.764	n/a	2	n/a	n/a	n/a	n/a	n/a	n/a	n/a	n/a	n/a	n/a	173.905	n/a
152.206	0.497	neutral	Picture	64.25	n/a	2	5	1	n/a	81	23	1	n/a	n/a	n/a	n/a	183.935	AM04NES.jpg
152.703	0.514	Blank	Blank	63.736	n/a	2	5	1	n/a	81	n/a	1	n/a	n/a	n/a	n/a	184.432	n/a
153.234	0.497	neutral	Picture	63.222	n/a	2	5	2	n/a	82	29	1	n/a	n/a	n/a	n/a	184.963	AM10NES.jpg
153.731	0.514	Blank	Blank	62.708	n/a	2	5	2	n/a	82	n/a	1	n/a	n/a	n/a	n/a	185.46	n/a
154.262	0.497	neutral	Picture	62.194	n/a	2	5	3	n/a	83	24	1	n/a	n/a	n/a	n/a	185.991	BM05NES.jpg
154.759	0.514	Blank	Blank	61.68	n/a	2	5	3	n/a	83	n/a	1	n/a	n/a	n/a	n/a	186.488	n/a
155.29	0.497	neutral	Picture	61.166	n/a	2	5	4	n/a	84	12	1	n/a	n/a	n/a	n/a	187.019	AF21NES.jpg
155.787	0.514	Blank	Blank	60.652	n/a	2	5	4	n/a	84	n/a	1	n/a	n/a	n/a	n/a	187.516	n/a
156.317	0.497	neutral	Picture	60.138	n/a	2	5	5	n/a	85	13	1	n/a	n/a	n/a	n/a	188.047	BF22NES.jpg
156.815	0.514	Blank	Blank	59.624	n/a	2	5	5	n/a	85	n/a	1	n/a	n/a	n/a	n/a	188.544	n/a
157.345	0.497	neutral	Picture	59.111	n/a	2	5	6	n/a	86	17	1	n/a	n/a	n/a	n/a	189.075	BF28NES.jpg
157.843	0.514	Blank	Blank	58.597	n/a	2	5	6	n/a	86	n/a	1	n/a	n/a	n/a	n/a	189.572	n/a
158.373	0.497	neutral	Picture	58.083	n/a	2	5	7	n/a	87	4	1	n/a	n/a	n/a	n/a	190.102	AF05NES.jpg
158.871	0.514	Blank	Blank	57.569	n/a	2	5	7	n/a	87	n/a	1	n/a	n/a	n/a	n/a	190.6	n/a
159.401	0.497	neutral	Picture	57.055	n/a	2	5	8	n/a	88	11	1	n/a	n/a	n/a	n/a	191.13	AF20NES.jpg
159.898	0.514	Blank	Blank	56.541	n/a	2	5	8	n/a	88	n/a	1	n/a	n/a	n/a	n/a	191.628	n/a
160.429	0.497	neutral	Picture	56.027	n/a	2	5	9	n/a	89	22	1	n/a	n/a	n/a	n/a	192.158	BM03NES.jpg
160.926	0.514	Blank	Blank	55.513	n/a	2	5	9	n/a	89	n/a	1	n/a	n/a	n/a	n/a	192.655	n/a
161.457	0.497	neutral	Picture	54.999	n/a	2	5	10	n/a	90	15	1	n/a	n/a	n/a	n/a	193.186	AF25NES.jpg
161.954	0.514	Blank	Blank	54.485	n/a	2	5	10	n/a	90	n/a	1	n/a	n/a	n/a	n/a	193.683	n/a
162.485	0.497	neutral	Picture	53.971	n/a	2	5	11	n/a	91	19	1	n/a	n/a	n/a	n/a	194.214	AF31NES.jpg
162.982	0.514	Blank	Blank	53.457	n/a	2	5	11	n/a	91	n/a	1	n/a	n/a	n/a	n/a	194.711	n/a
163.513	0.497	neutral	Picture	52.943	n/a	2	5	12	n/a	92	9	1	n/a	n/a	n/a	n/a	195.242	AF17NES.jpg
164.01	0.514	Blank	Blank	52.429	n/a	2	5	12	n/a	92	n/a	1	n/a	n/a	n/a	n/a	195.739	n/a
164.54	0.497	neutral	Picture	51.915	n/a	2	5	13	n/a	93	14	1	n/a	n/a	n/a	n/a	196.27	AF23NES.jpg
165.038	0.514	Blank	Blank	51.401	n/a	2	5	13	n/a	93	n/a	1	n/a	n/a	n/a	n/a	196.767	n/a
165.568	0.497	neutral	Picture	50.888	n/a	2	5	14	n/a	94	36	1	n/a	n/a	n/a	n/a	197.298	BM24NES.jpg
166.066	0.514	Blank	Blank	50.374	n/a	2	5	14	n/a	94	n/a	1	n/a	n/a	n/a	n/a	197.795	n/a
166.596	0.497	neutral	Picture	49.86	n/a	2	5	15	n/a	95	34	1	n/a	n/a	n/a	n/a	198.325	AM22NES.jpg
167.094	0.514	Blank	Blank	49.346	n/a	2	5	15	n/a	95	n/a	1	n/a	n/a	n/a	n/a	198.823	n/a
167.624	0.497	neutral	Picture	48.832	n/a	2	5	16	n/a	96	10	1	n/a	n/a	n/a	n/a	199.353	AF18NES.jpg
168.121	0.514	Blank	Blank	48.318	n/a	2	5	16	n/a	96	n/a	1	n/a	n/a	n/a	n/a	199.851	n/a
168.652	0.497	neutral	Picture	47.804	n/a	2	5	17	n/a	97	5	1	n/a	n/a	n/a	n/a	200.381	BF07NES.jpg
169.149	0.514	Blank	Blank	47.29	n/a	2	5	17	n/a	97	n/a	1	n/a	n/a	n/a	n/a	200.879	n/a
169.68	0.497	neutral	Picture	46.776	n/a	2	5	18	n/a	98	25	1	n/a	n/a	n/a	n/a	201.409	BM06NES.jpg
170.177	0.514	Blank	Blank	46.262	n/a	2	5	18	n/a	98	n/a	1	n/a	n/a	n/a	n/a	201.906	n/a
170.708	0.497	neutral	Picture	45.748	n/a	2	5	19	n/a	99	39	1	n/a	n/a	n/a	n/a	202.437	AM28NES.jpg
171.205	0.514	Blank	Blank	45.234	n/a	2	5	19	n/a	99	n/a	1	n/a	n/a	n/a	n/a	202.934	n/a
171.736	0.497	neutral	Picture	44.72	n/a	2	5	20	n/a	100	33	1	n/a	n/a	n/a	n/a	203.465	AM21NES.jpg
172.233	0.514	Blank	Blank	44.206	n/a	2	5	20	n/a	100	n/a	1	n/a	n/a	n/a	n/a	203.962	n/a
172.763	10.014	ITI	Fixation+	34.176	n/a	2	n/a	n/a	n/a	n/a	n/a	n/a	n/a	n/a	n/a	n/a	204.493	n/a
182.793	0.497	happy	Picture	33.662	n/a	2	6	1	n/a	101	74	2	n/a	n/a	n/a	n/a	214.523	AM22HAS.jpg
183.291	0.514	Blank	Blank	33.148	n/a	2	6	1	n/a	101	n/a	2	n/a	n/a	n/a	n/a	215.02	n/a
183.821	0.497	happy	Picture	32.634	n/a	2	6	2	n/a	102	76	2	n/a	n/a	n/a	n/a	215.551	BM24HAS.jpg
184.319	0.514	Blank	Blank	32.12	n/a	2	6	2	n/a	102	n/a	2	n/a	n/a	n/a	n/a	216.048	n/a
184.849	0.497	happy	Picture	31.607	n/a	2	6	3	n/a	103	80	2	n/a	n/a	n/a	n/a	216.578	BM35HAS.jpg
185.347	0.514	Blank	Blank	31.093	n/a	2	6	3	n/a	103	n/a	2	n/a	n/a	n/a	n/a	217.076	n/a
185.877	0.497	happy	Picture	30.579	n/a	2	6	4	n/a	104	75	2	n/a	n/a	n/a	n/a	217.606	AM23HAS.jpg
186.375	0.514	Blank	Blank	30.065	n/a	2	6	4	n/a	104	n/a	2	n/a	n/a	n/a	n/a	218.104	n/a
186.905	0.497	happy	Picture	29.551	n/a	2	6	5	n/a	105	49	2	n/a	n/a	n/a	n/a	218.634	AF17HAS.jpg
187.402	0.514	Blank	Blank	29.037	n/a	2	6	5	n/a	105	n/a	2	n/a	n/a	n/a	n/a	219.132	n/a
187.933	0.497	happy	Picture	28.523	n/a	2	6	6	n/a	106	43	2	n/a	n/a	n/a	n/a	219.662	BF04HAS.jpg
188.43	0.514	Blank	Blank	28.009	n/a	2	6	6	n/a	106	n/a	2	n/a	n/a	n/a	n/a	220.16	n/a
188.961	0.497	happy	Picture	27.495	n/a	2	6	7	n/a	107	70	2	n/a	n/a	n/a	n/a	220.69	BM11HAS.jpg
189.458	0.514	Blank	Blank	26.981	n/a	2	6	7	n/a	107	n/a	2	n/a	n/a	n/a	n/a	221.187	n/a
189.989	0.497	happy	Picture	26.467	n/a	2	6	8	n/a	108	66	2	n/a	n/a	n/a	n/a	221.718	BM07HAS.jpg
190.486	0.514	Blank	Blank	25.953	n/a	2	6	8	n/a	108	n/a	2	n/a	n/a	n/a	n/a	222.215	n/a
191.017	0.497	happy	Picture	25.439	n/a	2	6	9	n/a	109	48	2	n/a	n/a	n/a	n/a	222.746	AF14HAS.jpg
191.514	0.514	Blank	Blank	24.925	n/a	2	6	9	n/a	109	n/a	2	n/a	n/a	n/a	n/a	223.243	n/a
192.044	0.497	happy	Picture	24.412	n/a	2	6	10	n/a	110	58	2	n/a	n/a	n/a	n/a	223.774	BF29HAS.jpg
192.542	0.514	Blank	Blank	23.897	n/a	2	6	10	n/a	110	n/a	2	n/a	n/a	n/a	n/a	224.271	n/a
193.072	0.497	happy	Picture	23.383	n/a	2	6	11	n/a	111	63	2	n/a	n/a	n/a	n/a	224.802	AM04HAS.jpg
193.57	0.514	Blank	Blank	22.87	n/a	2	6	11	n/a	111	n/a	2	n/a	n/a	n/a	n/a	225.299	n/a
194.1	0.497	happy	Picture	22.356	n/a	2	6	12	n/a	112	72	2	n/a	n/a	n/a	n/a	225.829	AM14HAS.jpg
194.597	0.514	Blank	Blank	21.842	n/a	2	6	12	n/a	112	n/a	2	n/a	n/a	n/a	n/a	226.327	n/a
195.128	0.497	happy	Picture	21.328	n/a	2	6	13	n/a	113	55	2	n/a	n/a	n/a	n/a	226.857	AF25HAS.jpg
195.625	0.514	Blank	Blank	20.814	n/a	2	6	13	n/a	113	n/a	2	n/a	n/a	n/a	n/a	227.355	n/a
196.156	0.497	happy	Picture	20.3	n/a	2	6	14	n/a	114	42	2	n/a	n/a	n/a	n/a	227.885	AF03HAS.jpg
196.653	0.514	Blank	Blank	19.786	n/a	2	6	14	n/a	114	n/a	2	n/a	n/a	n/a	n/a	228.382	n/a
197.184	0.497	happy	Picture	19.272	n/a	2	6	15	n/a	115	60	2	n/a	n/a	n/a	n/a	228.913	AF32HAS.jpg
197.681	0.514	Blank	Blank	18.758	n/a	2	6	15	n/a	115	n/a	2	n/a	n/a	n/a	n/a	229.41	n/a
198.212	0.497	happy	Picture	18.244	n/a	2	6	16	n/a	116	67	2	n/a	n/a	n/a	n/a	229.941	BM08HAS.jpg
198.709	0.514	Blank	Blank	17.73	n/a	2	6	16	n/a	116	n/a	2	n/a	n/a	n/a	n/a	230.438	n/a
199.24	0.497	happy	Picture	17.216	n/a	2	6	17	n/a	117	51	2	n/a	n/a	n/a	n/a	230.969	AF20HAS.jpg
199.737	0.514	Blank	Blank	16.702	n/a	2	6	17	n/a	117	n/a	2	n/a	n/a	n/a	n/a	231.466	n/a
200.268	0.497	happy	Picture	16.188	n/a	2	6	18	n/a	118	71	2	n/a	n/a	n/a	n/a	231.997	BM12HAS.jpg
200.765	0.514	Blank	Blank	15.674	n/a	2	6	18	n/a	118	n/a	2	n/a	n/a	n/a	n/a	232.494	n/a
201.295	0.497	happy	Picture	15.161	n/a	2	6	19	n/a	119	69	2	n/a	n/a	n/a	n/a	233.024	AM10HAS.jpg
201.793	0.514	Blank	Blank	14.647	n/a	2	6	19	n/a	119	n/a	2	n/a	n/a	n/a	n/a	233.522	n/a
202.323	0.497	happy	Picture	14.133	n/a	2	6	20	n/a	120	46	2	n/a	n/a	n/a	n/a	234.052	AF09HAS.jpg
202.821	0.514	Blank	Blank	13.619	n/a	2	6	20	n/a	120	n/a	2	n/a	n/a	n/a	n/a	234.55	n/a
203.351	10.014	ITI	Fixation+	3.589	n/a	2	n/a	n/a	n/a	n/a	n/a	n/a	n/a	n/a	n/a	n/a	235.08	n/a
216.953	n/a	ConfirmRating	Rate	n/a	3.581	2	n/a	n/a	0	n/a	n/a	n/a	2	Happy	62	51	248.682	n/a
219.0	n/a	ConfirmRating	Rate	n/a	2.022	2	n/a	n/a	1	n/a	n/a	n/a	3	Happy	36	49	250.729	n/a
219.018	15.004	Rest	Picture	n/a	n/a	n/a	n/a	n/a	n/a	n/a	n/a	n/a	0	n/a	0	0	250.747	n/a
234.038	10.014	ITI	Fixation+	94.436	n/a	3	n/a	n/a	n/a	n/a	n/a	n/a	n/a	n/a	n/a	n/a	265.767	n/a
244.068	0.497	angry	Picture	93.922	n/a	3	7	1	n/a	1	108	3	n/a	n/a	n/a	n/a	275.798	AM09ANS.jpg
244.566	0.514	Blank	Blank	93.408	n/a	3	7	1	n/a	1	n/a	3	n/a	n/a	n/a	n/a	276.295	n/a
245.096	0.497	angry	Picture	92.894	n/a	3	7	2	n/a	2	99	3	n/a	n/a	n/a	n/a	276.825	AF31ANS.jpg
245.594	0.514	Blank	Blank	92.38	n/a	3	7	2	n/a	2	n/a	3	n/a	n/a	n/a	n/a	277.323	n/a
246.124	0.497	angry	Picture	91.866	n/a	3	7	3	n/a	3	98	3	n/a	n/a	n/a	n/a	277.853	BF29ANS.jpg
246.621	0.514	Blank	Blank	91.352	n/a	3	7	3	n/a	3	n/a	3	n/a	n/a	n/a	n/a	278.351	n/a
247.152	0.497	angry	Picture	90.838	n/a	3	7	4	n/a	4	107	3	n/a	n/a	n/a	n/a	278.881	BM08ANS.jpg
247.649	0.514	Blank	Blank	90.324	n/a	3	7	4	n/a	4	n/a	3	n/a	n/a	n/a	n/a	279.378	n/a
248.18	0.497	angry	Picture	89.81	n/a	3	7	5	n/a	5	104	3	n/a	n/a	n/a	n/a	279.909	BM05ANS.jpg
248.677	0.514	Blank	Blank	89.296	n/a	3	7	5	n/a	5	n/a	3	n/a	n/a	n/a	n/a	280.406	n/a
249.208	0.497	angry	Picture	88.782	n/a	3	7	6	n/a	6	101	3	n/a	n/a	n/a	n/a	280.937	AM01ANS.jpg
249.705	0.514	Blank	Blank	88.268	n/a	3	7	6	n/a	6	n/a	3	n/a	n/a	n/a	n/a	281.434	n/a
250.236	0.497	angry	Picture	87.755	n/a	3	7	7	n/a	7	103	3	n/a	n/a	n/a	n/a	281.965	AM04ANS.jpg
250.733	0.514	Blank	Blank	87.241	n/a	3	7	7	n/a	7	n/a	3	n/a	n/a	n/a	n/a	282.462	n/a
251.263	0.497	angry	Picture	86.727	n/a	3	7	8	n/a	8	111	3	n/a	n/a	n/a	n/a	282.993	BM12ANS.jpg
251.761	0.514	Blank	Blank	86.213	n/a	3	7	8	n/a	8	n/a	3	n/a	n/a	n/a	n/a	283.49	n/a
252.291	0.497	angry	Picture	85.699	n/a	3	7	9	n/a	9	110	3	n/a	n/a	n/a	n/a	284.021	AM11ANS.jpg
252.789	0.514	Blank	Blank	85.185	n/a	3	7	9	n/a	9	n/a	3	n/a	n/a	n/a	n/a	284.518	n/a
253.319	0.497	angry	Picture	84.671	n/a	3	7	10	n/a	10	85	3	n/a	n/a	n/a	n/a	285.048	BF07ANS.jpg
253.817	0.514	Blank	Blank	84.157	n/a	3	7	10	n/a	10	n/a	3	n/a	n/a	n/a	n/a	285.546	n/a
254.347	0.497	angry	Picture	83.643	n/a	3	7	11	n/a	11	87	3	n/a	n/a	n/a	n/a	286.076	BF11ANS.jpg
254.844	0.514	Blank	Blank	83.129	n/a	3	7	11	n/a	11	n/a	3	n/a	n/a	n/a	n/a	286.574	n/a
255.375	0.497	angry	Picture	82.615	n/a	3	7	12	n/a	12	91	3	n/a	n/a	n/a	n/a	287.104	AF20ANS.jpg
255.872	0.514	Blank	Blank	82.101	n/a	3	7	12	n/a	12	n/a	3	n/a	n/a	n/a	n/a	287.601	n/a
256.403	0.497	angry	Picture	81.587	n/a	3	7	13	n/a	13	115	3	n/a	n/a	n/a	n/a	288.132	AM23ANS.jpg
256.9	0.514	Blank	Blank	81.073	n/a	3	7	13	n/a	13	n/a	3	n/a	n/a	n/a	n/a	288.629	n/a
257.431	0.497	angry	Picture	80.559	n/a	3	7	14	n/a	14	97	3	n/a	n/a	n/a	n/a	289.16	BF28ANS.jpg
257.928	0.514	Blank	Blank	80.046	n/a	3	7	14	n/a	14	n/a	3	n/a	n/a	n/a	n/a	289.657	n/a
258.459	0.497	angry	Picture	79.531	n/a	3	7	15	n/a	15	82	3	n/a	n/a	n/a	n/a	290.188	AF03ANS.jpg
258.956	0.514	Blank	Blank	79.018	n/a	3	7	15	n/a	15	n/a	3	n/a	n/a	n/a	n/a	290.685	n/a
259.487	0.497	angry	Picture	78.504	n/a	3	7	16	n/a	16	96	3	n/a	n/a	n/a	n/a	291.216	AF26ANS.jpg
259.984	0.514	Blank	Blank	77.99	n/a	3	7	16	n/a	16	n/a	3	n/a	n/a	n/a	n/a	291.713	n/a
260.514	0.497	angry	Picture	77.476	n/a	3	7	17	n/a	17	109	3	n/a	n/a	n/a	n/a	292.244	AM10ANS.jpg
261.012	0.514	Blank	Blank	76.962	n/a	3	7	17	n/a	17	n/a	3	n/a	n/a	n/a	n/a	292.741	n/a
261.542	0.497	angry	Picture	76.448	n/a	3	7	18	n/a	18	114	3	n/a	n/a	n/a	n/a	293.271	AM22ANS.jpg
262.04	0.514	Blank	Blank	75.934	n/a	3	7	18	n/a	18	n/a	3	n/a	n/a	n/a	n/a	293.769	n/a
262.57	0.497	angry	Picture	75.42	n/a	3	7	19	n/a	19	120	3	n/a	n/a	n/a	n/a	294.299	AM35ANS.jpg
263.067	0.514	Blank	Blank	74.906	n/a	3	7	19	n/a	19	n/a	3	n/a	n/a	n/a	n/a	294.797	n/a
263.598	0.497	angry	Picture	74.392	n/a	3	7	20	n/a	20	81	3	n/a	n/a	n/a	n/a	295.327	AF01ANS.jpg
264.095	0.514	Blank	Blank	73.878	n/a	3	7	20	n/a	20	n/a	3	n/a	n/a	n/a	n/a	295.825	n/a
264.626	10.014	ITI	Fixation+	63.848	n/a	3	n/a	n/a	n/a	n/a	n/a	n/a	n/a	n/a	n/a	n/a	296.355	n/a
274.656	0.497	neutral	Picture	63.334	n/a	3	8	1	n/a	21	28	1	n/a	n/a	n/a	n/a	306.385	AM09NES.jpg
275.153	0.514	Blank	Blank	62.82	n/a	3	8	1	n/a	21	n/a	1	n/a	n/a	n/a	n/a	306.882	n/a
275.684	0.497	neutral	Picture	62.306	n/a	3	8	2	n/a	22	27	1	n/a	n/a	n/a	n/a	307.413	BM08NES.jpg
276.181	0.514	Blank	Blank	61.792	n/a	3	8	2	n/a	22	n/a	1	n/a	n/a	n/a	n/a	307.91	n/a
276.712	0.497	neutral	Picture	61.278	n/a	3	8	3	n/a	23	16	1	n/a	n/a	n/a	n/a	308.441	AF26NES.jpg
277.209	0.514	Blank	Blank	60.764	n/a	3	8	3	n/a	23	n/a	1	n/a	n/a	n/a	n/a	308.938	n/a
277.74	0.497	neutral	Picture	60.25	n/a	3	8	4	n/a	24	3	1	n/a	n/a	n/a	n/a	309.469	BF04NES.jpg
278.237	0.514	Blank	Blank	59.737	n/a	3	8	4	n/a	24	n/a	1	n/a	n/a	n/a	n/a	309.966	n/a
278.767	0.497	neutral	Picture	59.223	n/a	3	8	5	n/a	25	32	1	n/a	n/a	n/a	n/a	310.497	AM14NES.jpg
279.265	0.514	Blank	Blank	58.709	n/a	3	8	5	n/a	25	n/a	1	n/a	n/a	n/a	n/a	310.994	n/a
279.795	0.497	neutral	Picture	58.195	n/a	3	8	6	n/a	26	37	1	n/a	n/a	n/a	n/a	311.525	BM25NES.jpg
280.293	0.514	Blank	Blank	57.681	n/a	3	8	6	n/a	26	n/a	1	n/a	n/a	n/a	n/a	312.022	n/a
280.823	0.497	neutral	Picture	57.167	n/a	3	8	7	n/a	27	15	1	n/a	n/a	n/a	n/a	312.552	AF25NES.jpg
281.321	0.514	Blank	Blank	56.653	n/a	3	8	7	n/a	27	n/a	1	n/a	n/a	n/a	n/a	313.05	n/a
281.851	0.497	neutral	Picture	56.139	n/a	3	8	8	n/a	28	23	1	n/a	n/a	n/a	n/a	313.58	AM04NES.jpg
282.349	0.514	Blank	Blank	55.625	n/a	3	8	8	n/a	28	n/a	1	n/a	n/a	n/a	n/a	314.078	n/a
282.879	0.497	neutral	Picture	55.111	n/a	3	8	9	n/a	29	34	1	n/a	n/a	n/a	n/a	314.608	AM22NES.jpg
283.376	0.514	Blank	Blank	54.597	n/a	3	8	9	n/a	29	n/a	1	n/a	n/a	n/a	n/a	315.106	n/a
283.907	0.497	neutral	Picture	54.083	n/a	3	8	10	n/a	30	24	1	n/a	n/a	n/a	n/a	315.636	BM05NES.jpg
284.404	0.514	Blank	Blank	53.569	n/a	3	8	10	n/a	30	n/a	1	n/a	n/a	n/a	n/a	316.133	n/a
284.935	0.497	neutral	Picture	53.055	n/a	3	8	11	n/a	31	12	1	n/a	n/a	n/a	n/a	316.664	AF21NES.jpg
285.432	0.514	Blank	Blank	52.541	n/a	3	8	11	n/a	31	n/a	1	n/a	n/a	n/a	n/a	317.161	n/a
285.963	0.497	neutral	Picture	52.027	n/a	3	8	12	n/a	32	6	1	n/a	n/a	n/a	n/a	317.692	AF09NES.jpg
286.46	0.514	Blank	Blank	51.514	n/a	3	8	12	n/a	32	n/a	1	n/a	n/a	n/a	n/a	318.189	n/a
286.99	0.497	neutral	Picture	51.0	n/a	3	8	13	n/a	33	17	1	n/a	n/a	n/a	n/a	318.72	BF28NES.jpg
287.488	0.514	Blank	Blank	50.486	n/a	3	8	13	n/a	33	n/a	1	n/a	n/a	n/a	n/a	319.217	n/a
288.018	0.497	neutral	Picture	49.972	n/a	3	8	14	n/a	34	2	1	n/a	n/a	n/a	n/a	319.748	AF03NES.jpg
288.516	0.514	Blank	Blank	49.458	n/a	3	8	14	n/a	34	n/a	1	n/a	n/a	n/a	n/a	320.245	n/a
289.046	0.497	neutral	Picture	48.944	n/a	3	8	15	n/a	35	9	1	n/a	n/a	n/a	n/a	320.776	AF17NES.jpg
289.544	0.514	Blank	Blank	48.43	n/a	3	8	15	n/a	35	n/a	1	n/a	n/a	n/a	n/a	321.273	n/a
290.074	0.497	neutral	Picture	47.916	n/a	3	8	16	n/a	36	25	1	n/a	n/a	n/a	n/a	321.803	BM06NES.jpg
290.572	0.514	Blank	Blank	47.402	n/a	3	8	16	n/a	36	n/a	1	n/a	n/a	n/a	n/a	322.301	n/a
291.102	0.497	neutral	Picture	46.888	n/a	3	8	17	n/a	37	8	1	n/a	n/a	n/a	n/a	322.831	AF14NES.jpg
291.599	0.514	Blank	Blank	46.374	n/a	3	8	17	n/a	37	n/a	1	n/a	n/a	n/a	n/a	323.329	n/a
292.13	0.497	neutral	Picture	45.86	n/a	3	8	18	n/a	38	19	1	n/a	n/a	n/a	n/a	323.859	AF31NES.jpg
292.627	0.514	Blank	Blank	45.346	n/a	3	8	18	n/a	38	n/a	1	n/a	n/a	n/a	n/a	324.356	n/a
293.158	0.497	neutral	Picture	44.832	n/a	3	8	19	n/a	39	14	1	n/a	n/a	n/a	n/a	324.887	AF23NES.jpg
293.655	0.514	Blank	Blank	44.318	n/a	3	8	19	n/a	39	n/a	1	n/a	n/a	n/a	n/a	325.384	n/a
294.186	0.497	neutral	Picture	43.804	n/a	3	8	20	n/a	40	4	1	n/a	n/a	n/a	n/a	325.915	AF05NES.jpg
294.683	0.514	Blank	Blank	43.291	n/a	3	8	20	n/a	40	n/a	1	n/a	n/a	n/a	n/a	326.412	n/a
295.214	10.014	ITI	Fixation+	33.26	n/a	3	n/a	n/a	n/a	n/a	n/a	n/a	n/a	n/a	n/a	n/a	326.943	n/a
305.244	0.497	angry	Picture	32.746	n/a	3	9	1	n/a	41	84	3	n/a	n/a	n/a	n/a	336.973	AF05ANS.jpg
305.741	0.514	Blank	Blank	32.233	n/a	3	9	1	n/a	41	n/a	3	n/a	n/a	n/a	n/a	337.47	n/a
306.272	0.497	angry	Picture	31.719	n/a	3	9	2	n/a	42	92	3	n/a	n/a	n/a	n/a	338.001	AF21ANS.jpg
306.769	0.514	Blank	Blank	31.205	n/a	3	9	2	n/a	42	n/a	3	n/a	n/a	n/a	n/a	338.498	n/a
307.299	0.497	angry	Picture	30.691	n/a	3	9	3	n/a	43	86	3	n/a	n/a	n/a	n/a	339.029	AF09ANS.jpg
307.797	0.514	Blank	Blank	30.177	n/a	3	9	3	n/a	43	n/a	3	n/a	n/a	n/a	n/a	339.526	n/a
308.327	0.497	angry	Picture	29.663	n/a	3	9	4	n/a	44	93	3	n/a	n/a	n/a	n/a	340.057	BF22ANS.jpg
308.825	0.514	Blank	Blank	29.149	n/a	3	9	4	n/a	44	n/a	3	n/a	n/a	n/a	n/a	340.554	n/a
309.355	0.497	angry	Picture	28.635	n/a	3	9	5	n/a	45	88	3	n/a	n/a	n/a	n/a	341.084	AF14ANS.jpg
309.853	0.514	Blank	Blank	28.121	n/a	3	9	5	n/a	45	n/a	3	n/a	n/a	n/a	n/a	341.582	n/a
310.383	0.497	angry	Picture	27.607	n/a	3	9	6	n/a	46	113	3	n/a	n/a	n/a	n/a	342.112	AM21ANS.jpg
310.88	0.514	Blank	Blank	27.093	n/a	3	9	6	n/a	46	n/a	3	n/a	n/a	n/a	n/a	342.61	n/a
311.411	0.497	angry	Picture	26.579	n/a	3	9	7	n/a	47	95	3	n/a	n/a	n/a	n/a	343.14	AF25ANS.jpg
311.908	0.514	Blank	Blank	26.065	n/a	3	9	7	n/a	47	n/a	3	n/a	n/a	n/a	n/a	343.637	n/a
312.439	0.497	angry	Picture	25.551	n/a	3	9	8	n/a	48	102	3	n/a	n/a	n/a	n/a	344.168	BM03ANS.jpg
312.936	0.514	Blank	Blank	25.038	n/a	3	9	8	n/a	48	n/a	3	n/a	n/a	n/a	n/a	344.665	n/a
313.467	0.497	angry	Picture	24.523	n/a	3	9	9	n/a	49	112	3	n/a	n/a	n/a	n/a	345.196	AM14ANS.jpg
313.964	0.514	Blank	Blank	24.01	n/a	3	9	9	n/a	49	n/a	3	n/a	n/a	n/a	n/a	345.693	n/a
314.495	0.497	angry	Picture	23.496	n/a	3	9	10	n/a	50	83	3	n/a	n/a	n/a	n/a	346.224	BF04ANS.jpg
314.992	0.514	Blank	Blank	22.982	n/a	3	9	10	n/a	50	n/a	3	n/a	n/a	n/a	n/a	346.721	n/a
315.522	0.497	angry	Picture	22.468	n/a	3	9	11	n/a	51	90	3	n/a	n/a	n/a	n/a	347.252	AF18ANS.jpg
316.02	0.514	Blank	Blank	21.954	n/a	3	9	11	n/a	51	n/a	3	n/a	n/a	n/a	n/a	347.749	n/a
316.55	0.497	angry	Picture	21.44	n/a	3	9	12	n/a	52	117	3	n/a	n/a	n/a	n/a	348.279	BM25ANS.jpg
317.048	0.514	Blank	Blank	20.926	n/a	3	9	12	n/a	52	n/a	3	n/a	n/a	n/a	n/a	348.777	n/a
317.578	0.497	angry	Picture	20.412	n/a	3	9	13	n/a	53	94	3	n/a	n/a	n/a	n/a	349.307	AF23ANS.jpg
318.076	0.514	Blank	Blank	19.898	n/a	3	9	13	n/a	53	n/a	3	n/a	n/a	n/a	n/a	349.805	n/a
318.606	0.497	angry	Picture	19.384	n/a	3	9	14	n/a	54	106	3	n/a	n/a	n/a	n/a	350.335	AM07ANS.jpg
319.103	0.514	Blank	Blank	18.87	n/a	3	9	14	n/a	54	n/a	3	n/a	n/a	n/a	n/a	350.833	n/a
319.634	0.497	angry	Picture	18.356	n/a	3	9	15	n/a	55	105	3	n/a	n/a	n/a	n/a	351.363	BM06ANS.jpg
320.131	0.514	Blank	Blank	17.842	n/a	3	9	15	n/a	55	n/a	3	n/a	n/a	n/a	n/a	351.861	n/a
320.662	0.497	angry	Picture	17.328	n/a	3	9	16	n/a	56	116	3	n/a	n/a	n/a	n/a	352.391	BM24ANS.jpg
321.159	0.514	Blank	Blank	16.814	n/a	3	9	16	n/a	56	n/a	3	n/a	n/a	n/a	n/a	352.888	n/a
321.69	0.497	angry	Picture	16.3	n/a	3	9	17	n/a	57	89	3	n/a	n/a	n/a	n/a	353.419	AF17ANS.jpg
322.187	0.514	Blank	Blank	15.786	n/a	3	9	17	n/a	57	n/a	3	n/a	n/a	n/a	n/a	353.916	n/a
322.718	0.497	angry	Picture	15.273	n/a	3	9	18	n/a	58	118	3	n/a	n/a	n/a	n/a	354.447	BM26ANS.jpg
323.215	0.514	Blank	Blank	14.759	n/a	3	9	18	n/a	58	n/a	3	n/a	n/a	n/a	n/a	354.944	n/a
323.745	0.497	angry	Picture	14.245	n/a	3	9	19	n/a	59	100	3	n/a	n/a	n/a	n/a	355.475	AF32ANS.jpg
324.243	0.514	Blank	Blank	13.731	n/a	3	9	19	n/a	59	n/a	3	n/a	n/a	n/a	n/a	355.972	n/a
324.773	0.497	angry	Picture	13.217	n/a	3	9	20	n/a	60	119	3	n/a	n/a	n/a	n/a	356.502	BM28ANS.jpg
325.271	0.514	Blank	Blank	12.703	n/a	3	9	20	n/a	60	n/a	3	n/a	n/a	n/a	n/a	357.0	n/a
325.801	10.014	ITI	Fixation+	2.673	n/a	3	n/a	n/a	n/a	n/a	n/a	n/a	n/a	n/a	n/a	n/a	357.53	n/a
338.488	n/a	ConfirmRating	Rate	n/a	2.669	3	n/a	n/a	0	n/a	n/a	n/a	2	Angry	50	50	370.217	n/a
339.473	n/a	ConfirmRating	Rate	n/a	0.961	3	n/a	n/a	1	n/a	n/a	n/a	3	Angry	50	50	371.202	n/a
339.495	10.014	ITI	Fixation+	94.325	n/a	4	n/a	n/a	n/a	n/a	n/a	n/a	n/a	n/a	n/a	n/a	371.224	n/a
349.525	0.497	happy	Picture	93.812	n/a	4	10	1	n/a	61	79	2	n/a	n/a	n/a	n/a	381.254	BM28HAS.jpg
350.023	0.514	Blank	Blank	93.298	n/a	4	10	1	n/a	61	n/a	2	n/a	n/a	n/a	n/a	381.752	n/a
350.553	0.497	happy	Picture	92.784	n/a	4	10	2	n/a	62	61	2	n/a	n/a	n/a	n/a	382.282	AM01HAS.jpg
351.05	0.514	Blank	Blank	92.27	n/a	4	10	2	n/a	62	n/a	2	n/a	n/a	n/a	n/a	382.78	n/a
351.581	0.497	happy	Picture	91.756	n/a	4	10	3	n/a	63	57	2	n/a	n/a	n/a	n/a	383.31	BF28HAS.jpg
352.078	0.514	Blank	Blank	91.242	n/a	4	10	3	n/a	63	n/a	2	n/a	n/a	n/a	n/a	383.808	n/a
352.609	0.497	happy	Picture	90.728	n/a	4	10	4	n/a	64	77	2	n/a	n/a	n/a	n/a	384.338	BM25HAS.jpg
353.106	0.514	Blank	Blank	90.214	n/a	4	10	4	n/a	64	n/a	2	n/a	n/a	n/a	n/a	384.836	n/a
353.637	0.497	happy	Picture	89.7	n/a	4	10	5	n/a	65	47	2	n/a	n/a	n/a	n/a	385.366	BF11HAS.jpg
354.134	0.514	Blank	Blank	89.186	n/a	4	10	5	n/a	65	n/a	2	n/a	n/a	n/a	n/a	385.863	n/a
354.665	0.497	happy	Picture	88.672	n/a	4	10	6	n/a	66	50	2	n/a	n/a	n/a	n/a	386.394	AF18HAS.jpg
355.162	0.514	Blank	Blank	88.158	n/a	4	10	6	n/a	66	n/a	2	n/a	n/a	n/a	n/a	386.891	n/a
355.692	0.497	happy	Picture	87.644	n/a	4	10	7	n/a	67	78	2	n/a	n/a	n/a	n/a	387.422	BM26HAS.jpg
356.19	0.514	Blank	Blank	87.13	n/a	4	10	7	n/a	67	n/a	2	n/a	n/a	n/a	n/a	387.919	n/a
356.72	0.497	happy	Picture	86.616	n/a	4	10	8	n/a	68	45	2	n/a	n/a	n/a	n/a	388.45	BF07HAS.jpg
357.218	0.514	Blank	Blank	86.103	n/a	4	10	8	n/a	68	n/a	2	n/a	n/a	n/a	n/a	388.947	n/a
357.748	0.497	happy	Picture	85.588	n/a	4	10	9	n/a	69	56	2	n/a	n/a	n/a	n/a	389.478	AF26HAS.jpg
358.246	0.514	Blank	Blank	85.075	n/a	4	10	9	n/a	69	n/a	2	n/a	n/a	n/a	n/a	389.975	n/a
358.776	0.497	happy	Picture	84.561	n/a	4	10	10	n/a	70	65	2	n/a	n/a	n/a	n/a	390.505	BM06HAS.jpg
359.274	0.514	Blank	Blank	84.047	n/a	4	10	10	n/a	70	n/a	2	n/a	n/a	n/a	n/a	391.003	n/a
359.804	0.497	happy	Picture	83.533	n/a	4	10	11	n/a	71	73	2	n/a	n/a	n/a	n/a	391.533	AM21HAS.jpg
360.301	0.514	Blank	Blank	83.019	n/a	4	10	11	n/a	71	n/a	2	n/a	n/a	n/a	n/a	392.031	n/a
360.832	0.497	happy	Picture	82.505	n/a	4	10	12	n/a	72	41	2	n/a	n/a	n/a	n/a	392.561	AF01HAS.jpg
361.329	0.514	Blank	Blank	81.991	n/a	4	10	12	n/a	72	n/a	2	n/a	n/a	n/a	n/a	393.058	n/a
361.86	0.497	happy	Picture	81.477	n/a	4	10	13	n/a	73	59	2	n/a	n/a	n/a	n/a	393.589	AF31HAS.jpg
362.357	0.514	Blank	Blank	80.963	n/a	4	10	13	n/a	73	n/a	2	n/a	n/a	n/a	n/a	394.086	n/a
362.888	0.497	happy	Picture	80.449	n/a	4	10	14	n/a	74	64	2	n/a	n/a	n/a	n/a	394.617	BM05HAS.jpg
363.385	0.514	Blank	Blank	79.935	n/a	4	10	14	n/a	74	n/a	2	n/a	n/a	n/a	n/a	395.114	n/a
363.916	0.497	happy	Picture	79.421	n/a	4	10	15	n/a	75	68	2	n/a	n/a	n/a	n/a	395.645	AM09HAS.jpg
364.413	0.514	Blank	Blank	78.907	n/a	4	10	15	n/a	75	n/a	2	n/a	n/a	n/a	n/a	396.142	n/a
364.943	0.497	happy	Picture	78.393	n/a	4	10	16	n/a	76	54	2	n/a	n/a	n/a	n/a	396.673	AF23HAS.jpg
365.441	0.514	Blank	Blank	77.88	n/a	4	10	16	n/a	76	n/a	2	n/a	n/a	n/a	n/a	397.17	n/a
365.971	0.497	happy	Picture	77.365	n/a	4	10	17	n/a	77	53	2	n/a	n/a	n/a	n/a	397.7	BF22HAS.jpg
366.469	0.514	Blank	Blank	76.852	n/a	4	10	17	n/a	77	n/a	2	n/a	n/a	n/a	n/a	398.198	n/a
366.999	0.497	happy	Picture	76.338	n/a	4	10	18	n/a	78	44	2	n/a	n/a	n/a	n/a	398.728	AF05HAS.jpg
367.497	0.514	Blank	Blank	75.824	n/a	4	10	18	n/a	78	n/a	2	n/a	n/a	n/a	n/a	399.226	n/a
368.027	0.497	happy	Picture	75.31	n/a	4	10	19	n/a	79	52	2	n/a	n/a	n/a	n/a	399.756	AF21HAS.jpg
368.524	0.514	Blank	Blank	74.796	n/a	4	10	19	n/a	79	n/a	2	n/a	n/a	n/a	n/a	400.254	n/a
369.055	0.497	happy	Picture	74.282	n/a	4	10	20	n/a	80	62	2	n/a	n/a	n/a	n/a	400.784	BM03HAS.jpg
369.552	0.514	Blank	Blank	73.768	n/a	4	10	20	n/a	80	n/a	2	n/a	n/a	n/a	n/a	401.281	n/a
370.083	10.014	ITI	Fixation+	63.738	n/a	4	n/a	n/a	n/a	n/a	n/a	n/a	n/a	n/a	n/a	n/a	401.812	n/a
380.113	0.497	neutral	Picture	63.224	n/a	4	11	1	n/a	81	23	1	n/a	n/a	n/a	n/a	411.842	AM04NES.jpg
380.61	0.514	Blank	Blank	62.71	n/a	4	11	1	n/a	81	n/a	1	n/a	n/a	n/a	n/a	412.339	n/a
381.141	0.497	neutral	Picture	62.196	n/a	4	11	2	n/a	82	29	1	n/a	n/a	n/a	n/a	412.87	AM10NES.jpg
381.638	0.514	Blank	Blank	61.682	n/a	4	11	2	n/a	82	n/a	1	n/a	n/a	n/a	n/a	413.367	n/a
382.169	0.497	neutral	Picture	61.168	n/a	4	11	3	n/a	83	24	1	n/a	n/a	n/a	n/a	413.898	BM05NES.jpg
382.666	0.514	Blank	Blank	60.654	n/a	4	11	3	n/a	83	n/a	1	n/a	n/a	n/a	n/a	414.395	n/a
383.197	0.497	neutral	Picture	60.14	n/a	4	11	4	n/a	84	12	1	n/a	n/a	n/a	n/a	414.926	AF21NES.jpg
383.694	0.514	Blank	Blank	59.626	n/a	4	11	4	n/a	84	n/a	1	n/a	n/a	n/a	n/a	415.423	n/a
384.224	0.497	neutral	Picture	59.112	n/a	4	11	5	n/a	85	13	1	n/a	n/a	n/a	n/a	415.954	BF22NES.jpg
384.722	0.514	Blank	Blank	58.599	n/a	4	11	5	n/a	85	n/a	1	n/a	n/a	n/a	n/a	416.451	n/a
385.252	0.497	neutral	Picture	58.084	n/a	4	11	6	n/a	86	17	1	n/a	n/a	n/a	n/a	416.981	BF28NES.jpg
385.75	0.514	Blank	Blank	57.571	n/a	4	11	6	n/a	86	n/a	1	n/a	n/a	n/a	n/a	417.479	n/a
386.28	0.497	neutral	Picture	57.057	n/a	4	11	7	n/a	87	4	1	n/a	n/a	n/a	n/a	418.009	AF05NES.jpg
386.778	0.514	Blank	Blank	56.543	n/a	4	11	7	n/a	87	n/a	1	n/a	n/a	n/a	n/a	418.507	n/a
387.308	0.497	neutral	Picture	56.029	n/a	4	11	8	n/a	88	11	1	n/a	n/a	n/a	n/a	419.037	AF20NES.jpg
387.805	0.514	Blank	Blank	55.515	n/a	4	11	8	n/a	88	n/a	1	n/a	n/a	n/a	n/a	419.535	n/a
388.336	0.497	neutral	Picture	55.001	n/a	4	11	9	n/a	89	22	1	n/a	n/a	n/a	n/a	420.065	BM03NES.jpg
388.833	0.514	Blank	Blank	54.487	n/a	4	11	9	n/a	89	n/a	1	n/a	n/a	n/a	n/a	420.563	n/a
389.364	0.497	neutral	Picture	53.973	n/a	4	11	10	n/a	90	15	1	n/a	n/a	n/a	n/a	421.093	AF25NES.jpg
389.861	0.514	Blank	Blank	53.459	n/a	4	11	10	n/a	90	n/a	1	n/a	n/a	n/a	n/a	421.59	n/a
390.392	0.497	neutral	Picture	52.945	n/a	4	11	11	n/a	91	19	1	n/a	n/a	n/a	n/a	422.121	AF31NES.jpg
390.889	0.514	Blank	Blank	52.431	n/a	4	11	11	n/a	91	n/a	1	n/a	n/a	n/a	n/a	422.618	n/a
391.42	0.497	neutral	Picture	51.917	n/a	4	11	12	n/a	92	9	1	n/a	n/a	n/a	n/a	423.149	AF17NES.jpg
391.917	0.514	Blank	Blank	51.403	n/a	4	11	12	n/a	92	n/a	1	n/a	n/a	n/a	n/a	423.646	n/a
392.447	0.497	neutral	Picture	50.889	n/a	4	11	13	n/a	93	14	1	n/a	n/a	n/a	n/a	424.177	AF23NES.jpg
392.945	0.514	Blank	Blank	50.375	n/a	4	11	13	n/a	93	n/a	1	n/a	n/a	n/a	n/a	424.674	n/a
393.475	0.497	neutral	Picture	49.861	n/a	4	11	14	n/a	94	36	1	n/a	n/a	n/a	n/a	425.204	BM24NES.jpg
393.973	0.514	Blank	Blank	49.348	n/a	4	11	14	n/a	94	n/a	1	n/a	n/a	n/a	n/a	425.702	n/a
394.503	0.497	neutral	Picture	48.834	n/a	4	11	15	n/a	95	34	1	n/a	n/a	n/a	n/a	426.232	AM22NES.jpg
395.001	0.514	Blank	Blank	48.32	n/a	4	11	15	n/a	95	n/a	1	n/a	n/a	n/a	n/a	426.73	n/a
395.531	0.497	neutral	Picture	47.806	n/a	4	11	16	n/a	96	10	1	n/a	n/a	n/a	n/a	427.26	AF18NES.jpg
396.029	0.514	Blank	Blank	47.292	n/a	4	11	16	n/a	96	n/a	1	n/a	n/a	n/a	n/a	427.758	n/a
396.559	0.497	neutral	Picture	46.778	n/a	4	11	17	n/a	97	5	1	n/a	n/a	n/a	n/a	428.288	BF07NES.jpg
397.056	0.514	Blank	Blank	46.264	n/a	4	11	17	n/a	97	n/a	1	n/a	n/a	n/a	n/a	428.786	n/a
397.587	0.497	neutral	Picture	45.75	n/a	4	11	18	n/a	98	25	1	n/a	n/a	n/a	n/a	429.316	BM06NES.jpg
398.084	0.514	Blank	Blank	45.236	n/a	4	11	18	n/a	98	n/a	1	n/a	n/a	n/a	n/a	429.813	n/a
398.615	0.497	neutral	Picture	44.722	n/a	4	11	19	n/a	99	39	1	n/a	n/a	n/a	n/a	430.344	AM28NES.jpg
399.112	0.514	Blank	Blank	44.208	n/a	4	11	19	n/a	99	n/a	1	n/a	n/a	n/a	n/a	430.841	n/a
399.643	0.497	neutral	Picture	43.694	n/a	4	11	20	n/a	100	33	1	n/a	n/a	n/a	n/a	431.372	AM21NES.jpg
400.14	0.514	Blank	Blank	43.18	n/a	4	11	20	n/a	100	n/a	1	n/a	n/a	n/a	n/a	431.869	n/a
400.671	10.014	ITI	Fixation+	33.15	n/a	4	n/a	n/a	n/a	n/a	n/a	n/a	n/a	n/a	n/a	n/a	432.4	n/a
410.701	0.497	happy	Picture	32.636	n/a	4	12	1	n/a	101	74	2	n/a	n/a	n/a	n/a	442.43	AM22HAS.jpg
411.198	0.514	Blank	Blank	32.122	n/a	4	12	1	n/a	101	n/a	2	n/a	n/a	n/a	n/a	442.927	n/a
411.728	0.497	happy	Picture	31.608	n/a	4	12	2	n/a	102	76	2	n/a	n/a	n/a	n/a	443.458	BM24HAS.jpg
412.226	0.514	Blank	Blank	31.094	n/a	4	12	2	n/a	102	n/a	2	n/a	n/a	n/a	n/a	443.955	n/a
412.756	0.497	happy	Picture	30.58	n/a	4	12	3	n/a	103	80	2	n/a	n/a	n/a	n/a	444.486	BM35HAS.jpg
413.254	0.514	Blank	Blank	30.067	n/a	4	12	3	n/a	103	n/a	2	n/a	n/a	n/a	n/a	444.983	n/a
413.784	0.497	happy	Picture	29.553	n/a	4	12	4	n/a	104	75	2	n/a	n/a	n/a	n/a	445.513	AM23HAS.jpg
414.282	0.514	Blank	Blank	29.039	n/a	4	12	4	n/a	104	n/a	2	n/a	n/a	n/a	n/a	446.011	n/a
414.812	0.497	happy	Picture	28.525	n/a	4	12	5	n/a	105	49	2	n/a	n/a	n/a	n/a	446.541	AF17HAS.jpg
415.31	0.514	Blank	Blank	28.011	n/a	4	12	5	n/a	105	n/a	2	n/a	n/a	n/a	n/a	447.039	n/a
415.84	0.497	happy	Picture	27.497	n/a	4	12	6	n/a	106	43	2	n/a	n/a	n/a	n/a	447.569	BF04HAS.jpg
416.337	0.514	Blank	Blank	26.983	n/a	4	12	6	n/a	106	n/a	2	n/a	n/a	n/a	n/a	448.067	n/a
416.868	0.497	happy	Picture	26.469	n/a	4	12	7	n/a	107	70	2	n/a	n/a	n/a	n/a	448.597	BM11HAS.jpg
417.365	0.514	Blank	Blank	25.955	n/a	4	12	7	n/a	107	n/a	2	n/a	n/a	n/a	n/a	449.094	n/a
417.896	0.497	happy	Picture	25.441	n/a	4	12	8	n/a	108	66	2	n/a	n/a	n/a	n/a	449.625	BM07HAS.jpg
418.393	0.514	Blank	Blank	24.927	n/a	4	12	8	n/a	108	n/a	2	n/a	n/a	n/a	n/a	450.122	n/a
418.924	0.497	happy	Picture	24.413	n/a	4	12	9	n/a	109	48	2	n/a	n/a	n/a	n/a	450.653	AF14HAS.jpg
419.421	0.514	Blank	Blank	23.899	n/a	4	12	9	n/a	109	n/a	2	n/a	n/a	n/a	n/a	451.15	n/a
419.952	0.497	happy	Picture	23.385	n/a	4	12	10	n/a	110	58	2	n/a	n/a	n/a	n/a	451.681	BF29HAS.jpg
420.449	0.514	Blank	Blank	22.871	n/a	4	12	10	n/a	110	n/a	2	n/a	n/a	n/a	n/a	452.178	n/a
420.979	0.497	happy	Picture	22.358	n/a	4	12	11	n/a	111	63	2	n/a	n/a	n/a	n/a	452.709	AM04HAS.jpg
421.477	0.514	Blank	Blank	21.844	n/a	4	12	11	n/a	111	n/a	2	n/a	n/a	n/a	n/a	453.206	n/a
422.007	0.497	happy	Picture	21.33	n/a	4	12	12	n/a	112	72	2	n/a	n/a	n/a	n/a	453.736	AM14HAS.jpg
422.505	0.514	Blank	Blank	20.816	n/a	4	12	12	n/a	112	n/a	2	n/a	n/a	n/a	n/a	454.234	n/a
423.035	0.497	happy	Picture	20.302	n/a	4	12	13	n/a	113	55	2	n/a	n/a	n/a	n/a	454.764	AF25HAS.jpg
423.533	0.514	Blank	Blank	19.788	n/a	4	12	13	n/a	113	n/a	2	n/a	n/a	n/a	n/a	455.262	n/a
424.063	0.497	happy	Picture	19.274	n/a	4	12	14	n/a	114	42	2	n/a	n/a	n/a	n/a	455.792	AF03HAS.jpg
424.56	0.514	Blank	Blank	18.76	n/a	4	12	14	n/a	114	n/a	2	n/a	n/a	n/a	n/a	456.29	n/a
425.091	0.497	happy	Picture	18.246	n/a	4	12	15	n/a	115	60	2	n/a	n/a	n/a	n/a	456.82	AF32HAS.jpg
425.588	0.514	Blank	Blank	17.732	n/a	4	12	15	n/a	115	n/a	2	n/a	n/a	n/a	n/a	457.317	n/a
426.119	0.497	happy	Picture	17.218	n/a	4	12	16	n/a	116	67	2	n/a	n/a	n/a	n/a	457.848	BM08HAS.jpg
426.616	0.514	Blank	Blank	16.704	n/a	4	12	16	n/a	116	n/a	2	n/a	n/a	n/a	n/a	458.345	n/a
427.147	0.497	happy	Picture	16.19	n/a	4	12	17	n/a	117	51	2	n/a	n/a	n/a	n/a	458.876	AF20HAS.jpg
427.644	0.514	Blank	Blank	15.676	n/a	4	12	17	n/a	117	n/a	2	n/a	n/a	n/a	n/a	459.373	n/a
428.175	0.497	happy	Picture	15.162	n/a	4	12	18	n/a	118	71	2	n/a	n/a	n/a	n/a	459.904	BM12HAS.jpg
428.672	0.514	Blank	Blank	14.648	n/a	4	12	18	n/a	118	n/a	2	n/a	n/a	n/a	n/a	460.401	n/a
429.202	0.497	happy	Picture	14.135	n/a	4	12	19	n/a	119	69	2	n/a	n/a	n/a	n/a	460.932	AM10HAS.jpg
429.7	0.514	Blank	Blank	13.62	n/a	4	12	19	n/a	119	n/a	2	n/a	n/a	n/a	n/a	461.429	n/a
430.23	0.497	happy	Picture	13.107	n/a	4	12	20	n/a	120	46	2	n/a	n/a	n/a	n/a	461.959	AF09HAS.jpg
430.728	0.514	Blank	Blank	12.593	n/a	4	12	20	n/a	120	n/a	2	n/a	n/a	n/a	n/a	462.457	n/a
431.258	10.014	ITI	Fixation+	2.563	n/a	4	n/a	n/a	n/a	n/a	n/a	n/a	n/a	n/a	n/a	n/a	462.987	n/a
443.834	n/a	ConfirmRating	Rate	n/a	2.553	4	n/a	n/a	0	n/a	n/a	n/a	2	Happy	61	51	475.563	n/a
445.681	n/a	ConfirmRating	Rate	n/a	1.823	4	n/a	n/a	1	n/a	n/a	n/a	3	Happy	33	49	477.41	n/a
