onset	duration	trial_type	event_type	time_until_response	response_time	trial_number	block_num_within_trial	image_seq_num_within_block	question_seq_num_within_block	image_seq_num	picture_number	condition	question_type	block_type	rating	rating_computed	onset_uncorrected	KDEV_imagefile
0.003	10.014	ITI	Fixation+	105.609	n/a	1	n/a	n/a	n/a	n/a	n/a	n/a	n/a	n/a	n/a	n/a	25.941	n/a
10.034	0.497	happy	Picture	105.095	n/a	1	1	1	n/a	1	46	2	n/a	n/a	n/a	n/a	35.971	AF09HAS.jpg
10.531	0.514	Blank	Blank	104.581	n/a	1	1	1	n/a	1	n/a	2	n/a	n/a	n/a	n/a	36.468	n/a
11.062	0.497	happy	Picture	104.067	n/a	1	1	2	n/a	2	69	2	n/a	n/a	n/a	n/a	36.999	AM10HAS.jpg
11.559	0.514	Blank	Blank	103.553	n/a	1	1	2	n/a	2	n/a	2	n/a	n/a	n/a	n/a	37.496	n/a
12.09	0.497	happy	Picture	103.039	n/a	1	1	3	n/a	3	71	2	n/a	n/a	n/a	n/a	38.027	BM12HAS.jpg
12.587	0.514	Blank	Blank	102.525	n/a	1	1	3	n/a	3	n/a	2	n/a	n/a	n/a	n/a	38.524	n/a
13.117	0.497	happy	Picture	102.011	n/a	1	1	4	n/a	4	51	2	n/a	n/a	n/a	n/a	39.054	AF20HAS.jpg
13.615	0.514	Blank	Blank	101.497	n/a	1	1	4	n/a	4	n/a	2	n/a	n/a	n/a	n/a	39.552	n/a
14.145	0.497	happy	Picture	100.983	n/a	1	1	5	n/a	5	67	2	n/a	n/a	n/a	n/a	40.082	BM08HAS.jpg
14.643	0.514	Blank	Blank	100.469	n/a	1	1	5	n/a	5	n/a	2	n/a	n/a	n/a	n/a	40.58	n/a
15.173	0.497	happy	Picture	99.956	n/a	1	1	6	n/a	6	60	2	n/a	n/a	n/a	n/a	41.11	AF32HAS.jpg
15.67	0.514	Blank	Blank	99.442	n/a	1	1	6	n/a	6	n/a	2	n/a	n/a	n/a	n/a	41.608	n/a
16.201	0.497	happy	Picture	98.928	n/a	1	1	7	n/a	7	42	2	n/a	n/a	n/a	n/a	42.138	AF03HAS.jpg
16.698	0.514	Blank	Blank	98.414	n/a	1	1	7	n/a	7	n/a	2	n/a	n/a	n/a	n/a	42.636	n/a
17.229	0.497	happy	Picture	97.9	n/a	1	1	8	n/a	8	55	2	n/a	n/a	n/a	n/a	43.166	AF25HAS.jpg
17.726	0.514	Blank	Blank	97.386	n/a	1	1	8	n/a	8	n/a	2	n/a	n/a	n/a	n/a	43.663	n/a
18.257	0.497	happy	Picture	96.872	n/a	1	1	9	n/a	9	72	2	n/a	n/a	n/a	n/a	44.194	AM14HAS.jpg
18.754	0.514	Blank	Blank	96.358	n/a	1	1	9	n/a	9	n/a	2	n/a	n/a	n/a	n/a	44.691	n/a
19.285	0.497	happy	Picture	95.844	n/a	1	1	10	n/a	10	63	2	n/a	n/a	n/a	n/a	45.222	AM04HAS.jpg
19.782	0.514	Blank	Blank	95.33	n/a	1	1	10	n/a	10	n/a	2	n/a	n/a	n/a	n/a	45.719	n/a
20.313	0.497	happy	Picture	94.816	n/a	1	1	11	n/a	11	58	2	n/a	n/a	n/a	n/a	46.25	BF29HAS.jpg
20.81	0.514	Blank	Blank	94.302	n/a	1	1	11	n/a	11	n/a	2	n/a	n/a	n/a	n/a	46.747	n/a
21.34	0.497	happy	Picture	93.788	n/a	1	1	12	n/a	12	48	2	n/a	n/a	n/a	n/a	47.278	AF14HAS.jpg
21.838	0.514	Blank	Blank	93.274	n/a	1	1	12	n/a	12	n/a	2	n/a	n/a	n/a	n/a	47.775	n/a
22.368	0.497	happy	Picture	92.76	n/a	1	1	13	n/a	13	66	2	n/a	n/a	n/a	n/a	48.306	BM07HAS.jpg
22.866	0.514	Blank	Blank	92.246	n/a	1	1	13	n/a	13	n/a	2	n/a	n/a	n/a	n/a	48.803	n/a
23.396	0.497	happy	Picture	91.732	n/a	1	1	14	n/a	14	70	2	n/a	n/a	n/a	n/a	49.333	BM11HAS.jpg
23.894	0.514	Blank	Blank	91.218	n/a	1	1	14	n/a	14	n/a	2	n/a	n/a	n/a	n/a	49.831	n/a
24.424	0.497	happy	Picture	90.704	n/a	1	1	15	n/a	15	43	2	n/a	n/a	n/a	n/a	50.361	BF04HAS.jpg
24.922	0.514	Blank	Blank	90.191	n/a	1	1	15	n/a	15	n/a	2	n/a	n/a	n/a	n/a	50.859	n/a
25.452	0.497	happy	Picture	89.677	n/a	1	1	16	n/a	16	49	2	n/a	n/a	n/a	n/a	51.389	AF17HAS.jpg
25.949	0.514	Blank	Blank	89.163	n/a	1	1	16	n/a	16	n/a	2	n/a	n/a	n/a	n/a	51.886	n/a
26.48	0.497	happy	Picture	88.649	n/a	1	1	17	n/a	17	75	2	n/a	n/a	n/a	n/a	52.417	AM23HAS.jpg
26.977	0.514	Blank	Blank	88.135	n/a	1	1	17	n/a	17	n/a	2	n/a	n/a	n/a	n/a	52.914	n/a
27.508	0.497	happy	Picture	87.621	n/a	1	1	18	n/a	18	80	2	n/a	n/a	n/a	n/a	53.445	BM35HAS.jpg
28.005	0.514	Blank	Blank	87.107	n/a	1	1	18	n/a	18	n/a	2	n/a	n/a	n/a	n/a	53.942	n/a
28.536	0.497	happy	Picture	86.593	n/a	1	1	19	n/a	19	76	2	n/a	n/a	n/a	n/a	54.473	BM24HAS.jpg
29.033	0.514	Blank	Blank	86.079	n/a	1	1	19	n/a	19	n/a	2	n/a	n/a	n/a	n/a	54.97	n/a
29.564	0.497	happy	Picture	85.565	n/a	1	1	20	n/a	20	74	2	n/a	n/a	n/a	n/a	55.501	AM22HAS.jpg
30.061	0.514	Blank	Blank	85.051	n/a	1	1	20	n/a	20	n/a	2	n/a	n/a	n/a	n/a	55.998	n/a
30.591	10.014	ITI	Fixation+	75.021	n/a	1	n/a	n/a	n/a	n/a	n/a	n/a	n/a	n/a	n/a	n/a	56.529	n/a
40.622	0.497	neutral	Picture	74.507	n/a	1	2	1	n/a	21	33	1	n/a	n/a	n/a	n/a	66.559	AM21NES.jpg
41.119	0.514	Blank	Blank	73.993	n/a	1	2	1	n/a	21	n/a	1	n/a	n/a	n/a	n/a	67.056	n/a
41.65	0.497	neutral	Picture	73.479	n/a	1	2	2	n/a	22	39	1	n/a	n/a	n/a	n/a	67.587	AM28NES.jpg
42.147	0.514	Blank	Blank	72.965	n/a	1	2	2	n/a	22	n/a	1	n/a	n/a	n/a	n/a	68.084	n/a
42.677	0.497	neutral	Picture	72.451	n/a	1	2	3	n/a	23	25	1	n/a	n/a	n/a	n/a	68.615	BM06NES.jpg
43.175	0.514	Blank	Blank	71.937	n/a	1	2	3	n/a	23	n/a	1	n/a	n/a	n/a	n/a	69.112	n/a
43.705	0.497	neutral	Picture	71.423	n/a	1	2	4	n/a	24	5	1	n/a	n/a	n/a	n/a	69.642	BF07NES.jpg
44.203	0.514	Blank	Blank	70.909	n/a	1	2	4	n/a	24	n/a	1	n/a	n/a	n/a	n/a	70.14	n/a
44.733	0.497	neutral	Picture	70.395	n/a	1	2	5	n/a	25	10	1	n/a	n/a	n/a	n/a	70.67	AF18NES.jpg
45.231	0.514	Blank	Blank	69.881	n/a	1	2	5	n/a	25	n/a	1	n/a	n/a	n/a	n/a	71.168	n/a
45.761	0.497	neutral	Picture	69.367	n/a	1	2	6	n/a	26	34	1	n/a	n/a	n/a	n/a	71.698	AM22NES.jpg
46.259	0.514	Blank	Blank	68.854	n/a	1	2	6	n/a	26	n/a	1	n/a	n/a	n/a	n/a	72.196	n/a
46.789	0.497	neutral	Picture	68.34	n/a	1	2	7	n/a	27	36	1	n/a	n/a	n/a	n/a	72.726	BM24NES.jpg
47.287	0.514	Blank	Blank	67.826	n/a	1	2	7	n/a	27	n/a	1	n/a	n/a	n/a	n/a	73.224	n/a
47.817	0.497	neutral	Picture	67.312	n/a	1	2	8	n/a	28	14	1	n/a	n/a	n/a	n/a	73.754	AF23NES.jpg
48.314	0.514	Blank	Blank	66.798	n/a	1	2	8	n/a	28	n/a	1	n/a	n/a	n/a	n/a	74.251	n/a
48.845	0.497	neutral	Picture	66.284	n/a	1	2	9	n/a	29	9	1	n/a	n/a	n/a	n/a	74.782	AF17NES.jpg
49.342	0.514	Blank	Blank	65.77	n/a	1	2	9	n/a	29	n/a	1	n/a	n/a	n/a	n/a	75.279	n/a
49.873	0.497	neutral	Picture	65.256	n/a	1	2	10	n/a	30	19	1	n/a	n/a	n/a	n/a	75.81	AF31NES.jpg
50.37	0.514	Blank	Blank	64.742	n/a	1	2	10	n/a	30	n/a	1	n/a	n/a	n/a	n/a	76.307	n/a
50.901	0.497	neutral	Picture	64.228	n/a	1	2	11	n/a	31	15	1	n/a	n/a	n/a	n/a	76.838	AF25NES.jpg
51.398	0.514	Blank	Blank	63.714	n/a	1	2	11	n/a	31	n/a	1	n/a	n/a	n/a	n/a	77.335	n/a
51.928	0.497	neutral	Picture	63.2	n/a	1	2	12	n/a	32	22	1	n/a	n/a	n/a	n/a	77.866	BM03NES.jpg
52.426	0.514	Blank	Blank	62.686	n/a	1	2	12	n/a	32	n/a	1	n/a	n/a	n/a	n/a	78.363	n/a
52.956	0.497	neutral	Picture	62.172	n/a	1	2	13	n/a	33	11	1	n/a	n/a	n/a	n/a	78.894	AF20NES.jpg
53.454	0.514	Blank	Blank	61.658	n/a	1	2	13	n/a	33	n/a	1	n/a	n/a	n/a	n/a	79.391	n/a
53.984	0.497	neutral	Picture	61.144	n/a	1	2	14	n/a	34	4	1	n/a	n/a	n/a	n/a	79.921	AF05NES.jpg
54.482	0.514	Blank	Blank	60.63	n/a	1	2	14	n/a	34	n/a	1	n/a	n/a	n/a	n/a	80.419	n/a
55.012	0.497	neutral	Picture	60.117	n/a	1	2	15	n/a	35	17	1	n/a	n/a	n/a	n/a	80.949	BF28NES.jpg
55.51	0.514	Blank	Blank	59.603	n/a	1	2	15	n/a	35	n/a	1	n/a	n/a	n/a	n/a	81.447	n/a
56.04	0.497	neutral	Picture	59.089	n/a	1	2	16	n/a	36	13	1	n/a	n/a	n/a	n/a	81.977	BF22NES.jpg
56.537	0.514	Blank	Blank	58.575	n/a	1	2	16	n/a	36	n/a	1	n/a	n/a	n/a	n/a	82.475	n/a
57.068	0.497	neutral	Picture	58.061	n/a	1	2	17	n/a	37	12	1	n/a	n/a	n/a	n/a	83.005	AF21NES.jpg
57.565	0.514	Blank	Blank	57.547	n/a	1	2	17	n/a	37	n/a	1	n/a	n/a	n/a	n/a	83.502	n/a
58.096	0.497	neutral	Picture	57.033	n/a	1	2	18	n/a	38	24	1	n/a	n/a	n/a	n/a	84.033	BM05NES.jpg
58.593	0.514	Blank	Blank	56.519	n/a	1	2	18	n/a	38	n/a	1	n/a	n/a	n/a	n/a	84.53	n/a
59.124	0.497	neutral	Picture	56.005	n/a	1	2	19	n/a	39	29	1	n/a	n/a	n/a	n/a	85.061	AM10NES.jpg
59.621	0.514	Blank	Blank	55.491	n/a	1	2	19	n/a	39	n/a	1	n/a	n/a	n/a	n/a	85.558	n/a
60.152	0.497	neutral	Picture	54.977	n/a	1	2	20	n/a	40	23	1	n/a	n/a	n/a	n/a	86.089	AM04NES.jpg
60.649	0.514	Blank	Blank	54.463	n/a	1	2	20	n/a	40	n/a	1	n/a	n/a	n/a	n/a	86.586	n/a
61.18	10.014	ITI	Fixation+	44.433	n/a	1	n/a	n/a	n/a	n/a	n/a	n/a	n/a	n/a	n/a	n/a	87.117	n/a
71.21	0.497	happy	Picture	43.919	n/a	1	3	1	n/a	41	62	2	n/a	n/a	n/a	n/a	97.147	BM03HAS.jpg
71.707	0.514	Blank	Blank	43.405	n/a	1	3	1	n/a	41	n/a	2	n/a	n/a	n/a	n/a	97.644	n/a
72.238	0.497	happy	Picture	42.891	n/a	1	3	2	n/a	42	52	2	n/a	n/a	n/a	n/a	98.175	AF21HAS.jpg
72.735	0.514	Blank	Blank	42.377	n/a	1	3	2	n/a	42	n/a	2	n/a	n/a	n/a	n/a	98.672	n/a
73.266	0.497	happy	Picture	41.863	n/a	1	3	3	n/a	43	44	2	n/a	n/a	n/a	n/a	99.203	AF05HAS.jpg
73.763	0.514	Blank	Blank	41.349	n/a	1	3	3	n/a	43	n/a	2	n/a	n/a	n/a	n/a	99.7	n/a
74.293	0.497	happy	Picture	40.835	n/a	1	3	4	n/a	44	53	2	n/a	n/a	n/a	n/a	100.231	BF22HAS.jpg
74.791	0.514	Blank	Blank	40.321	n/a	1	3	4	n/a	44	n/a	2	n/a	n/a	n/a	n/a	100.728	n/a
75.321	0.497	happy	Picture	39.807	n/a	1	3	5	n/a	45	54	2	n/a	n/a	n/a	n/a	101.258	AF23HAS.jpg
75.819	0.514	Blank	Blank	39.293	n/a	1	3	5	n/a	45	n/a	2	n/a	n/a	n/a	n/a	101.756	n/a
76.349	0.497	happy	Picture	38.779	n/a	1	3	6	n/a	46	68	2	n/a	n/a	n/a	n/a	102.286	AM09HAS.jpg
76.847	0.514	Blank	Blank	38.266	n/a	1	3	6	n/a	46	n/a	2	n/a	n/a	n/a	n/a	102.784	n/a
77.377	0.497	happy	Picture	37.752	n/a	1	3	7	n/a	47	64	2	n/a	n/a	n/a	n/a	103.314	BM05HAS.jpg
77.874	0.514	Blank	Blank	37.238	n/a	1	3	7	n/a	47	n/a	2	n/a	n/a	n/a	n/a	103.812	n/a
78.405	0.497	happy	Picture	36.724	n/a	1	3	8	n/a	48	59	2	n/a	n/a	n/a	n/a	104.342	AF31HAS.jpg
78.902	0.514	Blank	Blank	36.21	n/a	1	3	8	n/a	48	n/a	2	n/a	n/a	n/a	n/a	104.84	n/a
79.433	0.497	happy	Picture	35.696	n/a	1	3	9	n/a	49	41	2	n/a	n/a	n/a	n/a	105.37	AF01HAS.jpg
79.93	0.514	Blank	Blank	35.182	n/a	1	3	9	n/a	49	n/a	2	n/a	n/a	n/a	n/a	105.867	n/a
80.461	0.497	happy	Picture	34.668	n/a	1	3	10	n/a	50	73	2	n/a	n/a	n/a	n/a	106.398	AM21HAS.jpg
80.958	0.514	Blank	Blank	34.154	n/a	1	3	10	n/a	50	n/a	2	n/a	n/a	n/a	n/a	106.895	n/a
81.489	0.497	happy	Picture	33.64	n/a	1	3	11	n/a	51	65	2	n/a	n/a	n/a	n/a	107.426	BM06HAS.jpg
81.986	0.514	Blank	Blank	33.126	n/a	1	3	11	n/a	51	n/a	2	n/a	n/a	n/a	n/a	107.923	n/a
82.517	0.497	happy	Picture	32.612	n/a	1	3	12	n/a	52	56	2	n/a	n/a	n/a	n/a	108.454	AF26HAS.jpg
83.014	0.514	Blank	Blank	32.098	n/a	1	3	12	n/a	52	n/a	2	n/a	n/a	n/a	n/a	108.951	n/a
83.544	0.497	happy	Picture	31.584	n/a	1	3	13	n/a	53	45	2	n/a	n/a	n/a	n/a	109.481	BF07HAS.jpg
84.042	0.514	Blank	Blank	31.07	n/a	1	3	13	n/a	53	n/a	2	n/a	n/a	n/a	n/a	109.979	n/a
84.572	0.497	happy	Picture	30.556	n/a	1	3	14	n/a	54	78	2	n/a	n/a	n/a	n/a	110.509	BM26HAS.jpg
85.07	0.514	Blank	Blank	30.042	n/a	1	3	14	n/a	54	n/a	2	n/a	n/a	n/a	n/a	111.007	n/a
85.6	0.497	happy	Picture	29.528	n/a	1	3	15	n/a	55	50	2	n/a	n/a	n/a	n/a	111.537	AF18HAS.jpg
86.098	0.514	Blank	Blank	29.015	n/a	1	3	15	n/a	55	n/a	2	n/a	n/a	n/a	n/a	112.035	n/a
86.628	0.497	happy	Picture	28.501	n/a	1	3	16	n/a	56	47	2	n/a	n/a	n/a	n/a	112.565	BF11HAS.jpg
87.126	0.514	Blank	Blank	27.987	n/a	1	3	16	n/a	56	n/a	2	n/a	n/a	n/a	n/a	113.063	n/a
87.656	0.497	happy	Picture	27.473	n/a	1	3	17	n/a	57	77	2	n/a	n/a	n/a	n/a	113.593	BM25HAS.jpg
88.153	0.514	Blank	Blank	26.959	n/a	1	3	17	n/a	57	n/a	2	n/a	n/a	n/a	n/a	114.091	n/a
88.684	0.497	happy	Picture	26.445	n/a	1	3	18	n/a	58	57	2	n/a	n/a	n/a	n/a	114.621	BF28HAS.jpg
89.181	0.514	Blank	Blank	25.931	n/a	1	3	18	n/a	58	n/a	2	n/a	n/a	n/a	n/a	115.118	n/a
89.712	0.497	happy	Picture	25.417	n/a	1	3	19	n/a	59	61	2	n/a	n/a	n/a	n/a	115.649	AM01HAS.jpg
90.209	0.514	Blank	Blank	24.903	n/a	1	3	19	n/a	59	n/a	2	n/a	n/a	n/a	n/a	116.146	n/a
90.74	0.497	happy	Picture	24.389	n/a	1	3	20	n/a	60	79	2	n/a	n/a	n/a	n/a	116.677	BM28HAS.jpg
91.237	0.514	Blank	Blank	23.875	n/a	1	3	20	n/a	60	n/a	2	n/a	n/a	n/a	n/a	117.174	n/a
91.768	10.014	ITI	Fixation+	13.845	n/a	1	n/a	n/a	n/a	n/a	n/a	n/a	n/a	n/a	n/a	n/a	117.705	n/a
115.626	n/a	ConfirmRating	Rate	n/a	13.827	1	n/a	n/a	0	n/a	n/a	n/a	2	Happy	73	73	141.563	n/a
118.841	n/a	ConfirmRating	Rate	n/a	3.2	1	n/a	n/a	1	n/a	n/a	n/a	3	Happy	50	50	144.778	n/a
118.874	10.014	ITI	Fixation+	100.438	n/a	2	n/a	n/a	n/a	n/a	n/a	n/a	n/a	n/a	n/a	n/a	144.811	n/a
128.904	0.497	angry	Picture	99.924	n/a	2	4	1	n/a	61	119	3	n/a	n/a	n/a	n/a	154.841	BM28ANS.jpg
129.402	0.514	Blank	Blank	99.41	n/a	2	4	1	n/a	61	n/a	3	n/a	n/a	n/a	n/a	155.339	n/a
129.932	0.497	angry	Picture	98.896	n/a	2	4	2	n/a	62	100	3	n/a	n/a	n/a	n/a	155.869	AF32ANS.jpg
130.43	0.514	Blank	Blank	98.382	n/a	2	4	2	n/a	62	n/a	3	n/a	n/a	n/a	n/a	156.367	n/a
130.96	0.497	angry	Picture	97.869	n/a	2	4	3	n/a	63	118	3	n/a	n/a	n/a	n/a	156.897	BM26ANS.jpg
131.457	0.514	Blank	Blank	97.355	n/a	2	4	3	n/a	63	n/a	3	n/a	n/a	n/a	n/a	157.394	n/a
131.988	0.497	angry	Picture	96.841	n/a	2	4	4	n/a	64	89	3	n/a	n/a	n/a	n/a	157.925	AF17ANS.jpg
132.485	0.514	Blank	Blank	96.327	n/a	2	4	4	n/a	64	n/a	3	n/a	n/a	n/a	n/a	158.422	n/a
133.016	0.497	angry	Picture	95.813	n/a	2	4	5	n/a	65	116	3	n/a	n/a	n/a	n/a	158.953	BM24ANS.jpg
133.513	0.514	Blank	Blank	95.299	n/a	2	4	5	n/a	65	n/a	3	n/a	n/a	n/a	n/a	159.45	n/a
134.044	0.497	angry	Picture	94.785	n/a	2	4	6	n/a	66	105	3	n/a	n/a	n/a	n/a	159.981	BM06ANS.jpg
134.541	0.514	Blank	Blank	94.271	n/a	2	4	6	n/a	66	n/a	3	n/a	n/a	n/a	n/a	160.478	n/a
135.072	0.497	angry	Picture	93.757	n/a	2	4	7	n/a	67	106	3	n/a	n/a	n/a	n/a	161.009	AM07ANS.jpg
135.569	0.514	Blank	Blank	93.243	n/a	2	4	7	n/a	67	n/a	3	n/a	n/a	n/a	n/a	161.506	n/a
136.099	0.497	angry	Picture	92.729	n/a	2	4	8	n/a	68	94	3	n/a	n/a	n/a	n/a	162.037	AF23ANS.jpg
136.597	0.514	Blank	Blank	92.215	n/a	2	4	8	n/a	68	n/a	3	n/a	n/a	n/a	n/a	162.534	n/a
137.127	0.497	angry	Picture	91.701	n/a	2	4	9	n/a	69	117	3	n/a	n/a	n/a	n/a	163.065	BM25ANS.jpg
137.625	0.514	Blank	Blank	91.187	n/a	2	4	9	n/a	69	n/a	3	n/a	n/a	n/a	n/a	163.562	n/a
138.155	0.497	angry	Picture	90.673	n/a	2	4	10	n/a	70	90	3	n/a	n/a	n/a	n/a	164.092	AF18ANS.jpg
138.653	0.514	Blank	Blank	90.159	n/a	2	4	10	n/a	70	n/a	3	n/a	n/a	n/a	n/a	164.59	n/a
139.183	0.497	angry	Picture	89.645	n/a	2	4	11	n/a	71	83	3	n/a	n/a	n/a	n/a	165.12	BF04ANS.jpg
139.68	0.514	Blank	Blank	89.131	n/a	2	4	11	n/a	71	n/a	3	n/a	n/a	n/a	n/a	165.618	n/a
140.211	0.497	angry	Picture	88.617	n/a	2	4	12	n/a	72	112	3	n/a	n/a	n/a	n/a	166.148	AM14ANS.jpg
140.708	0.514	Blank	Blank	88.103	n/a	2	4	12	n/a	72	n/a	3	n/a	n/a	n/a	n/a	166.645	n/a
141.239	0.497	angry	Picture	87.59	n/a	2	4	13	n/a	73	102	3	n/a	n/a	n/a	n/a	167.176	BM03ANS.jpg
141.736	0.514	Blank	Blank	87.076	n/a	2	4	13	n/a	73	n/a	3	n/a	n/a	n/a	n/a	167.673	n/a
142.267	0.497	angry	Picture	86.562	n/a	2	4	14	n/a	74	95	3	n/a	n/a	n/a	n/a	168.204	AF25ANS.jpg
142.764	0.514	Blank	Blank	86.048	n/a	2	4	14	n/a	74	n/a	3	n/a	n/a	n/a	n/a	168.701	n/a
143.295	0.497	angry	Picture	85.534	n/a	2	4	15	n/a	75	113	3	n/a	n/a	n/a	n/a	169.232	AM21ANS.jpg
143.792	0.514	Blank	Blank	85.02	n/a	2	4	15	n/a	75	n/a	3	n/a	n/a	n/a	n/a	169.729	n/a
144.323	0.497	angry	Picture	84.506	n/a	2	4	16	n/a	76	88	3	n/a	n/a	n/a	n/a	170.26	AF14ANS.jpg
144.82	0.514	Blank	Blank	83.992	n/a	2	4	16	n/a	76	n/a	3	n/a	n/a	n/a	n/a	170.757	n/a
145.351	0.497	angry	Picture	83.478	n/a	2	4	17	n/a	77	93	3	n/a	n/a	n/a	n/a	171.288	BF22ANS.jpg
145.848	0.514	Blank	Blank	82.964	n/a	2	4	17	n/a	77	n/a	3	n/a	n/a	n/a	n/a	171.785	n/a
146.378	0.497	angry	Picture	82.45	n/a	2	4	18	n/a	78	86	3	n/a	n/a	n/a	n/a	172.315	AF09ANS.jpg
146.876	0.514	Blank	Blank	81.936	n/a	2	4	18	n/a	78	n/a	3	n/a	n/a	n/a	n/a	172.813	n/a
147.406	0.497	angry	Picture	81.422	n/a	2	4	19	n/a	79	92	3	n/a	n/a	n/a	n/a	173.343	AF21ANS.jpg
147.904	0.514	Blank	Blank	80.908	n/a	2	4	19	n/a	79	n/a	3	n/a	n/a	n/a	n/a	173.841	n/a
148.434	0.497	angry	Picture	80.394	n/a	2	4	20	n/a	80	84	3	n/a	n/a	n/a	n/a	174.371	AF05ANS.jpg
148.931	0.514	Blank	Blank	79.88	n/a	2	4	20	n/a	80	n/a	3	n/a	n/a	n/a	n/a	174.869	n/a
149.462	10.014	ITI	Fixation+	69.85	n/a	2	n/a	n/a	n/a	n/a	n/a	n/a	n/a	n/a	n/a	n/a	175.399	n/a
159.492	0.497	neutral	Picture	69.336	n/a	2	5	1	n/a	81	4	1	n/a	n/a	n/a	n/a	185.429	AF05NES.jpg
159.99	0.514	Blank	Blank	68.822	n/a	2	5	1	n/a	81	n/a	1	n/a	n/a	n/a	n/a	185.927	n/a
160.52	0.497	neutral	Picture	68.308	n/a	2	5	2	n/a	82	14	1	n/a	n/a	n/a	n/a	186.457	AF23NES.jpg
161.017	0.514	Blank	Blank	67.794	n/a	2	5	2	n/a	82	n/a	1	n/a	n/a	n/a	n/a	186.955	n/a
161.548	0.497	neutral	Picture	67.28	n/a	2	5	3	n/a	83	19	1	n/a	n/a	n/a	n/a	187.485	AF31NES.jpg
162.045	0.514	Blank	Blank	66.767	n/a	2	5	3	n/a	83	n/a	1	n/a	n/a	n/a	n/a	187.982	n/a
162.576	0.497	neutral	Picture	66.253	n/a	2	5	4	n/a	84	8	1	n/a	n/a	n/a	n/a	188.513	AF14NES.jpg
163.073	0.514	Blank	Blank	65.739	n/a	2	5	4	n/a	84	n/a	1	n/a	n/a	n/a	n/a	189.01	n/a
163.604	0.497	neutral	Picture	65.225	n/a	2	5	5	n/a	85	25	1	n/a	n/a	n/a	n/a	189.541	BM06NES.jpg
164.101	0.514	Blank	Blank	64.711	n/a	2	5	5	n/a	85	n/a	1	n/a	n/a	n/a	n/a	190.038	n/a
164.632	0.497	neutral	Picture	64.197	n/a	2	5	6	n/a	86	9	1	n/a	n/a	n/a	n/a	190.569	AF17NES.jpg
165.129	0.514	Blank	Blank	63.683	n/a	2	5	6	n/a	86	n/a	1	n/a	n/a	n/a	n/a	191.066	n/a
165.66	0.497	neutral	Picture	63.169	n/a	2	5	7	n/a	87	2	1	n/a	n/a	n/a	n/a	191.597	AF03NES.jpg
166.157	0.514	Blank	Blank	62.655	n/a	2	5	7	n/a	87	n/a	1	n/a	n/a	n/a	n/a	192.094	n/a
166.688	0.497	neutral	Picture	62.141	n/a	2	5	8	n/a	88	17	1	n/a	n/a	n/a	n/a	192.625	BF28NES.jpg
167.185	0.514	Blank	Blank	61.627	n/a	2	5	8	n/a	88	n/a	1	n/a	n/a	n/a	n/a	193.122	n/a
167.715	0.497	neutral	Picture	61.113	n/a	2	5	9	n/a	89	6	1	n/a	n/a	n/a	n/a	193.653	AF09NES.jpg
168.213	0.514	Blank	Blank	60.599	n/a	2	5	9	n/a	89	n/a	1	n/a	n/a	n/a	n/a	194.15	n/a
168.743	0.497	neutral	Picture	60.085	n/a	2	5	10	n/a	90	12	1	n/a	n/a	n/a	n/a	194.68	AF21NES.jpg
169.241	0.514	Blank	Blank	59.571	n/a	2	5	10	n/a	90	n/a	1	n/a	n/a	n/a	n/a	195.178	n/a
169.771	0.497	neutral	Picture	59.057	n/a	2	5	11	n/a	91	24	1	n/a	n/a	n/a	n/a	195.708	BM05NES.jpg
170.269	0.514	Blank	Blank	58.543	n/a	2	5	11	n/a	91	n/a	1	n/a	n/a	n/a	n/a	196.206	n/a
170.799	0.497	neutral	Picture	58.029	n/a	2	5	12	n/a	92	34	1	n/a	n/a	n/a	n/a	196.736	AM22NES.jpg
171.296	0.514	Blank	Blank	57.515	n/a	2	5	12	n/a	92	n/a	1	n/a	n/a	n/a	n/a	197.233	n/a
171.827	0.497	neutral	Picture	57.002	n/a	2	5	13	n/a	93	23	1	n/a	n/a	n/a	n/a	197.764	AM04NES.jpg
172.324	0.514	Blank	Blank	56.488	n/a	2	5	13	n/a	93	n/a	1	n/a	n/a	n/a	n/a	198.261	n/a
172.855	0.497	neutral	Picture	55.974	n/a	2	5	14	n/a	94	15	1	n/a	n/a	n/a	n/a	198.792	AF25NES.jpg
173.352	0.514	Blank	Blank	55.46	n/a	2	5	14	n/a	94	n/a	1	n/a	n/a	n/a	n/a	199.289	n/a
173.883	0.497	neutral	Picture	54.946	n/a	2	5	15	n/a	95	37	1	n/a	n/a	n/a	n/a	199.82	BM25NES.jpg
174.38	0.514	Blank	Blank	54.432	n/a	2	5	15	n/a	95	n/a	1	n/a	n/a	n/a	n/a	200.317	n/a
174.911	0.497	neutral	Picture	53.918	n/a	2	5	16	n/a	96	32	1	n/a	n/a	n/a	n/a	200.848	AM14NES.jpg
175.408	0.514	Blank	Blank	53.404	n/a	2	5	16	n/a	96	n/a	1	n/a	n/a	n/a	n/a	201.345	n/a
175.938	0.497	neutral	Picture	52.89	n/a	2	5	17	n/a	97	3	1	n/a	n/a	n/a	n/a	201.876	BF04NES.jpg
176.436	0.514	Blank	Blank	52.376	n/a	2	5	17	n/a	97	n/a	1	n/a	n/a	n/a	n/a	202.373	n/a
176.966	0.497	neutral	Picture	51.862	n/a	2	5	18	n/a	98	16	1	n/a	n/a	n/a	n/a	202.904	AF26NES.jpg
177.464	0.514	Blank	Blank	51.348	n/a	2	5	18	n/a	98	n/a	1	n/a	n/a	n/a	n/a	203.401	n/a
177.994	0.497	neutral	Picture	50.834	n/a	2	5	19	n/a	99	27	1	n/a	n/a	n/a	n/a	203.931	BM08NES.jpg
178.492	0.514	Blank	Blank	50.32	n/a	2	5	19	n/a	99	n/a	1	n/a	n/a	n/a	n/a	204.429	n/a
179.022	0.497	neutral	Picture	49.806	n/a	2	5	20	n/a	100	28	1	n/a	n/a	n/a	n/a	204.959	AM09NES.jpg
179.52	0.514	Blank	Blank	49.292	n/a	2	5	20	n/a	100	n/a	1	n/a	n/a	n/a	n/a	205.457	n/a
180.05	10.014	ITI	Fixation+	39.262	n/a	2	n/a	n/a	n/a	n/a	n/a	n/a	n/a	n/a	n/a	n/a	205.987	n/a
190.08	0.497	angry	Picture	38.748	n/a	2	6	1	n/a	101	81	3	n/a	n/a	n/a	n/a	216.017	AF01ANS.jpg
190.578	0.514	Blank	Blank	38.234	n/a	2	6	1	n/a	101	n/a	3	n/a	n/a	n/a	n/a	216.515	n/a
191.108	0.497	angry	Picture	37.72	n/a	2	6	2	n/a	102	120	3	n/a	n/a	n/a	n/a	217.045	AM35ANS.jpg
191.606	0.514	Blank	Blank	37.206	n/a	2	6	2	n/a	102	n/a	3	n/a	n/a	n/a	n/a	217.543	n/a
192.136	0.497	angry	Picture	36.692	n/a	2	6	3	n/a	103	114	3	n/a	n/a	n/a	n/a	218.073	AM22ANS.jpg
192.633	0.514	Blank	Blank	36.178	n/a	2	6	3	n/a	103	n/a	3	n/a	n/a	n/a	n/a	218.571	n/a
193.164	0.497	angry	Picture	35.665	n/a	2	6	4	n/a	104	109	3	n/a	n/a	n/a	n/a	219.101	AM10ANS.jpg
193.661	0.514	Blank	Blank	35.151	n/a	2	6	4	n/a	104	n/a	3	n/a	n/a	n/a	n/a	219.598	n/a
194.192	0.497	angry	Picture	34.637	n/a	2	6	5	n/a	105	96	3	n/a	n/a	n/a	n/a	220.129	AF26ANS.jpg
194.689	0.514	Blank	Blank	34.123	n/a	2	6	5	n/a	105	n/a	3	n/a	n/a	n/a	n/a	220.626	n/a
195.22	0.497	angry	Picture	33.609	n/a	2	6	6	n/a	106	82	3	n/a	n/a	n/a	n/a	221.157	AF03ANS.jpg
195.717	0.514	Blank	Blank	33.095	n/a	2	6	6	n/a	106	n/a	3	n/a	n/a	n/a	n/a	221.654	n/a
196.248	0.497	angry	Picture	32.581	n/a	2	6	7	n/a	107	97	3	n/a	n/a	n/a	n/a	222.185	BF28ANS.jpg
196.745	0.514	Blank	Blank	32.067	n/a	2	6	7	n/a	107	n/a	3	n/a	n/a	n/a	n/a	222.682	n/a
197.276	0.497	angry	Picture	31.553	n/a	2	6	8	n/a	108	115	3	n/a	n/a	n/a	n/a	223.213	AM23ANS.jpg
197.773	0.514	Blank	Blank	31.039	n/a	2	6	8	n/a	108	n/a	3	n/a	n/a	n/a	n/a	223.71	n/a
198.303	0.497	angry	Picture	30.525	n/a	2	6	9	n/a	109	91	3	n/a	n/a	n/a	n/a	224.24	AF20ANS.jpg
198.801	0.514	Blank	Blank	30.011	n/a	2	6	9	n/a	109	n/a	3	n/a	n/a	n/a	n/a	224.738	n/a
199.331	0.497	angry	Picture	29.497	n/a	2	6	10	n/a	110	87	3	n/a	n/a	n/a	n/a	225.268	BF11ANS.jpg
199.829	0.514	Blank	Blank	28.983	n/a	2	6	10	n/a	110	n/a	3	n/a	n/a	n/a	n/a	225.766	n/a
200.359	0.497	angry	Picture	28.469	n/a	2	6	11	n/a	111	85	3	n/a	n/a	n/a	n/a	226.296	BF07ANS.jpg
200.857	0.514	Blank	Blank	27.955	n/a	2	6	11	n/a	111	n/a	3	n/a	n/a	n/a	n/a	226.794	n/a
201.387	0.497	angry	Picture	27.441	n/a	2	6	12	n/a	112	110	3	n/a	n/a	n/a	n/a	227.324	AM11ANS.jpg
201.885	0.514	Blank	Blank	26.927	n/a	2	6	12	n/a	112	n/a	3	n/a	n/a	n/a	n/a	227.822	n/a
202.415	0.497	angry	Picture	26.414	n/a	2	6	13	n/a	113	111	3	n/a	n/a	n/a	n/a	228.352	BM12ANS.jpg
202.912	0.514	Blank	Blank	25.9	n/a	2	6	13	n/a	113	n/a	3	n/a	n/a	n/a	n/a	228.849	n/a
203.443	0.497	angry	Picture	25.386	n/a	2	6	14	n/a	114	103	3	n/a	n/a	n/a	n/a	229.38	AM04ANS.jpg
203.94	0.514	Blank	Blank	24.872	n/a	2	6	14	n/a	114	n/a	3	n/a	n/a	n/a	n/a	229.877	n/a
204.471	0.497	angry	Picture	24.358	n/a	2	6	15	n/a	115	101	3	n/a	n/a	n/a	n/a	230.408	AM01ANS.jpg
204.968	0.514	Blank	Blank	23.844	n/a	2	6	15	n/a	115	n/a	3	n/a	n/a	n/a	n/a	230.905	n/a
205.499	0.497	angry	Picture	23.33	n/a	2	6	16	n/a	116	104	3	n/a	n/a	n/a	n/a	231.436	BM05ANS.jpg
205.996	0.514	Blank	Blank	22.816	n/a	2	6	16	n/a	116	n/a	3	n/a	n/a	n/a	n/a	231.933	n/a
206.526	0.497	angry	Picture	22.302	n/a	2	6	17	n/a	117	107	3	n/a	n/a	n/a	n/a	232.464	BM08ANS.jpg
207.024	0.514	Blank	Blank	21.788	n/a	2	6	17	n/a	117	n/a	3	n/a	n/a	n/a	n/a	232.961	n/a
207.554	0.497	angry	Picture	21.274	n/a	2	6	18	n/a	118	98	3	n/a	n/a	n/a	n/a	233.492	BF29ANS.jpg
208.052	0.514	Blank	Blank	20.76	n/a	2	6	18	n/a	118	n/a	3	n/a	n/a	n/a	n/a	233.989	n/a
208.582	0.497	angry	Picture	20.246	n/a	2	6	19	n/a	119	99	3	n/a	n/a	n/a	n/a	234.519	AF31ANS.jpg
209.08	0.514	Blank	Blank	19.732	n/a	2	6	19	n/a	119	n/a	3	n/a	n/a	n/a	n/a	235.017	n/a
209.61	0.497	angry	Picture	19.218	n/a	2	6	20	n/a	120	108	3	n/a	n/a	n/a	n/a	235.547	AM09ANS.jpg
210.108	0.514	Blank	Blank	18.704	n/a	2	6	20	n/a	120	n/a	3	n/a	n/a	n/a	n/a	236.045	n/a
210.638	10.014	ITI	Fixation+	8.674	n/a	2	n/a	n/a	n/a	n/a	n/a	n/a	n/a	n/a	n/a	n/a	236.575	n/a
229.326	n/a	ConfirmRating	Rate	n/a	8.671	2	n/a	n/a	0	n/a	n/a	n/a	2	Angry	37	37	255.263	n/a
237.063	n/a	ConfirmRating	Rate	n/a	7.709	2	n/a	n/a	1	n/a	n/a	n/a	3	Angry	61	61	263.0	n/a
237.081	15.004	Rest	Picture	n/a	n/a	n/a	n/a	n/a	n/a	n/a	n/a	n/a	0	n/a	0	0	263.019	n/a
252.102	10.014	ITI	Fixation+	102.087	n/a	3	n/a	n/a	n/a	n/a	n/a	n/a	n/a	n/a	n/a	n/a	278.039	n/a
262.132	0.497	happy	Picture	101.573	n/a	3	7	1	n/a	1	46	2	n/a	n/a	n/a	n/a	288.069	AF09HAS.jpg
262.629	0.514	Blank	Blank	101.059	n/a	3	7	1	n/a	1	n/a	2	n/a	n/a	n/a	n/a	288.567	n/a
263.16	0.497	happy	Picture	100.545	n/a	3	7	2	n/a	2	69	2	n/a	n/a	n/a	n/a	289.097	AM10HAS.jpg
263.657	0.514	Blank	Blank	100.031	n/a	3	7	2	n/a	2	n/a	2	n/a	n/a	n/a	n/a	289.594	n/a
264.188	0.497	happy	Picture	99.517	n/a	3	7	3	n/a	3	71	2	n/a	n/a	n/a	n/a	290.125	BM12HAS.jpg
264.685	0.514	Blank	Blank	99.003	n/a	3	7	3	n/a	3	n/a	2	n/a	n/a	n/a	n/a	290.622	n/a
265.216	0.497	happy	Picture	98.489	n/a	3	7	4	n/a	4	51	2	n/a	n/a	n/a	n/a	291.153	AF20HAS.jpg
265.713	0.514	Blank	Blank	97.975	n/a	3	7	4	n/a	4	n/a	2	n/a	n/a	n/a	n/a	291.65	n/a
266.244	0.497	happy	Picture	97.461	n/a	3	7	5	n/a	5	67	2	n/a	n/a	n/a	n/a	292.181	BM08HAS.jpg
266.741	0.514	Blank	Blank	96.947	n/a	3	7	5	n/a	5	n/a	2	n/a	n/a	n/a	n/a	292.678	n/a
267.272	0.497	happy	Picture	96.434	n/a	3	7	6	n/a	6	60	2	n/a	n/a	n/a	n/a	293.209	AF32HAS.jpg
267.769	0.514	Blank	Blank	95.92	n/a	3	7	6	n/a	6	n/a	2	n/a	n/a	n/a	n/a	293.706	n/a
268.299	0.497	happy	Picture	95.406	n/a	3	7	7	n/a	7	42	2	n/a	n/a	n/a	n/a	294.236	AF03HAS.jpg
268.797	0.514	Blank	Blank	94.892	n/a	3	7	7	n/a	7	n/a	2	n/a	n/a	n/a	n/a	294.734	n/a
269.327	0.497	happy	Picture	94.378	n/a	3	7	8	n/a	8	55	2	n/a	n/a	n/a	n/a	295.264	AF25HAS.jpg
269.825	0.514	Blank	Blank	93.864	n/a	3	7	8	n/a	8	n/a	2	n/a	n/a	n/a	n/a	295.762	n/a
270.355	0.497	happy	Picture	93.35	n/a	3	7	9	n/a	9	72	2	n/a	n/a	n/a	n/a	296.292	AM14HAS.jpg
270.853	0.514	Blank	Blank	92.836	n/a	3	7	9	n/a	9	n/a	2	n/a	n/a	n/a	n/a	296.79	n/a
271.383	0.497	happy	Picture	92.322	n/a	3	7	10	n/a	10	63	2	n/a	n/a	n/a	n/a	297.32	AM04HAS.jpg
271.881	0.514	Blank	Blank	91.808	n/a	3	7	10	n/a	10	n/a	2	n/a	n/a	n/a	n/a	297.818	n/a
272.411	0.497	happy	Picture	91.294	n/a	3	7	11	n/a	11	58	2	n/a	n/a	n/a	n/a	298.348	BF29HAS.jpg
272.908	0.514	Blank	Blank	90.78	n/a	3	7	11	n/a	11	n/a	2	n/a	n/a	n/a	n/a	298.845	n/a
273.439	0.497	happy	Picture	90.266	n/a	3	7	12	n/a	12	48	2	n/a	n/a	n/a	n/a	299.376	AF14HAS.jpg
273.936	0.514	Blank	Blank	89.752	n/a	3	7	12	n/a	12	n/a	2	n/a	n/a	n/a	n/a	299.873	n/a
274.467	0.497	happy	Picture	89.238	n/a	3	7	13	n/a	13	66	2	n/a	n/a	n/a	n/a	300.404	BM07HAS.jpg
274.964	0.514	Blank	Blank	88.724	n/a	3	7	13	n/a	13	n/a	2	n/a	n/a	n/a	n/a	300.901	n/a
275.495	0.497	happy	Picture	88.21	n/a	3	7	14	n/a	14	70	2	n/a	n/a	n/a	n/a	301.432	BM11HAS.jpg
275.992	0.514	Blank	Blank	87.696	n/a	3	7	14	n/a	14	n/a	2	n/a	n/a	n/a	n/a	301.929	n/a
276.523	0.497	happy	Picture	87.183	n/a	3	7	15	n/a	15	43	2	n/a	n/a	n/a	n/a	302.46	BF04HAS.jpg
277.02	0.514	Blank	Blank	86.669	n/a	3	7	15	n/a	15	n/a	2	n/a	n/a	n/a	n/a	302.957	n/a
277.55	0.497	happy	Picture	86.155	n/a	3	7	16	n/a	16	49	2	n/a	n/a	n/a	n/a	303.488	AF17HAS.jpg
278.048	0.514	Blank	Blank	85.641	n/a	3	7	16	n/a	16	n/a	2	n/a	n/a	n/a	n/a	303.985	n/a
278.578	0.497	happy	Picture	85.127	n/a	3	7	17	n/a	17	75	2	n/a	n/a	n/a	n/a	304.515	AM23HAS.jpg
279.076	0.514	Blank	Blank	84.613	n/a	3	7	17	n/a	17	n/a	2	n/a	n/a	n/a	n/a	305.013	n/a
279.606	0.497	happy	Picture	84.099	n/a	3	7	18	n/a	18	80	2	n/a	n/a	n/a	n/a	305.543	BM35HAS.jpg
280.104	0.514	Blank	Blank	83.585	n/a	3	7	18	n/a	18	n/a	2	n/a	n/a	n/a	n/a	306.041	n/a
280.634	0.497	happy	Picture	83.071	n/a	3	7	19	n/a	19	76	2	n/a	n/a	n/a	n/a	306.571	BM24HAS.jpg
281.132	0.514	Blank	Blank	82.557	n/a	3	7	19	n/a	19	n/a	2	n/a	n/a	n/a	n/a	307.069	n/a
281.662	0.497	happy	Picture	82.043	n/a	3	7	20	n/a	20	74	2	n/a	n/a	n/a	n/a	307.599	AM22HAS.jpg
282.159	0.514	Blank	Blank	81.529	n/a	3	7	20	n/a	20	n/a	2	n/a	n/a	n/a	n/a	308.096	n/a
282.69	10.014	ITI	Fixation+	71.499	n/a	3	n/a	n/a	n/a	n/a	n/a	n/a	n/a	n/a	n/a	n/a	308.627	n/a
292.72	0.497	neutral	Picture	70.985	n/a	3	8	1	n/a	21	33	1	n/a	n/a	n/a	n/a	318.657	AM21NES.jpg
293.218	0.514	Blank	Blank	70.471	n/a	3	8	1	n/a	21	n/a	1	n/a	n/a	n/a	n/a	319.155	n/a
293.748	0.497	neutral	Picture	69.957	n/a	3	8	2	n/a	22	39	1	n/a	n/a	n/a	n/a	319.685	AM28NES.jpg
294.245	0.514	Blank	Blank	69.443	n/a	3	8	2	n/a	22	n/a	1	n/a	n/a	n/a	n/a	320.183	n/a
294.776	0.497	neutral	Picture	68.929	n/a	3	8	3	n/a	23	25	1	n/a	n/a	n/a	n/a	320.713	BM06NES.jpg
295.273	0.514	Blank	Blank	68.415	n/a	3	8	3	n/a	23	n/a	1	n/a	n/a	n/a	n/a	321.21	n/a
295.804	0.497	neutral	Picture	67.901	n/a	3	8	4	n/a	24	5	1	n/a	n/a	n/a	n/a	321.741	BF07NES.jpg
296.301	0.514	Blank	Blank	67.387	n/a	3	8	4	n/a	24	n/a	1	n/a	n/a	n/a	n/a	322.238	n/a
296.832	0.497	neutral	Picture	66.873	n/a	3	8	5	n/a	25	10	1	n/a	n/a	n/a	n/a	322.769	AF18NES.jpg
297.329	0.514	Blank	Blank	66.359	n/a	3	8	5	n/a	25	n/a	1	n/a	n/a	n/a	n/a	323.266	n/a
297.86	0.497	neutral	Picture	65.846	n/a	3	8	6	n/a	26	34	1	n/a	n/a	n/a	n/a	323.797	AM22NES.jpg
298.357	0.514	Blank	Blank	65.332	n/a	3	8	6	n/a	26	n/a	1	n/a	n/a	n/a	n/a	324.294	n/a
298.887	0.497	neutral	Picture	64.818	n/a	3	8	7	n/a	27	36	1	n/a	n/a	n/a	n/a	324.825	BM24NES.jpg
299.385	0.514	Blank	Blank	64.304	n/a	3	8	7	n/a	27	n/a	1	n/a	n/a	n/a	n/a	325.322	n/a
299.915	0.497	neutral	Picture	63.79	n/a	3	8	8	n/a	28	14	1	n/a	n/a	n/a	n/a	325.852	AF23NES.jpg
300.413	0.514	Blank	Blank	63.276	n/a	3	8	8	n/a	28	n/a	1	n/a	n/a	n/a	n/a	326.35	n/a
300.943	0.497	neutral	Picture	62.762	n/a	3	8	9	n/a	29	9	1	n/a	n/a	n/a	n/a	326.88	AF17NES.jpg
301.441	0.514	Blank	Blank	62.248	n/a	3	8	9	n/a	29	n/a	1	n/a	n/a	n/a	n/a	327.378	n/a
301.971	0.497	neutral	Picture	61.734	n/a	3	8	10	n/a	30	19	1	n/a	n/a	n/a	n/a	327.908	AF31NES.jpg
302.469	0.514	Blank	Blank	61.22	n/a	3	8	10	n/a	30	n/a	1	n/a	n/a	n/a	n/a	328.406	n/a
302.999	0.497	neutral	Picture	60.706	n/a	3	8	11	n/a	31	15	1	n/a	n/a	n/a	n/a	328.936	AF25NES.jpg
303.496	0.514	Blank	Blank	60.192	n/a	3	8	11	n/a	31	n/a	1	n/a	n/a	n/a	n/a	329.433	n/a
304.027	0.497	neutral	Picture	59.678	n/a	3	8	12	n/a	32	22	1	n/a	n/a	n/a	n/a	329.964	BM03NES.jpg
304.524	0.514	Blank	Blank	59.164	n/a	3	8	12	n/a	32	n/a	1	n/a	n/a	n/a	n/a	330.461	n/a
305.055	0.497	neutral	Picture	58.65	n/a	3	8	13	n/a	33	11	1	n/a	n/a	n/a	n/a	330.992	AF20NES.jpg
305.552	0.514	Blank	Blank	58.136	n/a	3	8	13	n/a	33	n/a	1	n/a	n/a	n/a	n/a	331.489	n/a
306.083	0.497	neutral	Picture	57.623	n/a	3	8	14	n/a	34	4	1	n/a	n/a	n/a	n/a	332.02	AF05NES.jpg
306.58	0.514	Blank	Blank	57.108	n/a	3	8	14	n/a	34	n/a	1	n/a	n/a	n/a	n/a	332.517	n/a
307.111	0.497	neutral	Picture	56.595	n/a	3	8	15	n/a	35	17	1	n/a	n/a	n/a	n/a	333.048	BF28NES.jpg
307.608	0.514	Blank	Blank	56.081	n/a	3	8	15	n/a	35	n/a	1	n/a	n/a	n/a	n/a	333.545	n/a
308.139	0.497	neutral	Picture	55.567	n/a	3	8	16	n/a	36	13	1	n/a	n/a	n/a	n/a	334.076	BF22NES.jpg
308.636	0.514	Blank	Blank	55.053	n/a	3	8	16	n/a	36	n/a	1	n/a	n/a	n/a	n/a	334.573	n/a
309.166	0.497	neutral	Picture	54.539	n/a	3	8	17	n/a	37	12	1	n/a	n/a	n/a	n/a	335.103	AF21NES.jpg
309.664	0.514	Blank	Blank	54.025	n/a	3	8	17	n/a	37	n/a	1	n/a	n/a	n/a	n/a	335.601	n/a
310.194	0.497	neutral	Picture	53.511	n/a	3	8	18	n/a	38	24	1	n/a	n/a	n/a	n/a	336.131	BM05NES.jpg
310.692	0.514	Blank	Blank	52.997	n/a	3	8	18	n/a	38	n/a	1	n/a	n/a	n/a	n/a	336.629	n/a
311.222	0.497	neutral	Picture	52.483	n/a	3	8	19	n/a	39	29	1	n/a	n/a	n/a	n/a	337.159	AM10NES.jpg
311.72	0.514	Blank	Blank	51.969	n/a	3	8	19	n/a	39	n/a	1	n/a	n/a	n/a	n/a	337.657	n/a
312.25	0.497	neutral	Picture	51.455	n/a	3	8	20	n/a	40	23	1	n/a	n/a	n/a	n/a	338.187	AM04NES.jpg
312.747	0.514	Blank	Blank	50.941	n/a	3	8	20	n/a	40	n/a	1	n/a	n/a	n/a	n/a	338.685	n/a
313.278	10.014	ITI	Fixation+	40.911	n/a	3	n/a	n/a	n/a	n/a	n/a	n/a	n/a	n/a	n/a	n/a	339.215	n/a
323.308	0.497	happy	Picture	40.397	n/a	3	9	1	n/a	41	62	2	n/a	n/a	n/a	n/a	349.245	BM03HAS.jpg
323.805	0.514	Blank	Blank	39.883	n/a	3	9	1	n/a	41	n/a	2	n/a	n/a	n/a	n/a	349.743	n/a
324.336	0.497	happy	Picture	39.369	n/a	3	9	2	n/a	42	52	2	n/a	n/a	n/a	n/a	350.273	AF21HAS.jpg
324.833	0.514	Blank	Blank	38.855	n/a	3	9	2	n/a	42	n/a	2	n/a	n/a	n/a	n/a	350.771	n/a
325.364	0.497	happy	Picture	38.341	n/a	3	9	3	n/a	43	44	2	n/a	n/a	n/a	n/a	351.301	AF05HAS.jpg
325.861	0.514	Blank	Blank	37.827	n/a	3	9	3	n/a	43	n/a	2	n/a	n/a	n/a	n/a	351.798	n/a
326.392	0.497	happy	Picture	37.313	n/a	3	9	4	n/a	44	53	2	n/a	n/a	n/a	n/a	352.329	BF22HAS.jpg
326.889	0.514	Blank	Blank	36.799	n/a	3	9	4	n/a	44	n/a	2	n/a	n/a	n/a	n/a	352.826	n/a
327.42	0.497	happy	Picture	36.285	n/a	3	9	5	n/a	45	54	2	n/a	n/a	n/a	n/a	353.357	AF23HAS.jpg
327.917	0.514	Blank	Blank	35.771	n/a	3	9	5	n/a	45	n/a	2	n/a	n/a	n/a	n/a	353.854	n/a
328.448	0.497	happy	Picture	35.258	n/a	3	9	6	n/a	46	68	2	n/a	n/a	n/a	n/a	354.385	AM09HAS.jpg
328.945	0.514	Blank	Blank	34.744	n/a	3	9	6	n/a	46	n/a	2	n/a	n/a	n/a	n/a	354.882	n/a
329.476	0.497	happy	Picture	34.23	n/a	3	9	7	n/a	47	64	2	n/a	n/a	n/a	n/a	355.413	BM05HAS.jpg
329.973	0.514	Blank	Blank	33.716	n/a	3	9	7	n/a	47	n/a	2	n/a	n/a	n/a	n/a	355.91	n/a
330.503	0.497	happy	Picture	33.202	n/a	3	9	8	n/a	48	59	2	n/a	n/a	n/a	n/a	356.44	AF31HAS.jpg
331.001	0.514	Blank	Blank	32.688	n/a	3	9	8	n/a	48	n/a	2	n/a	n/a	n/a	n/a	356.938	n/a
331.531	0.497	happy	Picture	32.174	n/a	3	9	9	n/a	49	41	2	n/a	n/a	n/a	n/a	357.468	AF01HAS.jpg
332.029	0.514	Blank	Blank	31.66	n/a	3	9	9	n/a	49	n/a	2	n/a	n/a	n/a	n/a	357.966	n/a
332.559	0.497	happy	Picture	31.146	n/a	3	9	10	n/a	50	73	2	n/a	n/a	n/a	n/a	358.496	AM21HAS.jpg
333.057	0.514	Blank	Blank	30.632	n/a	3	9	10	n/a	50	n/a	2	n/a	n/a	n/a	n/a	358.994	n/a
333.587	0.497	happy	Picture	30.118	n/a	3	9	11	n/a	51	65	2	n/a	n/a	n/a	n/a	359.524	BM06HAS.jpg
334.084	0.514	Blank	Blank	29.604	n/a	3	9	11	n/a	51	n/a	2	n/a	n/a	n/a	n/a	360.022	n/a
334.615	0.497	happy	Picture	29.09	n/a	3	9	12	n/a	52	56	2	n/a	n/a	n/a	n/a	360.552	AF26HAS.jpg
335.112	0.514	Blank	Blank	28.576	n/a	3	9	12	n/a	52	n/a	2	n/a	n/a	n/a	n/a	361.049	n/a
335.643	0.497	happy	Picture	28.062	n/a	3	9	13	n/a	53	45	2	n/a	n/a	n/a	n/a	361.58	BF07HAS.jpg
336.14	0.514	Blank	Blank	27.548	n/a	3	9	13	n/a	53	n/a	2	n/a	n/a	n/a	n/a	362.077	n/a
336.671	0.497	happy	Picture	27.034	n/a	3	9	14	n/a	54	78	2	n/a	n/a	n/a	n/a	362.608	BM26HAS.jpg
337.168	0.514	Blank	Blank	26.52	n/a	3	9	14	n/a	54	n/a	2	n/a	n/a	n/a	n/a	363.105	n/a
337.699	0.497	happy	Picture	26.006	n/a	3	9	15	n/a	55	50	2	n/a	n/a	n/a	n/a	363.636	AF18HAS.jpg
338.196	0.514	Blank	Blank	25.493	n/a	3	9	15	n/a	55	n/a	2	n/a	n/a	n/a	n/a	364.133	n/a
338.726	0.497	happy	Picture	24.979	n/a	3	9	16	n/a	56	47	2	n/a	n/a	n/a	n/a	364.664	BF11HAS.jpg
339.224	0.514	Blank	Blank	24.465	n/a	3	9	16	n/a	56	n/a	2	n/a	n/a	n/a	n/a	365.161	n/a
339.754	0.497	happy	Picture	23.951	n/a	3	9	17	n/a	57	77	2	n/a	n/a	n/a	n/a	365.692	BM25HAS.jpg
340.252	0.514	Blank	Blank	23.437	n/a	3	9	17	n/a	57	n/a	2	n/a	n/a	n/a	n/a	366.189	n/a
340.782	0.497	happy	Picture	22.923	n/a	3	9	18	n/a	58	57	2	n/a	n/a	n/a	n/a	366.719	BF28HAS.jpg
341.28	0.514	Blank	Blank	22.409	n/a	3	9	18	n/a	58	n/a	2	n/a	n/a	n/a	n/a	367.217	n/a
341.81	0.497	happy	Picture	21.895	n/a	3	9	19	n/a	59	61	2	n/a	n/a	n/a	n/a	367.747	AM01HAS.jpg
342.308	0.514	Blank	Blank	21.381	n/a	3	9	19	n/a	59	n/a	2	n/a	n/a	n/a	n/a	368.245	n/a
342.838	0.497	happy	Picture	20.867	n/a	3	9	20	n/a	60	79	2	n/a	n/a	n/a	n/a	368.775	BM28HAS.jpg
343.335	0.514	Blank	Blank	20.353	n/a	3	9	20	n/a	60	n/a	2	n/a	n/a	n/a	n/a	369.272	n/a
343.866	10.014	ITI	Fixation+	10.323	n/a	3	n/a	n/a	n/a	n/a	n/a	n/a	n/a	n/a	n/a	n/a	369.803	n/a
364.202	n/a	ConfirmRating	Rate	n/a	10.312	3	n/a	n/a	0	n/a	n/a	n/a	2	Happy	78	78	390.14	n/a
374.787	n/a	ConfirmRating	Rate	n/a	10.578	3	n/a	n/a	1	n/a	n/a	n/a	3	Happy	34	34	400.724	n/a
374.819	10.014	ITI	Fixation+	97.367	n/a	4	n/a	n/a	n/a	n/a	n/a	n/a	n/a	n/a	n/a	n/a	400.756	n/a
384.849	0.497	angry	Picture	96.853	n/a	4	10	1	n/a	61	119	3	n/a	n/a	n/a	n/a	410.786	BM28ANS.jpg
385.346	0.514	Blank	Blank	96.339	n/a	4	10	1	n/a	61	n/a	3	n/a	n/a	n/a	n/a	411.283	n/a
385.877	0.497	angry	Picture	95.825	n/a	4	10	2	n/a	62	100	3	n/a	n/a	n/a	n/a	411.814	AF32ANS.jpg
386.374	0.514	Blank	Blank	95.311	n/a	4	10	2	n/a	62	n/a	3	n/a	n/a	n/a	n/a	412.311	n/a
386.905	0.497	angry	Picture	94.797	n/a	4	10	3	n/a	63	118	3	n/a	n/a	n/a	n/a	412.842	BM26ANS.jpg
387.402	0.514	Blank	Blank	94.283	n/a	4	10	3	n/a	63	n/a	3	n/a	n/a	n/a	n/a	413.339	n/a
387.933	0.497	angry	Picture	93.769	n/a	4	10	4	n/a	64	89	3	n/a	n/a	n/a	n/a	413.87	AF17ANS.jpg
388.43	0.514	Blank	Blank	93.255	n/a	4	10	4	n/a	64	n/a	3	n/a	n/a	n/a	n/a	414.367	n/a
388.961	0.497	angry	Picture	92.741	n/a	4	10	5	n/a	65	116	3	n/a	n/a	n/a	n/a	414.898	BM24ANS.jpg
389.458	0.514	Blank	Blank	92.227	n/a	4	10	5	n/a	65	n/a	3	n/a	n/a	n/a	n/a	415.395	n/a
389.988	0.497	angry	Picture	91.714	n/a	4	10	6	n/a	66	105	3	n/a	n/a	n/a	n/a	415.925	BM06ANS.jpg
390.486	0.514	Blank	Blank	91.2	n/a	4	10	6	n/a	66	n/a	3	n/a	n/a	n/a	n/a	416.423	n/a
391.016	0.497	angry	Picture	90.686	n/a	4	10	7	n/a	67	106	3	n/a	n/a	n/a	n/a	416.953	AM07ANS.jpg
391.514	0.514	Blank	Blank	90.172	n/a	4	10	7	n/a	67	n/a	3	n/a	n/a	n/a	n/a	417.451	n/a
392.044	0.497	angry	Picture	89.658	n/a	4	10	8	n/a	68	94	3	n/a	n/a	n/a	n/a	417.981	AF23ANS.jpg
392.541	0.514	Blank	Blank	89.144	n/a	4	10	8	n/a	68	n/a	3	n/a	n/a	n/a	n/a	418.479	n/a
393.072	0.497	angry	Picture	88.63	n/a	4	10	9	n/a	69	117	3	n/a	n/a	n/a	n/a	419.009	BM25ANS.jpg
393.569	0.514	Blank	Blank	88.116	n/a	4	10	9	n/a	69	n/a	3	n/a	n/a	n/a	n/a	419.507	n/a
394.1	0.497	angry	Picture	87.602	n/a	4	10	10	n/a	70	90	3	n/a	n/a	n/a	n/a	420.037	AF18ANS.jpg
394.597	0.514	Blank	Blank	87.088	n/a	4	10	10	n/a	70	n/a	3	n/a	n/a	n/a	n/a	420.534	n/a
395.128	0.497	angry	Picture	86.574	n/a	4	10	11	n/a	71	83	3	n/a	n/a	n/a	n/a	421.065	BF04ANS.jpg
395.625	0.514	Blank	Blank	86.06	n/a	4	10	11	n/a	71	n/a	3	n/a	n/a	n/a	n/a	421.562	n/a
396.156	0.497	angry	Picture	85.546	n/a	4	10	12	n/a	72	112	3	n/a	n/a	n/a	n/a	422.093	AM14ANS.jpg
396.653	0.514	Blank	Blank	85.032	n/a	4	10	12	n/a	72	n/a	3	n/a	n/a	n/a	n/a	422.59	n/a
397.184	0.497	angry	Picture	84.518	n/a	4	10	13	n/a	73	102	3	n/a	n/a	n/a	n/a	423.121	BM03ANS.jpg
397.681	0.514	Blank	Blank	84.004	n/a	4	10	13	n/a	73	n/a	3	n/a	n/a	n/a	n/a	423.618	n/a
398.212	0.497	angry	Picture	83.49	n/a	4	10	14	n/a	74	95	3	n/a	n/a	n/a	n/a	424.149	AF25ANS.jpg
398.709	0.514	Blank	Blank	82.976	n/a	4	10	14	n/a	74	n/a	3	n/a	n/a	n/a	n/a	424.646	n/a
399.239	0.497	angry	Picture	82.463	n/a	4	10	15	n/a	75	113	3	n/a	n/a	n/a	n/a	425.176	AM21ANS.jpg
399.737	0.514	Blank	Blank	81.948	n/a	4	10	15	n/a	75	n/a	3	n/a	n/a	n/a	n/a	425.674	n/a
400.267	0.497	angry	Picture	81.435	n/a	4	10	16	n/a	76	88	3	n/a	n/a	n/a	n/a	426.204	AF14ANS.jpg
400.765	0.514	Blank	Blank	80.921	n/a	4	10	16	n/a	76	n/a	3	n/a	n/a	n/a	n/a	426.702	n/a
401.295	0.497	angry	Picture	80.407	n/a	4	10	17	n/a	77	93	3	n/a	n/a	n/a	n/a	427.232	BF22ANS.jpg
401.793	0.514	Blank	Blank	79.893	n/a	4	10	17	n/a	77	n/a	3	n/a	n/a	n/a	n/a	427.73	n/a
402.323	0.497	angry	Picture	79.379	n/a	4	10	18	n/a	78	86	3	n/a	n/a	n/a	n/a	428.26	AF09ANS.jpg
402.82	0.514	Blank	Blank	78.865	n/a	4	10	18	n/a	78	n/a	3	n/a	n/a	n/a	n/a	428.757	n/a
403.351	0.497	angry	Picture	78.351	n/a	4	10	19	n/a	79	92	3	n/a	n/a	n/a	n/a	429.288	AF21ANS.jpg
403.848	0.514	Blank	Blank	77.837	n/a	4	10	19	n/a	79	n/a	3	n/a	n/a	n/a	n/a	429.785	n/a
404.379	0.497	angry	Picture	77.323	n/a	4	10	20	n/a	80	84	3	n/a	n/a	n/a	n/a	430.316	AF05ANS.jpg
404.876	0.514	Blank	Blank	76.809	n/a	4	10	20	n/a	80	n/a	3	n/a	n/a	n/a	n/a	430.813	n/a
405.407	10.014	ITI	Fixation+	66.779	n/a	4	n/a	n/a	n/a	n/a	n/a	n/a	n/a	n/a	n/a	n/a	431.344	n/a
415.437	0.497	neutral	Picture	66.265	n/a	4	11	1	n/a	81	4	1	n/a	n/a	n/a	n/a	441.374	AF05NES.jpg
415.934	0.514	Blank	Blank	65.751	n/a	4	11	1	n/a	81	n/a	1	n/a	n/a	n/a	n/a	441.871	n/a
416.465	0.497	neutral	Picture	65.237	n/a	4	11	2	n/a	82	14	1	n/a	n/a	n/a	n/a	442.402	AF23NES.jpg
416.962	0.514	Blank	Blank	64.723	n/a	4	11	2	n/a	82	n/a	1	n/a	n/a	n/a	n/a	442.899	n/a
417.493	0.497	neutral	Picture	64.209	n/a	4	11	3	n/a	83	19	1	n/a	n/a	n/a	n/a	443.43	AF31NES.jpg
417.99	0.514	Blank	Blank	63.695	n/a	4	11	3	n/a	83	n/a	1	n/a	n/a	n/a	n/a	443.927	n/a
418.521	0.497	neutral	Picture	63.181	n/a	4	11	4	n/a	84	8	1	n/a	n/a	n/a	n/a	444.458	AF14NES.jpg
419.018	0.514	Blank	Blank	62.667	n/a	4	11	4	n/a	84	n/a	1	n/a	n/a	n/a	n/a	444.955	n/a
419.548	0.497	neutral	Picture	62.153	n/a	4	11	5	n/a	85	25	1	n/a	n/a	n/a	n/a	445.486	BM06NES.jpg
420.046	0.514	Blank	Blank	61.639	n/a	4	11	5	n/a	85	n/a	1	n/a	n/a	n/a	n/a	445.983	n/a
420.576	0.497	neutral	Picture	61.125	n/a	4	11	6	n/a	86	9	1	n/a	n/a	n/a	n/a	446.514	AF17NES.jpg
421.074	0.514	Blank	Blank	60.611	n/a	4	11	6	n/a	86	n/a	1	n/a	n/a	n/a	n/a	447.011	n/a
421.604	0.497	neutral	Picture	60.098	n/a	4	11	7	n/a	87	2	1	n/a	n/a	n/a	n/a	447.541	AF03NES.jpg
422.102	0.514	Blank	Blank	59.584	n/a	4	11	7	n/a	87	n/a	1	n/a	n/a	n/a	n/a	448.039	n/a
422.632	0.497	neutral	Picture	59.07	n/a	4	11	8	n/a	88	17	1	n/a	n/a	n/a	n/a	448.569	BF28NES.jpg
423.13	0.514	Blank	Blank	58.556	n/a	4	11	8	n/a	88	n/a	1	n/a	n/a	n/a	n/a	449.067	n/a
423.66	0.497	neutral	Picture	58.042	n/a	4	11	9	n/a	89	6	1	n/a	n/a	n/a	n/a	449.597	AF09NES.jpg
424.157	0.514	Blank	Blank	57.528	n/a	4	11	9	n/a	89	n/a	1	n/a	n/a	n/a	n/a	450.094	n/a
424.688	0.497	neutral	Picture	57.014	n/a	4	11	10	n/a	90	12	1	n/a	n/a	n/a	n/a	450.625	AF21NES.jpg
425.185	0.514	Blank	Blank	56.5	n/a	4	11	10	n/a	90	n/a	1	n/a	n/a	n/a	n/a	451.122	n/a
425.716	0.497	neutral	Picture	55.986	n/a	4	11	11	n/a	91	24	1	n/a	n/a	n/a	n/a	451.653	BM05NES.jpg
426.213	0.514	Blank	Blank	55.472	n/a	4	11	11	n/a	91	n/a	1	n/a	n/a	n/a	n/a	452.15	n/a
426.744	0.497	neutral	Picture	54.958	n/a	4	11	12	n/a	92	34	1	n/a	n/a	n/a	n/a	452.681	AM22NES.jpg
427.241	0.514	Blank	Blank	54.444	n/a	4	11	12	n/a	92	n/a	1	n/a	n/a	n/a	n/a	453.178	n/a
427.772	0.497	neutral	Picture	53.93	n/a	4	11	13	n/a	93	23	1	n/a	n/a	n/a	n/a	453.709	AM04NES.jpg
428.269	0.514	Blank	Blank	53.416	n/a	4	11	13	n/a	93	n/a	1	n/a	n/a	n/a	n/a	454.206	n/a
428.8	0.497	neutral	Picture	52.902	n/a	4	11	14	n/a	94	15	1	n/a	n/a	n/a	n/a	454.737	AF25NES.jpg
429.297	0.514	Blank	Blank	52.388	n/a	4	11	14	n/a	94	n/a	1	n/a	n/a	n/a	n/a	455.234	n/a
429.827	0.497	neutral	Picture	51.874	n/a	4	11	15	n/a	95	37	1	n/a	n/a	n/a	n/a	455.764	BM25NES.jpg
430.325	0.514	Blank	Blank	51.361	n/a	4	11	15	n/a	95	n/a	1	n/a	n/a	n/a	n/a	456.262	n/a
430.855	0.497	neutral	Picture	50.847	n/a	4	11	16	n/a	96	32	1	n/a	n/a	n/a	n/a	456.792	AM14NES.jpg
431.353	0.514	Blank	Blank	50.333	n/a	4	11	16	n/a	96	n/a	1	n/a	n/a	n/a	n/a	457.29	n/a
431.883	0.497	neutral	Picture	49.819	n/a	4	11	17	n/a	97	3	1	n/a	n/a	n/a	n/a	457.82	BF04NES.jpg
432.381	0.514	Blank	Blank	49.305	n/a	4	11	17	n/a	97	n/a	1	n/a	n/a	n/a	n/a	458.318	n/a
432.911	0.497	neutral	Picture	48.791	n/a	4	11	18	n/a	98	16	1	n/a	n/a	n/a	n/a	458.848	AF26NES.jpg
433.408	0.514	Blank	Blank	48.277	n/a	4	11	18	n/a	98	n/a	1	n/a	n/a	n/a	n/a	459.346	n/a
433.939	0.497	neutral	Picture	47.763	n/a	4	11	19	n/a	99	27	1	n/a	n/a	n/a	n/a	459.876	BM08NES.jpg
434.436	0.514	Blank	Blank	47.249	n/a	4	11	19	n/a	99	n/a	1	n/a	n/a	n/a	n/a	460.373	n/a
434.967	0.497	neutral	Picture	46.735	n/a	4	11	20	n/a	100	28	1	n/a	n/a	n/a	n/a	460.904	AM09NES.jpg
435.464	0.514	Blank	Blank	46.221	n/a	4	11	20	n/a	100	n/a	1	n/a	n/a	n/a	n/a	461.401	n/a
435.995	10.014	ITI	Fixation+	36.191	n/a	4	n/a	n/a	n/a	n/a	n/a	n/a	n/a	n/a	n/a	n/a	461.932	n/a
446.025	0.497	angry	Picture	35.677	n/a	4	12	1	n/a	101	81	3	n/a	n/a	n/a	n/a	471.962	AF01ANS.jpg
446.522	0.514	Blank	Blank	35.163	n/a	4	12	1	n/a	101	n/a	3	n/a	n/a	n/a	n/a	472.459	n/a
447.053	0.497	angry	Picture	34.649	n/a	4	12	2	n/a	102	120	3	n/a	n/a	n/a	n/a	472.99	AM35ANS.jpg
447.55	0.514	Blank	Blank	34.135	n/a	4	12	2	n/a	102	n/a	3	n/a	n/a	n/a	n/a	473.487	n/a
448.081	0.497	angry	Picture	33.621	n/a	4	12	3	n/a	103	114	3	n/a	n/a	n/a	n/a	474.018	AM22ANS.jpg
448.578	0.514	Blank	Blank	33.107	n/a	4	12	3	n/a	103	n/a	3	n/a	n/a	n/a	n/a	474.515	n/a
449.109	0.497	angry	Picture	32.593	n/a	4	12	4	n/a	104	109	3	n/a	n/a	n/a	n/a	475.046	AM10ANS.jpg
449.606	0.514	Blank	Blank	32.079	n/a	4	12	4	n/a	104	n/a	3	n/a	n/a	n/a	n/a	475.543	n/a
450.137	0.497	angry	Picture	31.565	n/a	4	12	5	n/a	105	96	3	n/a	n/a	n/a	n/a	476.074	AF26ANS.jpg
450.634	0.514	Blank	Blank	31.051	n/a	4	12	5	n/a	105	n/a	3	n/a	n/a	n/a	n/a	476.571	n/a
451.164	0.497	angry	Picture	30.537	n/a	4	12	6	n/a	106	82	3	n/a	n/a	n/a	n/a	477.101	AF03ANS.jpg
451.662	0.514	Blank	Blank	30.024	n/a	4	12	6	n/a	106	n/a	3	n/a	n/a	n/a	n/a	477.599	n/a
452.192	0.497	angry	Picture	29.51	n/a	4	12	7	n/a	107	97	3	n/a	n/a	n/a	n/a	478.129	BF28ANS.jpg
452.69	0.514	Blank	Blank	28.996	n/a	4	12	7	n/a	107	n/a	3	n/a	n/a	n/a	n/a	478.627	n/a
453.22	0.497	angry	Picture	28.482	n/a	4	12	8	n/a	108	115	3	n/a	n/a	n/a	n/a	479.157	AM23ANS.jpg
453.718	0.514	Blank	Blank	27.968	n/a	4	12	8	n/a	108	n/a	3	n/a	n/a	n/a	n/a	479.655	n/a
454.248	0.497	angry	Picture	27.454	n/a	4	12	9	n/a	109	91	3	n/a	n/a	n/a	n/a	480.185	AF20ANS.jpg
454.745	0.514	Blank	Blank	26.94	n/a	4	12	9	n/a	109	n/a	3	n/a	n/a	n/a	n/a	480.683	n/a
455.276	0.497	angry	Picture	26.426	n/a	4	12	10	n/a	110	87	3	n/a	n/a	n/a	n/a	481.213	BF11ANS.jpg
455.773	0.514	Blank	Blank	25.912	n/a	4	12	10	n/a	110	n/a	3	n/a	n/a	n/a	n/a	481.71	n/a
456.304	0.497	angry	Picture	25.398	n/a	4	12	11	n/a	111	85	3	n/a	n/a	n/a	n/a	482.241	BF07ANS.jpg
456.801	0.514	Blank	Blank	24.884	n/a	4	12	11	n/a	111	n/a	3	n/a	n/a	n/a	n/a	482.738	n/a
457.332	0.497	angry	Picture	24.37	n/a	4	12	12	n/a	112	110	3	n/a	n/a	n/a	n/a	483.269	AM11ANS.jpg
457.829	0.514	Blank	Blank	23.856	n/a	4	12	12	n/a	112	n/a	3	n/a	n/a	n/a	n/a	483.766	n/a
458.36	0.497	angry	Picture	23.342	n/a	4	12	13	n/a	113	111	3	n/a	n/a	n/a	n/a	484.297	BM12ANS.jpg
458.857	0.514	Blank	Blank	22.828	n/a	4	12	13	n/a	113	n/a	3	n/a	n/a	n/a	n/a	484.794	n/a
459.387	0.497	angry	Picture	22.314	n/a	4	12	14	n/a	114	103	3	n/a	n/a	n/a	n/a	485.325	AM04ANS.jpg
459.885	0.514	Blank	Blank	21.8	n/a	4	12	14	n/a	114	n/a	3	n/a	n/a	n/a	n/a	485.822	n/a
460.415	0.497	angry	Picture	21.286	n/a	4	12	15	n/a	115	101	3	n/a	n/a	n/a	n/a	486.353	AM01ANS.jpg
460.913	0.514	Blank	Blank	20.773	n/a	4	12	15	n/a	115	n/a	3	n/a	n/a	n/a	n/a	486.85	n/a
461.443	0.497	angry	Picture	20.258	n/a	4	12	16	n/a	116	104	3	n/a	n/a	n/a	n/a	487.38	BM05ANS.jpg
461.941	0.514	Blank	Blank	19.745	n/a	4	12	16	n/a	116	n/a	3	n/a	n/a	n/a	n/a	487.878	n/a
462.471	0.497	angry	Picture	19.231	n/a	4	12	17	n/a	117	107	3	n/a	n/a	n/a	n/a	488.408	BM08ANS.jpg
462.969	0.514	Blank	Blank	18.717	n/a	4	12	17	n/a	117	n/a	3	n/a	n/a	n/a	n/a	488.906	n/a
463.499	0.497	angry	Picture	18.203	n/a	4	12	18	n/a	118	98	3	n/a	n/a	n/a	n/a	489.436	BF29ANS.jpg
463.996	0.514	Blank	Blank	17.689	n/a	4	12	18	n/a	118	n/a	3	n/a	n/a	n/a	n/a	489.933	n/a
464.527	0.497	angry	Picture	17.175	n/a	4	12	19	n/a	119	99	3	n/a	n/a	n/a	n/a	490.464	AF31ANS.jpg
465.024	0.514	Blank	Blank	16.661	n/a	4	12	19	n/a	119	n/a	3	n/a	n/a	n/a	n/a	490.961	n/a
465.555	0.497	angry	Picture	16.147	n/a	4	12	20	n/a	120	108	3	n/a	n/a	n/a	n/a	491.492	AM09ANS.jpg
466.052	0.514	Blank	Blank	15.633	n/a	4	12	20	n/a	120	n/a	3	n/a	n/a	n/a	n/a	491.989	n/a
466.583	10.014	ITI	Fixation+	5.603	n/a	4	n/a	n/a	n/a	n/a	n/a	n/a	n/a	n/a	n/a	n/a	492.52	n/a
482.199	n/a	ConfirmRating	Rate	n/a	5.587	4	n/a	n/a	0	n/a	n/a	n/a	2	Angry	33	33	508.136	n/a
488.353	n/a	ConfirmRating	Rate	n/a	6.151	4	n/a	n/a	1	n/a	n/a	n/a	3	Angry	62	62	514.29	n/a
