onset	duration	trial_type	event_type	time_until_response	response_time	trial_number	block_num_within_trial	image_seq_num_within_block	question_seq_num_within_block	image_seq_num	picture_number	condition	question_type	block_type	rating	rating_computed	onset_uncorrected	KDEV_imagefile
0.01	10.014	ITI	Fixation+	97.437	n/a	1	n/a	n/a	n/a	n/a	n/a	n/a	n/a	n/a	n/a	n/a	32.34	n/a
10.04	0.497	angry	Picture	96.923	n/a	1	1	1	n/a	1	46	2	n/a	n/a	n/a	n/a	42.37	AF09HAS.jpg
10.538	0.514	Blank	Blank	96.409	n/a	1	1	1	n/a	1	n/a	2	n/a	n/a	n/a	n/a	42.867	n/a
11.068	0.497	angry	Picture	95.895	n/a	1	1	2	n/a	2	69	2	n/a	n/a	n/a	n/a	43.398	AM10HAS.jpg
11.566	0.514	Blank	Blank	95.381	n/a	1	1	2	n/a	2	n/a	2	n/a	n/a	n/a	n/a	43.895	n/a
12.096	0.497	angry	Picture	94.867	n/a	1	1	3	n/a	3	71	2	n/a	n/a	n/a	n/a	44.426	BM12HAS.jpg
12.594	0.514	Blank	Blank	94.353	n/a	1	1	3	n/a	3	n/a	2	n/a	n/a	n/a	n/a	44.923	n/a
13.124	0.497	angry	Picture	93.839	n/a	1	1	4	n/a	4	51	2	n/a	n/a	n/a	n/a	45.454	AF20HAS.jpg
13.621	0.514	Blank	Blank	93.325	n/a	1	1	4	n/a	4	n/a	2	n/a	n/a	n/a	n/a	45.951	n/a
14.152	0.497	angry	Picture	92.811	n/a	1	1	5	n/a	5	67	2	n/a	n/a	n/a	n/a	46.482	BM08HAS.jpg
14.649	0.514	Blank	Blank	92.297	n/a	1	1	5	n/a	5	n/a	2	n/a	n/a	n/a	n/a	46.979	n/a
15.18	0.497	angry	Picture	91.783	n/a	1	1	6	n/a	6	60	2	n/a	n/a	n/a	n/a	47.51	AF32HAS.jpg
15.677	0.514	Blank	Blank	91.269	n/a	1	1	6	n/a	6	n/a	2	n/a	n/a	n/a	n/a	48.007	n/a
16.208	0.497	angry	Picture	90.755	n/a	1	1	7	n/a	7	42	2	n/a	n/a	n/a	n/a	48.538	AF03HAS.jpg
16.705	0.514	Blank	Blank	90.242	n/a	1	1	7	n/a	7	n/a	2	n/a	n/a	n/a	n/a	49.035	n/a
17.236	0.497	angry	Picture	89.728	n/a	1	1	8	n/a	8	55	2	n/a	n/a	n/a	n/a	49.565	AF25HAS.jpg
17.733	0.514	Blank	Blank	89.214	n/a	1	1	8	n/a	8	n/a	2	n/a	n/a	n/a	n/a	50.063	n/a
18.264	0.497	angry	Picture	88.7	n/a	1	1	9	n/a	9	72	2	n/a	n/a	n/a	n/a	50.593	AM14HAS.jpg
18.761	0.514	Blank	Blank	88.186	n/a	1	1	9	n/a	9	n/a	2	n/a	n/a	n/a	n/a	51.091	n/a
19.291	0.497	angry	Picture	87.672	n/a	1	1	10	n/a	10	63	2	n/a	n/a	n/a	n/a	51.621	AM04HAS.jpg
19.789	0.514	Blank	Blank	87.158	n/a	1	1	10	n/a	10	n/a	2	n/a	n/a	n/a	n/a	52.118	n/a
20.319	0.497	angry	Picture	86.644	n/a	1	1	11	n/a	11	58	2	n/a	n/a	n/a	n/a	52.649	BF29HAS.jpg
20.817	0.514	Blank	Blank	86.13	n/a	1	1	11	n/a	11	n/a	2	n/a	n/a	n/a	n/a	53.146	n/a
21.347	0.497	angry	Picture	85.616	n/a	1	1	12	n/a	12	48	2	n/a	n/a	n/a	n/a	53.677	AF14HAS.jpg
21.845	0.514	Blank	Blank	85.102	n/a	1	1	12	n/a	12	n/a	2	n/a	n/a	n/a	n/a	54.174	n/a
22.375	0.497	angry	Picture	84.588	n/a	1	1	13	n/a	13	66	2	n/a	n/a	n/a	n/a	54.705	BM07HAS.jpg
22.872	0.514	Blank	Blank	84.074	n/a	1	1	13	n/a	13	n/a	2	n/a	n/a	n/a	n/a	55.202	n/a
23.403	0.497	angry	Picture	83.56	n/a	1	1	14	n/a	14	70	2	n/a	n/a	n/a	n/a	55.733	BM11HAS.jpg
23.9	0.514	Blank	Blank	83.046	n/a	1	1	14	n/a	14	n/a	2	n/a	n/a	n/a	n/a	56.23	n/a
24.431	0.497	angry	Picture	82.532	n/a	1	1	15	n/a	15	43	2	n/a	n/a	n/a	n/a	56.761	BF04HAS.jpg
24.928	0.514	Blank	Blank	82.018	n/a	1	1	15	n/a	15	n/a	2	n/a	n/a	n/a	n/a	57.258	n/a
25.459	0.497	angry	Picture	81.505	n/a	1	1	16	n/a	16	49	2	n/a	n/a	n/a	n/a	57.788	AF17HAS.jpg
25.956	0.514	Blank	Blank	80.99	n/a	1	1	16	n/a	16	n/a	2	n/a	n/a	n/a	n/a	58.286	n/a
26.487	0.497	angry	Picture	80.477	n/a	1	1	17	n/a	17	75	2	n/a	n/a	n/a	n/a	58.816	AM23HAS.jpg
26.984	0.514	Blank	Blank	79.963	n/a	1	1	17	n/a	17	n/a	2	n/a	n/a	n/a	n/a	59.314	n/a
27.514	0.497	angry	Picture	79.449	n/a	1	1	18	n/a	18	80	2	n/a	n/a	n/a	n/a	59.844	BM35HAS.jpg
28.012	0.514	Blank	Blank	78.935	n/a	1	1	18	n/a	18	n/a	2	n/a	n/a	n/a	n/a	60.342	n/a
28.542	0.497	angry	Picture	78.421	n/a	1	1	19	n/a	19	76	2	n/a	n/a	n/a	n/a	60.872	BM24HAS.jpg
29.04	0.514	Blank	Blank	77.907	n/a	1	1	19	n/a	19	n/a	2	n/a	n/a	n/a	n/a	61.37	n/a
29.57	0.497	angry	Picture	77.393	n/a	1	1	20	n/a	20	74	2	n/a	n/a	n/a	n/a	61.9	AM22HAS.jpg
30.068	0.514	Blank	Blank	76.879	n/a	1	1	20	n/a	20	n/a	2	n/a	n/a	n/a	n/a	62.397	n/a
30.598	10.014	ITI	Fixation+	66.849	n/a	1	n/a	n/a	n/a	n/a	n/a	n/a	n/a	n/a	n/a	n/a	62.928	n/a
40.628	0.497	neutral	Picture	66.335	n/a	1	2	1	n/a	21	33	1	n/a	n/a	n/a	n/a	72.958	AM21NES.jpg
41.126	0.514	Blank	Blank	65.821	n/a	1	2	1	n/a	21	n/a	1	n/a	n/a	n/a	n/a	73.455	n/a
41.656	0.497	neutral	Picture	65.307	n/a	1	2	2	n/a	22	39	1	n/a	n/a	n/a	n/a	73.986	AM28NES.jpg
42.154	0.514	Blank	Blank	64.793	n/a	1	2	2	n/a	22	n/a	1	n/a	n/a	n/a	n/a	74.483	n/a
42.684	0.497	neutral	Picture	64.279	n/a	1	2	3	n/a	23	25	1	n/a	n/a	n/a	n/a	75.014	BM06NES.jpg
43.181	0.514	Blank	Blank	63.765	n/a	1	2	3	n/a	23	n/a	1	n/a	n/a	n/a	n/a	75.511	n/a
43.712	0.497	neutral	Picture	63.251	n/a	1	2	4	n/a	24	5	1	n/a	n/a	n/a	n/a	76.042	BF07NES.jpg
44.209	0.514	Blank	Blank	62.737	n/a	1	2	4	n/a	24	n/a	1	n/a	n/a	n/a	n/a	76.539	n/a
44.74	0.497	neutral	Picture	62.223	n/a	1	2	5	n/a	25	10	1	n/a	n/a	n/a	n/a	77.07	AF18NES.jpg
45.237	0.514	Blank	Blank	61.709	n/a	1	2	5	n/a	25	n/a	1	n/a	n/a	n/a	n/a	77.567	n/a
45.768	0.497	neutral	Picture	61.195	n/a	1	2	6	n/a	26	34	1	n/a	n/a	n/a	n/a	78.097	AM22NES.jpg
46.265	0.514	Blank	Blank	60.682	n/a	1	2	6	n/a	26	n/a	1	n/a	n/a	n/a	n/a	78.595	n/a
46.796	0.497	neutral	Picture	60.168	n/a	1	2	7	n/a	27	36	1	n/a	n/a	n/a	n/a	79.125	BM24NES.jpg
47.293	0.514	Blank	Blank	59.654	n/a	1	2	7	n/a	27	n/a	1	n/a	n/a	n/a	n/a	79.623	n/a
47.824	0.497	neutral	Picture	59.14	n/a	1	2	8	n/a	28	14	1	n/a	n/a	n/a	n/a	80.153	AF23NES.jpg
48.321	0.514	Blank	Blank	58.626	n/a	1	2	8	n/a	28	n/a	1	n/a	n/a	n/a	n/a	80.651	n/a
48.852	0.497	neutral	Picture	58.112	n/a	1	2	9	n/a	29	9	1	n/a	n/a	n/a	n/a	81.181	AF17NES.jpg
49.349	0.514	Blank	Blank	57.598	n/a	1	2	9	n/a	29	n/a	1	n/a	n/a	n/a	n/a	81.678	n/a
49.879	0.497	neutral	Picture	57.084	n/a	1	2	10	n/a	30	19	1	n/a	n/a	n/a	n/a	82.209	AF31NES.jpg
50.377	0.514	Blank	Blank	56.57	n/a	1	2	10	n/a	30	n/a	1	n/a	n/a	n/a	n/a	82.706	n/a
50.907	0.497	neutral	Picture	56.056	n/a	1	2	11	n/a	31	15	1	n/a	n/a	n/a	n/a	83.237	AF25NES.jpg
51.405	0.514	Blank	Blank	55.542	n/a	1	2	11	n/a	31	n/a	1	n/a	n/a	n/a	n/a	83.734	n/a
51.935	0.497	neutral	Picture	55.028	n/a	1	2	12	n/a	32	22	1	n/a	n/a	n/a	n/a	84.265	BM03NES.jpg
52.433	0.514	Blank	Blank	54.514	n/a	1	2	12	n/a	32	n/a	1	n/a	n/a	n/a	n/a	84.762	n/a
52.963	0.497	neutral	Picture	54.0	n/a	1	2	13	n/a	33	11	1	n/a	n/a	n/a	n/a	85.293	AF20NES.jpg
53.46	0.514	Blank	Blank	53.486	n/a	1	2	13	n/a	33	n/a	1	n/a	n/a	n/a	n/a	85.79	n/a
53.991	0.497	neutral	Picture	52.972	n/a	1	2	14	n/a	34	4	1	n/a	n/a	n/a	n/a	86.321	AF05NES.jpg
54.488	0.514	Blank	Blank	52.458	n/a	1	2	14	n/a	34	n/a	1	n/a	n/a	n/a	n/a	86.818	n/a
55.019	0.497	neutral	Picture	51.944	n/a	1	2	15	n/a	35	17	1	n/a	n/a	n/a	n/a	87.349	BF28NES.jpg
55.516	0.514	Blank	Blank	51.431	n/a	1	2	15	n/a	35	n/a	1	n/a	n/a	n/a	n/a	87.846	n/a
56.047	0.497	neutral	Picture	50.916	n/a	1	2	16	n/a	36	13	1	n/a	n/a	n/a	n/a	88.376	BF22NES.jpg
56.544	0.514	Blank	Blank	50.403	n/a	1	2	16	n/a	36	n/a	1	n/a	n/a	n/a	n/a	88.874	n/a
57.075	0.497	neutral	Picture	49.889	n/a	1	2	17	n/a	37	12	1	n/a	n/a	n/a	n/a	89.404	AF21NES.jpg
57.572	0.514	Blank	Blank	49.375	n/a	1	2	17	n/a	37	n/a	1	n/a	n/a	n/a	n/a	89.902	n/a
58.102	0.497	neutral	Picture	48.861	n/a	1	2	18	n/a	38	24	1	n/a	n/a	n/a	n/a	90.432	BM05NES.jpg
58.6	0.514	Blank	Blank	48.347	n/a	1	2	18	n/a	38	n/a	1	n/a	n/a	n/a	n/a	90.93	n/a
59.13	0.497	neutral	Picture	47.833	n/a	1	2	19	n/a	39	29	1	n/a	n/a	n/a	n/a	91.46	AM10NES.jpg
59.628	0.514	Blank	Blank	47.319	n/a	1	2	19	n/a	39	n/a	1	n/a	n/a	n/a	n/a	91.957	n/a
60.158	0.497	neutral	Picture	46.805	n/a	1	2	20	n/a	40	23	1	n/a	n/a	n/a	n/a	92.488	AM04NES.jpg
60.656	0.514	Blank	Blank	46.291	n/a	1	2	20	n/a	40	n/a	1	n/a	n/a	n/a	n/a	92.985	n/a
61.186	10.014	ITI	Fixation+	36.261	n/a	1	n/a	n/a	n/a	n/a	n/a	n/a	n/a	n/a	n/a	n/a	93.516	n/a
71.216	0.497	angry	Picture	35.747	n/a	1	3	1	n/a	41	62	2	n/a	n/a	n/a	n/a	103.546	BM03HAS.jpg
71.714	0.514	Blank	Blank	35.233	n/a	1	3	1	n/a	41	n/a	2	n/a	n/a	n/a	n/a	104.043	n/a
72.244	0.497	angry	Picture	34.719	n/a	1	3	2	n/a	42	52	2	n/a	n/a	n/a	n/a	104.574	AF21HAS.jpg
72.742	0.514	Blank	Blank	34.205	n/a	1	3	2	n/a	42	n/a	2	n/a	n/a	n/a	n/a	105.071	n/a
73.272	0.497	angry	Picture	33.691	n/a	1	3	3	n/a	43	44	2	n/a	n/a	n/a	n/a	105.602	AF05HAS.jpg
73.769	0.514	Blank	Blank	33.177	n/a	1	3	3	n/a	43	n/a	2	n/a	n/a	n/a	n/a	106.099	n/a
74.3	0.497	angry	Picture	32.663	n/a	1	3	4	n/a	44	53	2	n/a	n/a	n/a	n/a	106.63	BF22HAS.jpg
74.797	0.514	Blank	Blank	32.149	n/a	1	3	4	n/a	44	n/a	2	n/a	n/a	n/a	n/a	107.127	n/a
75.328	0.497	angry	Picture	31.635	n/a	1	3	5	n/a	45	54	2	n/a	n/a	n/a	n/a	107.658	AF23HAS.jpg
75.825	0.514	Blank	Blank	31.121	n/a	1	3	5	n/a	45	n/a	2	n/a	n/a	n/a	n/a	108.155	n/a
76.356	0.497	angry	Picture	30.608	n/a	1	3	6	n/a	46	68	2	n/a	n/a	n/a	n/a	108.686	AM09HAS.jpg
76.853	0.514	Blank	Blank	30.094	n/a	1	3	6	n/a	46	n/a	2	n/a	n/a	n/a	n/a	109.183	n/a
77.384	0.497	angry	Picture	29.58	n/a	1	3	7	n/a	47	64	2	n/a	n/a	n/a	n/a	109.713	BM05HAS.jpg
77.881	0.514	Blank	Blank	29.066	n/a	1	3	7	n/a	47	n/a	2	n/a	n/a	n/a	n/a	110.211	n/a
78.412	0.497	angry	Picture	28.552	n/a	1	3	8	n/a	48	59	2	n/a	n/a	n/a	n/a	110.741	AF31HAS.jpg
78.909	0.514	Blank	Blank	28.038	n/a	1	3	8	n/a	48	n/a	2	n/a	n/a	n/a	n/a	111.239	n/a
79.439	0.497	angry	Picture	27.524	n/a	1	3	9	n/a	49	41	2	n/a	n/a	n/a	n/a	111.769	AF01HAS.jpg
79.937	0.514	Blank	Blank	27.01	n/a	1	3	9	n/a	49	n/a	2	n/a	n/a	n/a	n/a	112.266	n/a
80.467	0.497	angry	Picture	26.496	n/a	1	3	10	n/a	50	73	2	n/a	n/a	n/a	n/a	112.797	AM21HAS.jpg
80.965	0.514	Blank	Blank	25.982	n/a	1	3	10	n/a	50	n/a	2	n/a	n/a	n/a	n/a	113.294	n/a
81.495	0.497	angry	Picture	25.468	n/a	1	3	11	n/a	51	65	2	n/a	n/a	n/a	n/a	113.825	BM06HAS.jpg
81.993	0.514	Blank	Blank	24.954	n/a	1	3	11	n/a	51	n/a	2	n/a	n/a	n/a	n/a	114.322	n/a
82.523	0.497	angry	Picture	24.44	n/a	1	3	12	n/a	52	56	2	n/a	n/a	n/a	n/a	114.853	AF26HAS.jpg
83.02	0.514	Blank	Blank	23.926	n/a	1	3	12	n/a	52	n/a	2	n/a	n/a	n/a	n/a	115.35	n/a
83.551	0.497	angry	Picture	23.412	n/a	1	3	13	n/a	53	45	2	n/a	n/a	n/a	n/a	115.881	BF07HAS.jpg
84.048	0.514	Blank	Blank	22.898	n/a	1	3	13	n/a	53	n/a	2	n/a	n/a	n/a	n/a	116.378	n/a
84.579	0.497	angry	Picture	22.384	n/a	1	3	14	n/a	54	78	2	n/a	n/a	n/a	n/a	116.909	BM26HAS.jpg
85.076	0.514	Blank	Blank	21.87	n/a	1	3	14	n/a	54	n/a	2	n/a	n/a	n/a	n/a	117.406	n/a
85.607	0.497	angry	Picture	21.356	n/a	1	3	15	n/a	55	50	2	n/a	n/a	n/a	n/a	117.936	AF18HAS.jpg
86.104	0.514	Blank	Blank	20.843	n/a	1	3	15	n/a	55	n/a	2	n/a	n/a	n/a	n/a	118.434	n/a
86.635	0.497	angry	Picture	20.329	n/a	1	3	16	n/a	56	47	2	n/a	n/a	n/a	n/a	118.964	BF11HAS.jpg
87.132	0.514	Blank	Blank	19.815	n/a	1	3	16	n/a	56	n/a	2	n/a	n/a	n/a	n/a	119.462	n/a
87.662	0.497	angry	Picture	19.301	n/a	1	3	17	n/a	57	77	2	n/a	n/a	n/a	n/a	119.992	BM25HAS.jpg
88.16	0.514	Blank	Blank	18.787	n/a	1	3	17	n/a	57	n/a	2	n/a	n/a	n/a	n/a	120.49	n/a
88.69	0.497	angry	Picture	18.273	n/a	1	3	18	n/a	58	57	2	n/a	n/a	n/a	n/a	121.02	BF28HAS.jpg
89.188	0.514	Blank	Blank	17.759	n/a	1	3	18	n/a	58	n/a	2	n/a	n/a	n/a	n/a	121.517	n/a
89.718	0.497	angry	Picture	17.245	n/a	1	3	19	n/a	59	61	2	n/a	n/a	n/a	n/a	122.048	AM01HAS.jpg
90.216	0.514	Blank	Blank	16.731	n/a	1	3	19	n/a	59	n/a	2	n/a	n/a	n/a	n/a	122.545	n/a
90.746	0.497	angry	Picture	16.217	n/a	1	3	20	n/a	60	79	2	n/a	n/a	n/a	n/a	123.076	BM28HAS.jpg
91.243	0.514	Blank	Blank	15.703	n/a	1	3	20	n/a	60	n/a	2	n/a	n/a	n/a	n/a	123.573	n/a
91.774	10.014	ITI	Fixation+	5.673	n/a	1	n/a	n/a	n/a	n/a	n/a	n/a	n/a	n/a	n/a	n/a	124.104	n/a
107.461	n/a	ConfirmRating	Rate	n/a	5.653	1	n/a	n/a	0	n/a	n/a	n/a	2	Angry	67	51	139.79	n/a
110.25	n/a	ConfirmRating	Rate	n/a	2.769	1	n/a	n/a	1	n/a	n/a	n/a	3	Angry	0	48	142.579	n/a
110.276	10.014	ITI	Fixation+	97.082	n/a	2	n/a	n/a	n/a	n/a	n/a	n/a	n/a	n/a	n/a	n/a	142.606	n/a
120.306	0.497	happy	Picture	96.568	n/a	2	4	1	n/a	61	119	3	n/a	n/a	n/a	n/a	152.636	BM28ANS.jpg
120.804	0.514	Blank	Blank	96.054	n/a	2	4	1	n/a	61	n/a	3	n/a	n/a	n/a	n/a	153.133	n/a
121.334	0.497	happy	Picture	95.54	n/a	2	4	2	n/a	62	100	3	n/a	n/a	n/a	n/a	153.664	AF32ANS.jpg
121.832	0.514	Blank	Blank	95.026	n/a	2	4	2	n/a	62	n/a	3	n/a	n/a	n/a	n/a	154.161	n/a
122.362	0.497	happy	Picture	94.512	n/a	2	4	3	n/a	63	118	3	n/a	n/a	n/a	n/a	154.692	BM26ANS.jpg
122.859	0.514	Blank	Blank	93.998	n/a	2	4	3	n/a	63	n/a	3	n/a	n/a	n/a	n/a	155.189	n/a
123.39	0.497	happy	Picture	93.484	n/a	2	4	4	n/a	64	89	3	n/a	n/a	n/a	n/a	155.72	AF17ANS.jpg
123.887	0.514	Blank	Blank	92.97	n/a	2	4	4	n/a	64	n/a	3	n/a	n/a	n/a	n/a	156.217	n/a
124.418	0.497	happy	Picture	92.456	n/a	2	4	5	n/a	65	116	3	n/a	n/a	n/a	n/a	156.748	BM24ANS.jpg
124.915	0.514	Blank	Blank	91.942	n/a	2	4	5	n/a	65	n/a	3	n/a	n/a	n/a	n/a	157.245	n/a
125.446	0.497	happy	Picture	91.428	n/a	2	4	6	n/a	66	105	3	n/a	n/a	n/a	n/a	157.775	BM06ANS.jpg
125.943	0.514	Blank	Blank	90.914	n/a	2	4	6	n/a	66	n/a	3	n/a	n/a	n/a	n/a	158.273	n/a
126.474	0.497	happy	Picture	90.4	n/a	2	4	7	n/a	67	106	3	n/a	n/a	n/a	n/a	158.803	AM07ANS.jpg
126.971	0.514	Blank	Blank	89.886	n/a	2	4	7	n/a	67	n/a	3	n/a	n/a	n/a	n/a	159.301	n/a
127.501	0.497	happy	Picture	89.373	n/a	2	4	8	n/a	68	94	3	n/a	n/a	n/a	n/a	159.831	AF23ANS.jpg
127.999	0.514	Blank	Blank	88.859	n/a	2	4	8	n/a	68	n/a	3	n/a	n/a	n/a	n/a	160.328	n/a
128.529	0.497	happy	Picture	88.345	n/a	2	4	9	n/a	69	117	3	n/a	n/a	n/a	n/a	160.859	BM25ANS.jpg
129.027	0.514	Blank	Blank	87.831	n/a	2	4	9	n/a	69	n/a	3	n/a	n/a	n/a	n/a	161.356	n/a
129.557	0.497	happy	Picture	87.317	n/a	2	4	10	n/a	70	90	3	n/a	n/a	n/a	n/a	161.887	AF18ANS.jpg
130.055	0.514	Blank	Blank	86.803	n/a	2	4	10	n/a	70	n/a	3	n/a	n/a	n/a	n/a	162.384	n/a
130.585	0.497	happy	Picture	86.289	n/a	2	4	11	n/a	71	83	3	n/a	n/a	n/a	n/a	162.915	BF04ANS.jpg
131.083	0.514	Blank	Blank	85.775	n/a	2	4	11	n/a	71	n/a	3	n/a	n/a	n/a	n/a	163.412	n/a
131.613	0.497	happy	Picture	85.261	n/a	2	4	12	n/a	72	112	3	n/a	n/a	n/a	n/a	163.943	AM14ANS.jpg
132.11	0.514	Blank	Blank	84.747	n/a	2	4	12	n/a	72	n/a	3	n/a	n/a	n/a	n/a	164.44	n/a
132.641	0.497	happy	Picture	84.233	n/a	2	4	13	n/a	73	102	3	n/a	n/a	n/a	n/a	164.971	BM03ANS.jpg
133.138	0.514	Blank	Blank	83.719	n/a	2	4	13	n/a	73	n/a	3	n/a	n/a	n/a	n/a	165.468	n/a
133.669	0.497	happy	Picture	83.205	n/a	2	4	14	n/a	74	95	3	n/a	n/a	n/a	n/a	165.999	AF25ANS.jpg
134.166	0.514	Blank	Blank	82.691	n/a	2	4	14	n/a	74	n/a	3	n/a	n/a	n/a	n/a	166.496	n/a
134.697	0.497	happy	Picture	82.177	n/a	2	4	15	n/a	75	113	3	n/a	n/a	n/a	n/a	167.026	AM21ANS.jpg
135.194	0.514	Blank	Blank	81.663	n/a	2	4	15	n/a	75	n/a	3	n/a	n/a	n/a	n/a	167.524	n/a
135.725	0.497	happy	Picture	81.149	n/a	2	4	16	n/a	76	88	3	n/a	n/a	n/a	n/a	168.054	AF14ANS.jpg
136.222	0.513	Blank	Blank	80.636	n/a	2	4	16	n/a	76	n/a	3	n/a	n/a	n/a	n/a	168.552	n/a
136.752	0.497	happy	Picture	80.122	n/a	2	4	17	n/a	77	93	3	n/a	n/a	n/a	n/a	169.082	BF22ANS.jpg
137.25	0.514	Blank	Blank	79.608	n/a	2	4	17	n/a	77	n/a	3	n/a	n/a	n/a	n/a	169.579	n/a
137.78	0.497	happy	Picture	79.094	n/a	2	4	18	n/a	78	86	3	n/a	n/a	n/a	n/a	170.11	AF09ANS.jpg
138.278	0.514	Blank	Blank	78.58	n/a	2	4	18	n/a	78	n/a	3	n/a	n/a	n/a	n/a	170.607	n/a
138.808	0.497	happy	Picture	78.066	n/a	2	4	19	n/a	79	92	3	n/a	n/a	n/a	n/a	171.138	AF21ANS.jpg
139.306	0.514	Blank	Blank	77.552	n/a	2	4	19	n/a	79	n/a	3	n/a	n/a	n/a	n/a	171.635	n/a
139.836	0.497	happy	Picture	77.038	n/a	2	4	20	n/a	80	84	3	n/a	n/a	n/a	n/a	172.166	AF05ANS.jpg
140.333	0.514	Blank	Blank	76.524	n/a	2	4	20	n/a	80	n/a	3	n/a	n/a	n/a	n/a	172.663	n/a
140.864	10.014	ITI	Fixation+	66.494	n/a	2	n/a	n/a	n/a	n/a	n/a	n/a	n/a	n/a	n/a	n/a	173.194	n/a
150.894	0.497	neutral	Picture	65.98	n/a	2	5	1	n/a	81	4	1	n/a	n/a	n/a	n/a	183.224	AF05NES.jpg
151.392	0.514	Blank	Blank	65.466	n/a	2	5	1	n/a	81	n/a	1	n/a	n/a	n/a	n/a	183.721	n/a
151.922	0.497	neutral	Picture	64.952	n/a	2	5	2	n/a	82	14	1	n/a	n/a	n/a	n/a	184.252	AF23NES.jpg
152.419	0.514	Blank	Blank	64.438	n/a	2	5	2	n/a	82	n/a	1	n/a	n/a	n/a	n/a	184.749	n/a
152.95	0.497	neutral	Picture	63.924	n/a	2	5	3	n/a	83	19	1	n/a	n/a	n/a	n/a	185.28	AF31NES.jpg
153.447	0.514	Blank	Blank	63.41	n/a	2	5	3	n/a	83	n/a	1	n/a	n/a	n/a	n/a	185.777	n/a
153.978	0.497	neutral	Picture	62.896	n/a	2	5	4	n/a	84	8	1	n/a	n/a	n/a	n/a	186.308	AF14NES.jpg
154.475	0.514	Blank	Blank	62.382	n/a	2	5	4	n/a	84	n/a	1	n/a	n/a	n/a	n/a	186.805	n/a
155.006	0.497	neutral	Picture	61.868	n/a	2	5	5	n/a	85	25	1	n/a	n/a	n/a	n/a	187.335	BM06NES.jpg
155.503	0.514	Blank	Blank	61.354	n/a	2	5	5	n/a	85	n/a	1	n/a	n/a	n/a	n/a	187.833	n/a
156.034	0.497	neutral	Picture	60.84	n/a	2	5	6	n/a	86	9	1	n/a	n/a	n/a	n/a	188.363	AF17NES.jpg
156.531	0.514	Blank	Blank	60.326	n/a	2	5	6	n/a	86	n/a	1	n/a	n/a	n/a	n/a	188.861	n/a
157.061	0.497	neutral	Picture	59.813	n/a	2	5	7	n/a	87	2	1	n/a	n/a	n/a	n/a	189.391	AF03NES.jpg
157.559	0.514	Blank	Blank	59.299	n/a	2	5	7	n/a	87	n/a	1	n/a	n/a	n/a	n/a	189.889	n/a
158.089	0.497	neutral	Picture	58.785	n/a	2	5	8	n/a	88	17	1	n/a	n/a	n/a	n/a	190.419	BF28NES.jpg
158.587	0.514	Blank	Blank	58.271	n/a	2	5	8	n/a	88	n/a	1	n/a	n/a	n/a	n/a	190.916	n/a
159.117	0.497	neutral	Picture	57.757	n/a	2	5	9	n/a	89	6	1	n/a	n/a	n/a	n/a	191.447	AF09NES.jpg
159.615	0.514	Blank	Blank	57.243	n/a	2	5	9	n/a	89	n/a	1	n/a	n/a	n/a	n/a	191.944	n/a
160.145	0.497	neutral	Picture	56.729	n/a	2	5	10	n/a	90	12	1	n/a	n/a	n/a	n/a	192.475	AF21NES.jpg
160.642	0.514	Blank	Blank	56.215	n/a	2	5	10	n/a	90	n/a	1	n/a	n/a	n/a	n/a	192.972	n/a
161.173	0.497	neutral	Picture	55.701	n/a	2	5	11	n/a	91	24	1	n/a	n/a	n/a	n/a	193.503	BM05NES.jpg
161.67	0.514	Blank	Blank	55.187	n/a	2	5	11	n/a	91	n/a	1	n/a	n/a	n/a	n/a	194.0	n/a
162.201	0.497	neutral	Picture	54.673	n/a	2	5	12	n/a	92	34	1	n/a	n/a	n/a	n/a	194.531	AM22NES.jpg
162.698	0.514	Blank	Blank	54.159	n/a	2	5	12	n/a	92	n/a	1	n/a	n/a	n/a	n/a	195.028	n/a
163.229	0.497	neutral	Picture	53.645	n/a	2	5	13	n/a	93	23	1	n/a	n/a	n/a	n/a	195.559	AM04NES.jpg
163.726	0.514	Blank	Blank	53.131	n/a	2	5	13	n/a	93	n/a	1	n/a	n/a	n/a	n/a	196.056	n/a
164.257	0.497	neutral	Picture	52.617	n/a	2	5	14	n/a	94	15	1	n/a	n/a	n/a	n/a	196.586	AF25NES.jpg
164.754	0.514	Blank	Blank	52.103	n/a	2	5	14	n/a	94	n/a	1	n/a	n/a	n/a	n/a	197.084	n/a
165.285	0.497	neutral	Picture	51.589	n/a	2	5	15	n/a	95	37	1	n/a	n/a	n/a	n/a	197.614	BM25NES.jpg
165.782	0.514	Blank	Blank	51.075	n/a	2	5	15	n/a	95	n/a	1	n/a	n/a	n/a	n/a	198.112	n/a
166.313	0.497	neutral	Picture	50.562	n/a	2	5	16	n/a	96	32	1	n/a	n/a	n/a	n/a	198.642	AM14NES.jpg
166.81	0.514	Blank	Blank	50.048	n/a	2	5	16	n/a	96	n/a	1	n/a	n/a	n/a	n/a	199.139	n/a
167.34	0.497	neutral	Picture	49.534	n/a	2	5	17	n/a	97	3	1	n/a	n/a	n/a	n/a	199.67	BF04NES.jpg
167.838	0.514	Blank	Blank	49.02	n/a	2	5	17	n/a	97	n/a	1	n/a	n/a	n/a	n/a	200.167	n/a
168.368	0.497	neutral	Picture	48.506	n/a	2	5	18	n/a	98	16	1	n/a	n/a	n/a	n/a	200.698	AF26NES.jpg
168.866	0.514	Blank	Blank	47.992	n/a	2	5	18	n/a	98	n/a	1	n/a	n/a	n/a	n/a	201.195	n/a
169.396	0.497	neutral	Picture	47.478	n/a	2	5	19	n/a	99	27	1	n/a	n/a	n/a	n/a	201.726	BM08NES.jpg
169.893	0.514	Blank	Blank	46.964	n/a	2	5	19	n/a	99	n/a	1	n/a	n/a	n/a	n/a	202.223	n/a
170.424	0.497	neutral	Picture	46.45	n/a	2	5	20	n/a	100	28	1	n/a	n/a	n/a	n/a	202.754	AM09NES.jpg
170.921	0.514	Blank	Blank	45.936	n/a	2	5	20	n/a	100	n/a	1	n/a	n/a	n/a	n/a	203.251	n/a
171.452	10.014	ITI	Fixation+	35.906	n/a	2	n/a	n/a	n/a	n/a	n/a	n/a	n/a	n/a	n/a	n/a	203.782	n/a
181.482	0.497	happy	Picture	35.392	n/a	2	6	1	n/a	101	81	3	n/a	n/a	n/a	n/a	213.812	AF01ANS.jpg
181.98	0.514	Blank	Blank	34.878	n/a	2	6	1	n/a	101	n/a	3	n/a	n/a	n/a	n/a	214.309	n/a
182.51	0.497	happy	Picture	34.364	n/a	2	6	2	n/a	102	120	3	n/a	n/a	n/a	n/a	214.84	AM35ANS.jpg
183.007	0.514	Blank	Blank	33.85	n/a	2	6	2	n/a	102	n/a	3	n/a	n/a	n/a	n/a	215.337	n/a
183.538	0.497	happy	Picture	33.336	n/a	2	6	3	n/a	103	114	3	n/a	n/a	n/a	n/a	215.868	AM22ANS.jpg
184.035	0.514	Blank	Blank	32.822	n/a	2	6	3	n/a	103	n/a	3	n/a	n/a	n/a	n/a	216.365	n/a
184.566	0.497	happy	Picture	32.308	n/a	2	6	4	n/a	104	109	3	n/a	n/a	n/a	n/a	216.895	AM10ANS.jpg
185.063	0.514	Blank	Blank	31.794	n/a	2	6	4	n/a	104	n/a	3	n/a	n/a	n/a	n/a	217.393	n/a
185.594	0.497	happy	Picture	31.28	n/a	2	6	5	n/a	105	96	3	n/a	n/a	n/a	n/a	217.923	AF26ANS.jpg
186.091	0.514	Blank	Blank	30.766	n/a	2	6	5	n/a	105	n/a	3	n/a	n/a	n/a	n/a	218.421	n/a
186.621	0.497	happy	Picture	30.252	n/a	2	6	6	n/a	106	82	3	n/a	n/a	n/a	n/a	218.951	AF03ANS.jpg
187.119	0.514	Blank	Blank	29.739	n/a	2	6	6	n/a	106	n/a	3	n/a	n/a	n/a	n/a	219.449	n/a
187.649	0.497	happy	Picture	29.225	n/a	2	6	7	n/a	107	97	3	n/a	n/a	n/a	n/a	219.979	BF28ANS.jpg
188.147	0.514	Blank	Blank	28.711	n/a	2	6	7	n/a	107	n/a	3	n/a	n/a	n/a	n/a	220.476	n/a
188.677	0.497	happy	Picture	28.197	n/a	2	6	8	n/a	108	115	3	n/a	n/a	n/a	n/a	221.007	AM23ANS.jpg
189.175	0.514	Blank	Blank	27.683	n/a	2	6	8	n/a	108	n/a	3	n/a	n/a	n/a	n/a	221.504	n/a
189.705	0.497	happy	Picture	27.169	n/a	2	6	9	n/a	109	91	3	n/a	n/a	n/a	n/a	222.035	AF20ANS.jpg
190.203	0.514	Blank	Blank	26.655	n/a	2	6	9	n/a	109	n/a	3	n/a	n/a	n/a	n/a	222.532	n/a
190.732	0.498	happy	Picture	26.141	n/a	2	6	10	n/a	110	87	3	n/a	n/a	n/a	n/a	223.062	BF11ANS.jpg
191.231	0.514	Blank	Blank	25.627	n/a	2	6	10	n/a	110	n/a	3	n/a	n/a	n/a	n/a	223.56	n/a
191.761	0.497	happy	Picture	25.113	n/a	2	6	11	n/a	111	85	3	n/a	n/a	n/a	n/a	224.091	BF07ANS.jpg
192.258	0.514	Blank	Blank	24.599	n/a	2	6	11	n/a	111	n/a	3	n/a	n/a	n/a	n/a	224.588	n/a
192.789	0.497	happy	Picture	24.085	n/a	2	6	12	n/a	112	110	3	n/a	n/a	n/a	n/a	225.119	AM11ANS.jpg
193.286	0.514	Blank	Blank	23.571	n/a	2	6	12	n/a	112	n/a	3	n/a	n/a	n/a	n/a	225.616	n/a
193.817	0.497	happy	Picture	23.057	n/a	2	6	13	n/a	113	111	3	n/a	n/a	n/a	n/a	226.147	BM12ANS.jpg
194.314	0.514	Blank	Blank	22.543	n/a	2	6	13	n/a	113	n/a	3	n/a	n/a	n/a	n/a	226.644	n/a
194.845	0.497	happy	Picture	22.029	n/a	2	6	14	n/a	114	103	3	n/a	n/a	n/a	n/a	227.174	AM04ANS.jpg
195.342	0.514	Blank	Blank	21.516	n/a	2	6	14	n/a	114	n/a	3	n/a	n/a	n/a	n/a	227.672	n/a
195.873	0.497	happy	Picture	21.001	n/a	2	6	15	n/a	115	101	3	n/a	n/a	n/a	n/a	228.202	AM01ANS.jpg
196.37	0.514	Blank	Blank	20.488	n/a	2	6	15	n/a	115	n/a	3	n/a	n/a	n/a	n/a	228.7	n/a
196.9	0.497	happy	Picture	19.974	n/a	2	6	16	n/a	116	104	3	n/a	n/a	n/a	n/a	229.23	BM05ANS.jpg
197.398	0.514	Blank	Blank	19.46	n/a	2	6	16	n/a	116	n/a	3	n/a	n/a	n/a	n/a	229.727	n/a
197.928	0.497	happy	Picture	18.946	n/a	2	6	17	n/a	117	107	3	n/a	n/a	n/a	n/a	230.258	BM08ANS.jpg
198.426	0.514	Blank	Blank	18.432	n/a	2	6	17	n/a	117	n/a	3	n/a	n/a	n/a	n/a	230.755	n/a
198.956	0.497	happy	Picture	17.918	n/a	2	6	18	n/a	118	98	3	n/a	n/a	n/a	n/a	231.286	BF29ANS.jpg
199.453	0.514	Blank	Blank	17.404	n/a	2	6	18	n/a	118	n/a	3	n/a	n/a	n/a	n/a	231.783	n/a
199.984	0.497	happy	Picture	16.89	n/a	2	6	19	n/a	119	99	3	n/a	n/a	n/a	n/a	232.314	AF31ANS.jpg
200.481	0.514	Blank	Blank	16.376	n/a	2	6	19	n/a	119	n/a	3	n/a	n/a	n/a	n/a	232.811	n/a
201.012	0.497	happy	Picture	15.862	n/a	2	6	20	n/a	120	108	3	n/a	n/a	n/a	n/a	233.342	AM09ANS.jpg
201.509	0.514	Blank	Blank	15.348	n/a	2	6	20	n/a	120	n/a	3	n/a	n/a	n/a	n/a	233.839	n/a
202.04	10.014	ITI	Fixation+	5.318	n/a	2	n/a	n/a	n/a	n/a	n/a	n/a	n/a	n/a	n/a	n/a	234.37	n/a
217.371	n/a	ConfirmRating	Rate	n/a	5.306	2	n/a	n/a	0	n/a	n/a	n/a	2	Happy	70	52	249.701	n/a
219.444	n/a	ConfirmRating	Rate	n/a	2.056	2	n/a	n/a	1	n/a	n/a	n/a	3	Happy	0	49	251.774	n/a
219.464	15.004	Rest	Picture	n/a	n/a	n/a	n/a	n/a	n/a	n/a	n/a	n/a	0	n/a	0	0	251.794	n/a
234.485	10.014	ITI	Fixation+	94.84	n/a	3	n/a	n/a	n/a	n/a	n/a	n/a	n/a	n/a	n/a	n/a	266.814	n/a
244.515	0.497	angry	Picture	94.326	n/a	3	7	1	n/a	1	46	2	n/a	n/a	n/a	n/a	276.844	AF09HAS.jpg
245.012	0.514	Blank	Blank	93.812	n/a	3	7	1	n/a	1	n/a	2	n/a	n/a	n/a	n/a	277.342	n/a
245.543	0.497	angry	Picture	93.298	n/a	3	7	2	n/a	2	69	2	n/a	n/a	n/a	n/a	277.872	AM10HAS.jpg
246.04	0.514	Blank	Blank	92.784	n/a	3	7	2	n/a	2	n/a	2	n/a	n/a	n/a	n/a	278.37	n/a
246.571	0.497	angry	Picture	92.27	n/a	3	7	3	n/a	3	71	2	n/a	n/a	n/a	n/a	278.9	BM12HAS.jpg
247.068	0.514	Blank	Blank	91.756	n/a	3	7	3	n/a	3	n/a	2	n/a	n/a	n/a	n/a	279.398	n/a
247.599	0.497	angry	Picture	91.242	n/a	3	7	4	n/a	4	51	2	n/a	n/a	n/a	n/a	279.928	AF20HAS.jpg
248.096	0.514	Blank	Blank	90.728	n/a	3	7	4	n/a	4	n/a	2	n/a	n/a	n/a	n/a	280.425	n/a
248.626	0.497	angry	Picture	90.214	n/a	3	7	5	n/a	5	67	2	n/a	n/a	n/a	n/a	280.956	BM08HAS.jpg
249.124	0.514	Blank	Blank	89.7	n/a	3	7	5	n/a	5	n/a	2	n/a	n/a	n/a	n/a	281.453	n/a
249.654	0.497	angry	Picture	89.186	n/a	3	7	6	n/a	6	60	2	n/a	n/a	n/a	n/a	281.984	AF32HAS.jpg
250.152	0.514	Blank	Blank	88.673	n/a	3	7	6	n/a	6	n/a	2	n/a	n/a	n/a	n/a	282.481	n/a
250.682	0.497	angry	Picture	88.159	n/a	3	7	7	n/a	7	42	2	n/a	n/a	n/a	n/a	283.012	AF03HAS.jpg
251.18	0.514	Blank	Blank	87.645	n/a	3	7	7	n/a	7	n/a	2	n/a	n/a	n/a	n/a	283.509	n/a
251.71	0.497	angry	Picture	87.131	n/a	3	7	8	n/a	8	55	2	n/a	n/a	n/a	n/a	284.04	AF25HAS.jpg
252.207	0.514	Blank	Blank	86.617	n/a	3	7	8	n/a	8	n/a	2	n/a	n/a	n/a	n/a	284.537	n/a
252.738	0.497	angry	Picture	86.103	n/a	3	7	9	n/a	9	72	2	n/a	n/a	n/a	n/a	285.068	AM14HAS.jpg
253.235	0.514	Blank	Blank	85.589	n/a	3	7	9	n/a	9	n/a	2	n/a	n/a	n/a	n/a	285.565	n/a
253.766	0.497	angry	Picture	85.075	n/a	3	7	10	n/a	10	63	2	n/a	n/a	n/a	n/a	286.096	AM04HAS.jpg
254.263	0.514	Blank	Blank	84.561	n/a	3	7	10	n/a	10	n/a	2	n/a	n/a	n/a	n/a	286.593	n/a
254.794	0.497	angry	Picture	84.047	n/a	3	7	11	n/a	11	58	2	n/a	n/a	n/a	n/a	287.123	BF29HAS.jpg
255.291	0.514	Blank	Blank	83.533	n/a	3	7	11	n/a	11	n/a	2	n/a	n/a	n/a	n/a	287.621	n/a
255.822	0.497	angry	Picture	83.019	n/a	3	7	12	n/a	12	48	2	n/a	n/a	n/a	n/a	288.151	AF14HAS.jpg
256.319	0.514	Blank	Blank	82.505	n/a	3	7	12	n/a	12	n/a	2	n/a	n/a	n/a	n/a	288.649	n/a
256.849	0.497	angry	Picture	81.991	n/a	3	7	13	n/a	13	66	2	n/a	n/a	n/a	n/a	289.179	BM07HAS.jpg
257.347	0.514	Blank	Blank	81.477	n/a	3	7	13	n/a	13	n/a	2	n/a	n/a	n/a	n/a	289.676	n/a
257.877	0.497	angry	Picture	80.963	n/a	3	7	14	n/a	14	70	2	n/a	n/a	n/a	n/a	290.207	BM11HAS.jpg
258.375	0.514	Blank	Blank	80.45	n/a	3	7	14	n/a	14	n/a	2	n/a	n/a	n/a	n/a	290.704	n/a
258.905	0.497	angry	Picture	79.935	n/a	3	7	15	n/a	15	43	2	n/a	n/a	n/a	n/a	291.235	BF04HAS.jpg
259.403	0.514	Blank	Blank	79.422	n/a	3	7	15	n/a	15	n/a	2	n/a	n/a	n/a	n/a	291.732	n/a
259.933	0.497	angry	Picture	78.908	n/a	3	7	16	n/a	16	49	2	n/a	n/a	n/a	n/a	292.263	AF17HAS.jpg
260.43	0.514	Blank	Blank	78.394	n/a	3	7	16	n/a	16	n/a	2	n/a	n/a	n/a	n/a	292.76	n/a
260.961	0.497	angry	Picture	77.88	n/a	3	7	17	n/a	17	75	2	n/a	n/a	n/a	n/a	293.291	AM23HAS.jpg
261.458	0.514	Blank	Blank	77.366	n/a	3	7	17	n/a	17	n/a	2	n/a	n/a	n/a	n/a	293.788	n/a
261.989	0.497	angry	Picture	76.852	n/a	3	7	18	n/a	18	80	2	n/a	n/a	n/a	n/a	294.319	BM35HAS.jpg
262.486	0.514	Blank	Blank	76.338	n/a	3	7	18	n/a	18	n/a	2	n/a	n/a	n/a	n/a	294.816	n/a
263.017	0.497	angry	Picture	75.824	n/a	3	7	19	n/a	19	76	2	n/a	n/a	n/a	n/a	295.346	BM24HAS.jpg
263.514	0.514	Blank	Blank	75.31	n/a	3	7	19	n/a	19	n/a	2	n/a	n/a	n/a	n/a	295.844	n/a
264.045	0.497	angry	Picture	74.796	n/a	3	7	20	n/a	20	74	2	n/a	n/a	n/a	n/a	296.374	AM22HAS.jpg
264.542	0.514	Blank	Blank	74.282	n/a	3	7	20	n/a	20	n/a	2	n/a	n/a	n/a	n/a	296.872	n/a
265.073	10.014	ITI	Fixation+	64.252	n/a	3	n/a	n/a	n/a	n/a	n/a	n/a	n/a	n/a	n/a	n/a	297.402	n/a
275.103	0.497	neutral	Picture	63.738	n/a	3	8	1	n/a	21	33	1	n/a	n/a	n/a	n/a	307.432	AM21NES.jpg
275.6	0.514	Blank	Blank	63.224	n/a	3	8	1	n/a	21	n/a	1	n/a	n/a	n/a	n/a	307.93	n/a
276.131	0.497	neutral	Picture	62.71	n/a	3	8	2	n/a	22	39	1	n/a	n/a	n/a	n/a	308.46	AM28NES.jpg
276.628	0.514	Blank	Blank	62.196	n/a	3	8	2	n/a	22	n/a	1	n/a	n/a	n/a	n/a	308.958	n/a
277.159	0.497	neutral	Picture	61.682	n/a	3	8	3	n/a	23	25	1	n/a	n/a	n/a	n/a	309.488	BM06NES.jpg
277.656	0.514	Blank	Blank	61.168	n/a	3	8	3	n/a	23	n/a	1	n/a	n/a	n/a	n/a	309.986	n/a
278.186	0.497	neutral	Picture	60.654	n/a	3	8	4	n/a	24	5	1	n/a	n/a	n/a	n/a	310.516	BF07NES.jpg
278.684	0.514	Blank	Blank	60.14	n/a	3	8	4	n/a	24	n/a	1	n/a	n/a	n/a	n/a	311.014	n/a
279.214	0.497	neutral	Picture	59.626	n/a	3	8	5	n/a	25	10	1	n/a	n/a	n/a	n/a	311.544	AF18NES.jpg
279.712	0.514	Blank	Blank	59.113	n/a	3	8	5	n/a	25	n/a	1	n/a	n/a	n/a	n/a	312.041	n/a
280.242	0.497	neutral	Picture	58.599	n/a	3	8	6	n/a	26	34	1	n/a	n/a	n/a	n/a	312.572	AM22NES.jpg
280.74	0.514	Blank	Blank	58.085	n/a	3	8	6	n/a	26	n/a	1	n/a	n/a	n/a	n/a	313.069	n/a
281.27	0.497	neutral	Picture	57.571	n/a	3	8	7	n/a	27	36	1	n/a	n/a	n/a	n/a	313.6	BM24NES.jpg
281.767	0.514	Blank	Blank	57.057	n/a	3	8	7	n/a	27	n/a	1	n/a	n/a	n/a	n/a	314.097	n/a
282.298	0.497	neutral	Picture	56.543	n/a	3	8	8	n/a	28	14	1	n/a	n/a	n/a	n/a	314.628	AF23NES.jpg
282.795	0.514	Blank	Blank	56.029	n/a	3	8	8	n/a	28	n/a	1	n/a	n/a	n/a	n/a	315.125	n/a
283.326	0.497	neutral	Picture	55.515	n/a	3	8	9	n/a	29	9	1	n/a	n/a	n/a	n/a	315.656	AF17NES.jpg
283.823	0.514	Blank	Blank	55.001	n/a	3	8	9	n/a	29	n/a	1	n/a	n/a	n/a	n/a	316.153	n/a
284.354	0.497	neutral	Picture	54.487	n/a	3	8	10	n/a	30	19	1	n/a	n/a	n/a	n/a	316.683	AF31NES.jpg
284.851	0.514	Blank	Blank	53.973	n/a	3	8	10	n/a	30	n/a	1	n/a	n/a	n/a	n/a	317.181	n/a
285.382	0.497	neutral	Picture	53.459	n/a	3	8	11	n/a	31	15	1	n/a	n/a	n/a	n/a	317.711	AF25NES.jpg
285.879	0.514	Blank	Blank	52.945	n/a	3	8	11	n/a	31	n/a	1	n/a	n/a	n/a	n/a	318.209	n/a
286.409	0.497	neutral	Picture	52.431	n/a	3	8	12	n/a	32	22	1	n/a	n/a	n/a	n/a	318.739	BM03NES.jpg
286.907	0.514	Blank	Blank	51.917	n/a	3	8	12	n/a	32	n/a	1	n/a	n/a	n/a	n/a	319.237	n/a
287.437	0.497	neutral	Picture	51.403	n/a	3	8	13	n/a	33	11	1	n/a	n/a	n/a	n/a	319.767	AF20NES.jpg
287.935	0.514	Blank	Blank	50.889	n/a	3	8	13	n/a	33	n/a	1	n/a	n/a	n/a	n/a	320.264	n/a
288.465	0.497	neutral	Picture	50.375	n/a	3	8	14	n/a	34	4	1	n/a	n/a	n/a	n/a	320.795	AF05NES.jpg
288.963	0.514	Blank	Blank	49.861	n/a	3	8	14	n/a	34	n/a	1	n/a	n/a	n/a	n/a	321.292	n/a
289.493	0.497	neutral	Picture	49.348	n/a	3	8	15	n/a	35	17	1	n/a	n/a	n/a	n/a	321.823	BF28NES.jpg
289.99	0.514	Blank	Blank	48.834	n/a	3	8	15	n/a	35	n/a	1	n/a	n/a	n/a	n/a	322.32	n/a
290.521	0.497	neutral	Picture	48.32	n/a	3	8	16	n/a	36	13	1	n/a	n/a	n/a	n/a	322.851	BF22NES.jpg
291.018	0.514	Blank	Blank	47.806	n/a	3	8	16	n/a	36	n/a	1	n/a	n/a	n/a	n/a	323.348	n/a
291.549	0.497	neutral	Picture	47.292	n/a	3	8	17	n/a	37	12	1	n/a	n/a	n/a	n/a	323.879	AF21NES.jpg
292.046	0.514	Blank	Blank	46.778	n/a	3	8	17	n/a	37	n/a	1	n/a	n/a	n/a	n/a	324.376	n/a
292.577	0.497	neutral	Picture	46.264	n/a	3	8	18	n/a	38	24	1	n/a	n/a	n/a	n/a	324.906	BM05NES.jpg
293.074	0.514	Blank	Blank	45.75	n/a	3	8	18	n/a	38	n/a	1	n/a	n/a	n/a	n/a	325.404	n/a
293.605	0.497	neutral	Picture	45.236	n/a	3	8	19	n/a	39	29	1	n/a	n/a	n/a	n/a	325.934	AM10NES.jpg
294.102	0.514	Blank	Blank	44.722	n/a	3	8	19	n/a	39	n/a	1	n/a	n/a	n/a	n/a	326.432	n/a
294.633	0.497	neutral	Picture	44.208	n/a	3	8	20	n/a	40	23	1	n/a	n/a	n/a	n/a	326.962	AM04NES.jpg
295.13	0.514	Blank	Blank	43.694	n/a	3	8	20	n/a	40	n/a	1	n/a	n/a	n/a	n/a	327.46	n/a
295.661	10.014	ITI	Fixation+	33.664	n/a	3	n/a	n/a	n/a	n/a	n/a	n/a	n/a	n/a	n/a	n/a	327.99	n/a
305.691	0.497	angry	Picture	33.15	n/a	3	9	1	n/a	41	62	2	n/a	n/a	n/a	n/a	338.02	BM03HAS.jpg
306.188	0.514	Blank	Blank	32.636	n/a	3	9	1	n/a	41	n/a	2	n/a	n/a	n/a	n/a	338.518	n/a
306.719	0.497	angry	Picture	32.122	n/a	3	9	2	n/a	42	52	2	n/a	n/a	n/a	n/a	339.048	AF21HAS.jpg
307.216	0.511	Blank	Blank	31.612	n/a	3	9	2	n/a	42	n/a	2	n/a	n/a	n/a	n/a	339.546	n/a
307.746	0.497	angry	Picture	31.094	n/a	3	9	3	n/a	43	44	2	n/a	n/a	n/a	n/a	340.076	AF05HAS.jpg
308.244	0.514	Blank	Blank	30.58	n/a	3	9	3	n/a	43	n/a	2	n/a	n/a	n/a	n/a	340.574	n/a
308.774	0.497	angry	Picture	30.066	n/a	3	9	4	n/a	44	53	2	n/a	n/a	n/a	n/a	341.104	BF22HAS.jpg
309.272	0.514	Blank	Blank	29.553	n/a	3	9	4	n/a	44	n/a	2	n/a	n/a	n/a	n/a	341.601	n/a
309.802	0.497	angry	Picture	29.038	n/a	3	9	5	n/a	45	54	2	n/a	n/a	n/a	n/a	342.132	AF23HAS.jpg
310.3	0.514	Blank	Blank	28.525	n/a	3	9	5	n/a	45	n/a	2	n/a	n/a	n/a	n/a	342.629	n/a
310.83	0.497	angry	Picture	28.011	n/a	3	9	6	n/a	46	68	2	n/a	n/a	n/a	n/a	343.16	AM09HAS.jpg
311.327	0.514	Blank	Blank	27.497	n/a	3	9	6	n/a	46	n/a	2	n/a	n/a	n/a	n/a	343.657	n/a
311.858	0.497	angry	Picture	26.983	n/a	3	9	7	n/a	47	64	2	n/a	n/a	n/a	n/a	344.188	BM05HAS.jpg
312.355	0.514	Blank	Blank	26.469	n/a	3	9	7	n/a	47	n/a	2	n/a	n/a	n/a	n/a	344.685	n/a
312.886	0.497	angry	Picture	25.955	n/a	3	9	8	n/a	48	59	2	n/a	n/a	n/a	n/a	345.216	AF31HAS.jpg
313.383	0.514	Blank	Blank	25.441	n/a	3	9	8	n/a	48	n/a	2	n/a	n/a	n/a	n/a	345.713	n/a
313.914	0.497	angry	Picture	24.927	n/a	3	9	9	n/a	49	41	2	n/a	n/a	n/a	n/a	346.243	AF01HAS.jpg
314.411	0.514	Blank	Blank	24.413	n/a	3	9	9	n/a	49	n/a	2	n/a	n/a	n/a	n/a	346.741	n/a
314.942	0.497	angry	Picture	23.899	n/a	3	9	10	n/a	50	73	2	n/a	n/a	n/a	n/a	347.271	AM21HAS.jpg
315.439	0.514	Blank	Blank	23.385	n/a	3	9	10	n/a	50	n/a	2	n/a	n/a	n/a	n/a	347.769	n/a
315.969	0.497	angry	Picture	22.871	n/a	3	9	11	n/a	51	65	2	n/a	n/a	n/a	n/a	348.299	BM06HAS.jpg
316.467	0.514	Blank	Blank	22.357	n/a	3	9	11	n/a	51	n/a	2	n/a	n/a	n/a	n/a	348.797	n/a
316.997	0.497	angry	Picture	21.843	n/a	3	9	12	n/a	52	56	2	n/a	n/a	n/a	n/a	349.327	AF26HAS.jpg
317.495	0.514	Blank	Blank	21.329	n/a	3	9	12	n/a	52	n/a	2	n/a	n/a	n/a	n/a	349.825	n/a
318.025	0.497	angry	Picture	20.815	n/a	3	9	13	n/a	53	45	2	n/a	n/a	n/a	n/a	350.355	BF07HAS.jpg
318.523	0.514	Blank	Blank	20.302	n/a	3	9	13	n/a	53	n/a	2	n/a	n/a	n/a	n/a	350.852	n/a
319.053	0.497	angry	Picture	19.787	n/a	3	9	14	n/a	54	78	2	n/a	n/a	n/a	n/a	351.383	BM26HAS.jpg
319.551	0.514	Blank	Blank	19.274	n/a	3	9	14	n/a	54	n/a	2	n/a	n/a	n/a	n/a	351.88	n/a
320.081	0.497	angry	Picture	18.76	n/a	3	9	15	n/a	55	50	2	n/a	n/a	n/a	n/a	352.411	AF18HAS.jpg
320.579	0.514	Blank	Blank	18.246	n/a	3	9	15	n/a	55	n/a	2	n/a	n/a	n/a	n/a	352.908	n/a
321.109	0.497	angry	Picture	17.732	n/a	3	9	16	n/a	56	47	2	n/a	n/a	n/a	n/a	353.439	BF11HAS.jpg
321.606	0.514	Blank	Blank	17.218	n/a	3	9	16	n/a	56	n/a	2	n/a	n/a	n/a	n/a	353.936	n/a
322.137	0.497	angry	Picture	16.704	n/a	3	9	17	n/a	57	77	2	n/a	n/a	n/a	n/a	354.467	BM25HAS.jpg
322.634	0.514	Blank	Blank	16.19	n/a	3	9	17	n/a	57	n/a	2	n/a	n/a	n/a	n/a	354.964	n/a
323.165	0.497	angry	Picture	15.676	n/a	3	9	18	n/a	58	57	2	n/a	n/a	n/a	n/a	355.495	BF28HAS.jpg
323.662	0.514	Blank	Blank	15.162	n/a	3	9	18	n/a	58	n/a	2	n/a	n/a	n/a	n/a	355.992	n/a
324.193	0.497	angry	Picture	14.648	n/a	3	9	19	n/a	59	61	2	n/a	n/a	n/a	n/a	356.522	AM01HAS.jpg
324.69	0.514	Blank	Blank	14.134	n/a	3	9	19	n/a	59	n/a	2	n/a	n/a	n/a	n/a	357.02	n/a
325.221	0.497	angry	Picture	13.62	n/a	3	9	20	n/a	60	79	2	n/a	n/a	n/a	n/a	357.55	BM28HAS.jpg
325.718	0.514	Blank	Blank	13.106	n/a	3	9	20	n/a	60	n/a	2	n/a	n/a	n/a	n/a	358.048	n/a
326.248	10.014	ITI	Fixation+	3.076	n/a	3	n/a	n/a	n/a	n/a	n/a	n/a	n/a	n/a	n/a	n/a	358.578	n/a
339.338	n/a	ConfirmRating	Rate	n/a	3.067	3	n/a	n/a	0	n/a	n/a	n/a	2	Angry	58	51	371.668	n/a
342.95	n/a	ConfirmRating	Rate	n/a	3.597	3	n/a	n/a	1	n/a	n/a	n/a	3	Angry	2	49	375.28	n/a
342.976	10.014	ITI	Fixation+	95.315	n/a	4	n/a	n/a	n/a	n/a	n/a	n/a	n/a	n/a	n/a	n/a	375.306	n/a
353.007	0.497	happy	Picture	94.801	n/a	4	10	1	n/a	61	119	3	n/a	n/a	n/a	n/a	385.336	BM28ANS.jpg
353.504	0.514	Blank	Blank	94.287	n/a	4	10	1	n/a	61	n/a	3	n/a	n/a	n/a	n/a	385.834	n/a
354.034	0.497	happy	Picture	93.773	n/a	4	10	2	n/a	62	100	3	n/a	n/a	n/a	n/a	386.364	AF32ANS.jpg
354.532	0.514	Blank	Blank	93.259	n/a	4	10	2	n/a	62	n/a	3	n/a	n/a	n/a	n/a	386.862	n/a
355.062	0.497	happy	Picture	92.745	n/a	4	10	3	n/a	63	118	3	n/a	n/a	n/a	n/a	387.392	BM26ANS.jpg
355.56	0.514	Blank	Blank	92.231	n/a	4	10	3	n/a	63	n/a	3	n/a	n/a	n/a	n/a	387.889	n/a
356.09	0.497	happy	Picture	91.717	n/a	4	10	4	n/a	64	89	3	n/a	n/a	n/a	n/a	388.42	AF17ANS.jpg
356.588	0.514	Blank	Blank	91.203	n/a	4	10	4	n/a	64	n/a	3	n/a	n/a	n/a	n/a	388.917	n/a
357.118	0.497	happy	Picture	90.689	n/a	4	10	5	n/a	65	116	3	n/a	n/a	n/a	n/a	389.448	BM24ANS.jpg
357.616	0.514	Blank	Blank	90.176	n/a	4	10	5	n/a	65	n/a	3	n/a	n/a	n/a	n/a	389.945	n/a
358.146	0.497	happy	Picture	89.662	n/a	4	10	6	n/a	66	105	3	n/a	n/a	n/a	n/a	390.476	BM06ANS.jpg
358.643	0.514	Blank	Blank	89.148	n/a	4	10	6	n/a	66	n/a	3	n/a	n/a	n/a	n/a	390.973	n/a
359.174	0.497	happy	Picture	88.634	n/a	4	10	7	n/a	67	106	3	n/a	n/a	n/a	n/a	391.504	AM07ANS.jpg
359.671	0.514	Blank	Blank	88.12	n/a	4	10	7	n/a	67	n/a	3	n/a	n/a	n/a	n/a	392.001	n/a
360.202	0.497	happy	Picture	87.606	n/a	4	10	8	n/a	68	94	3	n/a	n/a	n/a	n/a	392.532	AF23ANS.jpg
360.699	0.514	Blank	Blank	87.092	n/a	4	10	8	n/a	68	n/a	3	n/a	n/a	n/a	n/a	393.029	n/a
361.23	0.497	happy	Picture	86.579	n/a	4	10	9	n/a	69	117	3	n/a	n/a	n/a	n/a	393.559	BM25ANS.jpg
361.726	0.515	Blank	Blank	86.064	n/a	4	10	9	n/a	69	n/a	3	n/a	n/a	n/a	n/a	394.056	n/a
362.258	0.497	happy	Picture	85.55	n/a	4	10	10	n/a	70	90	3	n/a	n/a	n/a	n/a	394.587	AF18ANS.jpg
362.755	0.514	Blank	Blank	85.036	n/a	4	10	10	n/a	70	n/a	3	n/a	n/a	n/a	n/a	395.085	n/a
363.286	0.497	happy	Picture	84.522	n/a	4	10	11	n/a	71	83	3	n/a	n/a	n/a	n/a	395.615	BF04ANS.jpg
363.783	0.514	Blank	Blank	84.008	n/a	4	10	11	n/a	71	n/a	3	n/a	n/a	n/a	n/a	396.113	n/a
364.313	0.497	happy	Picture	83.494	n/a	4	10	12	n/a	72	112	3	n/a	n/a	n/a	n/a	396.643	AM14ANS.jpg
364.811	0.514	Blank	Blank	82.98	n/a	4	10	12	n/a	72	n/a	3	n/a	n/a	n/a	n/a	397.14	n/a
365.341	0.497	happy	Picture	82.466	n/a	4	10	13	n/a	73	102	3	n/a	n/a	n/a	n/a	397.671	BM03ANS.jpg
365.839	0.514	Blank	Blank	81.952	n/a	4	10	13	n/a	73	n/a	3	n/a	n/a	n/a	n/a	398.168	n/a
366.369	0.497	happy	Picture	81.439	n/a	4	10	14	n/a	74	95	3	n/a	n/a	n/a	n/a	398.699	AF25ANS.jpg
366.866	0.514	Blank	Blank	80.925	n/a	4	10	14	n/a	74	n/a	3	n/a	n/a	n/a	n/a	399.196	n/a
367.397	0.497	happy	Picture	80.411	n/a	4	10	15	n/a	75	113	3	n/a	n/a	n/a	n/a	399.727	AM21ANS.jpg
367.894	0.514	Blank	Blank	79.897	n/a	4	10	15	n/a	75	n/a	3	n/a	n/a	n/a	n/a	400.224	n/a
368.425	0.497	happy	Picture	79.383	n/a	4	10	16	n/a	76	88	3	n/a	n/a	n/a	n/a	400.755	AF14ANS.jpg
368.922	0.514	Blank	Blank	78.869	n/a	4	10	16	n/a	76	n/a	3	n/a	n/a	n/a	n/a	401.252	n/a
369.453	0.497	happy	Picture	78.355	n/a	4	10	17	n/a	77	93	3	n/a	n/a	n/a	n/a	401.783	BF22ANS.jpg
369.95	0.514	Blank	Blank	77.841	n/a	4	10	17	n/a	77	n/a	3	n/a	n/a	n/a	n/a	402.28	n/a
370.481	0.497	happy	Picture	77.327	n/a	4	10	18	n/a	78	86	3	n/a	n/a	n/a	n/a	402.81	AF09ANS.jpg
370.978	0.514	Blank	Blank	76.813	n/a	4	10	18	n/a	78	n/a	3	n/a	n/a	n/a	n/a	403.308	n/a
371.509	0.497	happy	Picture	76.299	n/a	4	10	19	n/a	79	92	3	n/a	n/a	n/a	n/a	403.838	AF21ANS.jpg
372.006	0.514	Blank	Blank	75.785	n/a	4	10	19	n/a	79	n/a	3	n/a	n/a	n/a	n/a	404.336	n/a
372.536	0.497	happy	Picture	75.271	n/a	4	10	20	n/a	80	84	3	n/a	n/a	n/a	n/a	404.866	AF05ANS.jpg
373.034	0.514	Blank	Blank	74.757	n/a	4	10	20	n/a	80	n/a	3	n/a	n/a	n/a	n/a	405.364	n/a
373.564	10.014	ITI	Fixation+	64.727	n/a	4	n/a	n/a	n/a	n/a	n/a	n/a	n/a	n/a	n/a	n/a	405.894	n/a
383.595	0.497	neutral	Picture	64.213	n/a	4	11	1	n/a	81	4	1	n/a	n/a	n/a	n/a	415.924	AF05NES.jpg
384.092	0.514	Blank	Blank	63.699	n/a	4	11	1	n/a	81	n/a	1	n/a	n/a	n/a	n/a	416.422	n/a
384.623	0.497	neutral	Picture	63.185	n/a	4	11	2	n/a	82	14	1	n/a	n/a	n/a	n/a	416.952	AF23NES.jpg
385.12	0.514	Blank	Blank	62.671	n/a	4	11	2	n/a	82	n/a	1	n/a	n/a	n/a	n/a	417.45	n/a
385.65	0.497	neutral	Picture	62.157	n/a	4	11	3	n/a	83	19	1	n/a	n/a	n/a	n/a	417.98	AF31NES.jpg
386.148	0.514	Blank	Blank	61.643	n/a	4	11	3	n/a	83	n/a	1	n/a	n/a	n/a	n/a	418.477	n/a
386.678	0.497	neutral	Picture	61.129	n/a	4	11	4	n/a	84	8	1	n/a	n/a	n/a	n/a	419.008	AF14NES.jpg
387.176	0.514	Blank	Blank	60.615	n/a	4	11	4	n/a	84	n/a	1	n/a	n/a	n/a	n/a	419.505	n/a
387.706	0.497	neutral	Picture	60.101	n/a	4	11	5	n/a	85	25	1	n/a	n/a	n/a	n/a	420.036	BM06NES.jpg
388.204	0.514	Blank	Blank	59.588	n/a	4	11	5	n/a	85	n/a	1	n/a	n/a	n/a	n/a	420.533	n/a
388.734	0.497	neutral	Picture	59.074	n/a	4	11	6	n/a	86	9	1	n/a	n/a	n/a	n/a	421.064	AF17NES.jpg
389.231	0.514	Blank	Blank	58.56	n/a	4	11	6	n/a	86	n/a	1	n/a	n/a	n/a	n/a	421.561	n/a
389.762	0.497	neutral	Picture	58.046	n/a	4	11	7	n/a	87	2	1	n/a	n/a	n/a	n/a	422.092	AF03NES.jpg
390.259	0.514	Blank	Blank	57.532	n/a	4	11	7	n/a	87	n/a	1	n/a	n/a	n/a	n/a	422.589	n/a
390.79	0.497	neutral	Picture	57.018	n/a	4	11	8	n/a	88	17	1	n/a	n/a	n/a	n/a	423.12	BF28NES.jpg
391.287	0.514	Blank	Blank	56.504	n/a	4	11	8	n/a	88	n/a	1	n/a	n/a	n/a	n/a	423.617	n/a
391.818	0.497	neutral	Picture	55.99	n/a	4	11	9	n/a	89	6	1	n/a	n/a	n/a	n/a	424.147	AF09NES.jpg
392.315	0.514	Blank	Blank	55.476	n/a	4	11	9	n/a	89	n/a	1	n/a	n/a	n/a	n/a	424.645	n/a
392.846	0.497	neutral	Picture	54.962	n/a	4	11	10	n/a	90	12	1	n/a	n/a	n/a	n/a	425.175	AF21NES.jpg
393.343	0.514	Blank	Blank	54.448	n/a	4	11	10	n/a	90	n/a	1	n/a	n/a	n/a	n/a	425.673	n/a
393.873	0.497	neutral	Picture	53.934	n/a	4	11	11	n/a	91	24	1	n/a	n/a	n/a	n/a	426.203	BM05NES.jpg
394.371	0.514	Blank	Blank	53.42	n/a	4	11	11	n/a	91	n/a	1	n/a	n/a	n/a	n/a	426.7	n/a
394.901	0.497	neutral	Picture	52.906	n/a	4	11	12	n/a	92	34	1	n/a	n/a	n/a	n/a	427.231	AM22NES.jpg
395.399	0.514	Blank	Blank	52.392	n/a	4	11	12	n/a	92	n/a	1	n/a	n/a	n/a	n/a	427.728	n/a
395.929	0.497	neutral	Picture	51.878	n/a	4	11	13	n/a	93	23	1	n/a	n/a	n/a	n/a	428.259	AM04NES.jpg
396.427	0.514	Blank	Blank	51.365	n/a	4	11	13	n/a	93	n/a	1	n/a	n/a	n/a	n/a	428.756	n/a
396.957	0.497	neutral	Picture	50.85	n/a	4	11	14	n/a	94	15	1	n/a	n/a	n/a	n/a	429.287	AF25NES.jpg
397.454	0.514	Blank	Blank	50.337	n/a	4	11	14	n/a	94	n/a	1	n/a	n/a	n/a	n/a	429.784	n/a
397.985	0.497	neutral	Picture	49.823	n/a	4	11	15	n/a	95	37	1	n/a	n/a	n/a	n/a	430.315	BM25NES.jpg
398.482	0.514	Blank	Blank	49.309	n/a	4	11	15	n/a	95	n/a	1	n/a	n/a	n/a	n/a	430.812	n/a
399.013	0.497	neutral	Picture	48.795	n/a	4	11	16	n/a	96	32	1	n/a	n/a	n/a	n/a	431.343	AM14NES.jpg
399.51	0.514	Blank	Blank	48.281	n/a	4	11	16	n/a	96	n/a	1	n/a	n/a	n/a	n/a	431.84	n/a
400.041	0.497	neutral	Picture	47.767	n/a	4	11	17	n/a	97	3	1	n/a	n/a	n/a	n/a	432.37	BF04NES.jpg
400.538	0.514	Blank	Blank	47.253	n/a	4	11	17	n/a	97	n/a	1	n/a	n/a	n/a	n/a	432.868	n/a
401.069	0.497	neutral	Picture	46.739	n/a	4	11	18	n/a	98	16	1	n/a	n/a	n/a	n/a	433.398	AF26NES.jpg
401.566	0.514	Blank	Blank	46.225	n/a	4	11	18	n/a	98	n/a	1	n/a	n/a	n/a	n/a	433.896	n/a
402.097	0.497	neutral	Picture	45.711	n/a	4	11	19	n/a	99	27	1	n/a	n/a	n/a	n/a	434.426	BM08NES.jpg
402.594	0.514	Blank	Blank	45.197	n/a	4	11	19	n/a	99	n/a	1	n/a	n/a	n/a	n/a	434.924	n/a
403.124	0.497	neutral	Picture	44.683	n/a	4	11	20	n/a	100	28	1	n/a	n/a	n/a	n/a	435.454	AM09NES.jpg
403.622	0.514	Blank	Blank	44.169	n/a	4	11	20	n/a	100	n/a	1	n/a	n/a	n/a	n/a	435.952	n/a
404.152	10.014	ITI	Fixation+	34.139	n/a	4	n/a	n/a	n/a	n/a	n/a	n/a	n/a	n/a	n/a	n/a	436.482	n/a
414.183	0.497	happy	Picture	33.625	n/a	4	12	1	n/a	101	81	3	n/a	n/a	n/a	n/a	446.512	AF01ANS.jpg
414.68	0.514	Blank	Blank	33.111	n/a	4	12	1	n/a	101	n/a	3	n/a	n/a	n/a	n/a	447.01	n/a
415.21	0.497	happy	Picture	32.597	n/a	4	12	2	n/a	102	120	3	n/a	n/a	n/a	n/a	447.54	AM35ANS.jpg
415.708	0.514	Blank	Blank	32.083	n/a	4	12	2	n/a	102	n/a	3	n/a	n/a	n/a	n/a	448.038	n/a
416.238	0.497	happy	Picture	31.569	n/a	4	12	3	n/a	103	114	3	n/a	n/a	n/a	n/a	448.568	AM22ANS.jpg
416.736	0.514	Blank	Blank	31.055	n/a	4	12	3	n/a	103	n/a	3	n/a	n/a	n/a	n/a	449.065	n/a
417.266	0.497	happy	Picture	30.542	n/a	4	12	4	n/a	104	109	3	n/a	n/a	n/a	n/a	449.596	AM10ANS.jpg
417.764	0.514	Blank	Blank	30.027	n/a	4	12	4	n/a	104	n/a	3	n/a	n/a	n/a	n/a	450.093	n/a
418.294	0.497	happy	Picture	29.514	n/a	4	12	5	n/a	105	96	3	n/a	n/a	n/a	n/a	450.624	AF26ANS.jpg
418.791	0.514	Blank	Blank	29.0	n/a	4	12	5	n/a	105	n/a	3	n/a	n/a	n/a	n/a	451.121	n/a
419.322	0.497	happy	Picture	28.486	n/a	4	12	6	n/a	106	82	3	n/a	n/a	n/a	n/a	451.652	AF03ANS.jpg
419.819	0.514	Blank	Blank	27.972	n/a	4	12	6	n/a	106	n/a	3	n/a	n/a	n/a	n/a	452.149	n/a
420.35	0.497	happy	Picture	27.458	n/a	4	12	7	n/a	107	97	3	n/a	n/a	n/a	n/a	452.68	BF28ANS.jpg
420.847	0.514	Blank	Blank	26.944	n/a	4	12	7	n/a	107	n/a	3	n/a	n/a	n/a	n/a	453.177	n/a
421.378	0.497	happy	Picture	26.43	n/a	4	12	8	n/a	108	115	3	n/a	n/a	n/a	n/a	453.707	AM23ANS.jpg
421.875	0.514	Blank	Blank	25.916	n/a	4	12	8	n/a	108	n/a	3	n/a	n/a	n/a	n/a	454.205	n/a
422.406	0.497	happy	Picture	25.402	n/a	4	12	9	n/a	109	91	3	n/a	n/a	n/a	n/a	454.735	AF20ANS.jpg
422.903	0.514	Blank	Blank	24.888	n/a	4	12	9	n/a	109	n/a	3	n/a	n/a	n/a	n/a	455.233	n/a
423.433	0.497	happy	Picture	24.374	n/a	4	12	10	n/a	110	87	3	n/a	n/a	n/a	n/a	455.763	BF11ANS.jpg
423.931	0.514	Blank	Blank	23.86	n/a	4	12	10	n/a	110	n/a	3	n/a	n/a	n/a	n/a	456.261	n/a
424.461	0.497	happy	Picture	23.346	n/a	4	12	11	n/a	111	85	3	n/a	n/a	n/a	n/a	456.791	BF07ANS.jpg
424.959	0.514	Blank	Blank	22.832	n/a	4	12	11	n/a	111	n/a	3	n/a	n/a	n/a	n/a	457.288	n/a
425.489	0.497	happy	Picture	22.318	n/a	4	12	12	n/a	112	110	3	n/a	n/a	n/a	n/a	457.819	AM11ANS.jpg
425.987	0.514	Blank	Blank	21.804	n/a	4	12	12	n/a	112	n/a	3	n/a	n/a	n/a	n/a	458.316	n/a
426.517	0.497	happy	Picture	21.291	n/a	4	12	13	n/a	113	111	3	n/a	n/a	n/a	n/a	458.847	BM12ANS.jpg
427.014	0.514	Blank	Blank	20.776	n/a	4	12	13	n/a	113	n/a	3	n/a	n/a	n/a	n/a	459.344	n/a
427.545	0.497	happy	Picture	20.263	n/a	4	12	14	n/a	114	103	3	n/a	n/a	n/a	n/a	459.875	AM04ANS.jpg
428.042	0.514	Blank	Blank	19.749	n/a	4	12	14	n/a	114	n/a	3	n/a	n/a	n/a	n/a	460.372	n/a
428.573	0.497	happy	Picture	19.235	n/a	4	12	15	n/a	115	101	3	n/a	n/a	n/a	n/a	460.903	AM01ANS.jpg
429.07	0.514	Blank	Blank	18.721	n/a	4	12	15	n/a	115	n/a	3	n/a	n/a	n/a	n/a	461.4	n/a
429.601	0.497	happy	Picture	18.207	n/a	4	12	16	n/a	116	104	3	n/a	n/a	n/a	n/a	461.93	BM05ANS.jpg
430.098	0.514	Blank	Blank	17.693	n/a	4	12	16	n/a	116	n/a	3	n/a	n/a	n/a	n/a	462.428	n/a
430.629	0.497	happy	Picture	17.179	n/a	4	12	17	n/a	117	107	3	n/a	n/a	n/a	n/a	462.958	BM08ANS.jpg
431.126	0.514	Blank	Blank	16.665	n/a	4	12	17	n/a	117	n/a	3	n/a	n/a	n/a	n/a	463.456	n/a
431.657	0.497	happy	Picture	16.151	n/a	4	12	18	n/a	118	98	3	n/a	n/a	n/a	n/a	463.986	BF29ANS.jpg
432.154	0.514	Blank	Blank	15.637	n/a	4	12	18	n/a	118	n/a	3	n/a	n/a	n/a	n/a	464.484	n/a
432.685	0.497	happy	Picture	15.123	n/a	4	12	19	n/a	119	99	3	n/a	n/a	n/a	n/a	465.014	AF31ANS.jpg
433.182	0.514	Blank	Blank	14.609	n/a	4	12	19	n/a	119	n/a	3	n/a	n/a	n/a	n/a	465.512	n/a
433.712	0.497	happy	Picture	14.095	n/a	4	12	20	n/a	120	108	3	n/a	n/a	n/a	n/a	466.042	AM09ANS.jpg
434.21	0.513	Blank	Blank	13.582	n/a	4	12	20	n/a	120	n/a	3	n/a	n/a	n/a	n/a	466.539	n/a
434.74	10.014	ITI	Fixation+	3.551	n/a	4	n/a	n/a	n/a	n/a	n/a	n/a	n/a	n/a	n/a	n/a	467.07	n/a
448.305	n/a	ConfirmRating	Rate	n/a	3.548	4	n/a	n/a	0	n/a	n/a	n/a	2	Happy	73	52	480.635	n/a
451.15	n/a	ConfirmRating	Rate	n/a	2.819	4	n/a	n/a	1	n/a	n/a	n/a	3	Happy	0	48	483.48	n/a
