onset	duration	trial_type	event_type	time_until_response	response_time	trial_number	block_num_within_trial	image_seq_num_within_block	question_seq_num_within_block	image_seq_num	picture_number	condition	question_type	block_type	rating	rating_computed	onset_uncorrected	KDEV_imagefile
0.012	10.014	ITI	Fixation+	97.726	n/a	1	n/a	n/a	n/a	n/a	n/a	n/a	n/a	n/a	n/a	n/a	29.803	n/a
10.042	0.497	happy	Picture	97.213	n/a	1	1	1	n/a	1	46	2	n/a	n/a	n/a	n/a	39.833	AF09HAS.jpg
10.54	0.514	Blank	Blank	96.699	n/a	1	1	1	n/a	1	n/a	2	n/a	n/a	n/a	n/a	40.331	n/a
11.07	0.497	happy	Picture	96.185	n/a	1	1	2	n/a	2	69	2	n/a	n/a	n/a	n/a	40.861	AM10HAS.jpg
11.568	0.514	Blank	Blank	95.671	n/a	1	1	2	n/a	2	n/a	2	n/a	n/a	n/a	n/a	41.359	n/a
12.098	0.497	happy	Picture	95.157	n/a	1	1	3	n/a	3	71	2	n/a	n/a	n/a	n/a	41.889	BM12HAS.jpg
12.596	0.514	Blank	Blank	94.643	n/a	1	1	3	n/a	3	n/a	2	n/a	n/a	n/a	n/a	42.386	n/a
13.126	0.497	happy	Picture	94.129	n/a	1	1	4	n/a	4	51	2	n/a	n/a	n/a	n/a	42.917	AF20HAS.jpg
13.623	0.514	Blank	Blank	93.615	n/a	1	1	4	n/a	4	n/a	2	n/a	n/a	n/a	n/a	43.414	n/a
14.154	0.497	happy	Picture	93.101	n/a	1	1	5	n/a	5	67	2	n/a	n/a	n/a	n/a	43.945	BM08HAS.jpg
14.651	0.514	Blank	Blank	92.587	n/a	1	1	5	n/a	5	n/a	2	n/a	n/a	n/a	n/a	44.442	n/a
15.182	0.497	happy	Picture	92.073	n/a	1	1	6	n/a	6	60	2	n/a	n/a	n/a	n/a	44.973	AF32HAS.jpg
15.679	0.514	Blank	Blank	91.559	n/a	1	1	6	n/a	6	n/a	2	n/a	n/a	n/a	n/a	45.47	n/a
16.21	0.497	happy	Picture	91.045	n/a	1	1	7	n/a	7	42	2	n/a	n/a	n/a	n/a	46.001	AF03HAS.jpg
16.707	0.514	Blank	Blank	90.531	n/a	1	1	7	n/a	7	n/a	2	n/a	n/a	n/a	n/a	46.498	n/a
17.238	0.497	happy	Picture	90.017	n/a	1	1	8	n/a	8	55	2	n/a	n/a	n/a	n/a	47.029	AF25HAS.jpg
17.735	0.514	Blank	Blank	89.503	n/a	1	1	8	n/a	8	n/a	2	n/a	n/a	n/a	n/a	47.526	n/a
18.265	0.497	happy	Picture	88.989	n/a	1	1	9	n/a	9	72	2	n/a	n/a	n/a	n/a	48.056	AM14HAS.jpg
18.763	0.514	Blank	Blank	88.476	n/a	1	1	9	n/a	9	n/a	2	n/a	n/a	n/a	n/a	48.554	n/a
19.293	0.497	happy	Picture	87.962	n/a	1	1	10	n/a	10	63	2	n/a	n/a	n/a	n/a	49.084	AM04HAS.jpg
19.791	0.514	Blank	Blank	87.448	n/a	1	1	10	n/a	10	n/a	2	n/a	n/a	n/a	n/a	49.582	n/a
20.321	0.497	happy	Picture	86.934	n/a	1	1	11	n/a	11	58	2	n/a	n/a	n/a	n/a	50.112	BF29HAS.jpg
20.819	0.514	Blank	Blank	86.42	n/a	1	1	11	n/a	11	n/a	2	n/a	n/a	n/a	n/a	50.61	n/a
21.349	0.497	happy	Picture	85.906	n/a	1	1	12	n/a	12	48	2	n/a	n/a	n/a	n/a	51.14	AF14HAS.jpg
21.846	0.514	Blank	Blank	85.392	n/a	1	1	12	n/a	12	n/a	2	n/a	n/a	n/a	n/a	51.637	n/a
22.377	0.497	happy	Picture	84.878	n/a	1	1	13	n/a	13	66	2	n/a	n/a	n/a	n/a	52.168	BM07HAS.jpg
22.874	0.514	Blank	Blank	84.364	n/a	1	1	13	n/a	13	n/a	2	n/a	n/a	n/a	n/a	52.665	n/a
23.405	0.497	happy	Picture	83.85	n/a	1	1	14	n/a	14	70	2	n/a	n/a	n/a	n/a	53.196	BM11HAS.jpg
23.902	0.514	Blank	Blank	83.336	n/a	1	1	14	n/a	14	n/a	2	n/a	n/a	n/a	n/a	53.693	n/a
24.433	0.497	happy	Picture	82.822	n/a	1	1	15	n/a	15	43	2	n/a	n/a	n/a	n/a	54.224	BF04HAS.jpg
24.93	0.514	Blank	Blank	82.308	n/a	1	1	15	n/a	15	n/a	2	n/a	n/a	n/a	n/a	54.721	n/a
25.461	0.497	happy	Picture	81.794	n/a	1	1	16	n/a	16	49	2	n/a	n/a	n/a	n/a	55.252	AF17HAS.jpg
25.958	0.514	Blank	Blank	81.28	n/a	1	1	16	n/a	16	n/a	2	n/a	n/a	n/a	n/a	55.749	n/a
26.489	0.497	happy	Picture	80.766	n/a	1	1	17	n/a	17	75	2	n/a	n/a	n/a	n/a	56.279	AM23HAS.jpg
26.986	0.514	Blank	Blank	80.252	n/a	1	1	17	n/a	17	n/a	2	n/a	n/a	n/a	n/a	56.777	n/a
27.517	0.497	happy	Picture	79.739	n/a	1	1	18	n/a	18	80	2	n/a	n/a	n/a	n/a	57.307	BM35HAS.jpg
28.014	0.514	Blank	Blank	79.225	n/a	1	1	18	n/a	18	n/a	2	n/a	n/a	n/a	n/a	57.805	n/a
28.544	0.497	happy	Picture	78.711	n/a	1	1	19	n/a	19	76	2	n/a	n/a	n/a	n/a	58.335	BM24HAS.jpg
29.042	0.514	Blank	Blank	78.197	n/a	1	1	19	n/a	19	n/a	2	n/a	n/a	n/a	n/a	58.833	n/a
29.572	0.497	happy	Picture	77.683	n/a	1	1	20	n/a	20	74	2	n/a	n/a	n/a	n/a	59.363	AM22HAS.jpg
30.07	0.514	Blank	Blank	77.169	n/a	1	1	20	n/a	20	n/a	2	n/a	n/a	n/a	n/a	59.861	n/a
30.6	10.014	ITI	Fixation+	67.139	n/a	1	n/a	n/a	n/a	n/a	n/a	n/a	n/a	n/a	n/a	n/a	60.391	n/a
40.63	0.497	neutral	Picture	66.625	n/a	1	2	1	n/a	21	33	1	n/a	n/a	n/a	n/a	70.421	AM21NES.jpg
41.128	0.514	Blank	Blank	66.111	n/a	1	2	1	n/a	21	n/a	1	n/a	n/a	n/a	n/a	70.918	n/a
41.658	0.497	neutral	Picture	65.597	n/a	1	2	2	n/a	22	39	1	n/a	n/a	n/a	n/a	71.449	AM28NES.jpg
42.155	0.514	Blank	Blank	65.083	n/a	1	2	2	n/a	22	n/a	1	n/a	n/a	n/a	n/a	71.946	n/a
42.686	0.497	neutral	Picture	64.569	n/a	1	2	3	n/a	23	25	1	n/a	n/a	n/a	n/a	72.477	BM06NES.jpg
43.183	0.514	Blank	Blank	64.055	n/a	1	2	3	n/a	23	n/a	1	n/a	n/a	n/a	n/a	72.974	n/a
43.714	0.497	neutral	Picture	63.541	n/a	1	2	4	n/a	24	5	1	n/a	n/a	n/a	n/a	73.505	BF07NES.jpg
44.211	0.514	Blank	Blank	63.027	n/a	1	2	4	n/a	24	n/a	1	n/a	n/a	n/a	n/a	74.002	n/a
44.742	0.497	neutral	Picture	62.513	n/a	1	2	5	n/a	25	10	1	n/a	n/a	n/a	n/a	74.533	AF18NES.jpg
45.239	0.514	Blank	Blank	61.999	n/a	1	2	5	n/a	25	n/a	1	n/a	n/a	n/a	n/a	75.03	n/a
45.77	0.497	neutral	Picture	61.485	n/a	1	2	6	n/a	26	34	1	n/a	n/a	n/a	n/a	75.561	AM22NES.jpg
46.267	0.514	Blank	Blank	60.971	n/a	1	2	6	n/a	26	n/a	1	n/a	n/a	n/a	n/a	76.058	n/a
46.798	0.497	neutral	Picture	60.457	n/a	1	2	7	n/a	27	36	1	n/a	n/a	n/a	n/a	76.588	BM24NES.jpg
47.295	0.514	Blank	Blank	59.943	n/a	1	2	7	n/a	27	n/a	1	n/a	n/a	n/a	n/a	77.086	n/a
47.825	0.497	neutral	Picture	59.43	n/a	1	2	8	n/a	28	14	1	n/a	n/a	n/a	n/a	77.616	AF23NES.jpg
48.323	0.514	Blank	Blank	58.916	n/a	1	2	8	n/a	28	n/a	1	n/a	n/a	n/a	n/a	78.114	n/a
48.853	0.497	neutral	Picture	58.402	n/a	1	2	9	n/a	29	9	1	n/a	n/a	n/a	n/a	78.644	AF17NES.jpg
49.351	0.514	Blank	Blank	57.888	n/a	1	2	9	n/a	29	n/a	1	n/a	n/a	n/a	n/a	79.142	n/a
49.881	0.497	neutral	Picture	57.374	n/a	1	2	10	n/a	30	19	1	n/a	n/a	n/a	n/a	79.672	AF31NES.jpg
50.379	0.514	Blank	Blank	56.86	n/a	1	2	10	n/a	30	n/a	1	n/a	n/a	n/a	n/a	80.169	n/a
50.909	0.497	neutral	Picture	56.346	n/a	1	2	11	n/a	31	15	1	n/a	n/a	n/a	n/a	80.7	AF25NES.jpg
51.406	0.514	Blank	Blank	55.832	n/a	1	2	11	n/a	31	n/a	1	n/a	n/a	n/a	n/a	81.197	n/a
51.937	0.497	neutral	Picture	55.318	n/a	1	2	12	n/a	32	22	1	n/a	n/a	n/a	n/a	81.728	BM03NES.jpg
52.434	0.514	Blank	Blank	54.804	n/a	1	2	12	n/a	32	n/a	1	n/a	n/a	n/a	n/a	82.225	n/a
52.965	0.497	neutral	Picture	54.29	n/a	1	2	13	n/a	33	11	1	n/a	n/a	n/a	n/a	82.756	AF20NES.jpg
53.462	0.514	Blank	Blank	53.776	n/a	1	2	13	n/a	33	n/a	1	n/a	n/a	n/a	n/a	83.253	n/a
53.993	0.497	neutral	Picture	53.262	n/a	1	2	14	n/a	34	4	1	n/a	n/a	n/a	n/a	83.784	AF05NES.jpg
54.49	0.514	Blank	Blank	52.748	n/a	1	2	14	n/a	34	n/a	1	n/a	n/a	n/a	n/a	84.281	n/a
55.021	0.497	neutral	Picture	52.234	n/a	1	2	15	n/a	35	17	1	n/a	n/a	n/a	n/a	84.811	BF28NES.jpg
55.518	0.514	Blank	Blank	51.721	n/a	1	2	15	n/a	35	n/a	1	n/a	n/a	n/a	n/a	85.309	n/a
56.048	0.497	neutral	Picture	51.206	n/a	1	2	16	n/a	36	13	1	n/a	n/a	n/a	n/a	85.839	BF22NES.jpg
56.546	0.514	Blank	Blank	50.693	n/a	1	2	16	n/a	36	n/a	1	n/a	n/a	n/a	n/a	86.337	n/a
57.076	0.497	neutral	Picture	50.179	n/a	1	2	17	n/a	37	12	1	n/a	n/a	n/a	n/a	86.867	AF21NES.jpg
57.574	0.514	Blank	Blank	49.665	n/a	1	2	17	n/a	37	n/a	1	n/a	n/a	n/a	n/a	87.365	n/a
58.104	0.497	neutral	Picture	49.151	n/a	1	2	18	n/a	38	24	1	n/a	n/a	n/a	n/a	87.895	BM05NES.jpg
58.602	0.514	Blank	Blank	48.637	n/a	1	2	18	n/a	38	n/a	1	n/a	n/a	n/a	n/a	88.392	n/a
59.132	0.497	neutral	Picture	48.123	n/a	1	2	19	n/a	39	29	1	n/a	n/a	n/a	n/a	88.923	AM10NES.jpg
59.63	0.514	Blank	Blank	47.609	n/a	1	2	19	n/a	39	n/a	1	n/a	n/a	n/a	n/a	89.42	n/a
60.16	0.497	neutral	Picture	47.095	n/a	1	2	20	n/a	40	23	1	n/a	n/a	n/a	n/a	89.951	AM04NES.jpg
60.657	0.514	Blank	Blank	46.581	n/a	1	2	20	n/a	40	n/a	1	n/a	n/a	n/a	n/a	90.448	n/a
61.188	10.014	ITI	Fixation+	36.551	n/a	1	n/a	n/a	n/a	n/a	n/a	n/a	n/a	n/a	n/a	n/a	90.979	n/a
71.218	0.497	happy	Picture	36.037	n/a	1	3	1	n/a	41	62	2	n/a	n/a	n/a	n/a	101.009	BM03HAS.jpg
71.715	0.514	Blank	Blank	35.523	n/a	1	3	1	n/a	41	n/a	2	n/a	n/a	n/a	n/a	101.506	n/a
72.246	0.497	happy	Picture	35.009	n/a	1	3	2	n/a	42	52	2	n/a	n/a	n/a	n/a	102.037	AF21HAS.jpg
72.743	0.514	Blank	Blank	34.495	n/a	1	3	2	n/a	42	n/a	2	n/a	n/a	n/a	n/a	102.534	n/a
73.274	0.497	happy	Picture	33.981	n/a	1	3	3	n/a	43	44	2	n/a	n/a	n/a	n/a	103.065	AF05HAS.jpg
73.771	0.514	Blank	Blank	33.467	n/a	1	3	3	n/a	43	n/a	2	n/a	n/a	n/a	n/a	103.562	n/a
74.302	0.497	happy	Picture	32.953	n/a	1	3	4	n/a	44	53	2	n/a	n/a	n/a	n/a	104.093	BF22HAS.jpg
74.799	0.514	Blank	Blank	32.439	n/a	1	3	4	n/a	44	n/a	2	n/a	n/a	n/a	n/a	104.59	n/a
75.33	0.497	happy	Picture	31.925	n/a	1	3	5	n/a	45	54	2	n/a	n/a	n/a	n/a	105.121	AF23HAS.jpg
75.827	0.514	Blank	Blank	31.412	n/a	1	3	5	n/a	45	n/a	2	n/a	n/a	n/a	n/a	105.618	n/a
76.357	0.497	happy	Picture	30.898	n/a	1	3	6	n/a	46	68	2	n/a	n/a	n/a	n/a	106.148	AM09HAS.jpg
76.855	0.514	Blank	Blank	30.384	n/a	1	3	6	n/a	46	n/a	2	n/a	n/a	n/a	n/a	106.646	n/a
77.385	0.497	happy	Picture	29.87	n/a	1	3	7	n/a	47	64	2	n/a	n/a	n/a	n/a	107.176	BM05HAS.jpg
77.883	0.514	Blank	Blank	29.356	n/a	1	3	7	n/a	47	n/a	2	n/a	n/a	n/a	n/a	107.674	n/a
78.413	0.497	happy	Picture	28.842	n/a	1	3	8	n/a	48	59	2	n/a	n/a	n/a	n/a	108.204	AF31HAS.jpg
78.911	0.514	Blank	Blank	28.328	n/a	1	3	8	n/a	48	n/a	2	n/a	n/a	n/a	n/a	108.701	n/a
79.441	0.497	happy	Picture	27.814	n/a	1	3	9	n/a	49	41	2	n/a	n/a	n/a	n/a	109.232	AF01HAS.jpg
79.939	0.514	Blank	Blank	27.3	n/a	1	3	9	n/a	49	n/a	2	n/a	n/a	n/a	n/a	109.729	n/a
80.469	0.497	happy	Picture	26.786	n/a	1	3	10	n/a	50	73	2	n/a	n/a	n/a	n/a	110.26	AM21HAS.jpg
80.966	0.514	Blank	Blank	26.272	n/a	1	3	10	n/a	50	n/a	2	n/a	n/a	n/a	n/a	110.757	n/a
81.497	0.497	happy	Picture	25.758	n/a	1	3	11	n/a	51	65	2	n/a	n/a	n/a	n/a	111.288	BM06HAS.jpg
81.994	0.514	Blank	Blank	25.244	n/a	1	3	11	n/a	51	n/a	2	n/a	n/a	n/a	n/a	111.785	n/a
82.525	0.497	happy	Picture	24.73	n/a	1	3	12	n/a	52	56	2	n/a	n/a	n/a	n/a	112.316	AF26HAS.jpg
83.022	0.514	Blank	Blank	24.216	n/a	1	3	12	n/a	52	n/a	2	n/a	n/a	n/a	n/a	112.813	n/a
83.553	0.497	happy	Picture	23.702	n/a	1	3	13	n/a	53	45	2	n/a	n/a	n/a	n/a	113.344	BF07HAS.jpg
84.05	0.514	Blank	Blank	23.188	n/a	1	3	13	n/a	53	n/a	2	n/a	n/a	n/a	n/a	113.841	n/a
84.581	0.497	happy	Picture	22.674	n/a	1	3	14	n/a	54	78	2	n/a	n/a	n/a	n/a	114.371	BM26HAS.jpg
85.078	0.514	Blank	Blank	22.161	n/a	1	3	14	n/a	54	n/a	2	n/a	n/a	n/a	n/a	114.869	n/a
85.608	0.497	happy	Picture	21.647	n/a	1	3	15	n/a	55	50	2	n/a	n/a	n/a	n/a	115.399	AF18HAS.jpg
86.106	0.514	Blank	Blank	21.133	n/a	1	3	15	n/a	55	n/a	2	n/a	n/a	n/a	n/a	115.897	n/a
86.636	0.497	happy	Picture	20.619	n/a	1	3	16	n/a	56	47	2	n/a	n/a	n/a	n/a	116.427	BF11HAS.jpg
87.134	0.514	Blank	Blank	20.105	n/a	1	3	16	n/a	56	n/a	2	n/a	n/a	n/a	n/a	116.924	n/a
87.664	0.497	happy	Picture	19.591	n/a	1	3	17	n/a	57	77	2	n/a	n/a	n/a	n/a	117.455	BM25HAS.jpg
88.161	0.514	Blank	Blank	19.077	n/a	1	3	17	n/a	57	n/a	2	n/a	n/a	n/a	n/a	117.952	n/a
88.692	0.497	happy	Picture	18.563	n/a	1	3	18	n/a	58	57	2	n/a	n/a	n/a	n/a	118.483	BF28HAS.jpg
89.189	0.514	Blank	Blank	18.049	n/a	1	3	18	n/a	58	n/a	2	n/a	n/a	n/a	n/a	118.98	n/a
89.72	0.497	happy	Picture	17.535	n/a	1	3	19	n/a	59	61	2	n/a	n/a	n/a	n/a	119.511	AM01HAS.jpg
90.217	0.514	Blank	Blank	17.021	n/a	1	3	19	n/a	59	n/a	2	n/a	n/a	n/a	n/a	120.008	n/a
90.748	0.497	happy	Picture	16.507	n/a	1	3	20	n/a	60	79	2	n/a	n/a	n/a	n/a	120.539	BM28HAS.jpg
91.245	0.514	Blank	Blank	15.993	n/a	1	3	20	n/a	60	n/a	2	n/a	n/a	n/a	n/a	121.036	n/a
91.776	10.014	ITI	Fixation+	5.963	n/a	1	n/a	n/a	n/a	n/a	n/a	n/a	n/a	n/a	n/a	n/a	121.567	n/a
107.752	n/a	ConfirmRating	Rate	n/a	5.952	1	n/a	n/a	0	n/a	n/a	n/a	2	Happy	18	48	137.543	n/a
114.942	n/a	ConfirmRating	Rate	n/a	7.178	1	n/a	n/a	1	n/a	n/a	n/a	3	Happy	16	48	144.733	n/a
114.969	10.014	ITI	Fixation+	98.657	n/a	2	n/a	n/a	n/a	n/a	n/a	n/a	n/a	n/a	n/a	n/a	144.76	n/a
125.0	0.497	angry	Picture	98.143	n/a	2	4	1	n/a	61	119	3	n/a	n/a	n/a	n/a	154.79	BM28ANS.jpg
125.497	0.514	Blank	Blank	97.629	n/a	2	4	1	n/a	61	n/a	3	n/a	n/a	n/a	n/a	155.288	n/a
126.027	0.497	angry	Picture	97.116	n/a	2	4	2	n/a	62	100	3	n/a	n/a	n/a	n/a	155.818	AF32ANS.jpg
126.525	0.514	Blank	Blank	96.602	n/a	2	4	2	n/a	62	n/a	3	n/a	n/a	n/a	n/a	156.316	n/a
127.055	0.497	angry	Picture	96.088	n/a	2	4	3	n/a	63	118	3	n/a	n/a	n/a	n/a	156.846	BM26ANS.jpg
127.553	0.514	Blank	Blank	95.574	n/a	2	4	3	n/a	63	n/a	3	n/a	n/a	n/a	n/a	157.344	n/a
128.083	0.497	angry	Picture	95.06	n/a	2	4	4	n/a	64	89	3	n/a	n/a	n/a	n/a	157.874	AF17ANS.jpg
128.581	0.514	Blank	Blank	94.546	n/a	2	4	4	n/a	64	n/a	3	n/a	n/a	n/a	n/a	158.371	n/a
129.111	0.497	angry	Picture	94.032	n/a	2	4	5	n/a	65	116	3	n/a	n/a	n/a	n/a	158.902	BM24ANS.jpg
129.608	0.514	Blank	Blank	93.518	n/a	2	4	5	n/a	65	n/a	3	n/a	n/a	n/a	n/a	159.399	n/a
130.139	0.497	angry	Picture	93.004	n/a	2	4	6	n/a	66	105	3	n/a	n/a	n/a	n/a	159.93	BM06ANS.jpg
130.636	0.514	Blank	Blank	92.49	n/a	2	4	6	n/a	66	n/a	3	n/a	n/a	n/a	n/a	160.427	n/a
131.167	0.497	angry	Picture	91.976	n/a	2	4	7	n/a	67	106	3	n/a	n/a	n/a	n/a	160.958	AM07ANS.jpg
131.664	0.514	Blank	Blank	91.462	n/a	2	4	7	n/a	67	n/a	3	n/a	n/a	n/a	n/a	161.455	n/a
132.195	0.497	angry	Picture	90.948	n/a	2	4	8	n/a	68	94	3	n/a	n/a	n/a	n/a	161.986	AF23ANS.jpg
132.692	0.514	Blank	Blank	90.434	n/a	2	4	8	n/a	68	n/a	3	n/a	n/a	n/a	n/a	162.483	n/a
133.223	0.497	angry	Picture	89.92	n/a	2	4	9	n/a	69	117	3	n/a	n/a	n/a	n/a	163.013	BM25ANS.jpg
133.72	0.514	Blank	Blank	89.406	n/a	2	4	9	n/a	69	n/a	3	n/a	n/a	n/a	n/a	163.511	n/a
134.25	0.497	angry	Picture	88.892	n/a	2	4	10	n/a	70	90	3	n/a	n/a	n/a	n/a	164.041	AF18ANS.jpg
134.748	0.514	Blank	Blank	88.379	n/a	2	4	10	n/a	70	n/a	3	n/a	n/a	n/a	n/a	164.539	n/a
135.278	0.497	angry	Picture	87.865	n/a	2	4	11	n/a	71	83	3	n/a	n/a	n/a	n/a	165.069	BF04ANS.jpg
135.776	0.514	Blank	Blank	87.351	n/a	2	4	11	n/a	71	n/a	3	n/a	n/a	n/a	n/a	165.567	n/a
136.306	0.497	angry	Picture	86.837	n/a	2	4	12	n/a	72	112	3	n/a	n/a	n/a	n/a	166.097	AM14ANS.jpg
136.804	0.514	Blank	Blank	86.323	n/a	2	4	12	n/a	72	n/a	3	n/a	n/a	n/a	n/a	166.595	n/a
137.334	0.497	angry	Picture	85.809	n/a	2	4	13	n/a	73	102	3	n/a	n/a	n/a	n/a	167.125	BM03ANS.jpg
137.831	0.514	Blank	Blank	85.295	n/a	2	4	13	n/a	73	n/a	3	n/a	n/a	n/a	n/a	167.622	n/a
138.362	0.497	angry	Picture	84.781	n/a	2	4	14	n/a	74	95	3	n/a	n/a	n/a	n/a	168.153	AF25ANS.jpg
138.859	0.514	Blank	Blank	84.267	n/a	2	4	14	n/a	74	n/a	3	n/a	n/a	n/a	n/a	168.65	n/a
139.39	0.497	angry	Picture	83.753	n/a	2	4	15	n/a	75	113	3	n/a	n/a	n/a	n/a	169.181	AM21ANS.jpg
139.887	0.514	Blank	Blank	83.239	n/a	2	4	15	n/a	75	n/a	3	n/a	n/a	n/a	n/a	169.678	n/a
140.418	0.497	angry	Picture	82.725	n/a	2	4	16	n/a	76	88	3	n/a	n/a	n/a	n/a	170.209	AF14ANS.jpg
140.915	0.514	Blank	Blank	82.211	n/a	2	4	16	n/a	76	n/a	3	n/a	n/a	n/a	n/a	170.706	n/a
141.446	0.497	angry	Picture	81.697	n/a	2	4	17	n/a	77	93	3	n/a	n/a	n/a	n/a	171.237	BF22ANS.jpg
141.943	0.514	Blank	Blank	81.183	n/a	2	4	17	n/a	77	n/a	3	n/a	n/a	n/a	n/a	171.734	n/a
142.474	0.497	angry	Picture	80.669	n/a	2	4	18	n/a	78	86	3	n/a	n/a	n/a	n/a	172.264	AF09ANS.jpg
142.971	0.514	Blank	Blank	80.155	n/a	2	4	18	n/a	78	n/a	3	n/a	n/a	n/a	n/a	172.762	n/a
143.501	0.497	angry	Picture	79.642	n/a	2	4	19	n/a	79	92	3	n/a	n/a	n/a	n/a	173.292	AF21ANS.jpg
143.999	0.514	Blank	Blank	79.128	n/a	2	4	19	n/a	79	n/a	3	n/a	n/a	n/a	n/a	173.79	n/a
144.529	0.497	angry	Picture	78.614	n/a	2	4	20	n/a	80	84	3	n/a	n/a	n/a	n/a	174.32	AF05ANS.jpg
145.027	0.514	Blank	Blank	78.1	n/a	2	4	20	n/a	80	n/a	3	n/a	n/a	n/a	n/a	174.817	n/a
145.557	10.014	ITI	Fixation+	68.07	n/a	2	n/a	n/a	n/a	n/a	n/a	n/a	n/a	n/a	n/a	n/a	175.348	n/a
155.587	0.497	neutral	Picture	67.556	n/a	2	5	1	n/a	81	4	1	n/a	n/a	n/a	n/a	185.378	AF05NES.jpg
156.085	0.514	Blank	Blank	67.042	n/a	2	5	1	n/a	81	n/a	1	n/a	n/a	n/a	n/a	185.875	n/a
156.615	0.497	neutral	Picture	66.528	n/a	2	5	2	n/a	82	14	1	n/a	n/a	n/a	n/a	186.406	AF23NES.jpg
157.113	0.514	Blank	Blank	66.014	n/a	2	5	2	n/a	82	n/a	1	n/a	n/a	n/a	n/a	186.903	n/a
157.643	0.497	neutral	Picture	65.5	n/a	2	5	3	n/a	83	19	1	n/a	n/a	n/a	n/a	187.434	AF31NES.jpg
158.14	0.514	Blank	Blank	64.986	n/a	2	5	3	n/a	83	n/a	1	n/a	n/a	n/a	n/a	187.931	n/a
158.671	0.497	neutral	Picture	64.472	n/a	2	5	4	n/a	84	8	1	n/a	n/a	n/a	n/a	188.462	AF14NES.jpg
159.168	0.514	Blank	Blank	63.958	n/a	2	5	4	n/a	84	n/a	1	n/a	n/a	n/a	n/a	188.959	n/a
159.699	0.497	neutral	Picture	63.444	n/a	2	5	5	n/a	85	25	1	n/a	n/a	n/a	n/a	189.49	BM06NES.jpg
160.196	0.514	Blank	Blank	62.93	n/a	2	5	5	n/a	85	n/a	1	n/a	n/a	n/a	n/a	189.987	n/a
160.727	0.497	neutral	Picture	62.416	n/a	2	5	6	n/a	86	9	1	n/a	n/a	n/a	n/a	190.518	AF17NES.jpg
161.224	0.514	Blank	Blank	61.902	n/a	2	5	6	n/a	86	n/a	1	n/a	n/a	n/a	n/a	191.015	n/a
161.755	0.497	neutral	Picture	61.388	n/a	2	5	7	n/a	87	2	1	n/a	n/a	n/a	n/a	191.546	AF03NES.jpg
162.252	0.514	Blank	Blank	60.874	n/a	2	5	7	n/a	87	n/a	1	n/a	n/a	n/a	n/a	192.043	n/a
162.782	0.497	neutral	Picture	60.361	n/a	2	5	8	n/a	88	17	1	n/a	n/a	n/a	n/a	192.573	BF28NES.jpg
163.28	0.514	Blank	Blank	59.846	n/a	2	5	8	n/a	88	n/a	1	n/a	n/a	n/a	n/a	193.071	n/a
163.81	0.497	neutral	Picture	59.333	n/a	2	5	9	n/a	89	6	1	n/a	n/a	n/a	n/a	193.601	AF09NES.jpg
164.308	0.514	Blank	Blank	58.819	n/a	2	5	9	n/a	89	n/a	1	n/a	n/a	n/a	n/a	194.099	n/a
164.838	0.497	neutral	Picture	58.305	n/a	2	5	10	n/a	90	12	1	n/a	n/a	n/a	n/a	194.629	AF21NES.jpg
165.336	0.514	Blank	Blank	57.791	n/a	2	5	10	n/a	90	n/a	1	n/a	n/a	n/a	n/a	195.126	n/a
165.866	0.497	neutral	Picture	57.277	n/a	2	5	11	n/a	91	24	1	n/a	n/a	n/a	n/a	195.657	BM05NES.jpg
166.364	0.514	Blank	Blank	56.763	n/a	2	5	11	n/a	91	n/a	1	n/a	n/a	n/a	n/a	196.154	n/a
166.894	0.497	neutral	Picture	56.249	n/a	2	5	12	n/a	92	34	1	n/a	n/a	n/a	n/a	196.685	AM22NES.jpg
167.391	0.514	Blank	Blank	55.735	n/a	2	5	12	n/a	92	n/a	1	n/a	n/a	n/a	n/a	197.182	n/a
167.922	0.497	neutral	Picture	55.221	n/a	2	5	13	n/a	93	23	1	n/a	n/a	n/a	n/a	197.713	AM04NES.jpg
168.419	0.514	Blank	Blank	54.707	n/a	2	5	13	n/a	93	n/a	1	n/a	n/a	n/a	n/a	198.21	n/a
168.95	0.497	neutral	Picture	54.193	n/a	2	5	14	n/a	94	15	1	n/a	n/a	n/a	n/a	198.741	AF25NES.jpg
169.447	0.514	Blank	Blank	53.679	n/a	2	5	14	n/a	94	n/a	1	n/a	n/a	n/a	n/a	199.238	n/a
169.978	0.497	neutral	Picture	53.165	n/a	2	5	15	n/a	95	37	1	n/a	n/a	n/a	n/a	199.768	BM25NES.jpg
170.475	0.514	Blank	Blank	52.651	n/a	2	5	15	n/a	95	n/a	1	n/a	n/a	n/a	n/a	200.266	n/a
171.006	0.497	neutral	Picture	52.137	n/a	2	5	16	n/a	96	32	1	n/a	n/a	n/a	n/a	200.796	AM14NES.jpg
171.503	0.514	Blank	Blank	51.623	n/a	2	5	16	n/a	96	n/a	1	n/a	n/a	n/a	n/a	201.294	n/a
172.033	0.497	neutral	Picture	51.109	n/a	2	5	17	n/a	97	3	1	n/a	n/a	n/a	n/a	201.824	BF04NES.jpg
172.531	0.514	Blank	Blank	50.596	n/a	2	5	17	n/a	97	n/a	1	n/a	n/a	n/a	n/a	202.322	n/a
173.061	0.497	neutral	Picture	50.082	n/a	2	5	18	n/a	98	16	1	n/a	n/a	n/a	n/a	202.852	AF26NES.jpg
173.559	0.514	Blank	Blank	49.568	n/a	2	5	18	n/a	98	n/a	1	n/a	n/a	n/a	n/a	203.35	n/a
174.089	0.497	neutral	Picture	49.054	n/a	2	5	19	n/a	99	27	1	n/a	n/a	n/a	n/a	203.88	BM08NES.jpg
174.587	0.514	Blank	Blank	48.54	n/a	2	5	19	n/a	99	n/a	1	n/a	n/a	n/a	n/a	204.377	n/a
175.117	0.497	neutral	Picture	48.026	n/a	2	5	20	n/a	100	28	1	n/a	n/a	n/a	n/a	204.908	AM09NES.jpg
175.614	0.514	Blank	Blank	47.512	n/a	2	5	20	n/a	100	n/a	1	n/a	n/a	n/a	n/a	205.405	n/a
176.145	10.014	ITI	Fixation+	37.482	n/a	2	n/a	n/a	n/a	n/a	n/a	n/a	n/a	n/a	n/a	n/a	205.936	n/a
186.175	0.497	angry	Picture	36.968	n/a	2	6	1	n/a	101	81	3	n/a	n/a	n/a	n/a	215.966	AF01ANS.jpg
186.672	0.514	Blank	Blank	36.454	n/a	2	6	1	n/a	101	n/a	3	n/a	n/a	n/a	n/a	216.463	n/a
187.203	0.497	angry	Picture	35.94	n/a	2	6	2	n/a	102	120	3	n/a	n/a	n/a	n/a	216.994	AM35ANS.jpg
187.7	0.514	Blank	Blank	35.426	n/a	2	6	2	n/a	102	n/a	3	n/a	n/a	n/a	n/a	217.491	n/a
188.231	0.497	angry	Picture	34.912	n/a	2	6	3	n/a	103	114	3	n/a	n/a	n/a	n/a	218.022	AM22ANS.jpg
188.728	0.514	Blank	Blank	34.398	n/a	2	6	3	n/a	103	n/a	3	n/a	n/a	n/a	n/a	218.519	n/a
189.259	0.497	angry	Picture	33.884	n/a	2	6	4	n/a	104	109	3	n/a	n/a	n/a	n/a	219.05	AM10ANS.jpg
189.756	0.514	Blank	Blank	33.37	n/a	2	6	4	n/a	104	n/a	3	n/a	n/a	n/a	n/a	219.547	n/a
190.287	0.497	angry	Picture	32.856	n/a	2	6	5	n/a	105	96	3	n/a	n/a	n/a	n/a	220.077	AF26ANS.jpg
190.784	0.514	Blank	Blank	32.342	n/a	2	6	5	n/a	105	n/a	3	n/a	n/a	n/a	n/a	220.575	n/a
191.315	0.497	angry	Picture	31.828	n/a	2	6	6	n/a	106	82	3	n/a	n/a	n/a	n/a	221.105	AF03ANS.jpg
191.812	0.514	Blank	Blank	31.314	n/a	2	6	6	n/a	106	n/a	3	n/a	n/a	n/a	n/a	221.603	n/a
192.342	0.497	angry	Picture	30.801	n/a	2	6	7	n/a	107	97	3	n/a	n/a	n/a	n/a	222.133	BF28ANS.jpg
192.84	0.514	Blank	Blank	30.287	n/a	2	6	7	n/a	107	n/a	3	n/a	n/a	n/a	n/a	222.631	n/a
193.37	0.497	angry	Picture	29.773	n/a	2	6	8	n/a	108	115	3	n/a	n/a	n/a	n/a	223.161	AM23ANS.jpg
193.868	0.514	Blank	Blank	29.259	n/a	2	6	8	n/a	108	n/a	3	n/a	n/a	n/a	n/a	223.659	n/a
194.398	0.497	angry	Picture	28.745	n/a	2	6	9	n/a	109	91	3	n/a	n/a	n/a	n/a	224.189	AF20ANS.jpg
194.895	0.514	Blank	Blank	28.231	n/a	2	6	9	n/a	109	n/a	3	n/a	n/a	n/a	n/a	224.686	n/a
195.426	0.497	angry	Picture	27.717	n/a	2	6	10	n/a	110	87	3	n/a	n/a	n/a	n/a	225.217	BF11ANS.jpg
195.923	0.514	Blank	Blank	27.203	n/a	2	6	10	n/a	110	n/a	3	n/a	n/a	n/a	n/a	225.714	n/a
196.454	0.497	angry	Picture	26.689	n/a	2	6	11	n/a	111	85	3	n/a	n/a	n/a	n/a	226.245	BF07ANS.jpg
196.951	0.514	Blank	Blank	26.175	n/a	2	6	11	n/a	111	n/a	3	n/a	n/a	n/a	n/a	226.742	n/a
197.482	0.497	angry	Picture	25.661	n/a	2	6	12	n/a	112	110	3	n/a	n/a	n/a	n/a	227.273	AM11ANS.jpg
197.979	0.514	Blank	Blank	25.147	n/a	2	6	12	n/a	112	n/a	3	n/a	n/a	n/a	n/a	227.77	n/a
198.51	0.497	angry	Picture	24.633	n/a	2	6	13	n/a	113	111	3	n/a	n/a	n/a	n/a	228.301	BM12ANS.jpg
199.007	0.514	Blank	Blank	24.119	n/a	2	6	13	n/a	113	n/a	3	n/a	n/a	n/a	n/a	228.798	n/a
199.537	0.497	angry	Picture	23.605	n/a	2	6	14	n/a	114	103	3	n/a	n/a	n/a	n/a	229.328	AM04ANS.jpg
200.035	0.514	Blank	Blank	23.091	n/a	2	6	14	n/a	114	n/a	3	n/a	n/a	n/a	n/a	229.826	n/a
200.565	0.497	angry	Picture	22.577	n/a	2	6	15	n/a	115	101	3	n/a	n/a	n/a	n/a	230.356	AM01ANS.jpg
201.063	0.514	Blank	Blank	22.064	n/a	2	6	15	n/a	115	n/a	3	n/a	n/a	n/a	n/a	230.854	n/a
201.593	0.497	angry	Picture	21.55	n/a	2	6	16	n/a	116	104	3	n/a	n/a	n/a	n/a	231.384	BM05ANS.jpg
202.091	0.514	Blank	Blank	21.036	n/a	2	6	16	n/a	116	n/a	3	n/a	n/a	n/a	n/a	231.882	n/a
202.621	0.497	angry	Picture	20.522	n/a	2	6	17	n/a	117	107	3	n/a	n/a	n/a	n/a	232.412	BM08ANS.jpg
203.119	0.514	Blank	Blank	20.008	n/a	2	6	17	n/a	117	n/a	3	n/a	n/a	n/a	n/a	232.909	n/a
203.649	0.497	angry	Picture	19.494	n/a	2	6	18	n/a	118	98	3	n/a	n/a	n/a	n/a	233.44	BF29ANS.jpg
204.146	0.514	Blank	Blank	18.98	n/a	2	6	18	n/a	118	n/a	3	n/a	n/a	n/a	n/a	233.937	n/a
204.677	0.497	angry	Picture	18.466	n/a	2	6	19	n/a	119	99	3	n/a	n/a	n/a	n/a	234.468	AF31ANS.jpg
205.174	0.514	Blank	Blank	17.952	n/a	2	6	19	n/a	119	n/a	3	n/a	n/a	n/a	n/a	234.965	n/a
205.705	0.497	angry	Picture	17.438	n/a	2	6	20	n/a	120	108	3	n/a	n/a	n/a	n/a	235.496	AM09ANS.jpg
206.202	0.514	Blank	Blank	16.924	n/a	2	6	20	n/a	120	n/a	3	n/a	n/a	n/a	n/a	235.993	n/a
206.733	10.014	ITI	Fixation+	6.894	n/a	2	n/a	n/a	n/a	n/a	n/a	n/a	n/a	n/a	n/a	n/a	236.524	n/a
223.64	n/a	ConfirmRating	Rate	n/a	6.88	2	n/a	n/a	0	n/a	n/a	n/a	2	Angry	32	49	253.431	n/a
229.159	n/a	ConfirmRating	Rate	n/a	5.504	2	n/a	n/a	1	n/a	n/a	n/a	3	Angry	59	51	258.95	n/a
229.18	15.004	Rest	Picture	n/a	n/a	n/a	n/a	n/a	n/a	n/a	n/a	n/a	0	n/a	0	0	258.971	n/a
244.201	10.014	ITI	Fixation+	96.494	n/a	3	n/a	n/a	n/a	n/a	n/a	n/a	n/a	n/a	n/a	n/a	273.992	n/a
254.231	0.497	happy	Picture	95.98	n/a	3	7	1	n/a	1	46	2	n/a	n/a	n/a	n/a	284.022	AF09HAS.jpg
254.728	0.514	Blank	Blank	95.466	n/a	3	7	1	n/a	1	n/a	2	n/a	n/a	n/a	n/a	284.519	n/a
255.259	0.497	happy	Picture	94.952	n/a	3	7	2	n/a	2	69	2	n/a	n/a	n/a	n/a	285.05	AM10HAS.jpg
255.756	0.514	Blank	Blank	94.438	n/a	3	7	2	n/a	2	n/a	2	n/a	n/a	n/a	n/a	285.547	n/a
256.287	0.497	happy	Picture	93.924	n/a	3	7	3	n/a	3	71	2	n/a	n/a	n/a	n/a	286.077	BM12HAS.jpg
256.784	0.514	Blank	Blank	93.41	n/a	3	7	3	n/a	3	n/a	2	n/a	n/a	n/a	n/a	286.575	n/a
257.314	0.497	happy	Picture	92.896	n/a	3	7	4	n/a	4	51	2	n/a	n/a	n/a	n/a	287.105	AF20HAS.jpg
257.812	0.514	Blank	Blank	92.382	n/a	3	7	4	n/a	4	n/a	2	n/a	n/a	n/a	n/a	287.603	n/a
258.342	0.497	happy	Picture	91.868	n/a	3	7	5	n/a	5	67	2	n/a	n/a	n/a	n/a	288.133	BM08HAS.jpg
258.84	0.514	Blank	Blank	91.354	n/a	3	7	5	n/a	5	n/a	2	n/a	n/a	n/a	n/a	288.631	n/a
259.37	0.497	happy	Picture	90.84	n/a	3	7	6	n/a	6	60	2	n/a	n/a	n/a	n/a	289.161	AF32HAS.jpg
259.868	0.514	Blank	Blank	90.326	n/a	3	7	6	n/a	6	n/a	2	n/a	n/a	n/a	n/a	289.659	n/a
260.398	0.497	happy	Picture	89.812	n/a	3	7	7	n/a	7	42	2	n/a	n/a	n/a	n/a	290.189	AF03HAS.jpg
260.895	0.514	Blank	Blank	89.299	n/a	3	7	7	n/a	7	n/a	2	n/a	n/a	n/a	n/a	290.686	n/a
261.426	0.497	happy	Picture	88.784	n/a	3	7	8	n/a	8	55	2	n/a	n/a	n/a	n/a	291.217	AF25HAS.jpg
261.923	0.514	Blank	Blank	88.271	n/a	3	7	8	n/a	8	n/a	2	n/a	n/a	n/a	n/a	291.714	n/a
262.454	0.497	happy	Picture	87.757	n/a	3	7	9	n/a	9	72	2	n/a	n/a	n/a	n/a	292.245	AM14HAS.jpg
262.951	0.514	Blank	Blank	87.243	n/a	3	7	9	n/a	9	n/a	2	n/a	n/a	n/a	n/a	292.742	n/a
263.482	0.497	happy	Picture	86.729	n/a	3	7	10	n/a	10	63	2	n/a	n/a	n/a	n/a	293.273	AM04HAS.jpg
263.979	0.514	Blank	Blank	86.215	n/a	3	7	10	n/a	10	n/a	2	n/a	n/a	n/a	n/a	293.77	n/a
264.51	0.497	happy	Picture	85.701	n/a	3	7	11	n/a	11	58	2	n/a	n/a	n/a	n/a	294.3	BF29HAS.jpg
265.007	0.514	Blank	Blank	85.187	n/a	3	7	11	n/a	11	n/a	2	n/a	n/a	n/a	n/a	294.798	n/a
265.537	0.497	happy	Picture	84.673	n/a	3	7	12	n/a	12	48	2	n/a	n/a	n/a	n/a	295.328	AF14HAS.jpg
266.035	0.514	Blank	Blank	84.159	n/a	3	7	12	n/a	12	n/a	2	n/a	n/a	n/a	n/a	295.826	n/a
266.565	0.497	happy	Picture	83.645	n/a	3	7	13	n/a	13	66	2	n/a	n/a	n/a	n/a	296.356	BM07HAS.jpg
267.063	0.514	Blank	Blank	83.131	n/a	3	7	13	n/a	13	n/a	2	n/a	n/a	n/a	n/a	296.854	n/a
267.593	0.497	happy	Picture	82.617	n/a	3	7	14	n/a	14	70	2	n/a	n/a	n/a	n/a	297.384	BM11HAS.jpg
268.091	0.514	Blank	Blank	82.103	n/a	3	7	14	n/a	14	n/a	2	n/a	n/a	n/a	n/a	297.882	n/a
268.621	0.497	happy	Picture	81.589	n/a	3	7	15	n/a	15	43	2	n/a	n/a	n/a	n/a	298.412	BF04HAS.jpg
269.118	0.514	Blank	Blank	81.075	n/a	3	7	15	n/a	15	n/a	2	n/a	n/a	n/a	n/a	298.909	n/a
269.649	0.497	happy	Picture	80.561	n/a	3	7	16	n/a	16	49	2	n/a	n/a	n/a	n/a	299.44	AF17HAS.jpg
270.146	0.514	Blank	Blank	80.048	n/a	3	7	16	n/a	16	n/a	2	n/a	n/a	n/a	n/a	299.937	n/a
270.677	0.497	happy	Picture	79.534	n/a	3	7	17	n/a	17	75	2	n/a	n/a	n/a	n/a	300.468	AM23HAS.jpg
271.174	0.514	Blank	Blank	79.02	n/a	3	7	17	n/a	17	n/a	2	n/a	n/a	n/a	n/a	300.965	n/a
271.705	0.497	happy	Picture	78.506	n/a	3	7	18	n/a	18	80	2	n/a	n/a	n/a	n/a	301.496	BM35HAS.jpg
272.202	0.514	Blank	Blank	77.992	n/a	3	7	18	n/a	18	n/a	2	n/a	n/a	n/a	n/a	301.993	n/a
272.733	0.497	happy	Picture	77.478	n/a	3	7	19	n/a	19	76	2	n/a	n/a	n/a	n/a	302.524	BM24HAS.jpg
273.23	0.514	Blank	Blank	76.964	n/a	3	7	19	n/a	19	n/a	2	n/a	n/a	n/a	n/a	303.021	n/a
273.761	0.497	happy	Picture	76.45	n/a	3	7	20	n/a	20	74	2	n/a	n/a	n/a	n/a	303.551	AM22HAS.jpg
274.258	0.514	Blank	Blank	75.936	n/a	3	7	20	n/a	20	n/a	2	n/a	n/a	n/a	n/a	304.049	n/a
274.788	10.014	ITI	Fixation+	65.906	n/a	3	n/a	n/a	n/a	n/a	n/a	n/a	n/a	n/a	n/a	n/a	304.579	n/a
284.819	0.497	neutral	Picture	65.392	n/a	3	8	1	n/a	21	33	1	n/a	n/a	n/a	n/a	314.61	AM21NES.jpg
285.316	0.514	Blank	Blank	64.878	n/a	3	8	1	n/a	21	n/a	1	n/a	n/a	n/a	n/a	315.107	n/a
285.846	0.497	neutral	Picture	64.364	n/a	3	8	2	n/a	22	39	1	n/a	n/a	n/a	n/a	315.637	AM28NES.jpg
286.344	0.514	Blank	Blank	63.85	n/a	3	8	2	n/a	22	n/a	1	n/a	n/a	n/a	n/a	316.135	n/a
286.874	0.497	neutral	Picture	63.336	n/a	3	8	3	n/a	23	25	1	n/a	n/a	n/a	n/a	316.665	BM06NES.jpg
287.372	0.514	Blank	Blank	62.822	n/a	3	8	3	n/a	23	n/a	1	n/a	n/a	n/a	n/a	317.163	n/a
287.902	0.497	neutral	Picture	62.308	n/a	3	8	4	n/a	24	5	1	n/a	n/a	n/a	n/a	317.693	BF07NES.jpg
288.4	0.514	Blank	Blank	61.794	n/a	3	8	4	n/a	24	n/a	1	n/a	n/a	n/a	n/a	318.19	n/a
288.93	0.497	neutral	Picture	61.28	n/a	3	8	5	n/a	25	10	1	n/a	n/a	n/a	n/a	318.721	AF18NES.jpg
289.427	0.514	Blank	Blank	60.767	n/a	3	8	5	n/a	25	n/a	1	n/a	n/a	n/a	n/a	319.218	n/a
289.958	0.497	neutral	Picture	60.252	n/a	3	8	6	n/a	26	34	1	n/a	n/a	n/a	n/a	319.749	AM22NES.jpg
290.455	0.514	Blank	Blank	59.739	n/a	3	8	6	n/a	26	n/a	1	n/a	n/a	n/a	n/a	320.246	n/a
290.986	0.497	neutral	Picture	59.225	n/a	3	8	7	n/a	27	36	1	n/a	n/a	n/a	n/a	320.777	BM24NES.jpg
291.483	0.514	Blank	Blank	58.711	n/a	3	8	7	n/a	27	n/a	1	n/a	n/a	n/a	n/a	321.274	n/a
292.014	0.497	neutral	Picture	58.197	n/a	3	8	8	n/a	28	14	1	n/a	n/a	n/a	n/a	321.805	AF23NES.jpg
292.511	0.514	Blank	Blank	57.683	n/a	3	8	8	n/a	28	n/a	1	n/a	n/a	n/a	n/a	322.302	n/a
293.042	0.497	neutral	Picture	57.169	n/a	3	8	9	n/a	29	9	1	n/a	n/a	n/a	n/a	322.833	AF17NES.jpg
293.539	0.514	Blank	Blank	56.655	n/a	3	8	9	n/a	29	n/a	1	n/a	n/a	n/a	n/a	323.33	n/a
294.07	0.497	neutral	Picture	56.141	n/a	3	8	10	n/a	30	19	1	n/a	n/a	n/a	n/a	323.86	AF31NES.jpg
294.567	0.514	Blank	Blank	55.627	n/a	3	8	10	n/a	30	n/a	1	n/a	n/a	n/a	n/a	324.358	n/a
295.097	0.497	neutral	Picture	55.113	n/a	3	8	11	n/a	31	15	1	n/a	n/a	n/a	n/a	324.888	AF25NES.jpg
295.595	0.514	Blank	Blank	54.599	n/a	3	8	11	n/a	31	n/a	1	n/a	n/a	n/a	n/a	325.386	n/a
296.125	0.497	neutral	Picture	54.085	n/a	3	8	12	n/a	32	22	1	n/a	n/a	n/a	n/a	325.916	BM03NES.jpg
296.623	0.514	Blank	Blank	53.571	n/a	3	8	12	n/a	32	n/a	1	n/a	n/a	n/a	n/a	326.414	n/a
297.153	0.497	neutral	Picture	53.057	n/a	3	8	13	n/a	33	11	1	n/a	n/a	n/a	n/a	326.944	AF20NES.jpg
297.65	0.514	Blank	Blank	52.543	n/a	3	8	13	n/a	33	n/a	1	n/a	n/a	n/a	n/a	327.441	n/a
298.181	0.497	neutral	Picture	52.03	n/a	3	8	14	n/a	34	4	1	n/a	n/a	n/a	n/a	327.972	AF05NES.jpg
298.678	0.514	Blank	Blank	51.516	n/a	3	8	14	n/a	34	n/a	1	n/a	n/a	n/a	n/a	328.469	n/a
299.209	0.497	neutral	Picture	51.002	n/a	3	8	15	n/a	35	17	1	n/a	n/a	n/a	n/a	329.0	BF28NES.jpg
299.706	0.514	Blank	Blank	50.488	n/a	3	8	15	n/a	35	n/a	1	n/a	n/a	n/a	n/a	329.497	n/a
300.237	0.497	neutral	Picture	49.974	n/a	3	8	16	n/a	36	13	1	n/a	n/a	n/a	n/a	330.028	BF22NES.jpg
300.734	0.514	Blank	Blank	49.46	n/a	3	8	16	n/a	36	n/a	1	n/a	n/a	n/a	n/a	330.525	n/a
301.265	0.497	neutral	Picture	48.946	n/a	3	8	17	n/a	37	12	1	n/a	n/a	n/a	n/a	331.056	AF21NES.jpg
301.762	0.514	Blank	Blank	48.432	n/a	3	8	17	n/a	37	n/a	1	n/a	n/a	n/a	n/a	331.553	n/a
302.293	0.497	neutral	Picture	47.918	n/a	3	8	18	n/a	38	24	1	n/a	n/a	n/a	n/a	332.084	BM05NES.jpg
302.79	0.514	Blank	Blank	47.404	n/a	3	8	18	n/a	38	n/a	1	n/a	n/a	n/a	n/a	332.581	n/a
303.32	0.497	neutral	Picture	46.89	n/a	3	8	19	n/a	39	29	1	n/a	n/a	n/a	n/a	333.111	AM10NES.jpg
303.818	0.514	Blank	Blank	46.376	n/a	3	8	19	n/a	39	n/a	1	n/a	n/a	n/a	n/a	333.609	n/a
304.348	0.497	neutral	Picture	45.862	n/a	3	8	20	n/a	40	23	1	n/a	n/a	n/a	n/a	334.139	AM04NES.jpg
304.846	0.514	Blank	Blank	45.348	n/a	3	8	20	n/a	40	n/a	1	n/a	n/a	n/a	n/a	334.637	n/a
305.376	10.014	ITI	Fixation+	35.318	n/a	3	n/a	n/a	n/a	n/a	n/a	n/a	n/a	n/a	n/a	n/a	335.167	n/a
315.406	0.497	happy	Picture	34.804	n/a	3	9	1	n/a	41	62	2	n/a	n/a	n/a	n/a	345.197	BM03HAS.jpg
315.904	0.514	Blank	Blank	34.29	n/a	3	9	1	n/a	41	n/a	2	n/a	n/a	n/a	n/a	345.695	n/a
316.434	0.497	happy	Picture	33.776	n/a	3	9	2	n/a	42	52	2	n/a	n/a	n/a	n/a	346.225	AF21HAS.jpg
316.932	0.514	Blank	Blank	33.262	n/a	3	9	2	n/a	42	n/a	2	n/a	n/a	n/a	n/a	346.723	n/a
317.462	0.497	happy	Picture	32.748	n/a	3	9	3	n/a	43	44	2	n/a	n/a	n/a	n/a	347.253	AF05HAS.jpg
317.959	0.514	Blank	Blank	32.235	n/a	3	9	3	n/a	43	n/a	2	n/a	n/a	n/a	n/a	347.75	n/a
318.49	0.497	happy	Picture	31.721	n/a	3	9	4	n/a	44	53	2	n/a	n/a	n/a	n/a	348.281	BF22HAS.jpg
318.987	0.514	Blank	Blank	31.207	n/a	3	9	4	n/a	44	n/a	2	n/a	n/a	n/a	n/a	348.778	n/a
319.518	0.497	happy	Picture	30.693	n/a	3	9	5	n/a	45	54	2	n/a	n/a	n/a	n/a	349.309	AF23HAS.jpg
320.015	0.514	Blank	Blank	30.179	n/a	3	9	5	n/a	45	n/a	2	n/a	n/a	n/a	n/a	349.806	n/a
320.546	0.497	happy	Picture	29.665	n/a	3	9	6	n/a	46	68	2	n/a	n/a	n/a	n/a	350.337	AM09HAS.jpg
321.043	0.514	Blank	Blank	29.151	n/a	3	9	6	n/a	46	n/a	2	n/a	n/a	n/a	n/a	350.834	n/a
321.574	0.497	happy	Picture	28.637	n/a	3	9	7	n/a	47	64	2	n/a	n/a	n/a	n/a	351.365	BM05HAS.jpg
322.071	0.514	Blank	Blank	28.123	n/a	3	9	7	n/a	47	n/a	2	n/a	n/a	n/a	n/a	351.862	n/a
322.602	0.497	happy	Picture	27.609	n/a	3	9	8	n/a	48	59	2	n/a	n/a	n/a	n/a	352.392	AF31HAS.jpg
323.099	0.514	Blank	Blank	27.095	n/a	3	9	8	n/a	48	n/a	2	n/a	n/a	n/a	n/a	352.89	n/a
323.629	0.497	happy	Picture	26.581	n/a	3	9	9	n/a	49	41	2	n/a	n/a	n/a	n/a	353.42	AF01HAS.jpg
324.127	0.514	Blank	Blank	26.067	n/a	3	9	9	n/a	49	n/a	2	n/a	n/a	n/a	n/a	353.918	n/a
324.657	0.497	happy	Picture	25.553	n/a	3	9	10	n/a	50	73	2	n/a	n/a	n/a	n/a	354.448	AM21HAS.jpg
325.155	0.514	Blank	Blank	25.039	n/a	3	9	10	n/a	50	n/a	2	n/a	n/a	n/a	n/a	354.946	n/a
325.685	0.497	happy	Picture	24.525	n/a	3	9	11	n/a	51	65	2	n/a	n/a	n/a	n/a	355.476	BM06HAS.jpg
326.183	0.514	Blank	Blank	24.011	n/a	3	9	11	n/a	51	n/a	2	n/a	n/a	n/a	n/a	355.974	n/a
326.713	0.497	happy	Picture	23.498	n/a	3	9	12	n/a	52	56	2	n/a	n/a	n/a	n/a	356.504	AF26HAS.jpg
327.21	0.514	Blank	Blank	22.983	n/a	3	9	12	n/a	52	n/a	2	n/a	n/a	n/a	n/a	357.001	n/a
327.741	0.497	happy	Picture	22.47	n/a	3	9	13	n/a	53	45	2	n/a	n/a	n/a	n/a	357.532	BF07HAS.jpg
328.238	0.514	Blank	Blank	21.956	n/a	3	9	13	n/a	53	n/a	2	n/a	n/a	n/a	n/a	358.029	n/a
328.769	0.497	happy	Picture	21.442	n/a	3	9	14	n/a	54	78	2	n/a	n/a	n/a	n/a	358.56	BM26HAS.jpg
329.266	0.514	Blank	Blank	20.928	n/a	3	9	14	n/a	54	n/a	2	n/a	n/a	n/a	n/a	359.057	n/a
329.797	0.497	happy	Picture	20.414	n/a	3	9	15	n/a	55	50	2	n/a	n/a	n/a	n/a	359.588	AF18HAS.jpg
330.294	0.514	Blank	Blank	19.9	n/a	3	9	15	n/a	55	n/a	2	n/a	n/a	n/a	n/a	360.085	n/a
330.825	0.497	happy	Picture	19.386	n/a	3	9	16	n/a	56	47	2	n/a	n/a	n/a	n/a	360.615	BF11HAS.jpg
331.322	0.514	Blank	Blank	18.872	n/a	3	9	16	n/a	56	n/a	2	n/a	n/a	n/a	n/a	361.113	n/a
331.852	0.497	happy	Picture	18.358	n/a	3	9	17	n/a	57	77	2	n/a	n/a	n/a	n/a	361.643	BM25HAS.jpg
332.35	0.514	Blank	Blank	17.844	n/a	3	9	17	n/a	57	n/a	2	n/a	n/a	n/a	n/a	362.141	n/a
332.88	0.497	happy	Picture	17.33	n/a	3	9	18	n/a	58	57	2	n/a	n/a	n/a	n/a	362.671	BF28HAS.jpg
333.378	0.514	Blank	Blank	16.816	n/a	3	9	18	n/a	58	n/a	2	n/a	n/a	n/a	n/a	363.169	n/a
333.908	0.497	happy	Picture	16.302	n/a	3	9	19	n/a	59	61	2	n/a	n/a	n/a	n/a	363.699	AM01HAS.jpg
334.406	0.514	Blank	Blank	15.788	n/a	3	9	19	n/a	59	n/a	2	n/a	n/a	n/a	n/a	364.197	n/a
334.936	0.497	happy	Picture	15.274	n/a	3	9	20	n/a	60	79	2	n/a	n/a	n/a	n/a	364.727	BM28HAS.jpg
335.433	0.514	Blank	Blank	14.761	n/a	3	9	20	n/a	60	n/a	2	n/a	n/a	n/a	n/a	365.224	n/a
335.964	10.014	ITI	Fixation+	4.73	n/a	3	n/a	n/a	n/a	n/a	n/a	n/a	n/a	n/a	n/a	n/a	365.755	n/a
350.708	n/a	ConfirmRating	Rate	n/a	4.725	3	n/a	n/a	0	n/a	n/a	n/a	2	Happy	27	49	380.499	n/a
355.6	n/a	ConfirmRating	Rate	n/a	4.874	3	n/a	n/a	1	n/a	n/a	n/a	3	Happy	50	50	385.391	n/a
355.626	10.014	ITI	Fixation+	95.57	n/a	4	n/a	n/a	n/a	n/a	n/a	n/a	n/a	n/a	n/a	n/a	385.417	n/a
365.657	0.497	angry	Picture	95.056	n/a	4	10	1	n/a	61	119	3	n/a	n/a	n/a	n/a	395.447	BM28ANS.jpg
366.154	0.514	Blank	Blank	94.542	n/a	4	10	1	n/a	61	n/a	3	n/a	n/a	n/a	n/a	395.945	n/a
366.684	0.497	angry	Picture	94.028	n/a	4	10	2	n/a	62	100	3	n/a	n/a	n/a	n/a	396.475	AF32ANS.jpg
367.182	0.514	Blank	Blank	93.514	n/a	4	10	2	n/a	62	n/a	3	n/a	n/a	n/a	n/a	396.973	n/a
367.712	0.497	angry	Picture	93.0	n/a	4	10	3	n/a	63	118	3	n/a	n/a	n/a	n/a	397.503	BM26ANS.jpg
368.21	0.514	Blank	Blank	92.486	n/a	4	10	3	n/a	63	n/a	3	n/a	n/a	n/a	n/a	398.001	n/a
368.74	0.497	angry	Picture	91.972	n/a	4	10	4	n/a	64	89	3	n/a	n/a	n/a	n/a	398.531	AF17ANS.jpg
369.238	0.514	Blank	Blank	91.458	n/a	4	10	4	n/a	64	n/a	3	n/a	n/a	n/a	n/a	399.029	n/a
369.768	0.497	angry	Picture	90.944	n/a	4	10	5	n/a	65	116	3	n/a	n/a	n/a	n/a	399.559	BM24ANS.jpg
370.265	0.514	Blank	Blank	90.431	n/a	4	10	5	n/a	65	n/a	3	n/a	n/a	n/a	n/a	400.056	n/a
370.796	0.497	angry	Picture	89.917	n/a	4	10	6	n/a	66	105	3	n/a	n/a	n/a	n/a	400.587	BM06ANS.jpg
371.293	0.514	Blank	Blank	89.403	n/a	4	10	6	n/a	66	n/a	3	n/a	n/a	n/a	n/a	401.084	n/a
371.824	0.497	angry	Picture	88.889	n/a	4	10	7	n/a	67	106	3	n/a	n/a	n/a	n/a	401.615	AM07ANS.jpg
372.321	0.514	Blank	Blank	88.375	n/a	4	10	7	n/a	67	n/a	3	n/a	n/a	n/a	n/a	402.112	n/a
372.852	0.497	angry	Picture	87.861	n/a	4	10	8	n/a	68	94	3	n/a	n/a	n/a	n/a	402.643	AF23ANS.jpg
373.349	0.514	Blank	Blank	87.347	n/a	4	10	8	n/a	68	n/a	3	n/a	n/a	n/a	n/a	403.14	n/a
373.88	0.497	angry	Picture	86.833	n/a	4	10	9	n/a	69	117	3	n/a	n/a	n/a	n/a	403.671	BM25ANS.jpg
374.377	0.514	Blank	Blank	86.319	n/a	4	10	9	n/a	69	n/a	3	n/a	n/a	n/a	n/a	404.168	n/a
374.907	0.497	angry	Picture	85.805	n/a	4	10	10	n/a	70	90	3	n/a	n/a	n/a	n/a	404.698	AF18ANS.jpg
375.405	0.514	Blank	Blank	85.291	n/a	4	10	10	n/a	70	n/a	3	n/a	n/a	n/a	n/a	405.196	n/a
375.935	0.497	angry	Picture	84.777	n/a	4	10	11	n/a	71	83	3	n/a	n/a	n/a	n/a	405.726	BF04ANS.jpg
376.433	0.514	Blank	Blank	84.263	n/a	4	10	11	n/a	71	n/a	3	n/a	n/a	n/a	n/a	406.224	n/a
376.963	0.497	angry	Picture	83.749	n/a	4	10	12	n/a	72	112	3	n/a	n/a	n/a	n/a	406.754	AM14ANS.jpg
377.461	0.514	Blank	Blank	83.235	n/a	4	10	12	n/a	72	n/a	3	n/a	n/a	n/a	n/a	407.252	n/a
377.991	0.497	angry	Picture	82.721	n/a	4	10	13	n/a	73	102	3	n/a	n/a	n/a	n/a	407.782	BM03ANS.jpg
378.488	0.514	Blank	Blank	82.208	n/a	4	10	13	n/a	73	n/a	3	n/a	n/a	n/a	n/a	408.279	n/a
379.019	0.497	angry	Picture	81.693	n/a	4	10	14	n/a	74	95	3	n/a	n/a	n/a	n/a	408.81	AF25ANS.jpg
379.516	0.514	Blank	Blank	81.18	n/a	4	10	14	n/a	74	n/a	3	n/a	n/a	n/a	n/a	409.307	n/a
380.047	0.497	angry	Picture	80.666	n/a	4	10	15	n/a	75	113	3	n/a	n/a	n/a	n/a	409.838	AM21ANS.jpg
380.544	0.514	Blank	Blank	80.152	n/a	4	10	15	n/a	75	n/a	3	n/a	n/a	n/a	n/a	410.335	n/a
381.075	0.497	angry	Picture	79.638	n/a	4	10	16	n/a	76	88	3	n/a	n/a	n/a	n/a	410.866	AF14ANS.jpg
381.572	0.514	Blank	Blank	79.124	n/a	4	10	16	n/a	76	n/a	3	n/a	n/a	n/a	n/a	411.363	n/a
382.103	0.497	angry	Picture	78.61	n/a	4	10	17	n/a	77	93	3	n/a	n/a	n/a	n/a	411.894	BF22ANS.jpg
382.6	0.514	Blank	Blank	78.096	n/a	4	10	17	n/a	77	n/a	3	n/a	n/a	n/a	n/a	412.391	n/a
383.131	0.497	angry	Picture	77.582	n/a	4	10	18	n/a	78	86	3	n/a	n/a	n/a	n/a	412.921	AF09ANS.jpg
383.628	0.514	Blank	Blank	77.068	n/a	4	10	18	n/a	78	n/a	3	n/a	n/a	n/a	n/a	413.419	n/a
384.158	0.497	angry	Picture	76.554	n/a	4	10	19	n/a	79	92	3	n/a	n/a	n/a	n/a	413.949	AF21ANS.jpg
384.656	0.514	Blank	Blank	76.04	n/a	4	10	19	n/a	79	n/a	3	n/a	n/a	n/a	n/a	414.447	n/a
385.186	0.497	angry	Picture	75.526	n/a	4	10	20	n/a	80	84	3	n/a	n/a	n/a	n/a	414.977	AF05ANS.jpg
385.684	0.514	Blank	Blank	75.012	n/a	4	10	20	n/a	80	n/a	3	n/a	n/a	n/a	n/a	415.475	n/a
386.214	10.014	ITI	Fixation+	64.982	n/a	4	n/a	n/a	n/a	n/a	n/a	n/a	n/a	n/a	n/a	n/a	416.005	n/a
396.244	0.497	neutral	Picture	64.468	n/a	4	11	1	n/a	81	4	1	n/a	n/a	n/a	n/a	426.035	AF05NES.jpg
396.742	0.514	Blank	Blank	63.954	n/a	4	11	1	n/a	81	n/a	1	n/a	n/a	n/a	n/a	426.533	n/a
397.272	0.497	neutral	Picture	63.44	n/a	4	11	2	n/a	82	14	1	n/a	n/a	n/a	n/a	427.063	AF23NES.jpg
397.77	0.514	Blank	Blank	62.926	n/a	4	11	2	n/a	82	n/a	1	n/a	n/a	n/a	n/a	427.56	n/a
398.3	0.497	neutral	Picture	62.412	n/a	4	11	3	n/a	83	19	1	n/a	n/a	n/a	n/a	428.091	AF31NES.jpg
398.797	0.514	Blank	Blank	61.899	n/a	4	11	3	n/a	83	n/a	1	n/a	n/a	n/a	n/a	428.588	n/a
399.328	0.497	neutral	Picture	61.385	n/a	4	11	4	n/a	84	8	1	n/a	n/a	n/a	n/a	429.119	AF14NES.jpg
399.825	0.514	Blank	Blank	60.871	n/a	4	11	4	n/a	84	n/a	1	n/a	n/a	n/a	n/a	429.616	n/a
400.356	0.497	neutral	Picture	60.357	n/a	4	11	5	n/a	85	25	1	n/a	n/a	n/a	n/a	430.147	BM06NES.jpg
400.853	0.514	Blank	Blank	59.843	n/a	4	11	5	n/a	85	n/a	1	n/a	n/a	n/a	n/a	430.644	n/a
401.384	0.497	neutral	Picture	59.329	n/a	4	11	6	n/a	86	9	1	n/a	n/a	n/a	n/a	431.175	AF17NES.jpg
401.881	0.514	Blank	Blank	58.815	n/a	4	11	6	n/a	86	n/a	1	n/a	n/a	n/a	n/a	431.672	n/a
402.412	0.497	neutral	Picture	58.301	n/a	4	11	7	n/a	87	2	1	n/a	n/a	n/a	n/a	432.202	AF03NES.jpg
402.909	0.514	Blank	Blank	57.787	n/a	4	11	7	n/a	87	n/a	1	n/a	n/a	n/a	n/a	432.7	n/a
403.439	0.497	neutral	Picture	57.273	n/a	4	11	8	n/a	88	17	1	n/a	n/a	n/a	n/a	433.23	BF28NES.jpg
403.937	0.514	Blank	Blank	56.759	n/a	4	11	8	n/a	88	n/a	1	n/a	n/a	n/a	n/a	433.728	n/a
404.467	0.497	neutral	Picture	56.245	n/a	4	11	9	n/a	89	6	1	n/a	n/a	n/a	n/a	434.258	AF09NES.jpg
404.965	0.514	Blank	Blank	55.731	n/a	4	11	9	n/a	89	n/a	1	n/a	n/a	n/a	n/a	434.756	n/a
405.495	0.497	neutral	Picture	55.217	n/a	4	11	10	n/a	90	12	1	n/a	n/a	n/a	n/a	435.286	AF21NES.jpg
405.993	0.514	Blank	Blank	54.703	n/a	4	11	10	n/a	90	n/a	1	n/a	n/a	n/a	n/a	435.784	n/a
406.523	0.497	neutral	Picture	54.189	n/a	4	11	11	n/a	91	24	1	n/a	n/a	n/a	n/a	436.314	BM05NES.jpg
407.02	0.514	Blank	Blank	53.675	n/a	4	11	11	n/a	91	n/a	1	n/a	n/a	n/a	n/a	436.811	n/a
407.551	0.497	neutral	Picture	53.161	n/a	4	11	12	n/a	92	34	1	n/a	n/a	n/a	n/a	437.342	AM22NES.jpg
408.048	0.514	Blank	Blank	52.648	n/a	4	11	12	n/a	92	n/a	1	n/a	n/a	n/a	n/a	437.839	n/a
408.579	0.497	neutral	Picture	52.134	n/a	4	11	13	n/a	93	23	1	n/a	n/a	n/a	n/a	438.37	AM04NES.jpg
409.076	0.514	Blank	Blank	51.62	n/a	4	11	13	n/a	93	n/a	1	n/a	n/a	n/a	n/a	438.867	n/a
409.607	0.497	neutral	Picture	51.106	n/a	4	11	14	n/a	94	15	1	n/a	n/a	n/a	n/a	439.398	AF25NES.jpg
410.104	0.514	Blank	Blank	50.592	n/a	4	11	14	n/a	94	n/a	1	n/a	n/a	n/a	n/a	439.895	n/a
410.635	0.497	neutral	Picture	50.078	n/a	4	11	15	n/a	95	37	1	n/a	n/a	n/a	n/a	440.426	BM25NES.jpg
411.132	0.514	Blank	Blank	49.564	n/a	4	11	15	n/a	95	n/a	1	n/a	n/a	n/a	n/a	440.923	n/a
411.663	0.497	neutral	Picture	49.05	n/a	4	11	16	n/a	96	32	1	n/a	n/a	n/a	n/a	441.454	AM14NES.jpg
412.16	0.514	Blank	Blank	48.536	n/a	4	11	16	n/a	96	n/a	1	n/a	n/a	n/a	n/a	441.951	n/a
412.69	0.497	neutral	Picture	48.022	n/a	4	11	17	n/a	97	3	1	n/a	n/a	n/a	n/a	442.481	BF04NES.jpg
413.188	0.514	Blank	Blank	47.508	n/a	4	11	17	n/a	97	n/a	1	n/a	n/a	n/a	n/a	442.979	n/a
413.718	0.497	neutral	Picture	46.994	n/a	4	11	18	n/a	98	16	1	n/a	n/a	n/a	n/a	443.509	AF26NES.jpg
414.216	0.514	Blank	Blank	46.48	n/a	4	11	18	n/a	98	n/a	1	n/a	n/a	n/a	n/a	444.007	n/a
414.746	0.497	neutral	Picture	45.966	n/a	4	11	19	n/a	99	27	1	n/a	n/a	n/a	n/a	444.537	BM08NES.jpg
415.244	0.514	Blank	Blank	45.452	n/a	4	11	19	n/a	99	n/a	1	n/a	n/a	n/a	n/a	445.034	n/a
415.774	0.497	neutral	Picture	44.938	n/a	4	11	20	n/a	100	28	1	n/a	n/a	n/a	n/a	445.565	AM09NES.jpg
416.272	0.514	Blank	Blank	44.425	n/a	4	11	20	n/a	100	n/a	1	n/a	n/a	n/a	n/a	446.062	n/a
416.802	10.014	ITI	Fixation+	34.394	n/a	4	n/a	n/a	n/a	n/a	n/a	n/a	n/a	n/a	n/a	n/a	446.593	n/a
426.832	0.497	angry	Picture	33.88	n/a	4	12	1	n/a	101	81	3	n/a	n/a	n/a	n/a	456.623	AF01ANS.jpg
427.329	0.514	Blank	Blank	33.367	n/a	4	12	1	n/a	101	n/a	3	n/a	n/a	n/a	n/a	457.12	n/a
427.86	0.497	angry	Picture	32.853	n/a	4	12	2	n/a	102	120	3	n/a	n/a	n/a	n/a	457.651	AM35ANS.jpg
428.357	0.514	Blank	Blank	32.339	n/a	4	12	2	n/a	102	n/a	3	n/a	n/a	n/a	n/a	458.148	n/a
428.888	0.497	angry	Picture	31.825	n/a	4	12	3	n/a	103	114	3	n/a	n/a	n/a	n/a	458.679	AM22ANS.jpg
429.385	0.514	Blank	Blank	31.311	n/a	4	12	3	n/a	103	n/a	3	n/a	n/a	n/a	n/a	459.176	n/a
429.916	0.497	angry	Picture	30.797	n/a	4	12	4	n/a	104	109	3	n/a	n/a	n/a	n/a	459.707	AM10ANS.jpg
430.413	0.514	Blank	Blank	30.283	n/a	4	12	4	n/a	104	n/a	3	n/a	n/a	n/a	n/a	460.204	n/a
430.944	0.497	angry	Picture	29.769	n/a	4	12	5	n/a	105	96	3	n/a	n/a	n/a	n/a	460.735	AF26ANS.jpg
431.441	0.514	Blank	Blank	29.255	n/a	4	12	5	n/a	105	n/a	3	n/a	n/a	n/a	n/a	461.232	n/a
431.971	0.497	angry	Picture	28.741	n/a	4	12	6	n/a	106	82	3	n/a	n/a	n/a	n/a	461.762	AF03ANS.jpg
432.469	0.514	Blank	Blank	28.227	n/a	4	12	6	n/a	106	n/a	3	n/a	n/a	n/a	n/a	462.26	n/a
432.999	0.497	angry	Picture	27.713	n/a	4	12	7	n/a	107	97	3	n/a	n/a	n/a	n/a	462.79	BF28ANS.jpg
433.497	0.514	Blank	Blank	27.199	n/a	4	12	7	n/a	107	n/a	3	n/a	n/a	n/a	n/a	463.288	n/a
434.027	0.497	angry	Picture	26.685	n/a	4	12	8	n/a	108	115	3	n/a	n/a	n/a	n/a	463.818	AM23ANS.jpg
434.525	0.514	Blank	Blank	26.171	n/a	4	12	8	n/a	108	n/a	3	n/a	n/a	n/a	n/a	464.316	n/a
435.055	0.497	angry	Picture	25.657	n/a	4	12	9	n/a	109	91	3	n/a	n/a	n/a	n/a	464.846	AF20ANS.jpg
435.552	0.514	Blank	Blank	25.143	n/a	4	12	9	n/a	109	n/a	3	n/a	n/a	n/a	n/a	465.343	n/a
436.083	0.497	angry	Picture	24.63	n/a	4	12	10	n/a	110	87	3	n/a	n/a	n/a	n/a	465.874	BF11ANS.jpg
436.58	0.514	Blank	Blank	24.115	n/a	4	12	10	n/a	110	n/a	3	n/a	n/a	n/a	n/a	466.371	n/a
437.111	0.497	angry	Picture	23.602	n/a	4	12	11	n/a	111	85	3	n/a	n/a	n/a	n/a	466.902	BF07ANS.jpg
437.608	0.514	Blank	Blank	23.088	n/a	4	12	11	n/a	111	n/a	3	n/a	n/a	n/a	n/a	467.399	n/a
438.139	0.497	angry	Picture	22.574	n/a	4	12	12	n/a	112	110	3	n/a	n/a	n/a	n/a	467.93	AM11ANS.jpg
438.636	0.514	Blank	Blank	22.06	n/a	4	12	12	n/a	112	n/a	3	n/a	n/a	n/a	n/a	468.427	n/a
439.167	0.497	angry	Picture	21.546	n/a	4	12	13	n/a	113	111	3	n/a	n/a	n/a	n/a	468.958	BM12ANS.jpg
439.664	0.514	Blank	Blank	21.032	n/a	4	12	13	n/a	113	n/a	3	n/a	n/a	n/a	n/a	469.455	n/a
440.195	0.497	angry	Picture	20.518	n/a	4	12	14	n/a	114	103	3	n/a	n/a	n/a	n/a	469.986	AM04ANS.jpg
440.692	0.514	Blank	Blank	20.004	n/a	4	12	14	n/a	114	n/a	3	n/a	n/a	n/a	n/a	470.483	n/a
441.222	0.497	angry	Picture	19.49	n/a	4	12	15	n/a	115	101	3	n/a	n/a	n/a	n/a	471.013	AM01ANS.jpg
441.72	0.514	Blank	Blank	18.976	n/a	4	12	15	n/a	115	n/a	3	n/a	n/a	n/a	n/a	471.511	n/a
442.25	0.497	angry	Picture	18.462	n/a	4	12	16	n/a	116	104	3	n/a	n/a	n/a	n/a	472.041	BM05ANS.jpg
442.748	0.514	Blank	Blank	17.948	n/a	4	12	16	n/a	116	n/a	3	n/a	n/a	n/a	n/a	472.539	n/a
443.278	0.497	angry	Picture	17.434	n/a	4	12	17	n/a	117	107	3	n/a	n/a	n/a	n/a	473.069	BM08ANS.jpg
443.776	0.514	Blank	Blank	16.92	n/a	4	12	17	n/a	117	n/a	3	n/a	n/a	n/a	n/a	473.567	n/a
444.306	0.497	angry	Picture	16.406	n/a	4	12	18	n/a	118	98	3	n/a	n/a	n/a	n/a	474.097	BF29ANS.jpg
444.803	0.514	Blank	Blank	15.893	n/a	4	12	18	n/a	118	n/a	3	n/a	n/a	n/a	n/a	474.594	n/a
445.334	0.497	angry	Picture	15.378	n/a	4	12	19	n/a	119	99	3	n/a	n/a	n/a	n/a	475.125	AF31ANS.jpg
445.831	0.514	Blank	Blank	14.865	n/a	4	12	19	n/a	119	n/a	3	n/a	n/a	n/a	n/a	475.622	n/a
446.362	0.497	angry	Picture	14.351	n/a	4	12	20	n/a	120	108	3	n/a	n/a	n/a	n/a	476.153	AM09ANS.jpg
446.859	0.514	Blank	Blank	13.837	n/a	4	12	20	n/a	120	n/a	3	n/a	n/a	n/a	n/a	476.65	n/a
447.39	10.014	ITI	Fixation+	3.807	n/a	4	n/a	n/a	n/a	n/a	n/a	n/a	n/a	n/a	n/a	n/a	477.181	n/a
461.21	n/a	ConfirmRating	Rate	n/a	3.797	4	n/a	n/a	0	n/a	n/a	n/a	2	Angry	50	50	491.001	n/a
464.489	n/a	ConfirmRating	Rate	n/a	3.265	4	n/a	n/a	1	n/a	n/a	n/a	3	Angry	64	51	494.28	n/a
