onset	duration	trial_type	event_type	time_until_response	response_time	trial_number	block_num_within_trial	image_seq_num_within_block	question_seq_num_within_block	image_seq_num	picture_number	condition	question_type	block_type	rating	rating_computed	onset_uncorrected	KDEV_imagefile
0.004	10.014	ITI	Fixation+	103.954	n/a	1	n/a	n/a	n/a	n/a	n/a	n/a	n/a	n/a	n/a	n/a	30.384	n/a
10.034	0.497	angry	Picture	103.44	n/a	1	1	1	n/a	1	46	2	n/a	n/a	n/a	n/a	40.414	AF09HAS.jpg
10.531	0.514	Blank	Blank	102.926	n/a	1	1	1	n/a	1	n/a	2	n/a	n/a	n/a	n/a	40.911	n/a
11.062	0.497	angry	Picture	102.412	n/a	1	1	2	n/a	2	69	2	n/a	n/a	n/a	n/a	41.442	AM10HAS.jpg
11.559	0.514	Blank	Blank	101.898	n/a	1	1	2	n/a	2	n/a	2	n/a	n/a	n/a	n/a	41.939	n/a
12.09	0.497	angry	Picture	101.384	n/a	1	1	3	n/a	3	71	2	n/a	n/a	n/a	n/a	42.47	BM12HAS.jpg
12.587	0.514	Blank	Blank	100.87	n/a	1	1	3	n/a	3	n/a	2	n/a	n/a	n/a	n/a	42.967	n/a
13.118	0.497	angry	Picture	100.356	n/a	1	1	4	n/a	4	51	2	n/a	n/a	n/a	n/a	43.498	AF20HAS.jpg
13.615	0.514	Blank	Blank	99.842	n/a	1	1	4	n/a	4	n/a	2	n/a	n/a	n/a	n/a	43.995	n/a
14.146	0.497	angry	Picture	99.328	n/a	1	1	5	n/a	5	67	2	n/a	n/a	n/a	n/a	44.525	BM08HAS.jpg
14.643	0.514	Blank	Blank	98.814	n/a	1	1	5	n/a	5	n/a	2	n/a	n/a	n/a	n/a	45.023	n/a
15.173	0.497	angry	Picture	98.3	n/a	1	1	6	n/a	6	60	2	n/a	n/a	n/a	n/a	45.553	AF32HAS.jpg
15.671	0.514	Blank	Blank	97.786	n/a	1	1	6	n/a	6	n/a	2	n/a	n/a	n/a	n/a	46.051	n/a
16.201	0.497	angry	Picture	97.272	n/a	1	1	7	n/a	7	42	2	n/a	n/a	n/a	n/a	46.581	AF03HAS.jpg
16.699	0.514	Blank	Blank	96.759	n/a	1	1	7	n/a	7	n/a	2	n/a	n/a	n/a	n/a	47.078	n/a
17.229	0.497	angry	Picture	96.245	n/a	1	1	8	n/a	8	55	2	n/a	n/a	n/a	n/a	47.609	AF25HAS.jpg
17.727	0.514	Blank	Blank	95.731	n/a	1	1	8	n/a	8	n/a	2	n/a	n/a	n/a	n/a	48.106	n/a
18.257	0.497	angry	Picture	95.217	n/a	1	1	9	n/a	9	72	2	n/a	n/a	n/a	n/a	48.637	AM14HAS.jpg
18.754	0.514	Blank	Blank	94.703	n/a	1	1	9	n/a	9	n/a	2	n/a	n/a	n/a	n/a	49.134	n/a
19.285	0.497	angry	Picture	94.189	n/a	1	1	10	n/a	10	63	2	n/a	n/a	n/a	n/a	49.665	AM04HAS.jpg
19.782	0.514	Blank	Blank	93.675	n/a	1	1	10	n/a	10	n/a	2	n/a	n/a	n/a	n/a	50.162	n/a
20.313	0.497	angry	Picture	93.161	n/a	1	1	11	n/a	11	58	2	n/a	n/a	n/a	n/a	50.693	BF29HAS.jpg
20.81	0.514	Blank	Blank	92.647	n/a	1	1	11	n/a	11	n/a	2	n/a	n/a	n/a	n/a	51.19	n/a
21.341	0.497	angry	Picture	92.133	n/a	1	1	12	n/a	12	48	2	n/a	n/a	n/a	n/a	51.721	AF14HAS.jpg
21.838	0.514	Blank	Blank	91.619	n/a	1	1	12	n/a	12	n/a	2	n/a	n/a	n/a	n/a	52.218	n/a
22.369	0.497	angry	Picture	91.105	n/a	1	1	13	n/a	13	66	2	n/a	n/a	n/a	n/a	52.748	BM07HAS.jpg
22.866	0.514	Blank	Blank	90.591	n/a	1	1	13	n/a	13	n/a	2	n/a	n/a	n/a	n/a	53.246	n/a
23.396	0.497	angry	Picture	90.077	n/a	1	1	14	n/a	14	70	2	n/a	n/a	n/a	n/a	53.776	BM11HAS.jpg
23.894	0.514	Blank	Blank	89.563	n/a	1	1	14	n/a	14	n/a	2	n/a	n/a	n/a	n/a	54.274	n/a
24.424	0.497	angry	Picture	89.049	n/a	1	1	15	n/a	15	43	2	n/a	n/a	n/a	n/a	54.804	BF04HAS.jpg
24.922	0.514	Blank	Blank	88.535	n/a	1	1	15	n/a	15	n/a	2	n/a	n/a	n/a	n/a	55.302	n/a
25.452	0.497	angry	Picture	88.022	n/a	1	1	16	n/a	16	49	2	n/a	n/a	n/a	n/a	55.832	AF17HAS.jpg
25.95	0.514	Blank	Blank	87.508	n/a	1	1	16	n/a	16	n/a	2	n/a	n/a	n/a	n/a	56.329	n/a
26.48	0.497	angry	Picture	86.994	n/a	1	1	17	n/a	17	75	2	n/a	n/a	n/a	n/a	56.86	AM23HAS.jpg
26.978	0.514	Blank	Blank	86.48	n/a	1	1	17	n/a	17	n/a	2	n/a	n/a	n/a	n/a	57.357	n/a
27.508	0.497	angry	Picture	85.966	n/a	1	1	18	n/a	18	80	2	n/a	n/a	n/a	n/a	57.888	BM35HAS.jpg
28.005	0.514	Blank	Blank	85.452	n/a	1	1	18	n/a	18	n/a	2	n/a	n/a	n/a	n/a	58.385	n/a
28.536	0.497	angry	Picture	84.938	n/a	1	1	19	n/a	19	76	2	n/a	n/a	n/a	n/a	58.916	BM24HAS.jpg
29.033	0.514	Blank	Blank	84.424	n/a	1	1	19	n/a	19	n/a	2	n/a	n/a	n/a	n/a	59.413	n/a
29.564	0.497	angry	Picture	83.91	n/a	1	1	20	n/a	20	74	2	n/a	n/a	n/a	n/a	59.944	AM22HAS.jpg
30.061	0.514	Blank	Blank	83.396	n/a	1	1	20	n/a	20	n/a	2	n/a	n/a	n/a	n/a	60.441	n/a
30.592	10.014	ITI	Fixation+	73.366	n/a	1	n/a	n/a	n/a	n/a	n/a	n/a	n/a	n/a	n/a	n/a	60.971	n/a
40.622	0.497	neutral	Picture	72.852	n/a	1	2	1	n/a	21	33	1	n/a	n/a	n/a	n/a	71.002	AM21NES.jpg
41.119	0.514	Blank	Blank	72.338	n/a	1	2	1	n/a	21	n/a	1	n/a	n/a	n/a	n/a	71.499	n/a
41.65	0.497	neutral	Picture	71.824	n/a	1	2	2	n/a	22	39	1	n/a	n/a	n/a	n/a	72.03	AM28NES.jpg
42.147	0.514	Blank	Blank	71.31	n/a	1	2	2	n/a	22	n/a	1	n/a	n/a	n/a	n/a	72.527	n/a
42.678	0.497	neutral	Picture	70.796	n/a	1	2	3	n/a	23	25	1	n/a	n/a	n/a	n/a	73.058	BM06NES.jpg
43.175	0.514	Blank	Blank	70.282	n/a	1	2	3	n/a	23	n/a	1	n/a	n/a	n/a	n/a	73.555	n/a
43.706	0.497	neutral	Picture	69.768	n/a	1	2	4	n/a	24	5	1	n/a	n/a	n/a	n/a	74.085	BF07NES.jpg
44.203	0.514	Blank	Blank	69.254	n/a	1	2	4	n/a	24	n/a	1	n/a	n/a	n/a	n/a	74.583	n/a
44.733	0.497	neutral	Picture	68.74	n/a	1	2	5	n/a	25	10	1	n/a	n/a	n/a	n/a	75.113	AF18NES.jpg
45.231	0.514	Blank	Blank	68.226	n/a	1	2	5	n/a	25	n/a	1	n/a	n/a	n/a	n/a	75.611	n/a
45.761	0.497	neutral	Picture	67.713	n/a	1	2	6	n/a	26	34	1	n/a	n/a	n/a	n/a	76.141	AM22NES.jpg
46.259	0.514	Blank	Blank	67.199	n/a	1	2	6	n/a	26	n/a	1	n/a	n/a	n/a	n/a	76.638	n/a
46.789	0.497	neutral	Picture	66.685	n/a	1	2	7	n/a	27	36	1	n/a	n/a	n/a	n/a	77.169	BM24NES.jpg
47.287	0.514	Blank	Blank	66.171	n/a	1	2	7	n/a	27	n/a	1	n/a	n/a	n/a	n/a	77.666	n/a
47.817	0.497	neutral	Picture	65.657	n/a	1	2	8	n/a	28	14	1	n/a	n/a	n/a	n/a	78.197	AF23NES.jpg
48.314	0.514	Blank	Blank	65.143	n/a	1	2	8	n/a	28	n/a	1	n/a	n/a	n/a	n/a	78.694	n/a
48.845	0.497	neutral	Picture	64.629	n/a	1	2	9	n/a	29	9	1	n/a	n/a	n/a	n/a	79.225	AF17NES.jpg
49.342	0.514	Blank	Blank	64.115	n/a	1	2	9	n/a	29	n/a	1	n/a	n/a	n/a	n/a	79.722	n/a
49.873	0.497	neutral	Picture	63.601	n/a	1	2	10	n/a	30	19	1	n/a	n/a	n/a	n/a	80.253	AF31NES.jpg
50.37	0.514	Blank	Blank	63.087	n/a	1	2	10	n/a	30	n/a	1	n/a	n/a	n/a	n/a	80.75	n/a
50.901	0.497	neutral	Picture	62.573	n/a	1	2	11	n/a	31	15	1	n/a	n/a	n/a	n/a	81.281	AF25NES.jpg
51.398	0.514	Blank	Blank	62.059	n/a	1	2	11	n/a	31	n/a	1	n/a	n/a	n/a	n/a	81.778	n/a
51.929	0.497	neutral	Picture	61.545	n/a	1	2	12	n/a	32	22	1	n/a	n/a	n/a	n/a	82.308	BM03NES.jpg
52.426	0.514	Blank	Blank	61.031	n/a	1	2	12	n/a	32	n/a	1	n/a	n/a	n/a	n/a	82.806	n/a
52.956	0.497	neutral	Picture	60.517	n/a	1	2	13	n/a	33	11	1	n/a	n/a	n/a	n/a	83.336	AF20NES.jpg
53.454	0.514	Blank	Blank	60.003	n/a	1	2	13	n/a	33	n/a	1	n/a	n/a	n/a	n/a	83.834	n/a
53.984	0.497	neutral	Picture	59.489	n/a	1	2	14	n/a	34	4	1	n/a	n/a	n/a	n/a	84.364	AF05NES.jpg
54.482	0.514	Blank	Blank	58.976	n/a	1	2	14	n/a	34	n/a	1	n/a	n/a	n/a	n/a	84.862	n/a
55.012	0.497	neutral	Picture	58.462	n/a	1	2	15	n/a	35	17	1	n/a	n/a	n/a	n/a	85.392	BF28NES.jpg
55.51	0.514	Blank	Blank	57.948	n/a	1	2	15	n/a	35	n/a	1	n/a	n/a	n/a	n/a	85.889	n/a
56.04	0.497	neutral	Picture	57.434	n/a	1	2	16	n/a	36	13	1	n/a	n/a	n/a	n/a	86.42	BF22NES.jpg
56.537	0.514	Blank	Blank	56.92	n/a	1	2	16	n/a	36	n/a	1	n/a	n/a	n/a	n/a	86.917	n/a
57.068	0.497	neutral	Picture	56.406	n/a	1	2	17	n/a	37	12	1	n/a	n/a	n/a	n/a	87.448	AF21NES.jpg
57.565	0.514	Blank	Blank	55.892	n/a	1	2	17	n/a	37	n/a	1	n/a	n/a	n/a	n/a	87.945	n/a
58.096	0.497	neutral	Picture	55.378	n/a	1	2	18	n/a	38	24	1	n/a	n/a	n/a	n/a	88.476	BM05NES.jpg
58.593	0.514	Blank	Blank	54.864	n/a	1	2	18	n/a	38	n/a	1	n/a	n/a	n/a	n/a	88.973	n/a
59.124	0.497	neutral	Picture	54.35	n/a	1	2	19	n/a	39	29	1	n/a	n/a	n/a	n/a	89.504	AM10NES.jpg
59.621	0.514	Blank	Blank	53.836	n/a	1	2	19	n/a	39	n/a	1	n/a	n/a	n/a	n/a	90.001	n/a
60.152	0.497	neutral	Picture	53.322	n/a	1	2	20	n/a	40	23	1	n/a	n/a	n/a	n/a	90.531	AM04NES.jpg
60.649	0.514	Blank	Blank	52.808	n/a	1	2	20	n/a	40	n/a	1	n/a	n/a	n/a	n/a	91.029	n/a
61.18	10.014	ITI	Fixation+	42.778	n/a	1	n/a	n/a	n/a	n/a	n/a	n/a	n/a	n/a	n/a	n/a	91.559	n/a
71.21	0.497	angry	Picture	42.264	n/a	1	3	1	n/a	41	62	2	n/a	n/a	n/a	n/a	101.59	BM03HAS.jpg
71.707	0.514	Blank	Blank	41.75	n/a	1	3	1	n/a	41	n/a	2	n/a	n/a	n/a	n/a	102.087	n/a
72.238	0.497	angry	Picture	41.236	n/a	1	3	2	n/a	42	52	2	n/a	n/a	n/a	n/a	102.618	AF21HAS.jpg
72.735	0.514	Blank	Blank	40.722	n/a	1	3	2	n/a	42	n/a	2	n/a	n/a	n/a	n/a	103.115	n/a
73.266	0.497	angry	Picture	40.208	n/a	1	3	3	n/a	43	44	2	n/a	n/a	n/a	n/a	103.645	AF05HAS.jpg
73.763	0.514	Blank	Blank	39.694	n/a	1	3	3	n/a	43	n/a	2	n/a	n/a	n/a	n/a	104.143	n/a
74.293	0.497	angry	Picture	39.18	n/a	1	3	4	n/a	44	53	2	n/a	n/a	n/a	n/a	104.673	BF22HAS.jpg
74.791	0.514	Blank	Blank	38.666	n/a	1	3	4	n/a	44	n/a	2	n/a	n/a	n/a	n/a	105.171	n/a
75.321	0.497	angry	Picture	38.153	n/a	1	3	5	n/a	45	54	2	n/a	n/a	n/a	n/a	105.701	AF23HAS.jpg
75.819	0.514	Blank	Blank	37.639	n/a	1	3	5	n/a	45	n/a	2	n/a	n/a	n/a	n/a	106.198	n/a
76.349	0.497	angry	Picture	37.125	n/a	1	3	6	n/a	46	68	2	n/a	n/a	n/a	n/a	106.729	AM09HAS.jpg
76.847	0.514	Blank	Blank	36.611	n/a	1	3	6	n/a	46	n/a	2	n/a	n/a	n/a	n/a	107.226	n/a
77.377	0.497	angry	Picture	36.097	n/a	1	3	7	n/a	47	64	2	n/a	n/a	n/a	n/a	107.757	BM05HAS.jpg
77.874	0.514	Blank	Blank	35.583	n/a	1	3	7	n/a	47	n/a	2	n/a	n/a	n/a	n/a	108.254	n/a
78.405	0.497	angry	Picture	35.069	n/a	1	3	8	n/a	48	59	2	n/a	n/a	n/a	n/a	108.785	AF31HAS.jpg
78.902	0.514	Blank	Blank	34.555	n/a	1	3	8	n/a	48	n/a	2	n/a	n/a	n/a	n/a	109.282	n/a
79.433	0.497	angry	Picture	34.041	n/a	1	3	9	n/a	49	41	2	n/a	n/a	n/a	n/a	109.813	AF01HAS.jpg
79.93	0.514	Blank	Blank	33.527	n/a	1	3	9	n/a	49	n/a	2	n/a	n/a	n/a	n/a	110.31	n/a
80.461	0.497	angry	Picture	33.013	n/a	1	3	10	n/a	50	73	2	n/a	n/a	n/a	n/a	110.841	AM21HAS.jpg
80.958	0.514	Blank	Blank	32.499	n/a	1	3	10	n/a	50	n/a	2	n/a	n/a	n/a	n/a	111.338	n/a
81.489	0.497	angry	Picture	31.985	n/a	1	3	11	n/a	51	65	2	n/a	n/a	n/a	n/a	111.868	BM06HAS.jpg
81.986	0.514	Blank	Blank	31.471	n/a	1	3	11	n/a	51	n/a	2	n/a	n/a	n/a	n/a	112.366	n/a
82.516	0.497	angry	Picture	30.957	n/a	1	3	12	n/a	52	56	2	n/a	n/a	n/a	n/a	112.896	AF26HAS.jpg
83.014	0.514	Blank	Blank	30.443	n/a	1	3	12	n/a	52	n/a	2	n/a	n/a	n/a	n/a	113.394	n/a
83.544	0.497	angry	Picture	29.929	n/a	1	3	13	n/a	53	45	2	n/a	n/a	n/a	n/a	113.924	BF07HAS.jpg
84.042	0.514	Blank	Blank	29.415	n/a	1	3	13	n/a	53	n/a	2	n/a	n/a	n/a	n/a	114.422	n/a
84.572	0.497	angry	Picture	28.901	n/a	1	3	14	n/a	54	78	2	n/a	n/a	n/a	n/a	114.952	BM26HAS.jpg
85.07	0.514	Blank	Blank	28.388	n/a	1	3	14	n/a	54	n/a	2	n/a	n/a	n/a	n/a	115.45	n/a
85.6	0.497	angry	Picture	27.874	n/a	1	3	15	n/a	55	50	2	n/a	n/a	n/a	n/a	115.98	AF18HAS.jpg
86.098	0.514	Blank	Blank	27.36	n/a	1	3	15	n/a	55	n/a	2	n/a	n/a	n/a	n/a	116.477	n/a
86.628	0.497	angry	Picture	26.846	n/a	1	3	16	n/a	56	47	2	n/a	n/a	n/a	n/a	117.008	BF11HAS.jpg
87.126	0.514	Blank	Blank	26.332	n/a	1	3	16	n/a	56	n/a	2	n/a	n/a	n/a	n/a	117.505	n/a
87.656	0.497	angry	Picture	25.818	n/a	1	3	17	n/a	57	77	2	n/a	n/a	n/a	n/a	118.036	BM25HAS.jpg
88.153	0.514	Blank	Blank	25.304	n/a	1	3	17	n/a	57	n/a	2	n/a	n/a	n/a	n/a	118.533	n/a
88.684	0.497	angry	Picture	24.79	n/a	1	3	18	n/a	58	57	2	n/a	n/a	n/a	n/a	119.064	BF28HAS.jpg
89.181	0.514	Blank	Blank	24.276	n/a	1	3	18	n/a	58	n/a	2	n/a	n/a	n/a	n/a	119.561	n/a
89.712	0.497	angry	Picture	23.762	n/a	1	3	19	n/a	59	61	2	n/a	n/a	n/a	n/a	120.091	AM01HAS.jpg
90.209	0.514	Blank	Blank	23.248	n/a	1	3	19	n/a	59	n/a	2	n/a	n/a	n/a	n/a	120.589	n/a
90.74	0.497	angry	Picture	22.734	n/a	1	3	20	n/a	60	79	2	n/a	n/a	n/a	n/a	121.119	BM28HAS.jpg
91.237	0.514	Blank	Blank	22.22	n/a	1	3	20	n/a	60	n/a	2	n/a	n/a	n/a	n/a	121.617	n/a
91.767	10.014	ITI	Fixation+	12.19	n/a	1	n/a	n/a	n/a	n/a	n/a	n/a	n/a	n/a	n/a	n/a	122.147	n/a
113.971	n/a	ConfirmRating	Rate	n/a	12.185	1	n/a	n/a	0	n/a	n/a	n/a	2	Angry	19	19	144.351	n/a
125.955	n/a	ConfirmRating	Rate	n/a	11.97	1	n/a	n/a	1	n/a	n/a	n/a	3	Angry	49	49	156.335	n/a
125.986	10.014	ITI	Fixation+	100.672	n/a	2	n/a	n/a	n/a	n/a	n/a	n/a	n/a	n/a	n/a	n/a	156.366	n/a
136.016	0.497	happy	Picture	100.158	n/a	2	4	1	n/a	61	119	3	n/a	n/a	n/a	n/a	166.396	BM28ANS.jpg
136.514	0.514	Blank	Blank	99.644	n/a	2	4	1	n/a	61	n/a	3	n/a	n/a	n/a	n/a	166.893	n/a
137.044	0.497	happy	Picture	99.13	n/a	2	4	2	n/a	62	100	3	n/a	n/a	n/a	n/a	167.424	AF32ANS.jpg
137.542	0.514	Blank	Blank	98.616	n/a	2	4	2	n/a	62	n/a	3	n/a	n/a	n/a	n/a	167.921	n/a
138.072	0.497	happy	Picture	98.102	n/a	2	4	3	n/a	63	118	3	n/a	n/a	n/a	n/a	168.452	BM26ANS.jpg
138.57	0.514	Blank	Blank	97.588	n/a	2	4	3	n/a	63	n/a	3	n/a	n/a	n/a	n/a	168.949	n/a
139.1	0.497	happy	Picture	97.074	n/a	2	4	4	n/a	64	89	3	n/a	n/a	n/a	n/a	169.48	AF17ANS.jpg
139.597	0.514	Blank	Blank	96.56	n/a	2	4	4	n/a	64	n/a	3	n/a	n/a	n/a	n/a	169.977	n/a
140.128	0.497	happy	Picture	96.046	n/a	2	4	5	n/a	65	116	3	n/a	n/a	n/a	n/a	170.508	BM24ANS.jpg
140.625	0.514	Blank	Blank	95.532	n/a	2	4	5	n/a	65	n/a	3	n/a	n/a	n/a	n/a	171.005	n/a
141.156	0.497	happy	Picture	95.018	n/a	2	4	6	n/a	66	105	3	n/a	n/a	n/a	n/a	171.536	BM06ANS.jpg
141.653	0.514	Blank	Blank	94.504	n/a	2	4	6	n/a	66	n/a	3	n/a	n/a	n/a	n/a	172.033	n/a
142.184	0.497	happy	Picture	93.99	n/a	2	4	7	n/a	67	106	3	n/a	n/a	n/a	n/a	172.564	AM07ANS.jpg
142.681	0.514	Blank	Blank	93.476	n/a	2	4	7	n/a	67	n/a	3	n/a	n/a	n/a	n/a	173.061	n/a
143.212	0.497	happy	Picture	92.962	n/a	2	4	8	n/a	68	94	3	n/a	n/a	n/a	n/a	173.591	AF23ANS.jpg
143.709	0.514	Blank	Blank	92.448	n/a	2	4	8	n/a	68	n/a	3	n/a	n/a	n/a	n/a	174.089	n/a
144.239	0.497	happy	Picture	91.935	n/a	2	4	9	n/a	69	117	3	n/a	n/a	n/a	n/a	174.619	BM25ANS.jpg
144.737	0.514	Blank	Blank	91.421	n/a	2	4	9	n/a	69	n/a	3	n/a	n/a	n/a	n/a	175.117	n/a
145.267	0.497	happy	Picture	90.907	n/a	2	4	10	n/a	70	90	3	n/a	n/a	n/a	n/a	175.647	AF18ANS.jpg
145.765	0.514	Blank	Blank	90.393	n/a	2	4	10	n/a	70	n/a	3	n/a	n/a	n/a	n/a	176.144	n/a
146.295	0.497	happy	Picture	89.879	n/a	2	4	11	n/a	71	83	3	n/a	n/a	n/a	n/a	176.675	BF04ANS.jpg
146.793	0.514	Blank	Blank	89.365	n/a	2	4	11	n/a	71	n/a	3	n/a	n/a	n/a	n/a	177.172	n/a
147.323	0.497	happy	Picture	88.851	n/a	2	4	12	n/a	72	112	3	n/a	n/a	n/a	n/a	177.703	AM14ANS.jpg
147.821	0.514	Blank	Blank	88.337	n/a	2	4	12	n/a	72	n/a	3	n/a	n/a	n/a	n/a	178.2	n/a
148.351	0.497	happy	Picture	87.823	n/a	2	4	13	n/a	73	102	3	n/a	n/a	n/a	n/a	178.731	BM03ANS.jpg
148.848	0.514	Blank	Blank	87.309	n/a	2	4	13	n/a	73	n/a	3	n/a	n/a	n/a	n/a	179.228	n/a
149.379	0.497	happy	Picture	86.795	n/a	2	4	14	n/a	74	95	3	n/a	n/a	n/a	n/a	179.759	AF25ANS.jpg
149.876	0.514	Blank	Blank	86.281	n/a	2	4	14	n/a	74	n/a	3	n/a	n/a	n/a	n/a	180.256	n/a
150.407	0.497	happy	Picture	85.767	n/a	2	4	15	n/a	75	113	3	n/a	n/a	n/a	n/a	180.787	AM21ANS.jpg
150.904	0.514	Blank	Blank	85.253	n/a	2	4	15	n/a	75	n/a	3	n/a	n/a	n/a	n/a	181.284	n/a
151.435	0.497	happy	Picture	84.739	n/a	2	4	16	n/a	76	88	3	n/a	n/a	n/a	n/a	181.814	AF14ANS.jpg
151.932	0.514	Blank	Blank	84.225	n/a	2	4	16	n/a	76	n/a	3	n/a	n/a	n/a	n/a	182.312	n/a
152.463	0.497	happy	Picture	83.711	n/a	2	4	17	n/a	77	93	3	n/a	n/a	n/a	n/a	182.842	BF22ANS.jpg
152.96	0.514	Blank	Blank	83.198	n/a	2	4	17	n/a	77	n/a	3	n/a	n/a	n/a	n/a	183.34	n/a
153.49	0.497	happy	Picture	82.684	n/a	2	4	18	n/a	78	86	3	n/a	n/a	n/a	n/a	183.87	AF09ANS.jpg
153.988	0.514	Blank	Blank	82.17	n/a	2	4	18	n/a	78	n/a	3	n/a	n/a	n/a	n/a	184.368	n/a
154.518	0.497	happy	Picture	81.656	n/a	2	4	19	n/a	79	92	3	n/a	n/a	n/a	n/a	184.898	AF21ANS.jpg
155.016	0.514	Blank	Blank	81.142	n/a	2	4	19	n/a	79	n/a	3	n/a	n/a	n/a	n/a	185.395	n/a
155.546	0.497	happy	Picture	80.628	n/a	2	4	20	n/a	80	84	3	n/a	n/a	n/a	n/a	185.926	AF05ANS.jpg
156.044	0.514	Blank	Blank	80.114	n/a	2	4	20	n/a	80	n/a	3	n/a	n/a	n/a	n/a	186.423	n/a
156.574	10.014	ITI	Fixation+	70.084	n/a	2	n/a	n/a	n/a	n/a	n/a	n/a	n/a	n/a	n/a	n/a	186.954	n/a
166.604	0.497	neutral	Picture	69.57	n/a	2	5	1	n/a	81	4	1	n/a	n/a	n/a	n/a	196.984	AF05NES.jpg
167.102	0.514	Blank	Blank	69.056	n/a	2	5	1	n/a	81	n/a	1	n/a	n/a	n/a	n/a	197.481	n/a
167.632	0.497	neutral	Picture	68.542	n/a	2	5	2	n/a	82	14	1	n/a	n/a	n/a	n/a	198.012	AF23NES.jpg
168.13	0.514	Blank	Blank	68.028	n/a	2	5	2	n/a	82	n/a	1	n/a	n/a	n/a	n/a	198.509	n/a
168.66	0.497	neutral	Picture	67.514	n/a	2	5	3	n/a	83	19	1	n/a	n/a	n/a	n/a	199.04	AF31NES.jpg
169.157	0.514	Blank	Blank	67.0	n/a	2	5	3	n/a	83	n/a	1	n/a	n/a	n/a	n/a	199.537	n/a
169.688	0.497	neutral	Picture	66.486	n/a	2	5	4	n/a	84	8	1	n/a	n/a	n/a	n/a	200.068	AF14NES.jpg
170.185	0.514	Blank	Blank	65.972	n/a	2	5	4	n/a	84	n/a	1	n/a	n/a	n/a	n/a	200.565	n/a
170.716	0.497	neutral	Picture	65.458	n/a	2	5	5	n/a	85	25	1	n/a	n/a	n/a	n/a	201.096	BM06NES.jpg
171.213	0.514	Blank	Blank	64.944	n/a	2	5	5	n/a	85	n/a	1	n/a	n/a	n/a	n/a	201.593	n/a
171.744	0.497	neutral	Picture	64.43	n/a	2	5	6	n/a	86	9	1	n/a	n/a	n/a	n/a	202.124	AF17NES.jpg
172.241	0.514	Blank	Blank	63.916	n/a	2	5	6	n/a	86	n/a	1	n/a	n/a	n/a	n/a	202.621	n/a
172.772	0.497	neutral	Picture	63.402	n/a	2	5	7	n/a	87	2	1	n/a	n/a	n/a	n/a	203.151	AF03NES.jpg
173.269	0.514	Blank	Blank	62.888	n/a	2	5	7	n/a	87	n/a	1	n/a	n/a	n/a	n/a	203.649	n/a
173.8	0.497	neutral	Picture	62.375	n/a	2	5	8	n/a	88	17	1	n/a	n/a	n/a	n/a	204.179	BF28NES.jpg
174.297	0.514	Blank	Blank	61.861	n/a	2	5	8	n/a	88	n/a	1	n/a	n/a	n/a	n/a	204.677	n/a
174.827	0.497	neutral	Picture	61.347	n/a	2	5	9	n/a	89	6	1	n/a	n/a	n/a	n/a	205.207	AF09NES.jpg
175.325	0.514	Blank	Blank	60.833	n/a	2	5	9	n/a	89	n/a	1	n/a	n/a	n/a	n/a	205.704	n/a
175.855	0.497	neutral	Picture	60.319	n/a	2	5	10	n/a	90	12	1	n/a	n/a	n/a	n/a	206.235	AF21NES.jpg
176.353	0.514	Blank	Blank	59.805	n/a	2	5	10	n/a	90	n/a	1	n/a	n/a	n/a	n/a	206.732	n/a
176.883	0.497	neutral	Picture	59.291	n/a	2	5	11	n/a	91	24	1	n/a	n/a	n/a	n/a	207.263	BM05NES.jpg
177.381	0.514	Blank	Blank	58.777	n/a	2	5	11	n/a	91	n/a	1	n/a	n/a	n/a	n/a	207.76	n/a
177.911	0.497	neutral	Picture	58.263	n/a	2	5	12	n/a	92	34	1	n/a	n/a	n/a	n/a	208.291	AM22NES.jpg
178.408	0.514	Blank	Blank	57.749	n/a	2	5	12	n/a	92	n/a	1	n/a	n/a	n/a	n/a	208.788	n/a
178.939	0.497	neutral	Picture	57.235	n/a	2	5	13	n/a	93	23	1	n/a	n/a	n/a	n/a	209.319	AM04NES.jpg
179.436	0.514	Blank	Blank	56.721	n/a	2	5	13	n/a	93	n/a	1	n/a	n/a	n/a	n/a	209.816	n/a
179.967	0.497	neutral	Picture	56.207	n/a	2	5	14	n/a	94	15	1	n/a	n/a	n/a	n/a	210.347	AF25NES.jpg
180.464	0.514	Blank	Blank	55.693	n/a	2	5	14	n/a	94	n/a	1	n/a	n/a	n/a	n/a	210.844	n/a
180.995	0.497	neutral	Picture	55.179	n/a	2	5	15	n/a	95	37	1	n/a	n/a	n/a	n/a	211.375	BM25NES.jpg
181.492	0.514	Blank	Blank	54.665	n/a	2	5	15	n/a	95	n/a	1	n/a	n/a	n/a	n/a	211.872	n/a
182.023	0.497	neutral	Picture	54.151	n/a	2	5	16	n/a	96	32	1	n/a	n/a	n/a	n/a	212.402	AM14NES.jpg
182.52	0.514	Blank	Blank	53.638	n/a	2	5	16	n/a	96	n/a	1	n/a	n/a	n/a	n/a	212.9	n/a
183.05	0.497	neutral	Picture	53.124	n/a	2	5	17	n/a	97	3	1	n/a	n/a	n/a	n/a	213.43	BF04NES.jpg
183.548	0.514	Blank	Blank	52.61	n/a	2	5	17	n/a	97	n/a	1	n/a	n/a	n/a	n/a	213.928	n/a
184.078	0.497	neutral	Picture	52.096	n/a	2	5	18	n/a	98	16	1	n/a	n/a	n/a	n/a	214.458	AF26NES.jpg
184.576	0.514	Blank	Blank	51.582	n/a	2	5	18	n/a	98	n/a	1	n/a	n/a	n/a	n/a	214.956	n/a
185.106	0.497	neutral	Picture	51.068	n/a	2	5	19	n/a	99	27	1	n/a	n/a	n/a	n/a	215.486	BM08NES.jpg
185.604	0.514	Blank	Blank	50.554	n/a	2	5	19	n/a	99	n/a	1	n/a	n/a	n/a	n/a	215.983	n/a
186.134	0.497	neutral	Picture	50.04	n/a	2	5	20	n/a	100	28	1	n/a	n/a	n/a	n/a	216.514	AM09NES.jpg
186.632	0.514	Blank	Blank	49.526	n/a	2	5	20	n/a	100	n/a	1	n/a	n/a	n/a	n/a	217.011	n/a
187.162	10.014	ITI	Fixation+	39.496	n/a	2	n/a	n/a	n/a	n/a	n/a	n/a	n/a	n/a	n/a	n/a	217.542	n/a
197.192	0.497	happy	Picture	38.982	n/a	2	6	1	n/a	101	81	3	n/a	n/a	n/a	n/a	227.572	AF01ANS.jpg
197.69	0.514	Blank	Blank	38.468	n/a	2	6	1	n/a	101	n/a	3	n/a	n/a	n/a	n/a	228.069	n/a
198.22	0.497	happy	Picture	37.954	n/a	2	6	2	n/a	102	120	3	n/a	n/a	n/a	n/a	228.6	AM35ANS.jpg
198.717	0.514	Blank	Blank	37.44	n/a	2	6	2	n/a	102	n/a	3	n/a	n/a	n/a	n/a	229.097	n/a
199.248	0.497	happy	Picture	36.926	n/a	2	6	3	n/a	103	114	3	n/a	n/a	n/a	n/a	229.628	AM22ANS.jpg
199.745	0.514	Blank	Blank	36.412	n/a	2	6	3	n/a	103	n/a	3	n/a	n/a	n/a	n/a	230.125	n/a
200.276	0.497	happy	Picture	35.898	n/a	2	6	4	n/a	104	109	3	n/a	n/a	n/a	n/a	230.656	AM10ANS.jpg
200.773	0.514	Blank	Blank	35.384	n/a	2	6	4	n/a	104	n/a	3	n/a	n/a	n/a	n/a	231.153	n/a
201.304	0.497	happy	Picture	34.87	n/a	2	6	5	n/a	105	96	3	n/a	n/a	n/a	n/a	231.684	AF26ANS.jpg
201.801	0.514	Blank	Blank	34.356	n/a	2	6	5	n/a	105	n/a	3	n/a	n/a	n/a	n/a	232.181	n/a
202.332	0.497	happy	Picture	33.842	n/a	2	6	6	n/a	106	82	3	n/a	n/a	n/a	n/a	232.711	AF03ANS.jpg
202.829	0.514	Blank	Blank	33.328	n/a	2	6	6	n/a	106	n/a	3	n/a	n/a	n/a	n/a	233.209	n/a
203.359	0.497	happy	Picture	32.815	n/a	2	6	7	n/a	107	97	3	n/a	n/a	n/a	n/a	233.739	BF28ANS.jpg
203.857	0.514	Blank	Blank	32.3	n/a	2	6	7	n/a	107	n/a	3	n/a	n/a	n/a	n/a	234.237	n/a
204.387	0.497	happy	Picture	31.787	n/a	2	6	8	n/a	108	115	3	n/a	n/a	n/a	n/a	234.767	AM23ANS.jpg
204.885	0.514	Blank	Blank	31.273	n/a	2	6	8	n/a	108	n/a	3	n/a	n/a	n/a	n/a	235.264	n/a
205.415	0.497	happy	Picture	30.759	n/a	2	6	9	n/a	109	91	3	n/a	n/a	n/a	n/a	235.795	AF20ANS.jpg
205.913	0.514	Blank	Blank	30.245	n/a	2	6	9	n/a	109	n/a	3	n/a	n/a	n/a	n/a	236.292	n/a
206.443	0.497	happy	Picture	29.731	n/a	2	6	10	n/a	110	87	3	n/a	n/a	n/a	n/a	236.823	BF11ANS.jpg
206.941	0.514	Blank	Blank	29.217	n/a	2	6	10	n/a	110	n/a	3	n/a	n/a	n/a	n/a	237.32	n/a
207.471	0.497	happy	Picture	28.703	n/a	2	6	11	n/a	111	85	3	n/a	n/a	n/a	n/a	237.851	BF07ANS.jpg
207.968	0.514	Blank	Blank	28.189	n/a	2	6	11	n/a	111	n/a	3	n/a	n/a	n/a	n/a	238.348	n/a
208.499	0.497	happy	Picture	27.675	n/a	2	6	12	n/a	112	110	3	n/a	n/a	n/a	n/a	238.879	AM11ANS.jpg
208.996	0.514	Blank	Blank	27.161	n/a	2	6	12	n/a	112	n/a	3	n/a	n/a	n/a	n/a	239.376	n/a
209.527	0.497	happy	Picture	26.647	n/a	2	6	13	n/a	113	111	3	n/a	n/a	n/a	n/a	239.907	BM12ANS.jpg
210.024	0.514	Blank	Blank	26.133	n/a	2	6	13	n/a	113	n/a	3	n/a	n/a	n/a	n/a	240.404	n/a
210.555	0.497	happy	Picture	25.619	n/a	2	6	14	n/a	114	103	3	n/a	n/a	n/a	n/a	240.935	AM04ANS.jpg
211.052	0.514	Blank	Blank	25.105	n/a	2	6	14	n/a	114	n/a	3	n/a	n/a	n/a	n/a	241.432	n/a
211.583	0.497	happy	Picture	24.591	n/a	2	6	15	n/a	115	101	3	n/a	n/a	n/a	n/a	241.962	AM01ANS.jpg
212.08	0.514	Blank	Blank	24.077	n/a	2	6	15	n/a	115	n/a	3	n/a	n/a	n/a	n/a	242.46	n/a
212.61	0.497	happy	Picture	23.564	n/a	2	6	16	n/a	116	104	3	n/a	n/a	n/a	n/a	242.99	BM05ANS.jpg
213.108	0.514	Blank	Blank	23.05	n/a	2	6	16	n/a	116	n/a	3	n/a	n/a	n/a	n/a	243.488	n/a
213.638	0.497	happy	Picture	22.536	n/a	2	6	17	n/a	117	107	3	n/a	n/a	n/a	n/a	244.018	BM08ANS.jpg
214.136	0.514	Blank	Blank	22.022	n/a	2	6	17	n/a	117	n/a	3	n/a	n/a	n/a	n/a	244.516	n/a
214.666	0.497	happy	Picture	21.508	n/a	2	6	18	n/a	118	98	3	n/a	n/a	n/a	n/a	245.046	BF29ANS.jpg
215.164	0.514	Blank	Blank	20.994	n/a	2	6	18	n/a	118	n/a	3	n/a	n/a	n/a	n/a	245.543	n/a
215.694	0.497	happy	Picture	20.48	n/a	2	6	19	n/a	119	99	3	n/a	n/a	n/a	n/a	246.074	AF31ANS.jpg
216.192	0.514	Blank	Blank	19.966	n/a	2	6	19	n/a	119	n/a	3	n/a	n/a	n/a	n/a	246.571	n/a
216.722	0.497	happy	Picture	19.452	n/a	2	6	20	n/a	120	108	3	n/a	n/a	n/a	n/a	247.102	AM09ANS.jpg
217.219	0.514	Blank	Blank	18.938	n/a	2	6	20	n/a	120	n/a	3	n/a	n/a	n/a	n/a	247.599	n/a
217.75	10.014	ITI	Fixation+	8.908	n/a	2	n/a	n/a	n/a	n/a	n/a	n/a	n/a	n/a	n/a	n/a	248.13	n/a
236.671	n/a	ConfirmRating	Rate	n/a	8.903	2	n/a	n/a	0	n/a	n/a	n/a	2	Happy	68	68	267.051	n/a
241.253	n/a	ConfirmRating	Rate	n/a	4.559	2	n/a	n/a	1	n/a	n/a	n/a	3	Happy	35	35	271.633	n/a
241.275	15.004	Rest	Picture	n/a	n/a	n/a	n/a	n/a	n/a	n/a	n/a	n/a	0	n/a	0	0	271.655	n/a
256.296	10.014	ITI	Fixation+	100.805	n/a	3	n/a	n/a	n/a	n/a	n/a	n/a	n/a	n/a	n/a	n/a	286.675	n/a
266.326	0.497	angry	Picture	100.291	n/a	3	7	1	n/a	1	46	2	n/a	n/a	n/a	n/a	296.706	AF09HAS.jpg
266.823	0.514	Blank	Blank	99.777	n/a	3	7	1	n/a	1	n/a	2	n/a	n/a	n/a	n/a	297.203	n/a
267.354	0.497	angry	Picture	99.264	n/a	3	7	2	n/a	2	69	2	n/a	n/a	n/a	n/a	297.733	AM10HAS.jpg
267.851	0.514	Blank	Blank	98.75	n/a	3	7	2	n/a	2	n/a	2	n/a	n/a	n/a	n/a	298.231	n/a
268.382	0.497	angry	Picture	98.236	n/a	3	7	3	n/a	3	71	2	n/a	n/a	n/a	n/a	298.761	BM12HAS.jpg
268.879	0.514	Blank	Blank	97.722	n/a	3	7	3	n/a	3	n/a	2	n/a	n/a	n/a	n/a	299.259	n/a
269.409	0.497	angry	Picture	97.208	n/a	3	7	4	n/a	4	51	2	n/a	n/a	n/a	n/a	299.789	AF20HAS.jpg
269.907	0.514	Blank	Blank	96.694	n/a	3	7	4	n/a	4	n/a	2	n/a	n/a	n/a	n/a	300.287	n/a
270.437	0.497	angry	Picture	96.18	n/a	3	7	5	n/a	5	67	2	n/a	n/a	n/a	n/a	300.817	BM08HAS.jpg
270.935	0.514	Blank	Blank	95.666	n/a	3	7	5	n/a	5	n/a	2	n/a	n/a	n/a	n/a	301.315	n/a
271.465	0.497	angry	Picture	95.152	n/a	3	7	6	n/a	6	60	2	n/a	n/a	n/a	n/a	301.845	AF32HAS.jpg
271.963	0.514	Blank	Blank	94.638	n/a	3	7	6	n/a	6	n/a	2	n/a	n/a	n/a	n/a	302.342	n/a
272.493	0.497	angry	Picture	94.124	n/a	3	7	7	n/a	7	42	2	n/a	n/a	n/a	n/a	302.873	AF03HAS.jpg
272.99	0.514	Blank	Blank	93.61	n/a	3	7	7	n/a	7	n/a	2	n/a	n/a	n/a	n/a	303.37	n/a
273.521	0.497	angry	Picture	93.096	n/a	3	7	8	n/a	8	55	2	n/a	n/a	n/a	n/a	303.901	AF25HAS.jpg
274.018	0.514	Blank	Blank	92.582	n/a	3	7	8	n/a	8	n/a	2	n/a	n/a	n/a	n/a	304.398	n/a
274.549	0.497	angry	Picture	92.068	n/a	3	7	9	n/a	9	72	2	n/a	n/a	n/a	n/a	304.929	AM14HAS.jpg
275.046	0.514	Blank	Blank	91.554	n/a	3	7	9	n/a	9	n/a	2	n/a	n/a	n/a	n/a	305.426	n/a
275.577	0.497	angry	Picture	91.04	n/a	3	7	10	n/a	10	63	2	n/a	n/a	n/a	n/a	305.957	AM04HAS.jpg
276.074	0.514	Blank	Blank	90.526	n/a	3	7	10	n/a	10	n/a	2	n/a	n/a	n/a	n/a	306.454	n/a
276.605	0.497	angry	Picture	90.012	n/a	3	7	11	n/a	11	58	2	n/a	n/a	n/a	n/a	306.984	BF29HAS.jpg
277.102	0.514	Blank	Blank	89.498	n/a	3	7	11	n/a	11	n/a	2	n/a	n/a	n/a	n/a	307.482	n/a
277.632	0.497	angry	Picture	88.985	n/a	3	7	12	n/a	12	48	2	n/a	n/a	n/a	n/a	308.012	AF14HAS.jpg
278.13	0.514	Blank	Blank	88.471	n/a	3	7	12	n/a	12	n/a	2	n/a	n/a	n/a	n/a	308.51	n/a
278.66	0.497	angry	Picture	87.957	n/a	3	7	13	n/a	13	66	2	n/a	n/a	n/a	n/a	309.04	BM07HAS.jpg
279.158	0.514	Blank	Blank	87.443	n/a	3	7	13	n/a	13	n/a	2	n/a	n/a	n/a	n/a	309.538	n/a
279.688	0.497	angry	Picture	86.929	n/a	3	7	14	n/a	14	70	2	n/a	n/a	n/a	n/a	310.068	BM11HAS.jpg
280.186	0.514	Blank	Blank	86.415	n/a	3	7	14	n/a	14	n/a	2	n/a	n/a	n/a	n/a	310.565	n/a
280.716	0.497	angry	Picture	85.901	n/a	3	7	15	n/a	15	43	2	n/a	n/a	n/a	n/a	311.096	BF04HAS.jpg
281.214	0.514	Blank	Blank	85.387	n/a	3	7	15	n/a	15	n/a	2	n/a	n/a	n/a	n/a	311.593	n/a
281.744	0.497	angry	Picture	84.873	n/a	3	7	16	n/a	16	49	2	n/a	n/a	n/a	n/a	312.124	AF17HAS.jpg
282.241	0.514	Blank	Blank	84.359	n/a	3	7	16	n/a	16	n/a	2	n/a	n/a	n/a	n/a	312.621	n/a
282.772	0.497	angry	Picture	83.845	n/a	3	7	17	n/a	17	75	2	n/a	n/a	n/a	n/a	313.152	AM23HAS.jpg
283.269	0.514	Blank	Blank	83.331	n/a	3	7	17	n/a	17	n/a	2	n/a	n/a	n/a	n/a	313.649	n/a
283.8	0.497	angry	Picture	82.817	n/a	3	7	18	n/a	18	80	2	n/a	n/a	n/a	n/a	314.18	BM35HAS.jpg
284.297	0.514	Blank	Blank	82.303	n/a	3	7	18	n/a	18	n/a	2	n/a	n/a	n/a	n/a	314.677	n/a
284.828	0.497	angry	Picture	81.789	n/a	3	7	19	n/a	19	76	2	n/a	n/a	n/a	n/a	315.207	BM24HAS.jpg
285.325	0.514	Blank	Blank	81.276	n/a	3	7	19	n/a	19	n/a	2	n/a	n/a	n/a	n/a	315.705	n/a
285.856	0.497	angry	Picture	80.761	n/a	3	7	20	n/a	20	74	2	n/a	n/a	n/a	n/a	316.235	AM22HAS.jpg
286.353	0.514	Blank	Blank	80.248	n/a	3	7	20	n/a	20	n/a	2	n/a	n/a	n/a	n/a	316.733	n/a
286.884	10.014	ITI	Fixation+	70.217	n/a	3	n/a	n/a	n/a	n/a	n/a	n/a	n/a	n/a	n/a	n/a	317.263	n/a
296.914	0.497	neutral	Picture	69.704	n/a	3	8	1	n/a	21	33	1	n/a	n/a	n/a	n/a	327.293	AM21NES.jpg
297.411	0.514	Blank	Blank	69.19	n/a	3	8	1	n/a	21	n/a	1	n/a	n/a	n/a	n/a	327.791	n/a
297.942	0.497	neutral	Picture	68.676	n/a	3	8	2	n/a	22	39	1	n/a	n/a	n/a	n/a	328.321	AM28NES.jpg
298.439	0.514	Blank	Blank	68.162	n/a	3	8	2	n/a	22	n/a	1	n/a	n/a	n/a	n/a	328.819	n/a
298.97	0.497	neutral	Picture	67.648	n/a	3	8	3	n/a	23	25	1	n/a	n/a	n/a	n/a	329.349	BM06NES.jpg
299.467	0.514	Blank	Blank	67.134	n/a	3	8	3	n/a	23	n/a	1	n/a	n/a	n/a	n/a	329.847	n/a
299.997	0.497	neutral	Picture	66.62	n/a	3	8	4	n/a	24	5	1	n/a	n/a	n/a	n/a	330.377	BF07NES.jpg
300.495	0.514	Blank	Blank	66.106	n/a	3	8	4	n/a	24	n/a	1	n/a	n/a	n/a	n/a	330.875	n/a
301.025	0.497	neutral	Picture	65.592	n/a	3	8	5	n/a	25	10	1	n/a	n/a	n/a	n/a	331.405	AF18NES.jpg
301.523	0.514	Blank	Blank	65.078	n/a	3	8	5	n/a	25	n/a	1	n/a	n/a	n/a	n/a	331.902	n/a
302.053	0.497	neutral	Picture	64.564	n/a	3	8	6	n/a	26	34	1	n/a	n/a	n/a	n/a	332.433	AM22NES.jpg
302.55	0.514	Blank	Blank	64.05	n/a	3	8	6	n/a	26	n/a	1	n/a	n/a	n/a	n/a	332.93	n/a
303.081	0.497	neutral	Picture	63.536	n/a	3	8	7	n/a	27	36	1	n/a	n/a	n/a	n/a	333.461	BM24NES.jpg
303.578	0.514	Blank	Blank	63.022	n/a	3	8	7	n/a	27	n/a	1	n/a	n/a	n/a	n/a	333.958	n/a
304.109	0.497	neutral	Picture	62.508	n/a	3	8	8	n/a	28	14	1	n/a	n/a	n/a	n/a	334.489	AF23NES.jpg
304.606	0.514	Blank	Blank	61.994	n/a	3	8	8	n/a	28	n/a	1	n/a	n/a	n/a	n/a	334.986	n/a
305.137	0.497	neutral	Picture	61.48	n/a	3	8	9	n/a	29	9	1	n/a	n/a	n/a	n/a	335.517	AF17NES.jpg
305.634	0.514	Blank	Blank	60.966	n/a	3	8	9	n/a	29	n/a	1	n/a	n/a	n/a	n/a	336.014	n/a
306.165	0.497	neutral	Picture	60.452	n/a	3	8	10	n/a	30	19	1	n/a	n/a	n/a	n/a	336.545	AF31NES.jpg
306.662	0.514	Blank	Blank	59.938	n/a	3	8	10	n/a	30	n/a	1	n/a	n/a	n/a	n/a	337.042	n/a
307.192	0.497	neutral	Picture	59.425	n/a	3	8	11	n/a	31	15	1	n/a	n/a	n/a	n/a	337.572	AF25NES.jpg
307.69	0.514	Blank	Blank	58.911	n/a	3	8	11	n/a	31	n/a	1	n/a	n/a	n/a	n/a	338.07	n/a
308.22	0.497	neutral	Picture	58.397	n/a	3	8	12	n/a	32	22	1	n/a	n/a	n/a	n/a	338.6	BM03NES.jpg
308.718	0.514	Blank	Blank	57.883	n/a	3	8	12	n/a	32	n/a	1	n/a	n/a	n/a	n/a	339.098	n/a
309.248	0.497	neutral	Picture	57.369	n/a	3	8	13	n/a	33	11	1	n/a	n/a	n/a	n/a	339.628	AF20NES.jpg
309.746	0.514	Blank	Blank	56.855	n/a	3	8	13	n/a	33	n/a	1	n/a	n/a	n/a	n/a	340.125	n/a
310.276	0.497	neutral	Picture	56.341	n/a	3	8	14	n/a	34	4	1	n/a	n/a	n/a	n/a	340.656	AF05NES.jpg
310.774	0.514	Blank	Blank	55.827	n/a	3	8	14	n/a	34	n/a	1	n/a	n/a	n/a	n/a	341.153	n/a
311.304	0.497	neutral	Picture	55.313	n/a	3	8	15	n/a	35	17	1	n/a	n/a	n/a	n/a	341.684	BF28NES.jpg
311.802	0.514	Blank	Blank	54.799	n/a	3	8	15	n/a	35	n/a	1	n/a	n/a	n/a	n/a	342.181	n/a
312.332	0.497	neutral	Picture	54.285	n/a	3	8	16	n/a	36	13	1	n/a	n/a	n/a	n/a	342.712	BF22NES.jpg
312.829	0.514	Blank	Blank	53.771	n/a	3	8	16	n/a	36	n/a	1	n/a	n/a	n/a	n/a	343.209	n/a
313.36	0.497	neutral	Picture	53.257	n/a	3	8	17	n/a	37	12	1	n/a	n/a	n/a	n/a	343.74	AF21NES.jpg
313.857	0.514	Blank	Blank	52.743	n/a	3	8	17	n/a	37	n/a	1	n/a	n/a	n/a	n/a	344.237	n/a
314.388	0.497	neutral	Picture	52.229	n/a	3	8	18	n/a	38	24	1	n/a	n/a	n/a	n/a	344.767	BM05NES.jpg
314.885	0.514	Blank	Blank	51.715	n/a	3	8	18	n/a	38	n/a	1	n/a	n/a	n/a	n/a	345.265	n/a
315.416	0.497	neutral	Picture	51.202	n/a	3	8	19	n/a	39	29	1	n/a	n/a	n/a	n/a	345.795	AM10NES.jpg
315.913	0.514	Blank	Blank	50.688	n/a	3	8	19	n/a	39	n/a	1	n/a	n/a	n/a	n/a	346.293	n/a
316.444	0.497	neutral	Picture	50.174	n/a	3	8	20	n/a	40	23	1	n/a	n/a	n/a	n/a	346.823	AM04NES.jpg
316.941	0.514	Blank	Blank	49.66	n/a	3	8	20	n/a	40	n/a	1	n/a	n/a	n/a	n/a	347.321	n/a
317.471	10.014	ITI	Fixation+	39.63	n/a	3	n/a	n/a	n/a	n/a	n/a	n/a	n/a	n/a	n/a	n/a	347.851	n/a
327.502	0.497	angry	Picture	39.116	n/a	3	9	1	n/a	41	62	2	n/a	n/a	n/a	n/a	357.881	BM03HAS.jpg
327.999	0.514	Blank	Blank	38.602	n/a	3	9	1	n/a	41	n/a	2	n/a	n/a	n/a	n/a	358.379	n/a
328.529	0.497	angry	Picture	38.088	n/a	3	9	2	n/a	42	52	2	n/a	n/a	n/a	n/a	358.909	AF21HAS.jpg
329.027	0.514	Blank	Blank	37.574	n/a	3	9	2	n/a	42	n/a	2	n/a	n/a	n/a	n/a	359.407	n/a
329.557	0.497	angry	Picture	37.06	n/a	3	9	3	n/a	43	44	2	n/a	n/a	n/a	n/a	359.937	AF05HAS.jpg
330.055	0.514	Blank	Blank	36.546	n/a	3	9	3	n/a	43	n/a	2	n/a	n/a	n/a	n/a	360.435	n/a
330.585	0.497	angry	Picture	36.032	n/a	3	9	4	n/a	44	53	2	n/a	n/a	n/a	n/a	360.965	BF22HAS.jpg
331.083	0.514	Blank	Blank	35.518	n/a	3	9	4	n/a	44	n/a	2	n/a	n/a	n/a	n/a	361.462	n/a
331.613	0.497	angry	Picture	35.004	n/a	3	9	5	n/a	45	54	2	n/a	n/a	n/a	n/a	361.993	AF23HAS.jpg
332.111	0.514	Blank	Blank	34.49	n/a	3	9	5	n/a	45	n/a	2	n/a	n/a	n/a	n/a	362.49	n/a
332.641	0.497	angry	Picture	33.976	n/a	3	9	6	n/a	46	68	2	n/a	n/a	n/a	n/a	363.021	AM09HAS.jpg
333.138	0.514	Blank	Blank	33.462	n/a	3	9	6	n/a	46	n/a	2	n/a	n/a	n/a	n/a	363.518	n/a
333.669	0.497	angry	Picture	32.948	n/a	3	9	7	n/a	47	64	2	n/a	n/a	n/a	n/a	364.049	BM05HAS.jpg
334.166	0.514	Blank	Blank	32.434	n/a	3	9	7	n/a	47	n/a	2	n/a	n/a	n/a	n/a	364.546	n/a
334.697	0.497	angry	Picture	31.92	n/a	3	9	8	n/a	48	59	2	n/a	n/a	n/a	n/a	365.077	AF31HAS.jpg
335.194	0.514	Blank	Blank	31.406	n/a	3	9	8	n/a	48	n/a	2	n/a	n/a	n/a	n/a	365.574	n/a
335.725	0.497	angry	Picture	30.893	n/a	3	9	9	n/a	49	41	2	n/a	n/a	n/a	n/a	366.104	AF01HAS.jpg
336.222	0.514	Blank	Blank	30.378	n/a	3	9	9	n/a	49	n/a	2	n/a	n/a	n/a	n/a	366.602	n/a
336.753	0.497	angry	Picture	29.865	n/a	3	9	10	n/a	50	73	2	n/a	n/a	n/a	n/a	367.132	AM21HAS.jpg
337.25	0.514	Blank	Blank	29.351	n/a	3	9	10	n/a	50	n/a	2	n/a	n/a	n/a	n/a	367.63	n/a
337.78	0.497	angry	Picture	28.837	n/a	3	9	11	n/a	51	65	2	n/a	n/a	n/a	n/a	368.16	BM06HAS.jpg
338.278	0.514	Blank	Blank	28.323	n/a	3	9	11	n/a	51	n/a	2	n/a	n/a	n/a	n/a	368.658	n/a
338.808	0.497	angry	Picture	27.809	n/a	3	9	12	n/a	52	56	2	n/a	n/a	n/a	n/a	369.188	AF26HAS.jpg
339.306	0.514	Blank	Blank	27.295	n/a	3	9	12	n/a	52	n/a	2	n/a	n/a	n/a	n/a	369.685	n/a
339.836	0.497	angry	Picture	26.781	n/a	3	9	13	n/a	53	45	2	n/a	n/a	n/a	n/a	370.216	BF07HAS.jpg
340.334	0.514	Blank	Blank	26.267	n/a	3	9	13	n/a	53	n/a	2	n/a	n/a	n/a	n/a	370.713	n/a
340.864	0.497	angry	Picture	25.753	n/a	3	9	14	n/a	54	78	2	n/a	n/a	n/a	n/a	371.244	BM26HAS.jpg
341.362	0.514	Blank	Blank	25.239	n/a	3	9	14	n/a	54	n/a	2	n/a	n/a	n/a	n/a	371.741	n/a
341.892	0.497	angry	Picture	24.725	n/a	3	9	15	n/a	55	50	2	n/a	n/a	n/a	n/a	372.272	AF18HAS.jpg
342.389	0.514	Blank	Blank	24.211	n/a	3	9	15	n/a	55	n/a	2	n/a	n/a	n/a	n/a	372.769	n/a
342.92	0.497	angry	Picture	23.697	n/a	3	9	16	n/a	56	47	2	n/a	n/a	n/a	n/a	373.3	BF11HAS.jpg
343.417	0.514	Blank	Blank	23.183	n/a	3	9	16	n/a	56	n/a	2	n/a	n/a	n/a	n/a	373.797	n/a
343.948	0.497	angry	Picture	22.669	n/a	3	9	17	n/a	57	77	2	n/a	n/a	n/a	n/a	374.328	BM25HAS.jpg
344.445	0.514	Blank	Blank	22.155	n/a	3	9	17	n/a	57	n/a	2	n/a	n/a	n/a	n/a	374.825	n/a
344.976	0.497	angry	Picture	21.642	n/a	3	9	18	n/a	58	57	2	n/a	n/a	n/a	n/a	375.355	BF28HAS.jpg
345.473	0.514	Blank	Blank	21.127	n/a	3	9	18	n/a	58	n/a	2	n/a	n/a	n/a	n/a	375.853	n/a
346.004	0.497	angry	Picture	20.614	n/a	3	9	19	n/a	59	61	2	n/a	n/a	n/a	n/a	376.383	AM01HAS.jpg
346.501	0.514	Blank	Blank	20.1	n/a	3	9	19	n/a	59	n/a	2	n/a	n/a	n/a	n/a	376.881	n/a
347.031	0.497	angry	Picture	19.586	n/a	3	9	20	n/a	60	79	2	n/a	n/a	n/a	n/a	377.411	BM28HAS.jpg
347.529	0.514	Blank	Blank	19.072	n/a	3	9	20	n/a	60	n/a	2	n/a	n/a	n/a	n/a	377.909	n/a
348.059	10.014	ITI	Fixation+	9.042	n/a	3	n/a	n/a	n/a	n/a	n/a	n/a	n/a	n/a	n/a	n/a	378.439	n/a
367.115	n/a	ConfirmRating	Rate	n/a	9.035	3	n/a	n/a	0	n/a	n/a	n/a	2	Angry	36	36	397.494	n/a
373.19	n/a	ConfirmRating	Rate	n/a	6.051	3	n/a	n/a	1	n/a	n/a	n/a	3	Angry	37	37	403.57	n/a
373.209	10.014	ITI	Fixation+	100.698	n/a	4	n/a	n/a	n/a	n/a	n/a	n/a	n/a	n/a	n/a	n/a	403.589	n/a
383.24	0.497	happy	Picture	100.184	n/a	4	10	1	n/a	61	119	3	n/a	n/a	n/a	n/a	413.619	BM28ANS.jpg
383.737	0.514	Blank	Blank	99.67	n/a	4	10	1	n/a	61	n/a	3	n/a	n/a	n/a	n/a	414.117	n/a
384.267	0.497	happy	Picture	99.156	n/a	4	10	2	n/a	62	100	3	n/a	n/a	n/a	n/a	414.647	AF32ANS.jpg
384.765	0.514	Blank	Blank	98.642	n/a	4	10	2	n/a	62	n/a	3	n/a	n/a	n/a	n/a	415.145	n/a
385.295	0.497	happy	Picture	98.128	n/a	4	10	3	n/a	63	118	3	n/a	n/a	n/a	n/a	415.675	BM26ANS.jpg
385.793	0.514	Blank	Blank	97.614	n/a	4	10	3	n/a	63	n/a	3	n/a	n/a	n/a	n/a	416.173	n/a
386.323	0.497	happy	Picture	97.1	n/a	4	10	4	n/a	64	89	3	n/a	n/a	n/a	n/a	416.703	AF17ANS.jpg
386.821	0.514	Blank	Blank	96.586	n/a	4	10	4	n/a	64	n/a	3	n/a	n/a	n/a	n/a	417.2	n/a
387.351	0.497	happy	Picture	96.072	n/a	4	10	5	n/a	65	116	3	n/a	n/a	n/a	n/a	417.731	BM24ANS.jpg
387.848	0.514	Blank	Blank	95.558	n/a	4	10	5	n/a	65	n/a	3	n/a	n/a	n/a	n/a	418.228	n/a
388.379	0.497	happy	Picture	95.045	n/a	4	10	6	n/a	66	105	3	n/a	n/a	n/a	n/a	418.759	BM06ANS.jpg
388.876	0.514	Blank	Blank	94.531	n/a	4	10	6	n/a	66	n/a	3	n/a	n/a	n/a	n/a	419.256	n/a
389.407	0.497	happy	Picture	94.017	n/a	4	10	7	n/a	67	106	3	n/a	n/a	n/a	n/a	419.787	AM07ANS.jpg
389.904	0.514	Blank	Blank	93.503	n/a	4	10	7	n/a	67	n/a	3	n/a	n/a	n/a	n/a	420.284	n/a
390.435	0.497	happy	Picture	92.989	n/a	4	10	8	n/a	68	94	3	n/a	n/a	n/a	n/a	420.815	AF23ANS.jpg
390.932	0.514	Blank	Blank	92.475	n/a	4	10	8	n/a	68	n/a	3	n/a	n/a	n/a	n/a	421.312	n/a
391.463	0.497	happy	Picture	91.961	n/a	4	10	9	n/a	69	117	3	n/a	n/a	n/a	n/a	421.842	BM25ANS.jpg
391.96	0.514	Blank	Blank	91.447	n/a	4	10	9	n/a	69	n/a	3	n/a	n/a	n/a	n/a	422.34	n/a
392.49	0.497	happy	Picture	90.933	n/a	4	10	10	n/a	70	90	3	n/a	n/a	n/a	n/a	422.87	AF18ANS.jpg
392.988	0.514	Blank	Blank	90.419	n/a	4	10	10	n/a	70	n/a	3	n/a	n/a	n/a	n/a	423.368	n/a
393.518	0.497	happy	Picture	89.905	n/a	4	10	11	n/a	71	83	3	n/a	n/a	n/a	n/a	423.898	BF04ANS.jpg
394.016	0.514	Blank	Blank	89.391	n/a	4	10	11	n/a	71	n/a	3	n/a	n/a	n/a	n/a	424.396	n/a
394.546	0.497	happy	Picture	88.877	n/a	4	10	12	n/a	72	112	3	n/a	n/a	n/a	n/a	424.926	AM14ANS.jpg
395.044	0.514	Blank	Blank	88.363	n/a	4	10	12	n/a	72	n/a	3	n/a	n/a	n/a	n/a	425.423	n/a
395.574	0.497	happy	Picture	87.849	n/a	4	10	13	n/a	73	102	3	n/a	n/a	n/a	n/a	425.954	BM03ANS.jpg
396.072	0.514	Blank	Blank	87.335	n/a	4	10	13	n/a	73	n/a	3	n/a	n/a	n/a	n/a	426.451	n/a
396.602	0.497	happy	Picture	86.821	n/a	4	10	14	n/a	74	95	3	n/a	n/a	n/a	n/a	426.982	AF25ANS.jpg
397.099	0.514	Blank	Blank	86.307	n/a	4	10	14	n/a	74	n/a	3	n/a	n/a	n/a	n/a	427.479	n/a
397.63	0.497	happy	Picture	85.793	n/a	4	10	15	n/a	75	113	3	n/a	n/a	n/a	n/a	428.01	AM21ANS.jpg
398.127	0.514	Blank	Blank	85.28	n/a	4	10	15	n/a	75	n/a	3	n/a	n/a	n/a	n/a	428.507	n/a
398.658	0.497	happy	Picture	84.766	n/a	4	10	16	n/a	76	88	3	n/a	n/a	n/a	n/a	429.038	AF14ANS.jpg
399.155	0.514	Blank	Blank	84.252	n/a	4	10	16	n/a	76	n/a	3	n/a	n/a	n/a	n/a	429.535	n/a
399.686	0.497	happy	Picture	83.738	n/a	4	10	17	n/a	77	93	3	n/a	n/a	n/a	n/a	430.065	BF22ANS.jpg
400.183	0.514	Blank	Blank	83.224	n/a	4	10	17	n/a	77	n/a	3	n/a	n/a	n/a	n/a	430.563	n/a
400.714	0.497	happy	Picture	82.71	n/a	4	10	18	n/a	78	86	3	n/a	n/a	n/a	n/a	431.093	AF09ANS.jpg
401.211	0.514	Blank	Blank	82.196	n/a	4	10	18	n/a	78	n/a	3	n/a	n/a	n/a	n/a	431.591	n/a
401.742	0.497	happy	Picture	81.682	n/a	4	10	19	n/a	79	92	3	n/a	n/a	n/a	n/a	432.121	AF21ANS.jpg
402.239	0.514	Blank	Blank	81.168	n/a	4	10	19	n/a	79	n/a	3	n/a	n/a	n/a	n/a	432.619	n/a
402.769	0.497	happy	Picture	80.654	n/a	4	10	20	n/a	80	84	3	n/a	n/a	n/a	n/a	433.149	AF05ANS.jpg
403.267	0.514	Blank	Blank	80.14	n/a	4	10	20	n/a	80	n/a	3	n/a	n/a	n/a	n/a	433.647	n/a
403.797	10.014	ITI	Fixation+	70.11	n/a	4	n/a	n/a	n/a	n/a	n/a	n/a	n/a	n/a	n/a	n/a	434.177	n/a
413.827	0.497	neutral	Picture	69.596	n/a	4	11	1	n/a	81	4	1	n/a	n/a	n/a	n/a	444.207	AF05NES.jpg
414.325	0.514	Blank	Blank	69.082	n/a	4	11	1	n/a	81	n/a	1	n/a	n/a	n/a	n/a	444.705	n/a
414.855	0.497	neutral	Picture	68.568	n/a	4	11	2	n/a	82	14	1	n/a	n/a	n/a	n/a	445.235	AF23NES.jpg
415.353	0.514	Blank	Blank	68.054	n/a	4	11	2	n/a	82	n/a	1	n/a	n/a	n/a	n/a	445.733	n/a
415.883	0.497	neutral	Picture	67.54	n/a	4	11	3	n/a	83	19	1	n/a	n/a	n/a	n/a	446.263	AF31NES.jpg
416.381	0.514	Blank	Blank	67.026	n/a	4	11	3	n/a	83	n/a	1	n/a	n/a	n/a	n/a	446.76	n/a
416.911	0.497	neutral	Picture	66.512	n/a	4	11	4	n/a	84	8	1	n/a	n/a	n/a	n/a	447.291	AF14NES.jpg
417.409	0.514	Blank	Blank	65.998	n/a	4	11	4	n/a	84	n/a	1	n/a	n/a	n/a	n/a	447.788	n/a
417.939	0.497	neutral	Picture	65.485	n/a	4	11	5	n/a	85	25	1	n/a	n/a	n/a	n/a	448.319	BM06NES.jpg
418.436	0.514	Blank	Blank	64.971	n/a	4	11	5	n/a	85	n/a	1	n/a	n/a	n/a	n/a	448.816	n/a
418.967	0.497	neutral	Picture	64.457	n/a	4	11	6	n/a	86	9	1	n/a	n/a	n/a	n/a	449.347	AF17NES.jpg
419.464	0.514	Blank	Blank	63.943	n/a	4	11	6	n/a	86	n/a	1	n/a	n/a	n/a	n/a	449.844	n/a
419.995	0.497	neutral	Picture	63.429	n/a	4	11	7	n/a	87	2	1	n/a	n/a	n/a	n/a	450.375	AF03NES.jpg
420.492	0.514	Blank	Blank	62.915	n/a	4	11	7	n/a	87	n/a	1	n/a	n/a	n/a	n/a	450.872	n/a
421.023	0.497	neutral	Picture	62.401	n/a	4	11	8	n/a	88	17	1	n/a	n/a	n/a	n/a	451.402	BF28NES.jpg
421.52	0.514	Blank	Blank	61.887	n/a	4	11	8	n/a	88	n/a	1	n/a	n/a	n/a	n/a	451.9	n/a
422.05	0.497	neutral	Picture	61.373	n/a	4	11	9	n/a	89	6	1	n/a	n/a	n/a	n/a	452.43	AF09NES.jpg
422.548	0.514	Blank	Blank	60.859	n/a	4	11	9	n/a	89	n/a	1	n/a	n/a	n/a	n/a	452.928	n/a
423.078	0.497	neutral	Picture	60.345	n/a	4	11	10	n/a	90	12	1	n/a	n/a	n/a	n/a	453.458	AF21NES.jpg
423.576	0.514	Blank	Blank	59.831	n/a	4	11	10	n/a	90	n/a	1	n/a	n/a	n/a	n/a	453.956	n/a
424.106	0.497	neutral	Picture	59.317	n/a	4	11	11	n/a	91	24	1	n/a	n/a	n/a	n/a	454.486	BM05NES.jpg
424.604	0.514	Blank	Blank	58.803	n/a	4	11	11	n/a	91	n/a	1	n/a	n/a	n/a	n/a	454.983	n/a
425.134	0.497	neutral	Picture	58.289	n/a	4	11	12	n/a	92	34	1	n/a	n/a	n/a	n/a	455.514	AM22NES.jpg
425.632	0.514	Blank	Blank	57.775	n/a	4	11	12	n/a	92	n/a	1	n/a	n/a	n/a	n/a	456.011	n/a
426.162	0.497	neutral	Picture	57.261	n/a	4	11	13	n/a	93	23	1	n/a	n/a	n/a	n/a	456.542	AM04NES.jpg
426.659	0.514	Blank	Blank	56.747	n/a	4	11	13	n/a	93	n/a	1	n/a	n/a	n/a	n/a	457.039	n/a
427.19	0.497	neutral	Picture	56.234	n/a	4	11	14	n/a	94	15	1	n/a	n/a	n/a	n/a	457.57	AF25NES.jpg
427.687	0.514	Blank	Blank	55.72	n/a	4	11	14	n/a	94	n/a	1	n/a	n/a	n/a	n/a	458.067	n/a
428.218	0.497	neutral	Picture	55.206	n/a	4	11	15	n/a	95	37	1	n/a	n/a	n/a	n/a	458.598	BM25NES.jpg
428.715	0.514	Blank	Blank	54.692	n/a	4	11	15	n/a	95	n/a	1	n/a	n/a	n/a	n/a	459.095	n/a
429.246	0.497	neutral	Picture	54.178	n/a	4	11	16	n/a	96	32	1	n/a	n/a	n/a	n/a	459.625	AM14NES.jpg
429.743	0.514	Blank	Blank	53.664	n/a	4	11	16	n/a	96	n/a	1	n/a	n/a	n/a	n/a	460.123	n/a
430.274	0.497	neutral	Picture	53.15	n/a	4	11	17	n/a	97	3	1	n/a	n/a	n/a	n/a	460.653	BF04NES.jpg
430.771	0.514	Blank	Blank	52.636	n/a	4	11	17	n/a	97	n/a	1	n/a	n/a	n/a	n/a	461.151	n/a
431.302	0.497	neutral	Picture	52.122	n/a	4	11	18	n/a	98	16	1	n/a	n/a	n/a	n/a	461.681	AF26NES.jpg
431.799	0.514	Blank	Blank	51.608	n/a	4	11	18	n/a	98	n/a	1	n/a	n/a	n/a	n/a	462.179	n/a
432.329	0.497	neutral	Picture	51.094	n/a	4	11	19	n/a	99	27	1	n/a	n/a	n/a	n/a	462.709	BM08NES.jpg
432.827	0.514	Blank	Blank	50.58	n/a	4	11	19	n/a	99	n/a	1	n/a	n/a	n/a	n/a	463.207	n/a
433.357	0.497	neutral	Picture	50.066	n/a	4	11	20	n/a	100	28	1	n/a	n/a	n/a	n/a	463.737	AM09NES.jpg
433.855	0.514	Blank	Blank	49.552	n/a	4	11	20	n/a	100	n/a	1	n/a	n/a	n/a	n/a	464.234	n/a
434.385	10.014	ITI	Fixation+	39.522	n/a	4	n/a	n/a	n/a	n/a	n/a	n/a	n/a	n/a	n/a	n/a	464.765	n/a
444.415	0.497	happy	Picture	39.008	n/a	4	12	1	n/a	101	81	3	n/a	n/a	n/a	n/a	474.795	AF01ANS.jpg
444.913	0.514	Blank	Blank	38.494	n/a	4	12	1	n/a	101	n/a	3	n/a	n/a	n/a	n/a	475.293	n/a
445.443	0.497	happy	Picture	37.98	n/a	4	12	2	n/a	102	120	3	n/a	n/a	n/a	n/a	475.823	AM35ANS.jpg
445.941	0.514	Blank	Blank	37.466	n/a	4	12	2	n/a	102	n/a	3	n/a	n/a	n/a	n/a	476.32	n/a
446.471	0.497	happy	Picture	36.952	n/a	4	12	3	n/a	103	114	3	n/a	n/a	n/a	n/a	476.851	AM22ANS.jpg
446.969	0.514	Blank	Blank	36.438	n/a	4	12	3	n/a	103	n/a	3	n/a	n/a	n/a	n/a	477.348	n/a
447.499	0.497	happy	Picture	35.924	n/a	4	12	4	n/a	104	109	3	n/a	n/a	n/a	n/a	477.879	AM10ANS.jpg
447.996	0.514	Blank	Blank	35.411	n/a	4	12	4	n/a	104	n/a	3	n/a	n/a	n/a	n/a	478.376	n/a
448.527	0.497	happy	Picture	34.897	n/a	4	12	5	n/a	105	96	3	n/a	n/a	n/a	n/a	478.907	AF26ANS.jpg
449.024	0.514	Blank	Blank	34.383	n/a	4	12	5	n/a	105	n/a	3	n/a	n/a	n/a	n/a	479.404	n/a
449.555	0.497	happy	Picture	33.869	n/a	4	12	6	n/a	106	82	3	n/a	n/a	n/a	n/a	479.935	AF03ANS.jpg
450.052	0.514	Blank	Blank	33.355	n/a	4	12	6	n/a	106	n/a	3	n/a	n/a	n/a	n/a	480.432	n/a
450.583	0.497	happy	Picture	32.841	n/a	4	12	7	n/a	107	97	3	n/a	n/a	n/a	n/a	480.962	BF28ANS.jpg
451.08	0.514	Blank	Blank	32.327	n/a	4	12	7	n/a	107	n/a	3	n/a	n/a	n/a	n/a	481.46	n/a
451.611	0.497	happy	Picture	31.813	n/a	4	12	8	n/a	108	115	3	n/a	n/a	n/a	n/a	481.99	AM23ANS.jpg
452.108	0.514	Blank	Blank	31.299	n/a	4	12	8	n/a	108	n/a	3	n/a	n/a	n/a	n/a	482.488	n/a
452.638	0.497	happy	Picture	30.785	n/a	4	12	9	n/a	109	91	3	n/a	n/a	n/a	n/a	483.018	AF20ANS.jpg
453.136	0.514	Blank	Blank	30.271	n/a	4	12	9	n/a	109	n/a	3	n/a	n/a	n/a	n/a	483.516	n/a
453.666	0.497	happy	Picture	29.757	n/a	4	12	10	n/a	110	87	3	n/a	n/a	n/a	n/a	484.046	BF11ANS.jpg
454.164	0.514	Blank	Blank	29.243	n/a	4	12	10	n/a	110	n/a	3	n/a	n/a	n/a	n/a	484.543	n/a
454.694	0.497	happy	Picture	28.729	n/a	4	12	11	n/a	111	85	3	n/a	n/a	n/a	n/a	485.074	BF07ANS.jpg
455.192	0.514	Blank	Blank	28.215	n/a	4	12	11	n/a	111	n/a	3	n/a	n/a	n/a	n/a	485.571	n/a
455.722	0.497	happy	Picture	27.701	n/a	4	12	12	n/a	112	110	3	n/a	n/a	n/a	n/a	486.102	AM11ANS.jpg
456.219	0.514	Blank	Blank	27.187	n/a	4	12	12	n/a	112	n/a	3	n/a	n/a	n/a	n/a	486.599	n/a
456.75	0.497	happy	Picture	26.674	n/a	4	12	13	n/a	113	111	3	n/a	n/a	n/a	n/a	487.13	BM12ANS.jpg
457.247	0.514	Blank	Blank	26.16	n/a	4	12	13	n/a	113	n/a	3	n/a	n/a	n/a	n/a	487.627	n/a
457.778	0.497	happy	Picture	25.646	n/a	4	12	14	n/a	114	103	3	n/a	n/a	n/a	n/a	488.158	AM04ANS.jpg
458.275	0.514	Blank	Blank	25.132	n/a	4	12	14	n/a	114	n/a	3	n/a	n/a	n/a	n/a	488.655	n/a
458.806	0.497	happy	Picture	24.618	n/a	4	12	15	n/a	115	101	3	n/a	n/a	n/a	n/a	489.185	AM01ANS.jpg
459.303	0.514	Blank	Blank	24.104	n/a	4	12	15	n/a	115	n/a	3	n/a	n/a	n/a	n/a	489.683	n/a
459.834	0.497	happy	Picture	23.59	n/a	4	12	16	n/a	116	104	3	n/a	n/a	n/a	n/a	490.213	BM05ANS.jpg
460.331	0.514	Blank	Blank	23.076	n/a	4	12	16	n/a	116	n/a	3	n/a	n/a	n/a	n/a	490.711	n/a
460.862	0.497	happy	Picture	22.562	n/a	4	12	17	n/a	117	107	3	n/a	n/a	n/a	n/a	491.241	BM08ANS.jpg
461.359	0.514	Blank	Blank	22.048	n/a	4	12	17	n/a	117	n/a	3	n/a	n/a	n/a	n/a	491.739	n/a
461.889	0.497	happy	Picture	21.534	n/a	4	12	18	n/a	118	98	3	n/a	n/a	n/a	n/a	492.269	BF29ANS.jpg
462.387	0.514	Blank	Blank	21.02	n/a	4	12	18	n/a	118	n/a	3	n/a	n/a	n/a	n/a	492.767	n/a
462.917	0.497	happy	Picture	20.506	n/a	4	12	19	n/a	119	99	3	n/a	n/a	n/a	n/a	493.297	AF31ANS.jpg
463.415	0.514	Blank	Blank	19.992	n/a	4	12	19	n/a	119	n/a	3	n/a	n/a	n/a	n/a	493.794	n/a
463.945	0.497	happy	Picture	19.478	n/a	4	12	20	n/a	120	108	3	n/a	n/a	n/a	n/a	494.325	AM09ANS.jpg
464.442	0.514	Blank	Blank	18.964	n/a	4	12	20	n/a	120	n/a	3	n/a	n/a	n/a	n/a	494.822	n/a
464.973	10.014	ITI	Fixation+	8.934	n/a	4	n/a	n/a	n/a	n/a	n/a	n/a	n/a	n/a	n/a	n/a	495.353	n/a
483.921	n/a	ConfirmRating	Rate	n/a	8.919	4	n/a	n/a	0	n/a	n/a	n/a	2	Happy	67	67	514.301	n/a
489.129	n/a	ConfirmRating	Rate	n/a	5.205	4	n/a	n/a	1	n/a	n/a	n/a	3	Happy	33	33	519.509	n/a
